time,seconds_elapsed,z,y,x
1789147778243934700,1.541934814453125,-1.1887690363943781,1.009033043479182,0.37023781027933295
1789147778253906700,1.55190673828125,4.515869300802304,2.774246371826338,1.1626926579330112
1789147778263879700,1.561879638671875,1.242788612385806,2.703737767283983,2.131867096759083
1789147778273851600,1.5718515625,-5.387927768982825,-0.12476256710807156,0.767178727593378
1789147778283824600,1.58182470703125,-5.364659592327926,-0.13089613543989795,0.8084143745766181
1789147778293796900,1.591796875,0.013397077137981635,-5.455794686795945,3.24551412834422
1789147778303768600,1.6017685546875,-5.083426917749839,-2.2495372645659097,4.801657511093803
1789147778313741600,1.611741455078125,0.5297156995799849,0.5282233663572065,2.2314203012937988
1789147778323713800,1.6217138671875,5.220557368335128,2.2884394901906893,3.234723154861727
1789147778333685800,1.631685791015625,2.076483730746947,2.400998136189355,4.443267389370627
1789147778343658800,1.64165869140625,2.4117604520860225,1.4659029455361263,3.2645036015472066
1789147778353630700,1.651630615234375,0.9339555139216553,0.5194240807372521,2.6616041863076547
1789147778363602700,1.661602783203125,-1.4825006212265173,-0.4274864664229875,3.194160784909663
1789147778373575700,1.67157568359375,-1.073465482242084,-0.37254890033544824,2.3418887251439027
1789147778383548000,1.6815478515625,-1.0630999486521853,-0.3807058763067796,2.3836880612716858
1789147778393521000,1.69152099609375,2.6883482109304393,-1.5639117392434334,1.5991764724889486
1789147778403492600,1.70149267578125,1.892873431988621,-1.1594682427548877,1.162890128798854
1789147778413464800,1.71146484375,1.9088599087967426,-1.1684690744598991,1.2055222744668692
1789147778423437800,1.721437744140625,-0.17683195101141336,0.13515530533743333,1.1405523815770409
1789147778433409800,1.731409912109375,-0.1616339651953001,0.12722552472200577,1.1763505255922833
1789147778443381800,1.7413818359375,-0.9443945247300662,0.020836237027066593,1.40927615367518
1789147778453354800,1.751354736328125,0.37988092700106496,-1.535079710023234,1.3260835145140744
1789147778463326700,1.76132666015625,0.8755951187069714,-2.443342881315684,1.2606550641117644
1789147778473298700,1.771298583984375,1.6600458231371786,0.8864599574304176,1.4749488626043386
1789147778483272000,1.78127197265625,1.037063477706007,1.4571749569657069,1.196731306981907
1789147778493243600,1.79124365234375,0.9849381433440987,0.26609607187167433,1.7466681323476076
1789147778503216600,1.801216552734375,-3.2611571975982256,-1.0167434731469822,2.0457017372530735
1789147778513188900,1.81118896484375,-4.002117005965125,-1.3282596634698156,2.69911822239067
1789147778523160600,1.82116064453125,-2.080443640106542,-2.5925672453670945,2.8600558014341306
1789147778533133800,1.8311337890625,-2.0551606935994333,-2.601080577867013,2.8902829428083314
1789147778543105800,1.841105712890625,-0.3403728885170671,-0.06153545380057822,1.246687306396793
1789147778553077800,1.851077880859375,1.8577720111410065,-0.28319513127605483,1.7882981215258933
1789147778563050800,1.86105078125,-2.390562413110752,-1.4233938147832168,2.2306664637103393
1789147778573022700,1.871022705078125,-1.9653048290487256,-3.606482392620546,2.804878839106493
1789147778582994700,1.88099462890625,-1.953498801706665,-3.61249219763892,2.8255574254675815
1789147778592967700,1.8909677734375,-2.2068609829803942,-0.9840333098722277,3.5919989354665085
1789147778602940000,1.90093994140625,-2.6742052974864183,0.538426604244133,2.331994371195532
1789147778612912600,1.91091259765625,-0.4827197605055512,1.306985417441237,2.0059311495803334
1789147778622884900,1.920884765625,2.1048992084437774,1.2686305764786936,2.2384637260517377
1789147778632856800,1.93085693359375,0.04763962406363782,0.017346096892640262,1.6706948219798856
1789147778642829600,1.94082958984375,-0.4324887592342291,-1.661282148276457,1.6737533198018935
1789147778652801800,1.9508017578125,-0.42857710922981285,-1.6651752274450156,1.6869357483307024
1789147778662773800,1.960773681640625,-0.4894747713079211,-1.2940896492422147,1.4890307151751183
1789147778672746800,1.970746826171875,0.05841602810266783,-1.0883999604135204,1.6066602822464853
1789147778682718700,1.98071875,-0.38890705535517966,-0.06222601487916236,2.72767790464805
1789147778692691000,1.99069091796875,1.7555834034816278,0.4230981944597034,2.3955730544118494
1789147778702663700,2.00066357421875,1.4585559536353871,0.07276229425364428,2.276046177334087
1789147778712635600,2.0106357421875,0.6859913010576202,-0.6375991918451063,1.6919870954346687
1789147778722609000,2.02060888671875,0.03783634782081587,-1.6784883551013812,1.9571325247890992
1789147778732580600,2.03058056640625,-1.3613808402573973,-1.215396991999116,2.2748252870198735
1789147778742552800,2.040552734375,-1.2902873526474674,-2.1874525495315207,1.3800551983776872
1789147778752525800,2.05052587890625,-2.4630189245616623,-1.5115745164812724,1.888607903802505
1789147778762497500,2.06049755859375,-2.4797730441942676,0.2545102422924284,2.9789331602478613
1789147778772469800,2.0704697265625,0.8595345096160093,0.11514202410830056,1.653695544908831
1789147778782442800,2.08044287109375,1.6428546217679645,-1.0641656823474321,1.519503554210748
1789147778792414700,2.090414794921875,1.3349608430607491,-1.012609670424258,1.947864541781131
1789147778802387700,2.1003876953125,1.3147383919294595,-1.00716336361435,1.9313643075858158
1789147778812360000,2.11035986328125,2.7970719505516857,0.47835578903055564,0.8115819696881117
1789147778822331600,2.12033154296875,1.8664319668468063,2.1053960432439567,0.9976012313180785
1789147778832304600,2.1303046875,-3.260589124934486,-0.7266579648809598,2.787461283389872
1789147778842276900,2.14027685546875,0.5990119773909489,-1.465670378662507,1.2495170529501116
1789147778852248600,2.15024853515625,-1.4517723155324918,0.3656535211318261,1.5802298777426214
1789147778862221800,2.160221923828125,-2.4988587379474985,0.7313410426182818,0.37609035580563527
1789147778872193800,2.17019384765625,2.115137639455435,-0.5370504410411048,0.5916923849079091
1789147778882165800,2.180165771484375,2.093642869101613,-0.5299070873074966,0.5663439259018581
1789147778892138800,2.190138671875,0.9659395933921614,-1.1312419571554573,0.6147934113748452
1789147778902110700,2.20011083984375,1.0701110814701018,-0.5430079431491147,0.6524190188248435
1789147778912083700,2.210083740234375,0.5731446015420716,0.5177991419438475,-0.1333738156492068
1789147778922056000,2.220055908203125,1.623585751314819,3.31009207342816,1.614440637017072
1789147778932028200,2.230028076171875,1.158888465496663,4.8493143559778,1.6117570177882432
1789147778942001200,2.240001220703125,0.211590799252232,-0.24796986185789602,1.564351620321227
1789147778951972900,2.249972900390625,0.21886287532247384,-0.24077529189028302,1.5324904457412933
1789147778961945000,2.259945068359375,-5.844392175088166,-5.521402075357823,3.5383191737178588
1789147778971918000,2.26991796875,-5.639278102295903,-3.5777055280803682,2.1736488286094398
1789147778981890000,2.27989013671875,2.334820401142703,-2.739752985275819,0.9620353840907923
1789147778991862000,2.289862060546875,-0.25477478806944953,-0.7527324190758342,2.201848348741927
1789147779001835000,2.2998349609375,-1.183036810509115,1.112665437871657,1.8773786929992016
1789147779011807000,2.309806884765625,1.436837649004715,2.400439378163532,1.7975650114301656
1789147779021780000,2.319780029296875,4.618819483300924,0.6803677616644228,2.423833204076629
1789147779031752200,2.329752197265625,1.5680885444848804,0.32136713857451643,2.630078558320139
1789147779041724000,2.339723876953125,-1.2533412513359712,-0.2612626118604168,-0.07218634545295362
1789147779051697000,2.34969677734375,-1.0671949917231747,1.0655748856061806,-0.5365248028502212
1789147779061669000,2.359669189453125,0.2963005429938616,1.6674507237948313,0.14880127524146736
1789147779071641000,2.36964111328125,1.9179496662172406,0.4304643873946752,0.2992824475772625
1789147779081614000,2.379614013671875,1.9191828519389273,0.43672864182781024,0.2644190073334837
1789147779091585800,2.389585693359375,-2.046596608132517,-1.5101993228232158,0.6879088397874173
1789147779101558000,2.39955810546875,-2.7168214228669934,-1.9045134262286367,-0.7286152910173804
1789147779111531000,2.409531005859375,-2.0564428378053634,-1.4066667163717703,1.655070785431889
1789147779121503000,2.4195029296875,-1.049560069706855,-1.003912188877019,0.7573693614022132
1789147779131476000,2.42947607421875,-2.0331167883615593,0.23379649910790348,0.6922451129924522
1789147779141448000,2.439447998046875,-5.653893210371606,2.995051920246893,0.7098036311640297
1789147779151420000,2.449419921875,-2.7457402382364324,5.141190582900253,-0.3030343826647465
1789147779161393000,2.459392822265625,7.944991374829859,2.9104494436426838,1.1104891874331857
1789147779171365000,2.469365234375,6.876092120555476,0.3709267862561701,1.4422556905514368
1789147779181336800,2.4793369140625,1.2336105071636285,-4.501286636778467,1.3506341646781959
1789147779191309800,2.489309814453125,-1.8942618506257873,-3.62757888597572,-2.3957105716084075
1789147779201282000,2.499281982421875,-1.9365452371300975,-0.0416857667880807,-1.5564450838888004
1789147779211253800,2.509253662109375,5.09223345441645,0.7096172330779404,0.7261759124286874
1789147779221227000,2.51922705078125,5.56232792240266,-2.3779374408485463,3.05684595843647
1789147779231199000,2.529198974609375,-7.711647813252202,0.09576722517295638,2.2175923544694993
1789147779241172000,2.539171875,3.1533270425479953,-0.8105732615240976,1.4609466646613984
1789147779251144000,2.54914404296875,2.4608952632648258,1.5670868247911967,3.3082395418407256
1789147779261116000,2.559115966796875,-6.93690635514963,3.4157571475407376,0.6120833774186705
1789147779271089200,2.569089111328125,-3.083976012240729,1.4670513494248283,0.2763788484635033
1789147779281060900,2.579060791015625,8.537595428016841,-3.6853414075259923,2.673724093769545
1789147779291033000,2.589033203125,-3.840352869309943,-1.1349249372369925,3.1990177520065393
1789147779301006000,2.599006103515625,-8.585763874583044,1.5958881067610733,0.15260529641846088
1789147779310978000,2.60897802734375,8.38772388767766,0.2654609483337975,1.3331048289503356
1789147779320950000,2.618949951171875,3.266814709159542,0.9886173623428148,2.070981990828105
1789147779330923000,2.628923095703125,-11.507326334828566,-0.268301940185732,-0.27317451968600365
1789147779340895000,2.63889501953125,-2.303623027563089,-4.922660788494823,1.4784550206698204
1789147779350868000,2.648867919921875,2.2873789789363586,-4.07359159827304,5.223390120088557
1789147779360840200,2.658840087890625,-2.2211175371178564,-0.16617298103402586,2.068665819412287
1789147779370812000,2.66881201171875,-1.9188531401739712,2.2342418935164066,0.7425790111776606
1789147779380785000,2.678784912109375,3.6253748896096547,1.41017820270012,3.0866955446567306
1789147779390757000,2.688757080078125,3.4751872894200857,1.7244994013696597,2.366895817544426
1789147779400728800,2.698728759765625,0.9129377504323752,2.1966748796268076,-0.12175542814608652
1789147779410702000,2.7087021484375,0.9177612954709674,2.1936628728779723,-0.1037340474269002
1789147779420674000,2.718674072265625,-0.9070525621585204,-0.009196374175371759,1.8926420314949526
1789147779430646000,2.72864599609375,-3.484539859538499,-1.243035404514731,0.10541835824409923
1789147779440619000,2.738618896484375,-0.8178129638172268,-0.5639902273970918,0.389603911902365
1789147779450591000,2.748591064453125,3.085764130783355,0.6605392668135763,1.1200356780470178
1789147779460563000,2.75856298828125,-0.7526117841147588,0.20201889498894593,1.1052296330756148
1789147779470536000,2.768535888671875,3.7007545401008812,-0.6446592975252625,0.20722191093060752
1789147779480508200,2.778508056640625,-0.026822313402169205,0.21351496339582188,2.2781904617927564
1789147779490481000,2.78848095703125,0.5935806429474717,-0.17015765957523823,2.2992093026863896
1789147779500453000,2.798453125,-1.3894121764097982,-1.1170763674188477,2.3532017120872055
1789147779510425000,2.808425048828125,-1.6565367095381303,-1.5293599922940022,1.6412925631977668
1789147779520397800,2.818397705078125,-1.2527133537311634,-1.4318299452382808,1.2032662650940757
1789147779530370000,2.8283701171875,1.7871063184130602,-0.4951645493729885,0.6788966111848875
1789147779540342000,2.838342041015625,-3.9559971503813367,-0.788116763207935,1.5615719209845993
1789147779550315000,2.84831494140625,-2.16880909985494,-0.9509914021494772,0.7953493743936991
1789147779560287000,2.858286865234375,-1.7179023912550153,-4.824661505987064,1.520523390673534
1789147779570260000,2.868260009765625,1.1962354485302522,-5.98039890130884,2.934603032185849
1789147779580232000,2.87823193359375,0.4844414920535577,-3.209945114085314,5.280898805247921
1789147779590204000,2.888203857421875,0.8302887540919894,-0.1643607693146078,3.17089926257555
1789147779600177200,2.89817724609375,7.6556369966550255,2.7550795499887304,2.033636423572791
1789147779610148900,2.90814892578125,3.7799185681871905,4.650485489218947,3.9742360423928207
1789147779620121000,2.91812109375,4.03035038623799,4.045351356651188,2.091214057690482
1789147779630094000,2.928093994140625,3.329041717905044,1.0354356349945075,2.6680252695051823
1789147779640065800,2.938065673828125,1.216616421816679,-0.2826544203852076,4.404280207073148
1789147779650038000,2.9480380859375,5.897626002155601,1.082193534747418,3.519054130065124
1789147779660011000,2.958010986328125,-1.83834222511036,1.3890568183507328,3.978628529369811
1789147779669983000,2.96798291015625,-5.1889262074386755,-1.3511078501202411,1.2966081213253493
1789147779679955000,2.977954833984375,-4.176012915132582,-1.670517068559567,0.6527151298418356
1789147779689928000,2.987927978515625,0.9450764447338946,-3.36897771709544,0.21329500294514034
1789147779699900000,2.99789990234375,0.08147840840352998,-1.4917709335429092,1.586609593729457
1789147779709873000,3.007872802734375,4.297450517832101,-1.4615892791800202,-0.5153427753534874
1789147779719845000,3.01784521484375,-1.2834770895905443,-2.2539050121279147,-0.5896078389782282
1789147779729816800,3.02781689453125,-0.04903456588305757,-3.2353848922063224,0.0005648597458597814
1789147779739790000,3.0377900390625,-2.05220863194063,-0.4326518432920547,1.2116978087118826
1789147779749762000,3.047761962890625,-2.0504129412950807,-0.43172251424134217,1.2076918033732849
1789147779759734000,3.057734130859375,-3.680010424728326,0.6345265901470453,1.0411372920227198
1789147779769707000,3.06770703125,-3.7255312700531378,1.0866597279141856,1.0120804389091869
1789147779779679000,3.077678955078125,1.639629092885434,0.9637289765518079,0.6681071753385455
1789147779789651000,3.08765087890625,1.6370961899465033,0.9615781222145757,0.6771389584990974
1789147779799624000,3.0976240234375,-3.926727888612053,0.6131381481648398,-0.25342169311421164
1789147779809596200,3.10759619140625,-13.254567149173528,-6.768768480629538,1.1174258578476077
1789147779819569200,3.117569091796875,2.9651567511002734,-8.886678093840095,2.923769922541113
1789147779829540900,3.127540771484375,1.1736164590602645,-4.266106824987352,4.068421118344623
1789147779839513000,3.13751318359375,1.8520861058119504,-2.3678452351971813,0.7598016915226665
1789147779849485800,3.14748583984375,2.345075043461491,-1.1117690384956351,1.013712812790187
1789147779859458000,3.1574580078125,-2.388019143157629,1.8520289822645726,2.419888152132776
1789147779869430000,3.167429931640625,1.398419292528853,0.9254046727342614,2.3622491310077174
1789147779879402800,3.17740283203125,3.4898640768808344,0.9916496390083822,1.8704585824372602
1789147779889375000,3.187375,-6.324654761880704,3.5961661869912573,1.0939734778759136
1789147779899347000,3.197346923828125,-3.5514818121161285,1.764948732218847,-1.1312593907063153
1789147779909320000,3.20731982421875,4.3883228055224075,0.2864200076637564,-1.2237318927829317
1789147779919292000,3.2172919921875,-0.4690470515540265,0.7432254561998958,-1.2804345377728747
1789147779929264600,3.2272646484375,-2.1628263541890327,2.190796708856399,-1.2428570358497597
1789147779939236600,3.237236572265625,4.643129438560994,2.6911563097559634,0.010676992672749578
1789147779949208800,3.247208740234375,-0.5451851952719309,1.557193430961127,2.731887473916051
1789147779959181600,3.257181640625,-1.1321932399418724,-2.640188241115167,3.475229155277833
1789147779969153500,3.267153564453125,1.1212005615885503,-4.159771286955446,3.995220301605714
1789147779979125800,3.277125732421875,-2.0707931861660005,-2.427297972028883,3.065119383525668
1789147779989098500,3.287098388671875,-1.8677555234718004,0.6334958491936545,1.0518463287957276
1789147779999070700,3.29707080078125,-0.3054086588495204,2.6407189985710597,1.0449832365681817
1789147780009042700,3.307042724609375,-0.3227202943347631,2.6476743267866714,1.0129143814125912
1789147780019015400,3.317015380859375,2.5515648660384422,-0.8535085337211291,2.428767141749195
1789147780028987600,3.326987548828125,0.08825592296041478,-2.0155979373753277,1.7060901447848091
1789147780038960600,3.336960693359375,0.6992866976335791,-1.1207078877180199,1.954869508109228
1789147780048932600,3.3469326171875,-0.34770726722620776,-0.2033479433547654,2.000986297114812
1789147780058904600,3.356904541015625,-0.3585605925638201,-0.19734429744371013,1.9696517479529598
1789147780068877800,3.3668779296875,-0.12866691911245548,0.2792385616658449,2.908640765065599
1789147780078849500,3.376849609375,3.567637848600461,0.14272520826428842,2.7334723679133504
1789147780088821800,3.38682177734375,4.015380005401419,1.3527630324779425,2.448932644424137
1789147780098794800,3.396794677734375,-1.723717462436545,-0.7969594247847381,2.6540246350121546
1789147780108766500,3.406766357421875,-1.729828498589778,-0.7893484971624557,2.60739897752215
1789147780118738700,3.41673876953125,-0.8983154418846796,-3.5986014707721363,1.7108993254065294
1789147780128711700,3.426711669921875,-2.7266118166890467,-2.4492692128814824,1.124158732279835
1789147780138683600,3.43668359375,-1.2208244169456763,-1.1712469587853915,-0.05487289724299916
1789147780148655600,3.446655517578125,-1.7256548859315717,1.2919196609857906,0.24795043289973742
1789147780158628600,3.456628662109375,-1.7548966470563188,1.2999367803980542,0.19197184106265383
1789147780168600600,3.4666005859375,3.148497210760058,0.35724080643978723,0.29091294373196236
1789147780178573600,3.476573486328125,3.132001905917228,0.3647326811157225,0.23154792423982704
1789147780188545800,3.4865458984375,0.6111673715926815,1.172569601330902,-0.9289426106239116
1789147780198517500,3.496517578125,6.083173442984018,-0.3568581015251322,-0.5574331185060935
1789147780208490500,3.506490478515625,6.076830307822144,-0.3507117434646144,-0.6153086813590575
1789147780218462700,3.516462646484375,-4.97029187938055,1.5404206870001471,0.7747767611452444
1789147780228434700,3.5264345703125,-4.9806820885687255,1.5453699075803546,0.7226230743591249
1789147780238407700,3.53640771484375,8.256240105462695,2.4794774142524547,-2.3717200398945435
1789147780248379600,3.546379638671875,4.257786475613396,3.3306877563163066,-0.579797102563993
1789147780258351600,3.5563515625,-1.7394155982679982,1.1177666817607665,-0.3546763255288835
1789147780268324600,3.56632470703125,-7.08907486002392,-2.937581057097191,1.7722193814537328
1789147780278296800,3.576296875,-7.09169660732123,-2.933830887718954,1.7116526610894864
1789147780288269800,3.586269775390625,-2.7171824545937193,-5.880815665209348,-0.7116636875228306
1789147780298241500,3.596241455078125,-0.9492195705758583,-1.5919735926372747,0.8023272407882511
1789147780308213800,3.6062138671875,-0.9688416011277095,-1.5892354833704874,0.7354608664852302
1789147780318186800,3.616186767578125,2.2106037571500545,2.3271494613931316,1.1764665654671884
1789147780328158700,3.62615869140625,2.1944566634518297,2.3288257521745477,1.1128984708213416
1789147780338130700,3.636130615234375,-1.9257267085035275,0.15826914649341317,-0.39223480213669276
1789147780348103700,3.646103759765625,-2.9508697756302134,-0.45774192121891627,-2.82516673419469
1789147780358075600,3.65607568359375,-2.954941551944716,-0.45720555985566164,-2.890640722364693
1789147780368047600,3.666047607421875,-1.6330287800776169,-0.3906025734710118,-4.304657235687374
1789147780378020900,3.676020751953125,-2.8834320817434564,-0.24262947991160877,-2.9873482342546014
1789147780387992600,3.68599267578125,6.755092111328198,1.851116766944315,-1.5526214240473533
1789147780397965600,3.695965576171875,2.9569958441192066,2.756586115963006,-1.9718061808732725
1789147780407937800,3.705937744140625,2.9635672921413647,2.7552514327095037,-2.0289788582261186
1789147780417909500,3.715909423828125,-1.8298957002272547,-0.5937424654767418,-2.170753579179748
1789147780427882800,3.7258828125,-0.5348363705435425,-1.829953649632695,-1.306771104775647
1789147780437854700,3.735854736328125,-4.78876447407423,-0.046965457895791374,-3.699069086971638
1789147780447826700,3.74582666015625,-1.2188766730261413,0.5913698598969898,-2.0396889004338186
1789147780457799700,3.755799560546875,3.5794646121086324,-0.36050714831913433,1.2283975625113586
1789147780467771600,3.765771728515625,0.3341062435217897,2.4234059460833683,1.9154234738557843
1789147780477743600,3.77574365234375,-0.024798149876431697,3.023828156478714,0.5823093527012961
1789147780487716600,3.785716552734375,0.2574170213956598,1.7978641825712485,-0.8666971788925036
1789147780497688800,3.795688720703125,-6.149174233574066,-2.69649398038458,1.7770133688422063
1789147780507660500,3.80566064453125,-5.159131679528339,-5.436659761826244,0.791833667722521
1789147780517633800,3.8156337890625,-4.634706607575256,-3.2572609660579115,-0.6772571177898495
1789147780527605800,3.825605712890625,-2.9456465117972597,0.8177469327357514,0.29321183514574184
1789147780537578500,3.83557861328125,2.1683587758877207,2.1795421771327654,-0.05861158300416995
1789147780547550700,3.84555078125,6.157920975598777,-0.4489497973792158,1.8662158458154436
1789147780557522700,3.855522705078125,0.43345655047442344,-0.9522471917283037,2.4518879618212894
1789147780567495700,3.86549560546875,-0.8958274058703424,-1.9807911810980816,1.2315183895152253
1789147780577467600,3.875467529296875,0.8475567408835237,-1.3069643681749654,0.3028447030537006
1789147780587439900,3.88543994140625,-2.0811363084583756,-1.0458939573691708,-0.9584606300660646
1789147780597412600,3.89541259765625,-2.994089959391576,-0.7031917573920915,-1.9529277592209768
1789147780607384600,3.905384521484375,-1.793066630992347,0.1382943324894932,-2.8115596649873176
1789147780617356800,3.915356689453125,-1.8014172805993778,0.1376135408855642,-2.8184317620100408
1789147780627329500,3.92532958984375,1.0028774185594826,-1.2171317131500108,-0.7381936105353964
1789147780637301800,3.9353017578125,0.7570020114229292,-0.23138063069152548,-2.2380610128266403
1789147780647274800,3.945274658203125,4.883347645717029,1.2047907649463727,-0.9306763358622974
1789147780657246500,3.95524658203125,6.275074440017715,1.5716272784628305,-0.6764916593494822
1789147780667218700,3.96521875,1.3707303672356284,2.98827236980505,-2.0726786249285687
1789147780677191700,3.975191650390625,-0.3146340122684138,2.940160612442078,-2.765637739981554
1789147780687163600,3.98516357421875,-2.4456781295056222,2.9376517845278833,-2.5113440064544177
1789147780697135600,3.995135498046875,-0.5803855986410256,0.35852674636191234,-1.847371339564355
1789147780707108900,4.00510888671875,0.5092981519427617,-1.0323541553703175,0.021231113954188693
1789147780717080600,4.01508056640625,-1.8279323804799654,-2.7003451625559367,2.3483802185482894
1789147780727052800,4.025052734375,2.6239661077694176,-0.6532711016041798,2.705879539346251
1789147780737025800,4.03502587890625,1.0041426511398228,1.4749161746327693,0.8209874955121481
1789147780746997500,4.04499755859375,0.5056976731267773,1.6483062650356355,1.4404696667848371
1789147780756970800,4.054970703125,1.0660366899972233,2.1306891210768524,1.2439473882197394
1789147780766942700,4.064942626953125,2.162016505292304,1.4787260352861349,0.05755348132725096
1789147780776914700,4.074914794921875,3.871838933479549,-1.3223694468235363,-0.7707327809235884
1789147780786887700,4.0848876953125,3.876468987090435,-1.319916470939997,-0.7390194143035984
1789147780796859600,4.094859619140625,0.13293941999082592,-3.7908526421129705,-2.6572371806553794
1789147780806831600,4.10483154296875,-1.2950330424658476,-2.084082048173598,-1.3624567997751458
1789147780816804600,4.1148046875,-2.107144331224789,0.19982604370074217,-3.473652170158868
1789147780826776800,4.12477685546875,0.20818013898374307,0.8754527562443136,-2.2982134964710923
1789147780836748500,4.13474853515625,5.230585753319027,0.09451907054233609,1.170870186462766
1789147780846721500,4.144721435546875,10.128955237777925,1.7222280954125289,1.296856675493524
1789147780856693800,4.15469384765625,2.3878492243796012,2.0970661164331847,-1.4069403711831077
1789147780866665700,4.164665771484375,2.401213513127868,2.0991604490018543,-1.3674906615725984
1789147780876638700,4.174638671875,-6.474733216805024,-4.064713980509426,-2.458412433140146
1789147780886610700,4.184610595703125,-0.3313950757431836,-4.410971357029756,1.8422288122531545
1789147780896583700,4.194583740234375,-7.6545851578805175,-0.3211834741367124,0.010558007520818412
1789147780906555600,4.2045556640625,0.8413804910535544,-0.33432147484422087,-0.5460634190355453
1789147780916527900,4.21452783203125,8.916242490101524,0.5720526112159916,4.314901846202748
1789147780926501000,4.224501220703125,-1.2047837412539655,2.157861022321282,3.844559026475148
1789147780936473000,4.23447314453125,-5.074774919748002,0.9856825820018896,-0.11789787867204055
1789147780946445300,4.2444453125,-2.1537147952494875,-1.7661417593371762,2.9482100311569583
1789147780956418000,4.25441796875,-0.18074078046356015,-1.1987388680954192,1.9034316575536945
1789147780966390000,4.26439013671875,-2.5308883423972244,0.7775108427836502,0.0694697704836227
1789147780976362200,4.2743623046875,-3.6520552676476643,1.8638800400612052,-1.4466558410321377
1789147780986335000,4.2843349609375,3.7139292098279633,0.48761349964020584,0.5467541585695032
1789147780996307200,4.29430712890625,-0.9036956591404041,-0.33775914856617884,0.7656795468139876
1789147781006279200,4.304279052734375,-4.166134398105373,-0.1802832282882061,-2.2649970966000015
1789147781016252200,4.314252197265625,-3.0799255633975653,0.2707099591719874,-2.716971056770412
1789147781026224000,4.32422412109375,-3.0968510636678435,0.27107154809829564,-2.70339460360838
1789147781036197000,4.334197021484375,0.8854147497862046,0.6503923271606201,-1.0097348426012969
1789147781046169000,4.344169189453125,1.0054919834694496,0.9341648675594213,-1.3141866677061222
1789147781056141000,4.35414111328125,1.2317093179841991,1.8167190152267283,-1.293962978111222
1789147781066114300,4.3641142578125,6.948746705841932,2.6172890113948744,-1.0481422521573833
1789147781076086000,4.3740859375,6.947486630154306,2.6176217120742336,-1.0287692290206518
1789147781086058200,4.384058349609375,0.48017103890191165,0.34968813544606425,0.3178349537707055
1789147781096031200,4.39403125,-3.6660377811852616,-0.7613734848763187,0.9931106428479912
1789147781106003000,4.4040029296875,-4.620377933697578,-1.816899812607045,1.6146743540681285
1789147781115975200,4.41397509765625,-4.620687692154892,-1.8167119867189438,1.6345390835628595
1789147781125948200,4.4239482421875,-4.318043906770996,-1.4341599805509515,1.8665476526626796
1789147781135920000,4.433920166015625,2.456690415121572,-0.07461960173002125,0.2620857612531808
1789147781145893000,4.44389306640625,0.3616684987755267,-1.8950391398990734,1.1003780324039762
1789147781155865000,4.453864990234375,-2.3281784685939635,-2.3481231403899523,2.392128865298409
1789147781165837000,4.463837158203125,-0.4877526052304789,-1.1953066673859676,1.601722276526414
1789147781175810000,4.47381005859375,-0.4945325333302337,-1.195340420613682,1.6082312864521866
1789147781185782300,4.4837822265625,-0.0050109221376623955,0.8835416325731558,0.49512119899104245
1789147781195754000,4.49375390625,-2.005749426223457,1.424553481222268,-0.5446754251137893
1789147781205727000,4.50372705078125,1.1507412437785487,1.029349816632445,-0.4669410859739879
1789147781215699200,4.51369921875,5.05965836717305,0.8060724142669266,-0.6617316942491255
1789147781225671200,4.523671142578125,5.075367775167263,0.8061409137440346,-0.649662655493495
1789147781235644200,4.53364404296875,-2.931272583046409,-1.3413771017130258,-0.9936536634065942
1789147781245616000,4.5436162109375,-0.4392437228260059,-2.753469028524799,-1.0583686640182217
1789147781255588000,4.553588134765625,-3.064499584233986,-2.373702009896931,-0.4643865472557702
1789147781265561000,4.56356103515625,-2.8287901409959986,-1.2466884869995203,-1.2574607323072156
1789147781275533300,4.573533203125,-2.8366263735403225,-1.2467768357772486,-1.2503329859306214
1789147781285506000,4.583506103515625,3.8932671369764855,0.7953966462805424,0.8104783401195415
1789147781295478000,4.59347802734375,2.078129771446284,0.8279123087202072,0.7531179234299908
1789147781305450200,4.6034501953125,1.9421781942238432,0.363207419965227,0.569271468885034
1789147781315423000,4.613423095703125,1.6774853865085566,1.0164221018584874,0.02120943996649244
1789147781325395200,4.623395263671875,-0.025876372172930352,1.5540060130388156,-0.4323529651142298
1789147781335367200,4.6333671875,-1.250881021515886,0.923433892728445,-0.19324713034292143
1789147781345340000,4.64333984375,-2.6109353629087027,0.20971202134402026,0.9737465497715663
1789147781355312000,4.65331201171875,-0.5286730830614148,0.1481396450831061,0.7647027529767403
1789147781365284000,4.6632841796875,2.9522233771948416,1.1068237455170207,1.0970322471727365
1789147781375257000,4.673257080078125,-2.238581795249017,0.6042901566291086,1.5263505102879642
1789147781385229000,4.68322900390625,-2.6431108573068336,-0.9213572075199897,1.1892314471085907
1789147781395202000,4.6932021484375,-0.4961209807782164,-1.2814351218854763,1.933611723695867
1789147781405174000,4.703174072265625,-0.30009089788124876,-1.3274164248458244,1.7351739579157766
1789147781415146200,4.713146240234375,-0.19740596128134988,-0.5790759443784431,1.2221911195434354
1789147781425119200,4.723119140625,0.2695554751393824,0.373520131307755,1.7904776657351673
1789147781435091000,4.733091064453125,2.3944552807393693,0.47188214525062805,1.0096622702636677
1789147781445063200,4.743063232421875,2.030707918922901,0.8097597493489893,1.037105174301867
1789147781455036200,4.7530361328125,1.269790718171796,0.7564229045815013,1.6027442339526285
1789147781465008000,4.763008056640625,1.3921794665307803,1.1851681755037644,1.3905760491372772
1789147781474980000,4.77297998046875,-0.4436270257299245,0.4102052951794089,1.8902496247114167
1789147781484953000,4.782953125,-0.9272848580909705,-0.5276507835569935,1.4685636644338467
1789147781494925000,4.792925048828125,-0.13451265240916935,-1.076915576951083,1.6947782018447393
1789147781504897000,4.80289697265625,2.3831710181808274,-0.29885841351034587,1.407352873211678
1789147781514870300,4.812870361328125,3.175341662202952,0.3791297935969142,1.539683489559331
1789147781524842000,4.822842041015625,-1.629516982269974,-0.8012081935995581,2.382230273093096
1789147781534815000,4.83281494140625,-3.0716222277907983,-2.0918783379053565,1.642414606067419
1789147781544787200,4.842787109375,-2.6442124831919447,-2.3198690139882334,0.615388729628385
1789147781554759000,4.852759033203125,-2.356843960539544,-2.184561274535986,0.3077905654462111
1789147781564732200,4.862732177734375,-1.7692060011411817,-1.344073546844611,-0.11755895112171454
1789147781574704000,4.8727041015625,0.08909699825955311,0.089584821686702,-0.8411875342766363
1789147781584676000,4.882676025390625,-2.835398917229992,0.046278542041052466,-0.7508042113559114
1789147781594649000,4.892649169921875,-0.5269172221663034,0.6898271542161907,-1.3663655709305769
1789147781604621000,4.90262109375,1.1477488758068215,1.7040297779123648,0.1441164436678191
1789147781614593000,4.912593017578125,3.116650566950976,2.8217443700047995,-1.144123931983767
1789147781624566000,4.92256591796875,-0.6862727809528679,2.740813844419966,-0.9675418782399114
1789147781634538200,4.932538330078125,-1.91875224720235,1.2293382217496749,-0.07751273690596451
1789147781644510000,4.942510009765625,-2.4909841323296638,1.2385192496099977,-0.3296252916609194
1789147781654483200,4.952483154296875,2.0169751616265983,1.0235673889371963,-0.17839973200257078
1789147781664455200,4.962455078125,5.1066345208589325,1.9587280877424178,-0.0672050075134677
1789147781674428200,4.97242822265625,-2.258033832532411,-0.013887660266789984,0.3607636114405213
1789147781684400000,4.982400146484375,-5.260300964572298,-2.5238181863282136,0.2688760642989713
1789147781694372000,4.9923720703125,-3.4059425928426053,-3.247253557515915,-0.48200622693608836
1789147781704345300,5.002345458984375,-3.4321370756901715,-2.73063099719308,-0.04942882221268392
1789147781714317000,5.012317138671875,-0.9490059718004323,-1.0167580134089214,-0.23575007413135265
1789147781724289300,5.022289306640625,0.49154938616423943,0.4495715334588545,-0.9472935194343141
1789147781734262300,5.03226220703125,3.4811689760842572,2.405177802624233,-0.9721717691702416
1789147781744234000,5.04223388671875,1.6412040114213458,3.3211135220578143,-0.8498366902024214
1789147781754206200,5.052206298828125,1.643809103492936,3.3210501086855175,-0.8486111316045676
1789147781764179200,5.06217919921875,-0.2501672784202465,0.4206669405805854,1.7579388291105675
1789147781774151200,5.072151123046875,-1.0719809755885168,-0.3726670331497268,1.4942888019297946
1789147781784123100,5.082123046875,-1.6439769606187467,-1.4846150210091444,1.7493395430447847
1789147781794096000,5.09209619140625,-2.3184938579883556,-0.5949947081676119,2.2342912949376164
1789147781804068000,5.102068115234375,3.4047774105160324,-0.8512566490162322,0.4203748390748489
1789147781814041000,5.112041015625,1.0730455799460503,-0.7488176512394257,0.6532845427740204
1789147781824013300,5.122013427734375,-2.3097130120032294,-2.0929047351672656,1.2696981944652803
1789147781833985000,5.131985107421875,-0.7403657916186079,-2.0578504073576225,1.401117101580297
1789147781843958000,5.1419580078125,0.41147638234703837,-2.2866579940575518,1.818614231122461
1789147781853930200,5.15193017578125,-0.039699083575822344,-0.8730154398579483,1.583775239117293
1789147781863902200,5.161902099609375,1.19581993512059,0.20439278294208027,0.9813686430287325
1789147781873875200,5.171875244140625,2.941940092539311,0.6910968393206495,0.6507124012209548
1789147781883847200,5.18184716796875,0.07617181104630436,0.38193416963030347,0.39837528700843833
1789147781893819100,5.191819091796875,-1.4778051922440807,-0.9508601870273168,-1.0694037963582936
1789147781903792000,5.201792236328125,-0.853920067574217,-1.297174837615839,-0.07542319814713627
1789147781913764000,5.21176416015625,-0.04612655811963611,-1.5062143114129236,0.843871159795779
1789147781923736000,5.221736083984375,-1.6670957779197215,-1.1165531913256213,0.5951473928935004
1789147781933708800,5.231708740234375,0.3411741372120926,-1.0284901615892779,0.5862376415733036
1789147781943681000,5.241680908203125,-0.7508951400565831,0.3511989559883266,0.9488256345794359
1789147781953654000,5.251654052734375,3.2622963975319776,1.8148985604606522,-0.7110706841969396
1789147781963626000,5.2616259765625,1.0127154408082304,1.5503109798758592,0.5520076488049959
1789147781973598000,5.271597900390625,1.2434411592062244,0.3880138954241259,0.5385395032937629
1789147781983571000,5.281571044921875,1.5782231055982054,1.1886404080675241,0.8737104262765691
1789147781993543000,5.29154296875,-0.21594621273529743,0.76226283849451,0.6987776754286387
1789147782003515000,5.301514892578125,0.00701047766932347,0.9521426238307971,0.3498091054973599
1789147782013488000,5.311488037109375,0.02960841341844056,2.2285227979354807,-0.27851242660625436
1789147782023459800,5.3214599609375,-5.240282762673151,-0.19351396445012906,0.7823382890888058
1789147782033432000,5.33143212890625,0.8747714450009496,-2.256610094891215,0.026512457016961744
1789147782043405000,5.341405029296875,-1.8488528897306933,-1.952136739336134,-0.3068928324733971
1789147782053377000,5.351376953125,5.489151681508741,0.07396178926642158,-0.2747660387701022
1789147782063349000,5.361348876953125,4.198262871701924,2.1004411235940808,-2.03648876920688
1789147782073322000,5.371322021484375,2.0834427014525736,2.987777166614274,-1.116671387794994
1789147782083294000,5.3812939453125,-2.0110712744062837,3.4603112982018334,-1.3393594334140477
1789147782093267000,5.391266845703125,-3.615303979292958,3.6010201556951715,-0.6953600012672239
1789147782103239200,5.4012392578125,6.416734055132136,-0.3535602457706064,-0.7315851185956378
1789147782113211000,5.4112109375,1.8817542662612492,-0.7954020984574636,-0.8902428936497968
1789147782123183900,5.421183837890625,-1.9078276909903769,-1.1796911546414803,-0.11049479824201001
1789147782133156000,5.431156005859375,1.113474351294203,-1.3460531082057716,-1.8394188259230013
1789147782143127800,5.4411279296875,0.6517290746967268,-0.7914837346140109,-2.377066028262983
1789147782153101000,5.45110107421875,-5.303161598476638,1.5184668514133774,0.13404500330053412
1789147782163073000,5.461072998046875,-0.431603641490321,-0.1826446987687215,-0.2648407710935781
1789147782173045000,5.471044921875,-1.2125013785845575,-0.555118069370505,0.8886099067165266
1789147782183018000,5.48101806640625,-3.2950368210820287,-1.7374953415567334,1.6120364522867974
1789147782192990000,5.490989990234375,-1.7216296624427336,-3.1247001714605718,-0.13315394254484805
1789147782202962000,5.5009619140625,-3.1740430279888785,-2.440631721885338,0.8232824367257855
1789147782212935000,5.510934814453125,-3.6018507948349647,-1.5366384733452472,0.7841272070405655
1789147782222907100,5.5209072265625,-1.8862013808715674,-0.8107260047186748,-0.14775980807172973
1789147782232879900,5.5308798828125,-1.7107545109064135,0.4440401674881156,1.3185077389843114
1789147782242852000,5.54085205078125,0.5698339653626854,1.5998666816251184,1.281423583889571
1789147782252824000,5.550823974609375,4.362994740356635,3.6202120342205633,0.3075823283415247
1789147782262796800,5.560796875,-1.018024948689873,3.8593806838451,1.436508635596309
1789147782272769000,5.57076904296875,-4.641806816901127,-0.18799481443111984,1.4788977823719587
1789147782282741000,5.580740966796875,-2.4994899650863447,-2.390884626142103,0.21222411014161974
1789147782292714000,5.5907138671875,-2.9023172465213576,-2.2101051498725246,0.18616971467744708
1789147782302686000,5.60068603515625,-1.0490635055140058,-0.6632279128382731,-0.9231153245160421
1789147782312658200,5.610658203125,1.2405620260547838,0.2543317384151756,-1.4638130255515462
1789147782322631000,5.620630859375,-0.2212774588662771,0.6381608311153115,1.071407367947659
1789147782332603000,5.630602783203125,0.9114316678571185,3.126884883242224,1.4907764754588535
1789147782342575000,5.6405751953125,0.9096976257262414,4.63554849478891,0.40257368306563474
1789147782352547800,5.6505478515625,-1.3536292386644724,3.7695278528496754,0.8459136853491384
1789147782362520000,5.66052001953125,-1.4189079610934898,1.8548467451166228,0.5664635262697527
1789147782372492000,5.670491943359375,0.45770384445793694,0.49771094561553575,-1.1387595568411983
1789147782382464800,5.68046484375,0.23112721410085477,-0.7512561258726144,-1.279641962368775
1789147782392437000,5.69043701171875,-1.161823437922258,-0.26403756666126404,-1.005955965298526
1789147782402410000,5.700409912109375,0.6766227051414366,0.3308170415481889,-1.3579855970508063
1789147782412382000,5.7103818359375,2.3030702709994086,0.5161137301408472,-0.5841052996144268
1789147782422354000,5.72035400390625,-0.9071492379926287,-1.0001947573068661,0.8897321158324192
1789147782432327000,5.730326904296875,-1.7618855346364592,-2.693540868437413,0.34757908960899825
1789147782442299000,5.740298828125,-0.8496611794980833,-2.5604974002342673,-1.275026130198571
1789147782452271000,5.75027099609375,-0.5626896547465527,-1.0634600524267135,-1.1528780640304135
1789147782462244000,5.760244140625,0.9384354614153342,-0.19480236051325192,-1.4855879998166504
1789147782472215800,5.7702158203125,0.8476409221800657,1.0499941628046465,-0.43524249418199623
1789147782482188000,5.78018798828125,7.679454926036185,2.495871435253799,0.2925235705231481
1789147782492161000,5.7901611328125,9.22907425989937,4.209614671144665,-0.8612142912736099
1789147782502133000,5.800133056640625,3.0484212622955034,1.408527604055954,-0.6004439439268936
1789147782512105000,5.81010498046875,-3.8616401413976194,-1.6417513712749727,-0.03538909676480621
1789147782522078000,5.820077880859375,-0.9993066257816964,-2.9467133329285513,-1.6906511571704377
1789147782532050000,5.8300498046875,-2.7892340652714616,-1.9665555385145828,-2.6470677852062154
1789147782542023000,5.84002294921875,-1.7901281464729992,-0.44237467244178663,-1.0624283935949277
1789147782551995100,5.8499951171875,6.475230683805883,0.5563180794998753,-1.2797770793063632
1789147782561966800,5.859966796875,7.598436943596388,2.533917223777031,0.5038772633457406
1789147782571939800,5.86993994140625,-6.814237883046586,-1.8422988919462722,0.2321081331430612
1789147782581912000,5.879912109375,-12.576189356349074,-9.074379659286784,-0.7386402316454342
1789147782591883800,5.8898837890625,-5.483526550035957,-10.473503391143563,-0.2136295032717856
1789147782601857000,5.89985693359375,-2.3384720379146704,-6.600683259239819,-0.9320101545577595
1789147782611829000,5.9098291015625,-1.4327914623429987,-0.060140315933921704,-1.546536041678222
1789147782621801000,5.919801025390625,1.8498718388417,4.891101292380923,-0.0698105062946015
1789147782631774000,5.92977392578125,10.027503483228784,5.219233772937578,2.4567220857881087
1789147782641746000,5.939745849609375,4.704830686948585,3.8456728413825334,1.3989028905210417
1789147782651718000,5.9497177734375,-6.152102175565976,-0.684428575906161,1.1825026783572679
1789147782661691000,5.95969091796875,-4.480187635152391,-3.844748009328926,-0.21346743309897476
1789147782671663000,5.9696630859375,1.0575349705054296,-3.376277670559702,-3.29306294457641
1789147782681634800,5.979634765625,-3.697854953023949,1.1582607701609768,-1.2553796073657995
1789147782691608000,5.989608154296875,-0.019606186760335105,0.4741150781374606,-1.015615875788198
1789147782701580000,5.999580078125,1.4664636136642557,-1.0622045728906067,-2.952647823970186
1789147782711553000,6.009552978515625,2.899704625933902,-1.183752086230587,0.11936318627130645
1789147782721525000,6.01952490234375,7.216760972348694,2.0123613266847533,-0.8091767886058034
1789147782731497000,6.0294970703125,5.963169522052798,4.659702123173462,0.11415918205563579
1789147782741470200,6.03947021484375,2.3649541785658,4.4399516380430715,0.026508798956544746
1789147782751442000,6.04944189453125,-4.454547379320617,3.260646298923611,-0.3499746346404582
1789147782761414100,6.0594140625,-7.070888696033196,-0.44035081737841264,-0.4339199271370534
1789147782771387100,6.06938720703125,-6.6193429770979275,-6.542283067127288,0.678399525801434
1789147782781358800,6.07935888671875,-2.52657707345315,-6.659680414292662,-0.040739525489364034
1789147782791331000,6.0893310546875,3.820554767601254,-0.8042646503064261,0.8150876580347418
1789147782801304000,6.099303955078125,3.8053053307092948,-0.8028490295313729,0.8328290269088074
1789147782811276000,6.109276123046875,2.6442175321092867,4.133387187241008,-1.6790364591666942
1789147782821248000,6.119248046875,1.3548841765990156,4.787839431959509,-0.3350188173887308
1789147782831221000,6.129220947265625,-4.641196090891153,4.861706446438831,0.5641443612196494
1789147782841193000,6.13919287109375,3.4747568844695866,1.9734561983677221,0.8349202514805599
1789147782851165200,6.149165283203125,12.210353006076344,0.5388382194426974,1.5121935472820944
1789147782861138200,6.15913818359375,-0.7280502654711686,-3.138855111455187,-0.16554793204285284
1789147782871110000,6.16910986328125,-6.440131684981332,-6.8122732528689305,-2.3939755236435434
1789147782881083100,6.179083251953125,-5.579594681154493,-6.1683727697834465,-4.337201273744643
1789147782891055000,6.18905517578125,-9.726295739443652,-1.7837766622663458,-3.850525703750287
1789147782901027000,6.199027099609375,-1.6636795599406362,0.6931773516126678,-2.9239055888126213
1789147782911000000,6.209,2.1174966854890585,-2.5319572613539494,-0.6728678455860586
1789147782920972000,6.218971923828125,-2.3704080502878155,-2.6346333489536065,1.759127798597503
1789147782930944300,6.2289443359375,-6.645486489969233,-4.064925187187203,3.238737663740257
1789147782940917200,6.238917236328125,6.716232907380402,-1.093109062418202,2.7490476905757375
1789147782950889500,6.248889404296875,6.717547416518706,-1.0917122944251463,2.768146969704216
1789147782960861200,6.258861083984375,1.0138531528129504,3.051781702604689,-0.675781906494118
1789147782970834200,6.268834228515625,1.4918845126988671,0.8468648527379952,-0.8216258883959542
1789147782980806400,6.278806396484375,-2.9780207682306017,0.7292273799871967,-0.2173497819579797
1789147782990778000,6.288778076171875,-6.359812288192697,1.1102313654572422,-0.8807366622093077
1789147783000751400,6.29875146484375,-6.346762460621249,1.1116256090761762,-0.8604259417707402
1789147783010723300,6.308723388671875,-2.522319372717615,-0.31423696198160606,-0.6022536947932738
1789147783020695300,6.3186953125,-6.8577454213409235,2.0698968206224193,-2.200201227394446
1789147783030668300,6.328668212890625,-1.6598331034133338,2.3217456429014436,-1.6522774742855781
1789147783040640300,6.33864013671875,6.972403943013181,1.0056788325544543,0.3169041876502563
1789147783050613200,6.34861328125,8.467520128786274,-0.12256373087571419,0.5957894333436691
1789147783060585200,6.358585205078125,1.9753448394167308,0.2655207275231805,0.014138251981987576
1789147783070557400,6.368557373046875,0.11371579887004772,1.3094564865572527,0.38185215061893907
1789147783080530200,6.3785302734375,-4.894611492216072,1.229942988391938,0.6804429428932071
1789147783090502100,6.388502197265625,-4.887087799812302,1.230772384769261,0.697668441975643
1789147783100474400,6.398474365234375,-6.631209296656731,0.6330542645434191,0.4414470535414403
1789147783110447000,6.408447021484375,0.9137682662115918,-1.2185166935422018,-1.3586159764125176
1789147783120419300,6.41841943359375,1.9506897382590445,-0.07669841966164707,-1.1032540902779884
1789147783130391300,6.428391357421875,-2.8264444794615193,2.219829968096689,0.7703460792407963
1789147783140364300,6.4383642578125,0.7392221121618281,0.8823736876861853,0.31753976728226946
1789147783150336300,6.448336181640625,0.7183346903449135,0.8825342830483973,0.32897397468596146
1789147783160308500,6.45830859375,3.6774293466098134,0.1135620936797654,1.2452959976930595
1789147783170281200,6.46828125,2.0826406738906247,1.4315974438114003,-0.7125965013684737
1789147783180253200,6.478253173828125,-0.0883141764555574,0.9191821340367686,-0.08644741111128133
1789147783190225200,6.48822509765625,0.9493997578051455,2.099356708519093,-0.3196538110715106
1789147783200198100,6.4981982421875,6.026864426531261,0.49010962716717155,-2.182181371155647
1789147783210170400,6.50817041015625,2.131952966716786,0.3789256768535052,-1.1359468884648403
1789147783220143400,6.518143310546875,2.1465845047292427,0.37945289561412165,-1.1219308041763023
1789147783230115000,6.528114990234375,-2.84425998531773,-3.149781568938748,-0.5341722284621861
1789147783240087300,6.53808740234375,-3.0066025373729257,-3.9968693954862795,1.5438405023334076
1789147783250060300,6.548060302734375,-2.2834140423024554,-3.321400388972554,1.9548499889472482
1789147783260032300,6.5580322265625,1.6774489282200804,-2.220773896871361,-0.3199071743575414
1789147783270004200,6.568004150390625,-1.0965135615694876,0.24322661887131117,0.7751877718676675
1789147783279977200,6.577977294921875,1.7587266269252526,0.7183275941391539,1.5177806135512513
1789147783289949200,6.58794921875,1.749142576538726,0.718179110580352,1.5177649845618313
1789147783299921200,6.597921142578125,1.3463533841124073,-1.0305421412869444,1.6854025968156707
1789147783309894400,6.607894287109375,-1.0259501754926867,-0.8608585588465792,-0.7191655054976276
1789147783319866000,6.6178662109375,1.183040089103146,-0.4119571642668887,-3.7050020371718495
1789147783329838300,6.62783837890625,-0.6432601116403088,0.6800619842661169,-2.351237034262932
1789147783339811300,6.637811279296875,1.9636555109258997,0.7939259733698718,-2.2125177138225434
1789147783349783300,6.647783203125,3.498918268088959,0.5742811418195741,-2.3152113397402587
1789147783359755300,6.65775537109375,1.2239173670265386,3.2943886387668795,-2.283035859642878
1789147783369728300,6.667728271484375,1.2444700105056432,3.294820066071881,-2.275949936743096
1789147783379700200,6.6777001953125,-6.119692796081923,1.8321649685021173,-0.22141538371189878
1789147783389673200,6.687673095703125,-6.099288356424953,0.37444645788119524,0.17716250090462501
1789147783399645400,6.6976455078125,-3.8452581536731514,-1.0691848661653527,-1.153203996052138
1789147783409617200,6.7076171875,0.29728373997306073,-1.671545300461098,-0.8307303688318632
1789147783419590100,6.717590087890625,-3.3195603118783827,0.9370861626648741,-0.3939252387809978
1789147783429562400,6.727562255859375,1.217702499503749,0.2442872383185928,0.11487952439008912
1789147783439534000,6.7375341796875,0.4849512106835151,0.3292918973333851,0.5250497736736026
1789147783449507300,6.74750732421875,0.47777400965933925,0.32925675907795876,0.5296311934693798
1789147783459479300,6.757479248046875,0.3427681707060002,-0.14073407533139334,0.23476878725035497
1789147783469451300,6.767451171875,1.4275862168325526,-0.25051969535993734,0.5344138140072973
1789147783479424300,6.77742431640625,-0.4981686804693514,1.0885045419897001,0.9775451048761408
1789147783489396200,6.787396240234375,1.3393494589754296,0.7737198806761747,0.8490190437614621
1789147783499368200,6.7973681640625,4.051469597706559,-0.46510540568485825,1.420733774860701
1789147783509341200,6.807341064453125,-0.329563011250974,-0.7958654522730451,1.2597363393462595
1789147783519313400,6.8173134765625,-0.32120857321952545,-0.7957206746344291,1.271525416431466
1789147783529285000,6.82728515625,-1.531411167281796,0.03437377504110819,0.38114224483918263
1789147783539258400,6.83725830078125,-0.1614336136898706,0.7867757374195911,1.6811628969365782
1789147783549230300,6.847230224609375,-0.7249534239316529,0.787193208813774,2.023797593404951
1789147783559203000,6.857203125,1.7065914910674338,0.25149262599781586,1.2180584579681821
1789147783569175300,6.86717529296875,1.6394856296401252,0.26794447170263214,1.6637395384448028
1789147783579147300,6.877147216796875,2.5733972364256346,0.3484849266818119,-0.24715188332221832
1789147783589120300,6.887120361328125,-1.6401692294026233,-0.28009355386708823,-0.1080704060283969
1789147783599092200,6.89709228515625,-1.6050888833003034,-2.1346361100285924,0.16677434102987115
1789147783609064400,6.907064453125,-0.44990592075428487,-3.0374246195406824,-0.43409034099974325
1789147783619037200,6.917037109375,-0.4416089590563674,-3.0374114067053917,-0.42365152659407496
1789147783629009200,6.927009033203125,-3.186695062342756,-0.9702304576519605,-0.7399481635852029
1789147783638981400,6.9369814453125,-1.0765959163677201,0.34994478911468535,-0.6714225185715071
1789147783648954000,6.9469541015625,3.6949715670179977,1.2029990640453907,-0.12800246972008136
1789147783658926300,6.95692626953125,4.019952026995961,1.529997005860155,0.09401458566873047
1789147783668898300,6.966898193359375,4.025418989909231,1.5299282750679766,0.10535218632411948
1789147783678871000,6.97687109375,-1.017126077083732,-0.3740985694941878,-0.5575003577276515
1789147783688843300,6.98684326171875,1.9122522452463286,-0.7775090275496189,-0.10687499513746393
1789147783698815200,6.996815185546875,-1.6068303456257405,-0.4513913867936607,-0.1614556650465378
1789147783708788200,7.006788330078125,-2.966612388057424,0.3595754906770293,-0.5657901431910731
1789147783718760200,7.01676025390625,-2.9762354704161287,0.3593514184973565,-0.5563237913585658
1789147783728732400,7.026732421875,2.8724631559216656,0.6532869123244279,1.7295139356599618
1789147783738705200,7.036705078125,-0.704669475805102,0.22004188023159638,1.865704584149724
1789147783748677400,7.046677490234375,-0.15097534028582468,0.3220835875383814,1.8978311139272035
1789147783758650400,7.056650390625,-0.1525365814588216,0.3219043002261319,1.9067326744899793
1789147783768622000,7.0666220703125,0.20851891393698818,1.084963429497999,1.5365874673093656
1789147783778594300,7.07659423828125,1.5210153091836374,0.25958564725531824,0.7179691194898576
1789147783788567300,7.0865673828125,1.5184512402595036,0.25949646567025525,0.7210817645639198
1789147783798539300,7.096539306640625,1.7288388169301847,0.6137362762587218,1.8690011300107732
1789147783808511200,7.10651123046875,-0.501833726313209,1.0355480597245321,1.544652712445211
1789147783818484200,7.116484130859375,-1.25087040861612,0.39510900028838053,0.8947452439089914
1789147783828456200,7.126456298828125,-2.510651025072304,-0.6246633467059178,1.107136750937486
1789147783838428200,7.13642822265625,-2.049608135153963,-1.2128941908946411,1.7787841492566199
1789147783848401400,7.1464013671875,-1.344589721181414,-1.1573816662461884,1.8581555993439356
1789147783858373000,7.156373046875,-0.9754053759354302,0.38617083103785993,1.7961241234266583
1789147783868345300,7.166345458984375,-0.9904349632457263,0.386177972928035,1.7853417680129673
1789147783878318300,7.176318359375,8.473595294842106,1.8527689052838816,0.14302824119915047
1789147783888290000,7.1862900390625,1.9584031424372377,0.4951161819206951,1.0026003471447362
1789147783898262300,7.19626220703125,-2.6347597467788657,-1.7761654350464373,0.007257668125997099
1789147783908235300,7.2062353515625,-0.6406885214780926,-0.9959989155230767,-2.2875174641178186
1789147783918207200,7.216207275390625,-1.5786583100736629,-0.15114999316321318,-3.469048985690728
1789147783928179500,7.226179443359375,-2.746680073606035,0.7143474351820981,-2.4176071503934677
1789147783938151700,7.236151611328125,2.572906582311192,-1.1947025363104904,-2.481352426439386
1789147783948123600,7.24612353515625,0.3078543413540602,-0.9614166581670012,-1.1466079180388276
1789147783958096400,7.256096435546875,-4.915979112028948,-2.552376922359011,-0.14926981835710246
1789147783968068600,7.266068603515625,-3.0002650105833024,-2.955018368394864,-1.7516325923073286
1789147783978040600,7.27604052734375,-0.7611318125252453,-2.160310997951152,-1.1770405122285572
1789147783988013600,7.286013671875,-2.0673526514669964,-0.8981540971372397,-0.6028367172986903
1789147783997985500,7.295985595703125,-0.8973719216042304,-0.3590276755058337,-0.2252986687993039
1789147784007957800,7.305957763671875,-1.6790268137195403,2.0771442141988716,-0.4585581229661877
1789147784017930500,7.315930419921875,-1.6878916912248458,2.0770105034357824,-0.4725214676527765
1789147784027902700,7.32590283203125,-0.24217081894951867,-0.16829830384076067,-1.166050135555581
1789147784037874700,7.335874755859375,1.0175625290887125,-0.4249167271950428,0.27378078932022964
1789147784047847400,7.345847412109375,3.704960733735901,1.2302372870755374,0.3800543796981213
1789147784057819600,7.355819580078125,0.4508787166370327,2.3183840463796694,0.32817538036781874
1789147784067791600,7.36579150390625,-2.8367807479912703,2.6951877816701924,1.092404039121149
1789147784077764600,7.3757646484375,2.5962550053555886,0.07288513859513278,0.09448933331452077
1789147784087736600,7.385736572265625,-0.8427757261290232,-0.06794680069035923,-1.417503739634593
1789147784097708800,7.395708740234375,-7.234806172970037,-2.012180324595875,-1.5214782359285461
1789147784107681500,7.405681640625,-0.6308522227765158,-4.49090537308139,-1.754002080403188
1789147784117653500,7.415653564453125,-0.631303937726147,-4.490978415781981,-1.7580685670644582
1789147784127626800,7.425626708984375,-1.2455745963868445,2.1353424157854217,-0.5675143220603294
1789147784137598500,7.435598388671875,1.0411505713296905,2.349387794354311,-0.23688324654979598
1789147784147570700,7.44557080078125,3.9045454529614343,2.0718523043479116,-0.6160725660534597
1789147784157543700,7.455543701171875,-2.388029453390757,2.874217495428337,0.9565203712593654
1789147784167515400,7.465515380859375,-2.395271715426764,2.874197911072069,0.9602318423899809
1789147784177487600,7.475487548828125,8.56813467014122,3.2380696077950386,1.044037074708864
1789147784187460600,7.485460693359375,-1.9963606795686517,-1.9874228297655518,1.6970098930468707
1789147784197432600,7.4954326171875,-8.880233476479466,-4.255358537248655,0.08880587134129561
1789147784207404500,7.505404541015625,-3.468636318621858,-5.693445055453847,1.1367633107151978
1789147784217377500,7.51537744140625,-3.725975952330222,-1.998081984832024,1.4178362770419806
1789147784227349500,7.525349609375,2.307986585296433,0.362577200856134,-0.15303162004875706
1789147784237321700,7.53532177734375,5.036716626361788,0.9866998893518139,1.251243770686384
1789147784247294700,7.545294677734375,1.8395539869959439,-0.4374796901699781,1.405692859586938
1789147784257266400,7.555266357421875,-0.7235854911689347,-0.5945988858938916,1.0592566302812403
1789147784267238700,7.56523876953125,-0.7313615330460906,-0.5949354349802767,1.0462317156612122
1789147784277211600,7.575211669921875,3.6059013520241665,0.5714129160577546,0.1434236728798898
1789147784287183600,7.58518359375,3.60955543742984,0.5711968334388291,0.13106492908758416
1789147784297155600,7.595155517578125,3.193658350700772,0.28942992922358235,-1.0879686978525445
1789147784307128600,7.605128662109375,2.160871218482186,-0.601810757679168,-2.3866696851171745
1789147784317100500,7.6151005859375,-4.635958544672061,-1.1103538937645148,-2.2500738078830644
1789147784327073500,7.625073486328125,-3.3828489891484796,-2.6676675215220214,-3.4666556239530353
1789147784337045800,7.635045654296875,-1.5997867650144229,-2.7034002259829952,-2.792461535278956
1789147784347017500,7.645017578125,-2.2025895530033965,-1.21471015836626,-2.3823020427239414
1789147784356990500,7.654990478515625,-2.472969316433996,-0.19789135278760225,-2.8467771814256313
1789147784366962700,7.664962646484375,-2.480395872722425,-0.1982435807591068,-2.857001471938752
1789147784376934700,7.6749345703125,2.11626644672042,1.9145490758808195,-0.784416058242439
1789147784386907600,7.68490771484375,4.100822891812028,3.338062863384639,-1.9402539761406785
1789147784396879600,7.694879638671875,0.6226830775121168,3.2268964325161553,-0.9048444563681917
1789147784406851600,7.7048515625,-1.4303245915873362,0.8732929227335363,-0.632686952445682
1789147784416824600,7.714824462890625,-1.4273532956673165,0.8731446572743733,-0.6378552777615847
1789147784426796800,7.724796875,-1.975943341157841,-0.6171274560261706,-2.3076964177162265
1789147784436768500,7.7347685546875,-2.7004016035220646,0.0735542089667105,-1.7649837877943146
1789147784446741500,7.744741455078125,-0.716265456815739,1.0272593643144983,-1.695018272469487
1789147784456713700,7.754713623046875,0.010815059987815063,1.4599355889033452,-1.2072866469803327
1789147784466685400,7.764685546875,0.007919658991309404,1.459422291590759,-1.2210421418864876
1789147784476658700,7.77465869140625,-0.341811884096097,-1.9204190486735446,1.7789767250617416
1789147784486630700,7.784630615234375,-0.34623344339025874,-1.9210333630862233,1.7641374792305868
1789147784496603600,7.794603759765625,-1.0305366497128263,-0.30513237856584635,1.0888640589696414
1789147784506575600,7.80457568359375,0.4891656536413485,0.219312083341708,0.5370944523503829
1789147784516547600,7.814547607421875,0.48152136219332253,0.2188050112729469,0.5270829324752
1789147784526520800,7.824520751953125,3.7821373567709373,0.8141791272996948,-1.4204004767737282
1789147784536492500,7.834492431640625,4.544810209827284,2.989481181953112,-1.935751266367537
1789147784546464800,7.84446484375,-0.8764140919651764,1.3569750887435066,-2.1160608168021526
1789147784556437800,7.854437744140625,-5.711392459908479,-1.0414332798807284,-0.43046566254668184
1789147784566409500,7.864409423828125,-4.487250114626683,-2.2987799241607596,-0.23593199940025059
1789147784576381700,7.874381591796875,-4.335608311628263,-2.021373964876489,-1.1814509913198417
1789147784586354700,7.884354736328125,-4.34161354247916,-2.0220298020475944,-1.1933040669283843
1789147784596326700,7.89432666015625,1.295864701984745,-0.2305406698838115,0.21974993884335842
1789147784606298600,7.904298583984375,2.519847422595848,0.5155103518892208,0.7674678857551184
1789147784616271600,7.914271728515625,2.5294001548243883,0.5147279745942586,0.7525932654772236
1789147784626243600,7.92424365234375,1.2888844063957945,1.2039810169657672,1.556591349539293
1789147784636215800,7.9342158203125,-1.4539819786575028,1.1454748669172765,0.5667751876444181
1789147784646188800,7.944188720703125,-1.5732306055041363,0.4988557343093154,-0.7166401829629616
1789147784656160500,7.954160400390625,-1.9048463694045052,-0.6616971458130623,-1.5926750996600927
1789147784666132700,7.9641328125,-0.0346521311324252,-0.7362978301208911,-1.4230332368685774
1789147784676105500,7.97410546875,1.650135094124606,0.2523191788197211,-0.8222470769992659
1789147784686077700,7.98407763671875,3.739828003170368,1.3618039269283573,-0.7265053255780723
1789147784696050700,7.99405078125,-2.4491278394351523,0.592453755904637,-1.5038472725985736
1789147784706022400,8.0040224609375,-1.785978403555797,-2.7853690140542775,-1.2403299728405266
1789147784715994600,8.01399462890625,-2.3031226178936985,-3.3751972980932967,-0.5978510453074639
1789147784725967600,8.023967529296876,-4.610086258772206,-1.9704080052008706,-1.39704053509901
1789147784735939600,8.033939697265625,0.2621563151706351,-0.3658756540734233,-1.244462316172511
1789147784745911600,8.04391162109375,3.7418590804276755,0.00033978766919163703,1.3168911941293604
1789147784755884500,8.053884521484376,3.7379977200125856,0.00021958332589444321,1.3149033679988802
1789147784765856500,8.0638564453125,2.1823355246984897,2.9805791878332726,-0.14164018822440497
1789147784775828500,8.073828369140625,-7.582997972912211,-1.772154873560499,-0.6058442262122468
1789147784785801700,8.0838017578125,-3.6026765178557087,-3.1716165617209726,0.1161980109299481
1789147784795773400,8.0937734375,-1.8440588895562446,-3.120396493632607,0.5601448696641466
1789147784805745700,8.10374560546875,-3.03454686750714,-1.2017187205939897,0.1943143622230511
1789147784815718700,8.11371875,-0.1263956416597442,1.3058692726667716,-1.0774576024191151
1789147784825690600,8.123690673828126,3.78830270708564,2.4996477318691293,0.2557145767234839
1789147784835662600,8.13366259765625,5.027047448762557,1.372951676150263,0.9310342184303871
1789147784845635600,8.143635498046875,1.9201036424368603,1.207798176391801,1.096936257426358
1789147784855607600,8.153607666015626,1.3149213467174892,-0.5399628239827251,1.1907009699017306
1789147784865579500,8.16357958984375,0.12968475085278175,-0.6005379713695239,0.5640996950683141
1789147784875552800,8.173552734375,-0.8931734408396307,0.014952934824622276,-1.5782857270136215
1789147784885524500,8.1835244140625,-2.450895149077426,1.0718467336010553,-1.1937371492621085
1789147784895497500,8.19349755859375,1.5294662206043859,1.1362839206102378,0.2664048217787594
1789147784905469700,8.2034697265625,1.638619343240276,1.85336940676442,0.020293663434304072
1789147784915441400,8.21344140625,-1.011407997499525,0.2786907093205365,0.17080083173482588
1789147784925414700,8.22341455078125,-0.9034298043343238,-1.8187563903213246,1.1133943468353844
1789147784935387000,8.233386962890625,1.377492182875038,-1.9084384127074756,-0.7833163916349674
1789147784945359000,8.243359130859375,-0.5738713770481408,-0.8901544540905904,-0.37128153074641
1789147784955331800,8.253331787109374,-1.4083183094475584,0.39842185660772544,-0.8117873342600714
1789147784965303800,8.2633037109375,0.9709633838074169,2.2060996958398027,-0.07919570153797392
1789147784975276000,8.273276123046875,6.862455739894106,1.4277002579707139,-0.22491797754759574
1789147784985248800,8.283248779296875,0.7531137047978786,-0.35920311621476997,0.5910068247980674
1789147784995221000,8.293220947265626,-3.338751630288073,-3.181437614912633,-0.7939102449109051
1789147785005193000,8.30319287109375,-3.002938198084979,-3.8107949195986266,-1.3885846371938788
1789147785015165700,8.313165771484375,-3.882099572601846,-2.9968218742706747,-1.8812405272349162
1789147785025138000,8.323137939453124,-2.176404935944011,-0.6186541856318003,-1.6827706763714512
1789147785035110000,8.33310986328125,3.49618629071953,-1.5057633272337603,-0.3575601375660855
1789147785045083000,8.343082763671875,-1.222716566698878,-0.7980760916759502,1.4164275970419566
1789147785055054800,8.353054931640624,-0.30544647815566656,-1.1212413851039413,0.5227252483561237
1789147785065027000,8.363027099609376,2.623804768410929,0.2731933339513862,-0.09273176991778034
1789147785074999800,8.372999755859375,2.4800512570639515,1.7125912757502235,-0.6432078550168715
1789147785084972000,8.382971923828125,-2.5273665986861125,2.365642223134441,-1.2784396183608004
1789147785094945000,8.392945068359374,1.605837484191094,0.5643684395388261,-0.5380720990763802
1789147785104916700,8.402916748046875,4.447074284090027,-1.420710661770688,-0.7261067714037838
1789147785114889000,8.412888916015625,-1.3026526600030217,0.7598577840707135,-1.4749081902038028
1789147785124862000,8.422862060546874,-4.207180336486153,0.6911321066035494,-1.9299321422306055
1789147785134834000,8.432833984375,-2.2002894091115475,0.5927261547654293,0.08479666253490624
1789147785144806000,8.442805908203125,-3.1334722181234893,0.4550239626452198,2.0470788949370475
1789147785154779000,8.45277880859375,-4.614118434925873,0.41429370409304855,1.82259819041728
1789147785164750800,8.462750732421876,-0.4887822831623699,-0.839105516379371,1.1018064575060507
1789147785174722800,8.472722900390625,-3.700396581983655,1.4835550375578197,1.6055705709137733
1789147785184696000,8.482696044921875,0.9669410502521446,1.7504498965921131,1.1772805379410456
1789147785194667800,8.492667724609374,0.94864704958605,-0.011011143291886228,1.3082165571152413
1789147785204640000,8.502639892578125,0.12487081660688672,-2.1628183852157457,1.8229128964200776
1789147785214613000,8.512613037109375,0.41971013594913553,-0.8878715407608468,1.268620711653999
1789147785224584700,8.522584716796874,-0.7763056322761591,-0.09001580069591715,0.05151072038000904
1789147785234557000,8.532556884765626,-2.0208943605462686,0.7381096678176843,-0.35268541010430354
1789147785244530000,8.542530029296875,-1.3354629789971233,1.1553982473714852,0.5550751965934685
1789147785254502000,8.552501953125,1.311395188726528,0.3453392052809137,0.31091840521465147
1789147785264473900,8.562473876953124,5.4464292377991,0.8844198128423668,-0.6217293286549914
1789147785274446800,8.57244677734375,-0.34539415374595084,0.4821685311534767,0.13822841196073862
1789147785284418800,8.582418701171875,-1.493129823698303,-1.9681027193568512,1.3720316388096465
1789147785294391000,8.59239111328125,-0.5353109433615616,-2.0865698899716043,1.4411760247476257
1789147785304364000,8.602364013671876,-1.430049048873596,-0.9271961190366421,-0.8092441410462478
1789147785314335700,8.612335693359375,-0.36067529851228664,-0.7514727310993717,-2.162857815159899
1789147785324309000,8.62230908203125,2.408129157598969,-0.32060692205050156,-0.6531346824626335
1789147785334281000,8.632281005859374,2.5749460927004773,1.8569166617851,-0.19911970363424952
1789147785344253000,8.6422529296875,1.3465098288606343,3.2946879915778364,-0.9424969310311658
1789147785354226000,8.652225830078125,0.2185610915435215,1.6714112655822386,-0.7558972445541353
1789147785364198000,8.662197998046874,-1.3435829736085487,-0.6935389531332514,0.022884433066476438
1789147785374169900,8.672169921875,-3.344406277409961,-0.7488529834046994,-1.4557481973251023
1789147785384142800,8.682142822265625,-2.2706578125404375,-2.479396372647963,-1.9088042780445051
1789147785394115000,8.692114990234375,-2.388885590795737,-0.9172241488006688,-1.2002766186138112
1789147785404086800,8.702086669921876,1.6501313330654956,0.3856388886889881,-0.8154008832663037
1789147785414059800,8.712059814453125,5.519643600506535,2.3243867273749372,0.34677570056823664
1789147785424032000,8.722031982421875,1.995356530598817,2.6211395466426457,0.9475589387837899
1789147785434003700,8.732003662109374,-1.1848718599877257,0.3593755394279552,-0.333223014217405
1789147785443977000,8.74197705078125,-1.2394286185804941,-1.3554248525393204,0.49658500497447927
1789147785453949000,8.751948974609375,-1.1022147124382056,-1.4943866352252295,1.1220807369391494
1789147785463921000,8.7619208984375,-2.459961055683537,-0.02674688993924382,-0.26519382053611457
1789147785473894000,8.771893798828126,2.688983275180992,-0.6438583828703669,-0.6658966234291077
1789147785483865900,8.781865966796875,3.7048659628199725,0.9475592876335655,-1.138526327351948
1789147785493837800,8.791837890625,-1.4048138652671738,0.6209773027878344,1.0773598933292319
1789147785503810800,8.801810791015624,-2.9048825582614275,-1.1680767555908753,-0.2366832894128634
1789147785513783000,8.811782958984375,-0.6896660424642328,-0.966059325027341,0.632888269185111
1789147785523754800,8.821754638671875,-1.8701004551289186,-0.5207571742835696,0.4922319774081041
1789147785533728000,8.83172802734375,0.27997795880046167,-1.0345074837143784,0.05809730389602484
1789147785543700000,8.841699951171876,0.277764330244931,-1.0351670369643073,0.08033192721968019
1789147785553673000,8.8516728515625,0.6216590979561373,2.410140266754148,0.43714427973035125
1789147785563645000,8.86164501953125,6.401029886342344,0.735140581529375,0.1458495484977997
1789147785573617000,8.871616943359374,6.904757011969612,-0.7824197836085672,-0.8018379590584488
1789147785583590000,8.88158984375,0.8512974977448352,0.006314372527023566,-0.9654095973352593
1789147785593561900,8.891561767578125,-3.1727672174798927,-0.3519684310205903,-0.21662976479676938
1789147785603534000,8.9015341796875,-2.3477711211581025,-0.17478558777453707,0.7149838125028659
1789147785613506800,8.9115068359375,-0.23092772689555,0.35540663029342673,1.1819260812639703
1789147785623478800,8.921478759765625,3.683180471679589,-0.47085592370969104,1.5249972657378275
1789147785633451000,8.931450927734375,1.1744175130270946,0.7284665800919244,3.5994112137996024
1789147785643423700,8.941423828125,-6.361759203026405,0.42163106113533794,3.422795720682298
1789147785653396000,8.95139599609375,-3.9104603568278278,-2.1719041129225842,1.7956632302693776
1789147785663368000,8.961367919921875,3.0798340130380755,-3.137907681169704,0.9808818399671347
1789147785673340700,8.971340576171874,-1.4482966599657265,-1.1514997402559046,0.40183547276690423
1789147785683313000,8.98131298828125,-3.592279493463015,-0.5831811343731248,-0.24753438954080975
1789147785693284900,8.991284912109375,-0.5945187915855561,0.5494544189107621,-0.21143881446461418
1789147785703257900,9.0012578125,10.094261394220329,4.077364071582736,-1.1954189829881001
1789147785713229800,9.011229736328126,8.496147755255498,7.51106872970924,-1.5041663728610166
1789147785723202000,9.0212021484375,-2.633821409873097,3.6643899055396205,-0.8270691025480402
1789147785733174800,9.0311748046875,-13.649460337094471,-3.174265712669001,2.537871911155016
1789147785743147000,9.04114697265625,-5.245978168644881,-6.6752024611165695,1.2425653920327029
1789147785753119000,9.051118896484375,-3.588861822794978,-3.7863610807899355,-0.009915053913769806
1789147785763091700,9.061091796875,-3.5986653764175007,-3.787385348631661,0.0057477501806917075
1789147785773064000,9.07106396484375,6.8862068880139065,1.2711784977566407,-2.669840313245316
1789147785783037000,9.081036865234376,-2.68104333232929,-0.6918584690721015,0.5970783585133315
1789147785793009000,9.0910087890625,-4.367491127255493,-3.078966277507088,3.2122546932862353
1789147785802980900,9.10098095703125,-3.8800932045436545,-2.242663329704606,2.3633585140689637
1789147785812953900,9.110953857421874,-1.3490840581114736,-0.6953333082950804,1.2268598810162752
1789147785822925800,9.12092578125,-0.017656348713238196,-0.7600153438209414,-0.19303227412664917
1789147785832897800,9.130897705078125,0.010032113496541496,0.05263905986890301,0.2760511059632073
1789147785842871000,9.14087109375,4.467630452499614,2.228852744264563,-0.49217697526054016
1789147785852842800,9.1508427734375,5.605210943696174,3.35058118755523,-0.003897266825661016
1789147785862815000,9.16081494140625,-0.378322698205929,2.4659267426697875,0.31201700005484057
1789147785872788000,9.1707880859375,-3.8462538986854025,0.5894116047731894,0.24598837177032767
1789147785882760000,9.180760009765624,-0.3488909153388341,-1.7031204404108957,0.662218527682101
1789147785892732000,9.19073193359375,-2.424878042386584,-1.2493835807421183,0.3869494208118876
1789147785902705000,9.200704833984377,-1.741275335652047,-0.4187546934266969,-0.9796307144632314
1789147785912676900,9.2106767578125,0.9388664021011692,0.7451649132313327,-0.27499006672619236
1789147785922648800,9.22064892578125,4.871428697409145,1.8828106436304095,0.03512130880344302
1789147785932622300,9.230622314453123,3.2546704091623755,2.660442860864428,0.15267053859450658
1789147785942594600,9.240594482421876,0.33162159290728566,1.535232718934966,1.8783611099569175
1789147785952566300,9.250566162109376,-2.4201244345566715,-0.4931821724252762,3.138574522895745
1789147785962539500,9.26053955078125,-1.140556981281265,-1.4994187584870307,0.003498247292196368
1789147785972511500,9.270511474609377,-1.9072171049647104,-1.0311528822355454,-0.8023307923793103
1789147785982483500,9.2804833984375,-2.161940657402111,-1.088355755163307,-0.7879085904615629
1789147785992456400,9.29045654296875,-0.041518931633733915,-1.6159801626591044,-1.9678346933403499
1789147786002428400,9.300428466796877,-0.05769599096496218,-2.9384972260379647,0.17015001322225304
1789147786012401700,9.310401611328125,-1.3363922213952524,-1.6108966120364507,1.0778169526898262
1789147786022373400,9.320373291015626,1.239098747317498,-0.4980847387050244,0.20765069538387673
1789147786032345600,9.330345703125,2.1296571421421002,0.24258846424487493,0.8434387279494567
1789147786042318600,9.340318603515623,1.370751854638969,1.305554681345347,2.099292437126982
1789147786052290600,9.35029052734375,-0.45435139168711747,2.1548540191471837,0.944226212097579
1789147786062262500,9.360262451171875,4.880169667104705,2.230137565724603,0.040290411174156715
1789147786072235500,9.370235595703123,5.643232284461172,2.315131200598954,0.5410154715772448
1789147786082207500,9.38020751953125,0.6780684994412209,0.5989889609400453,2.538130511156727
1789147786092179500,9.390179443359376,-0.5105416853838697,-1.3795358469947432,2.2975612602089615
1789147786102152700,9.400152587890624,-0.30182003983777056,-2.13411269101002,1.1866845494752054
1789147786112124400,9.41012451171875,-3.6781568318007207,-1.466557587561521,2.015764538213217
1789147786122096600,9.4200966796875,-3.1335097120972484,-0.4637036188288601,-0.3345531973704655
1789147786132069600,9.430069580078126,1.2017109427822439,1.1268743208272696,0.1711811357968928
1789147786142041300,9.440041259765623,3.1022257563946862,1.74582577065573,0.980677074810374
1789147786152013600,9.450013671875,-0.5889491859568483,0.2404869606540434,1.7835636163989932
1789147786161986600,9.459986572265626,-2.3374044558957645,-1.9968549319164122,1.3686525442333646
1789147786171958500,9.46995849609375,-0.5511025678566315,-1.7002351244389895,0.7981177811707825
1789147786181930500,9.479930419921876,-1.8494825466732159,-0.12493124544320268,-1.0748919323782802
1789147786191903500,9.489903564453124,-2.8374608067606166,1.222027281805836,-1.7197203625649389
1789147786201875500,9.49987548828125,-1.4286891987875474,1.482284056006368,-0.5996303968487386
1789147786211847400,9.509847412109377,2.513074750397625,0.3116221430522033,0.4163625887123944
1789147786221820700,9.519820556640624,-1.9989119973403002,-0.32726793085939165,0.5379854134930463
1789147786231792400,9.52979248046875,-3.19136349847712,-1.4614990867074333,-0.6278122070772076
1789147786241764600,9.5397646484375,-0.6501488604863799,-1.242420156727648,-0.7209229496132122
1789147786251737600,9.549737548828125,-2.361535365369586,-0.0225028062635714,-0.4412575911070336
1789147786261709600,9.55970947265625,-2.456897810865993,0.8937642869599556,-0.7082773999734066
1789147786271682600,9.5696826171875,1.8299139534978253,0.10452604252559151,0.32314934346834373
1789147786281654500,9.579654541015625,2.07196257739306,-0.9696153648378821,0.8228155358261701
1789147786291626500,9.58962646484375,-3.7905629675687873,-2.2386201944649167,0.19947335737045893
1789147786301599500,9.599599609375,-2.9494323136445555,-3.048646539923412,-0.1431082623151704
1789147786311571700,9.60957177734375,0.4281174996336642,-2.0469563983594665,0.6272248763238436
1789147786321543400,9.61954345703125,1.0403645796737964,-0.13910648184278762,0.238333582425026
1789147786331516400,9.629516357421876,-0.640120363472606,0.8098218355184622,0.22553071374255707
1789147786341488600,9.639488525390624,-1.4213226075357444,2.1031208313982606,0.16380064899682553
1789147786351460400,9.64946044921875,1.821752632386642,3.4042450702218057,0.6220559865449993
1789147786361433600,9.65943359375,6.249751413724659,3.574383520788383,1.7219464127487654
1789147786371405600,9.669405517578124,-1.473228000769459,1.7207600757629768,1.7583073547829884
1789147786381377500,9.67937744140625,-4.958403853860229,-2.1918527505872283,3.2640068444063965
1789147786391350500,9.6893505859375,-2.289794761476033,-3.664684992245326,2.771492935012876
1789147786401322500,9.699322509765626,-1.386333273318691,-2.7289494724666365,2.251938343144074
1789147786411294500,9.70929443359375,0.18613133933276674,-0.32147285654355123,1.4340476330347731
1789147786421267500,9.719267333984376,0.6091853186264033,1.659032466237196,0.9630890595926797
1789147786431239700,9.72923974609375,0.5954978935617694,1.6590037392691328,0.9580361009585031
1789147786441211400,9.73921142578125,0.6902437457498536,0.14602860309892865,2.851853560471722
1789147786451184400,9.749184326171877,-4.590859005790969,-1.1481426419116012,1.6805659191314979
1789147786461156600,9.759156494140624,-2.5953803216960356,-1.9934758804646848,-0.9712229921966059
1789147786471128600,9.769128662109376,-1.7199615046710226,-1.3595200665134837,-3.1563671175718984
1789147786481101600,9.7791015625,-1.3807852038082051,0.3222945540922919,-2.4809985759262254
1789147786491073500,9.789073486328125,2.366595965450193,-0.26278041816594105,-2.4348867464172494
1789147786501045500,9.79904541015625,8.30251683019417,1.9635987978509206,-1.5694568652655563
1789147786511018500,9.8090185546875,7.338362989720253,5.901869561572573,-1.0490247972151394
1789147786520990700,9.81899072265625,3.0997803023512294,3.230765110228066,-2.315667904959294
1789147786530963500,9.82896337890625,-5.979102761813132,0.19102275302289304,-0.27597019401347844
1789147786540935400,9.838935302734376,-4.094861720114719,-3.0061615764240397,-1.2650599888033387
1789147786550907600,9.84890771484375,-1.4502947974372022,-3.0266244481598994,-2.231593135924996
1789147786560880400,9.85888037109375,0.4458104975613045,-1.7358741264346038,-1.3448399037777479
1789147786570852600,9.8688525390625,6.017307925796612,0.6801979756888331,-2.6586679839186242
1789147786580824300,9.87882421875,2.5731803890872693,3.0866390944345303,-2.3171824779082217
1789147786590797300,9.88879736328125,-4.444862047230752,-0.7684455380472152,0.9036444558768355
1789147786600769500,9.89876953125,-3.5398124514789955,-2.6385553987283634,-1.3763432919809047
1789147786610741500,9.908741455078124,-5.166999956219236,-1.8531201510918152,0.9300596458965735
1789147786620714500,9.918714599609377,-2.614565710863936,-2.3108821315646555,2.941838880676962
1789147786630686500,9.9286865234375,5.099613679341973,-1.2965287330427455,2.431915833299147
1789147786640658400,9.938658447265626,5.131266348906383,-0.0068701982516823565,3.586536193908606
1789147786650631400,9.94863134765625,1.054681685624729,2.5739656724037614,2.4850401645299747
1789147786660603600,9.958603759765625,-0.17500550026859793,0.8797183088942767,0.5478840976621593
1789147786670575400,9.968575439453126,1.5031804568256113,-1.050217344606129,-1.3937914254421628
1789147786680548400,9.97854833984375,-2.925811282674664,-0.6795742210496378,-0.5310210055350293
1789147786690520600,9.9885205078125,-6.947578296586028,-0.08305804225677732,0.9232903899955995
1789147786700492300,9.9984921875,-0.08425551123595866,0.13403847134362626,-0.08343012773352425
1789147786710465500,10.008465576171876,3.7061316184209123,1.2444355980212392,-1.005146950014234
1789147786720437500,10.0184375,1.9433562185048783,0.9430979409477137,-0.1017492079874218
1789147786730409500,10.028409423828125,-4.292397644641368,-0.3961049210224268,-0.15227397314648464
1789147786740382500,10.038382568359374,-2.3220900264150903,-1.8668413809100726,-0.4314155001517407
1789147786750354400,10.0483544921875,1.3517580266699967,-0.6813405572014247,0.6550009058084646
1789147786760326400,10.058326416015625,0.36514613640286897,0.20070695671369176,0.568505404636575
1789147786770299400,10.06829931640625,-1.3091226450490983,0.932800608333943,0.045526678961700574
1789147786780271600,10.078271728515626,-0.44863058350022994,1.2308747289744204,-0.48408999324011204
1789147786790244600,10.08824462890625,2.1281054759925677,1.8199600410539747,-1.104254399861901
1789147786800216300,10.09821630859375,3.321166779372379,2.1527944804329064,-1.2988643433848688
1789147786810188500,10.1081884765625,-0.6031109407111275,1.2393950416099815,-1.1505760946688883
1789147786820161500,10.11816162109375,-2.8386167495037027,0.031404427788671,-1.7042079888241206
1789147786830133500,10.128133544921877,-1.4686092090823502,-0.6674579505836837,-1.5192874773149792
1789147786840105500,10.13810546875,-2.4194895858153345,-0.887844650675941,-1.300612653730439
1789147786850078500,10.148078369140626,-1.2813824179010114,-0.9161773877737036,-1.157982598988869
1789147786860050400,10.158050537109377,-0.4576869300400457,0.15369492384210184,-1.089544056432062
1789147786870022700,10.168022705078124,-0.46561392108193556,0.1540885663677127,-1.108089027710201
1789147786879995600,10.17799560546875,5.761917130558486,3.9783109461192865,0.033076582206499894
1789147786889967400,10.18796728515625,3.700670431633168,3.7742993476056204,-0.6847813615574995
1789147786899939600,10.197939697265625,-1.1002240483205163,2.817850774661857,-0.037401132024913956
1789147786909912600,10.20791259765625,-2.4242170866031,1.2636691323832185,0.07633754735543777
1789147786919884500,10.217884521484375,-2.4949984060663515,0.4767400057146828,-1.0248923705499389
1789147786929856300,10.227856201171877,-4.326138301736673,0.19945750080831956,-0.359623734764149
1789147786939829200,10.237829345703124,-1.460677870851728,0.027706283054543406,0.32861485809401164
1789147786949801200,10.24780126953125,4.2219463033922935,0.8722422086886465,-0.5104261890435003
1789147786959773200,10.257773193359377,-3.9632587253767477,-1.088345988476863,0.47991976961698557
1789147786969746400,10.267746337890625,-6.873903746150383,-5.0001922830865375,0.8175229338829485
1789147786979718100,10.27771826171875,-5.359619239029701,-5.921169804591836,1.7042381244508886
1789147786989690400,10.2876904296875,-2.907070804691841,-3.7683167013791103,0.1020868841998983
1789147786999663400,10.297663330078125,-0.5554383597403049,-0.5573518483328399,-1.0574991073894642
1789147787009635300,10.30763525390625,1.9474971194073705,1.191386296134662,-0.4687407773352686
1789147787019607300,10.317607177734375,5.362399272080778,0.8075546884913818,0.4165839245885542
1789147787029580300,10.327580322265623,0.40388495046562006,-0.7004575863657613,0.5749241461617486
1789147787039552300,10.33755224609375,-4.2556900406174245,-2.773509646731132,-0.14618331017511985
1789147787049524200,10.347524169921876,-1.515473756525225,-2.281602130863687,-1.829681861737164
1789147787059497500,10.35749755859375,-0.5787915560948462,-1.6505304635935671,-2.5617328197184523
1789147787069469200,10.36746923828125,-0.7199576683512445,0.3173303531458421,-1.9855398110786977
1789147787079442200,10.377442138671874,-1.0442373666428595,1.1097068228519038,-1.981669176216327
1789147787089414400,10.387414306640624,1.4931730921069866,1.7994088346302077,-1.2059050729670324
1789147787099386000,10.39738623046875,1.4819339293903906,1.797896329956255,-1.2392168334005416
1789147787109359400,10.407359375,-0.03804238942556798,2.0450292480275185,0.9275404716432749
1789147787119331300,10.417331298828126,-0.04201235045925715,2.0433348513666054,0.8955742781559687
1789147787129303300,10.42730322265625,0.55445948115232,-0.8279303121056061,-1.5671061321249293
1789147787139276300,10.4372763671875,-1.6074206976256546,-0.9523157404976893,-1.87321178624572
1789147787149248300,10.447248291015624,-4.413832185020055,0.44646417113962045,-0.4982413785839622
1789147787159220200,10.45722021484375,-0.02057051945649574,0.7966532825084963,-0.36194088958209575
1789147787169193200,10.467193115234377,4.196753984608594,2.560562990238075,0.6445010468824048
1789147787179165400,10.47716552734375,1.7067803449021786,3.4697485556986294,1.7947211412089203
1789147787189137200,10.48713720703125,0.32828758956164894,3.181283940319848,0.8113691968077406
1789147787199110100,10.497110107421875,0.4978702488098428,2.1539881782240555,1.2397166500936168
1789147787209082400,10.507082275390625,0.057511561255918095,1.0699245838423461,0.25058279639446446
1789147787219054300,10.517054443359376,0.09919155177776433,0.11411160879371529,-0.8328991095121496
1789147787229027300,10.52702734375,-1.653968356662372,0.3859959927275927,-0.22156842667171342
1789147787238999300,10.536999267578125,2.4455218332420334,0.19028472798184604,-1.21887626711657
1789147787248971300,10.54697119140625,5.04766906618149,-1.6706529718263834,-0.09168999828905565
1789147787258944300,10.5569443359375,1.4679578249137555,-3.4719609590553406,0.6080237970985973
1789147787268916500,10.56691650390625,-0.13312912815187064,-2.805168900148913,-0.331598847897549
1789147787278888200,10.57688818359375,-3.306212384718128,-1.4247796998375395,-2.2120981832416478
1789147787288861200,10.586861083984376,-3.3159537135596255,-1.4262773003728122,-2.226361580363895
1789147787298833400,10.59683349609375,4.320222463747527,-0.9511659693743234,0.9293326698662254
1789147787308805000,10.60680517578125,8.041578065857232,-2.050209282171834,2.9470018815034336
1789147787318778400,10.6167783203125,-1.2634706736672034,-3.2034603212991613,0.43577423294641693
1789147787328750300,10.626750244140624,-2.3894385740429156,-4.38560956774329,-1.8109547533504222
1789147787338722300,10.636722412109377,-1.5625982504624196,-4.1683690149805726,-2.6790190344832854
1789147787348695300,10.6466953125,-0.4404936008324794,-3.1743192896456094,-2.0599167326537753
1789147787358667300,10.656667236328126,-3.4256753601449548,-1.4739539792027712,-1.2096432454956745
1789147787368639200,10.66663916015625,-3.4300369410031126,-1.4738237871535176,-1.207803152552529
1789147787378612200,10.6766123046875,2.0514941293531086,-0.5981498069545831,-0.04049654824947357
1789147787388584400,10.68658447265625,-1.405329134533376,0.1695106168085348,-0.6161796741879493
1789147787398557200,10.69655712890625,-2.417908871487616,0.8734755222153116,-1.1510719892873227
1789147787408529400,10.706529296875,2.7827339913919182,2.015702800399897,-1.4203110654203661
1789147787418501400,10.71650146484375,0.2517797214548439,2.8133534633633035,-0.5800041469357515
1789147787428474000,10.72647412109375,-1.9905540906001182,2.85316337760351,-0.04039269467984719
1789147787438446300,10.7364462890625,-3.327085041816699,2.9147239147688664,0.12619398622769196
1789147787448418300,10.746418212890624,-2.3897752786075284,3.0608430915746774,-0.42379118285363493
1789147787458391300,10.756391357421874,0.391652789986485,3.294937151102429,-0.9026617527375589
1789147787468363300,10.76636328125,-2.826252594840576,1.011656911855451,0.10332244358129465
1789147787478335500,10.77633544921875,-4.138247193167304,-1.5105964097261078,-0.11976424158899404
1789147787488308200,10.78630810546875,-2.4421204650351482,-2.041252332555581,0.2240472484511377
1789147787498280200,10.7962802734375,-2.3651551973288267,-0.6468297617975762,-0.15284277167690077
1789147787508252400,10.80625244140625,-1.546299894683206,1.244409591149617,-0.37926414202308295
1789147787518225200,10.81622509765625,0.33623093871835996,2.022228174919491,0.5296246086175711
1789147787528197400,10.826197265625,2.273983780655785,1.379827302145309,0.9226945477483437
1789147787538169300,10.83616943359375,0.426432060522665,-0.7271475993423745,0.5398477956270937
1789147787548142000,10.84614208984375,-1.998526148597116,-1.76751950609079,0.3647151899548204
1789147787558114300,10.8561142578125,-1.9342234156815545,-1.461285019376969,-0.21366436904435104
1789147787568086300,10.866086181640624,-1.5360860769767835,-1.084574338834141,0.05362264131889177
1789147787578059300,10.876059326171877,0.43692632422039196,-1.1219567292125312,-0.5858290147069076
1789147787588031200,10.88603125,1.997642873949826,-0.5311111359563404,-0.5554560580868659
1789147787598003500,10.89600341796875,5.181177110354277,0.39816618464176634,-0.04250210718776795
1789147787607976200,10.90597607421875,3.6918850645499357,0.5562321169932546,-1.4152810041729549
1789147787617948400,10.915948486328125,3.6990089091520133,0.5561369104434667,-1.4177623890644042
1789147787627920400,10.92592041015625,0.3123371169628022,-1.3882771854704825,-0.8251132007748465
1789147787637893000,10.93589306640625,1.6665302603360252,-2.067356592834846,-1.3165319083223535
1789147787647865300,10.945865234375,-3.960132969563942,-1.0658678238264112,-2.2882273463867393
1789147787657837300,10.95583740234375,0.3659509437009632,-1.7643424803963221,-1.6775999182997676
1789147787667810300,10.965810302734376,1.520802650645488,-1.0946657702227682,-1.4648448439464434
1789147787677782300,10.9757822265625,0.9694976138602693,1.4350649301330909,-1.0044565335049536
1789147787687754500,10.98575439453125,-1.4151941260483882,1.6628435511546822,-1.4749168039250171
1789147787697727200,10.995727294921876,-0.3658325445884151,-0.8557195680194039,-0.8397504187522563
1789147787707699200,11.00569921875,-2.646116265244792,-0.7458630455193072,0.3968496519569043
1789147787717672400,11.01567236328125,-2.2352095779662005,1.0341897234653168,-1.1619176385492853
1789147787727644200,11.02564404296875,0.04425936554756093,0.8992346671522085,-0.7447847318617353
1789147787737616400,11.035616455078124,-1.6521238087757142,0.36287211536999353,-1.8352672356465636
1789147787747589400,11.04558935546875,1.7241471396607728,0.832000031611065,-1.2631941231687407
1789147787757561000,11.05556103515625,-0.44650457787236175,-1.2303587716765672,0.42090882965576987
1789147787767533300,11.065533203125,1.9879757164388896,-1.1916711820110062,-0.9082777465746571
1789147787777506300,11.07550634765625,0.36053180199456597,0.35115528870185775,-1.9282996639386099
1789147787787478300,11.085478271484376,0.35851689007627224,0.3510760726124112,-1.9290660647752105
1789147787797450200,11.0954501953125,0.17527300902151488,0.36969054499311726,-0.6178301979262143
1789147787807423200,11.10542333984375,0.7044850116526883,1.0683153755567893,-1.869728770594128
1789147787817395200,11.115395263671877,2.78423689293067,0.2525456308911645,-2.1165287129924395
1789147787827367400,11.125367431640624,1.762999108921597,-0.5355601741618153,-0.9189950987316606
1789147787837340400,11.13534033203125,0.36120841494147404,-0.49790490439416796,-1.102677776160432
1789147787847312100,11.14531201171875,1.57445613676296,-0.08559021598061489,-0.049125399239399216
1789147787857284400,11.155284423828125,3.0441569359606344,0.4071965152911558,-1.4545678493085725
1789147787867257300,11.16525732421875,3.0487818938409483,0.407763529413961,-1.4477954064868659
1789147787877229300,11.175229248046875,-0.30772405406830905,1.0242051756411814,-1.560217467868988
1789147787887201300,11.185201171875,1.0730856531232218,-0.1303079645955375,-0.6208639191408241
1789147787897174300,11.19517431640625,2.5663015622292997,-0.3118172331721619,-1.0553558034042925
1789147787907146200,11.205146240234376,-2.730764998134713,-1.3416846642791227,-1.117878439924188
1789147787917118200,11.2151181640625,-1.2157438543454238,-2.181165832315906,-0.3872530676667928
1789147787927091500,11.225091552734376,0.2419004847745735,-2.0149649083314745,0.21842542289866035
1789147787937063400,11.2350634765625,-0.7865122393441403,-0.9389589697823736,-0.22463315785178942
1789147787947035400,11.245035400390623,-1.59917214736667,0.03700704455941472,0.5154173403986462
1789147787957008400,11.25500830078125,1.2853341676556336,1.195438049763469,1.325345965771854
1789147787966980400,11.26498046875,6.82004463751384,1.7215208462983291,0.8858796913090854
1789147787976952300,11.274952392578124,1.506313121339225,1.234325441950805,-0.10299980327181368
1789147787986925300,11.28492529296875,-1.0943962036383188,-0.7970138874998428,-1.34022861116703
1789147787996897500,11.2948974609375,0.2242307458951789,-1.3178346866606538,-1.1640261236498664
1789147788006869200,11.304869140625,-2.6828711250839565,-0.7940926868699888,-0.3806777985867454
1789147788016842200,11.31484228515625,-4.908383195038658,0.49525747029584705,-0.540697457252216
1789147788026814500,11.324814453125,-1.3673274653724983,0.2954795403024949,-1.4596589833898332
1789147788036786400,11.334786376953126,2.5046998655168657,0.767896059488337,-0.3557529074489038
1789147788046759400,11.344759521484375,-0.34234170179278606,0.8019112707696094,0.7082251950599235
1789147788056731400,11.3547314453125,-3.3440491298572983,-0.8008747769699847,-0.11385733126980457
1789147788066703400,11.364703369140624,-2.139870579649403,-1.5372150552674566,1.7515545644403463
1789147788076676400,11.37467626953125,-0.11495167776446467,-1.4281356595408747,1.3100402409484806
1789147788086648600,11.384648681640623,-1.675477065060969,-0.25324870664860866,0.3925645454622067
1789147788096620300,11.394620361328125,0.16595333731996656,0.26396430313227454,-0.6341941469602426
1789147788106593300,11.40459326171875,1.006692596962778,0.1747754436626002,0.33009587196140744
1789147788116565500,11.4145654296875,3.7919657440264785,3.3933507532837703,-1.0922143236613988
1789147788126537200,11.424537109375,3.7664642095583223,4.558507071664834,-1.2896497383662042
1789147788136510500,11.434510498046874,0.38639857483174905,1.6528898207406195,-0.5819567645118428
1789147788146482400,11.444482421875,-4.503055036186545,-1.7411699806447622,-1.0530762362733288
1789147788156454400,11.454454345703123,-3.4540896866272477,-2.842834288566118,-2.0133663510483557
1789147788166427400,11.464427490234376,-2.8779733324338044,-3.081672689890361,-1.3815363356567973
1789147788176399400,11.4743994140625,0.957525872472508,0.27544239958621175,-1.2904660545712523
1789147788186372400,11.484372314453124,4.994787309336255,0.8255672878923116,-0.5392161851759677
1789147788196344300,11.49434423828125,1.7819891217069879,0.4929639741229645,1.5247090179021519
1789147788206316500,11.504316650390624,-2.1057519569613796,-1.3628410507239301,1.8717121620522632
1789147788216289300,11.514289306640626,-2.6761327383711513,-1.8914439081839372,2.2094909178554234
1789147788226261500,11.524261474609377,-0.41444466918099115,-1.0487435860580183,1.5215529108777985
1789147788236233500,11.5342333984375,-1.3795471264057773,0.5168067329408919,0.052032337213690286
1789147788246206200,11.544206298828126,0.5523957075227213,0.9038469889272679,0.3971039535342066
1789147788256178400,11.554178466796875,2.354733771117218,0.938138106242027,2.441513175847588
1789147788266150400,11.564150390625,4.707582409016066,4.193265112947259,2.7763780727808487
1789147788276123400,11.574123291015624,2.779416806085369,3.4400307217861976,0.46750805976138454
1789147788286095400,11.584095458984375,-12.293180287475769,-5.160153743694604,2.5385522935018923
1789147788296067600,11.594067626953125,-1.7559500888422308,-8.086184253410831,0.8630872902136566
1789147788306040300,11.604040283203124,-2.4548368773269766,-4.28195269973401,0.29009488630372493
1789147788316012300,11.61401220703125,-3.632750330092425,1.736334008360416,-2.531463990507977
1789147788325984500,11.623984619140623,4.9597710299916375,4.007351790590187,-1.4515815426837118
1789147788335957200,11.633957275390625,8.923916022756327,3.2712651822383534,2.7889001459782405
1789147788345929500,11.643929443359376,8.176274432114944,2.1813526621879316,0.27535287795223184
1789147788355901400,11.6539013671875,3.1309292414129737,1.5230464373739794,-1.6184301309236542
1789147788365874200,11.663874267578125,-2.0407208642181276,0.47953544348414995,-0.613358935470823
1789147788375846400,11.673846435546874,0.5731732964890738,-1.1156342758199242,1.20553946733191
1789147788385818400,11.683818359375,-2.759863370505158,-0.17363916631989196,2.0381068420615733
1789147788395791400,11.693791259765623,-6.37957640133884,2.4612110191510936,0.7406075914885691
1789147788405763300,11.703763427734376,3.2234500780454334,3.1012785602023225,-1.6302167208454779
1789147788415735600,11.713735595703126,5.507846818664177,1.1213486068174614,-1.8037730783989783
1789147788425708300,11.723708251953123,0.9646052977081279,-2.1432604861106603,0.6010467488523695
1789147788435680500,11.733680419921876,0.9684776238586784,-2.1433131240095826,0.6049670380773633
1789147788445652500,11.743652587890624,1.0489189208470917,-1.0231356934689715,2.037660708154238
1789147788455625200,11.753625244140624,-2.7708218493011114,1.6110281984145987,2.7865575690055704
1789147788465597400,11.763597412109377,2.2174967253801703,1.7204073856124764,1.7855796462777829
1789147788475569400,11.7735693359375,5.3528203022083805,1.494706192953552,2.3581016036110714
1789147788485542400,11.78354248046875,6.49659304168093,3.3340323299744297,2.359405871122818
1789147788495514400,11.793514404296875,-2.2873347042347434,1.0884171452174412,2.180158226370436
1789147788505486300,11.803486328125,-8.336631763549725,-3.3351609239269524,1.6057925669736137
1789147788515459300,11.813459228515624,-3.56889935121809,-5.1668836363023525,1.318733605836091
1789147788525431300,11.823431396484375,-6.707338117298344,-3.5962031517164603,2.0007420069517896
1789147788535403300,11.8334033203125,-2.60319194709282,0.8434636839658404,0.20341186878604775
1789147788545376300,11.843376220703124,7.288376162204612,0.85194625193579,-0.7773085036053511
1789147788555348500,11.853348388671876,3.480525654282025,-0.8786805131921078,0.3100659356129464
1789147788565320200,11.8633203125,-2.3745801132882858,-2.2092824734143184,1.9813647673631023
1789147788575293200,11.873293212890625,-0.6960861896732657,-1.7748357195629096,3.028445512302631
1789147788585265400,11.883265380859376,0.408514851109483,-0.6614425087224971,0.06870671094986444
1789147788595237400,11.8932373046875,-1.0700541281874654,0.9620110212242796,-1.4283041319107774
1789147788605210400,11.90321044921875,1.2439067268896846,-0.5466140492276488,-1.2147434365673537
1789147788615182300,11.913182373046874,-1.70593822237554,0.3512913968156285,-1.9290918283553316
1789147788625154300,11.923154296875,-3.86552207685065,-0.8904839535781709,-1.2448598623906604
1789147788635127300,11.933127197265623,-0.4933598457882351,-1.3671451702795312,-3.442554247391516
1789147788645099500,11.943099609375,-2.6349486568479743,0.5880150528288869,-2.5899770985322657
1789147788655071200,11.9530712890625,-2.069664531422426,0.8692744583413401,-2.0105809227821347
1789147788665044200,11.963044189453123,2.248657889899741,0.38645085237217,-1.018921269521979
1789147788675016400,11.973016357421876,-1.1665579725054376,2.8761977219001733,0.26928277488835706
1789147788684988200,11.98298828125,-0.5135896677706397,4.431440246260999,0.3154446170486238
1789147788694961400,11.99296142578125,3.1993167647755443,2.3624732302676237,-0.24291543350922365
1789147788704933400,12.002933349609377,0.7703268402788687,-2.219766770127401,1.7826156929785955
1789147788714905300,12.0129052734375,4.472706402978,-5.054199706078443,0.7231207821103782
1789147788724878300,12.02287841796875,-1.3858923898434476,-3.1742612438233246,0.27907329823196875
1789147788734850300,12.032850341796877,-3.9528457654518574,-1.1244977002371148,0.4003167467658181
1789147788744823600,12.042823486328125,-4.057805337889537,2.4728440873969575,-0.8635975211676807
1789147788754795300,12.052795166015626,6.517495264996981,1.781266258812899,0.42378090631047427
1789147788764767500,12.062767578125,3.597017109818663,2.4445201800137775,2.7364544686659906
1789147788774740500,12.072740478515623,-1.6122848640861613,0.09438617993763251,1.4930991043759736
1789147788784712200,12.082712158203124,-3.670324110875823,-0.6165045052703768,1.4707359777517623
1789147788794684400,12.092684326171875,-0.7338315399980669,-1.0947682967479706,-0.17301621298289202
1789147788804657400,12.102657470703123,-1.3527953822803065,-0.19330577236120738,-0.08165154050994176
1789147788814629400,12.11262939453125,-0.7854903772079058,0.31749370317508213,-1.5673304916114077
1789147788824601300,12.122601318359376,2.0258733697967624,0.0006742965682254748,-1.4736897942480987
1789147788834574300,12.13257421875,-0.1331501496275749,-1.1760443556024198,-0.79673647093911
1789147788844546300,12.14254638671875,0.9816108958455533,-1.4007542410120515,0.261327958825538
1789147788854518500,12.1525185546875,-0.10670405716256721,-0.2519152406563444,0.4836760643603383
1789147788864491500,12.162491455078126,-1.086523180971787,-0.12909230947400163,-0.024883263055191264
1789147788874463200,12.172463134765623,0.35762633866186877,-0.07615003462262229,-0.3480817103280974
1789147788884435500,12.182435546875,3.1200266257417204,-0.84998127991198,-0.6438341559950833
1789147788894408400,12.192408447265626,1.6980134045646116,1.854752615599368,-1.1316006086519108
1789147788904380400,12.20238037109375,1.1309635045221271,2.232526168479242,-1.5798478510108833
1789147788914352400,12.212352294921876,-2.5592928746869013,-0.514314380723889,-0.3439750041043606
1789147788924325400,12.222325439453124,-1.9959773328388657,-3.1085045723142204,0.4725778837684301
1789147788934296600,12.232296630859375,-3.694837442731797,-2.524882702104177,-0.9307642434729032
1789147788944268800,12.242268798828125,-1.2202624729622584,-0.7394298956928594,-2.0860949790196135
1789147788954241800,12.25224169921875,2.6660144761871023,0.9937738163501587,-0.21829900931577287
1789147788964213500,12.262213623046875,6.049401239348694,1.4845565429780332,0.38962528332638013
1789147788974185700,12.272185791015623,2.022233593334478,1.8795266127502492,-0.6061283388956764
1789147788984158700,12.28215869140625,-0.20318256008762592,0.5246855911152667,0.38510736558902775
1789147788994130700,12.292130615234376,1.1755614077429495,0.8352443253801126,0.6155450576109889
1789147789004102700,12.3021025390625,-1.169200478372268,1.0116187816471875,0.07191458137476787
1789147789014075600,12.31207568359375,-3.9517376647270703,0.9234287070322217,-0.006863552435192888
1789147789024047600,12.322047607421876,-2.2777567442990665,0.6575137610522424,-1.043559328342484
1789147789034019600,12.33201953125,1.5409710912916883,-0.05046371248098871,-0.9680881475336651
1789147789043992800,12.341992919921877,-1.4304465423123498,-1.2968934935409453,-0.34808231505310366
1789147789053964500,12.351964599609374,-0.6931807540399637,-2.2280860220716483,0.9435551576945848
1789147789063936800,12.361936767578126,0.35679512696337673,-0.8203041134290733,1.3337100965740512
1789147789073909800,12.37190966796875,0.24586837112627868,-0.1512048263305253,2.3596885549739297
1789147789083881700,12.3818818359375,0.08310381518406362,1.0246788192726182,1.5374666657909297
1789147789093853700,12.391853759765626,3.214904484817672,1.1157361883069385,0.4219761617971374
1789147789103826700,12.40182666015625,2.793930311648163,2.252675176111444,-0.8653005975429263
1789147789113798700,12.411798583984377,0.09843105115958328,0.8557757388528087,0.5599649199499217
1789147789123770600,12.4217705078125,-2.199138853599636,-0.932717931823144,0.8072787838964333
1789147789133743900,12.431743896484376,-2.550324249952236,-2.288601807414621,-0.22629895727897595
1789147789143715600,12.441715576171877,-1.404960844339034,-1.5388415046638964,-0.3185815129727742
1789147789153687800,12.451687744140624,-0.05966554249759928,-0.5693179343198121,0.3458935561486798
1789147789163660800,12.461660888671876,1.9995310276781106,0.45993832300132254,-0.34168101109073923
1789147789173632500,12.471632568359375,4.7517474520585985,2.2320566983346324,1.0100759705087439
1789147789183604700,12.481604736328125,10.492811845476199,6.740614694255353,-0.06612245869098597
1789147789193577700,12.49157763671875,4.411344086938539,6.3287884159211885,0.6947027615855403
1789147789203549700,12.5015498046875,-10.19366828120666,0.3821715730820903,1.3349451285070375
1789147789213521700,12.511521728515625,-11.56016668037659,-5.430808849037786,1.4049028425585943
1789147789223494700,12.52149462890625,-2.1470447899646334,-5.875323759268819,0.20312068087358467
1789147789233466600,12.531466552734376,-7.427289773463978,0.0937509480184888,0.3756240677872336
1789147789243438800,12.54143896484375,5.892774242928437,0.844472750510565,-1.8200764353740748
1789147789253411800,12.551411865234376,-1.8910106746288502,-2.346941053118399,-1.1468485971286981
1789147789263383600,12.561383544921876,-8.36884459314996,-6.442376952871115,-0.1619904354553481
1789147789273355800,12.571355712890623,-2.2360672230653216,-3.647797840105321,0.12427136491752551
1789147789283328800,12.581328857421877,2.83907786241828,-1.3621192395963047,-0.0842798402176053
1789147789293300700,12.59130078125,0.577566722973051,0.18533840358356463,1.8639349068879438
1789147789303272700,12.601272705078124,2.197725430804559,1.3332327920027334,1.6856627612020076
1789147789313245700,12.61124560546875,10.305071186368936,3.441174766209036,-0.6258469058948705
1789147789323217700,12.6212177734375,14.344081774250366,8.839763175089983,-1.8379306864863192
1789147789333189600,12.631189697265626,-1.5443191499807771,7.929450679887753,-0.3413286182358534
1789147789343163000,12.641162841796875,-17.625540299798057,-2.7443728109737795,1.6756978184141773
1789147789353134600,12.651134521484376,-7.427546881050184,-11.344782510477627,3.6775141305595147
1789147789363106800,12.66110693359375,-6.139321742954743,-7.2653017932906,2.914318510685194
1789147789373079800,12.671079833984376,-0.26870101074226926,2.801677632605199,-0.941722233198874
1789147789383051500,12.681051513671877,11.605251639792467,6.46094499465557,-2.3395387716880265
1789147789393023700,12.691023681640624,13.16298708064309,6.718326773923549,0.73327760435457
1789147789402996700,12.700996826171876,-6.269604029239213,0.3572485986535733,2.8859718684079527
1789147789412968700,12.71096875,-10.197402803277772,-4.330605845375903,2.5857548177053924
1789147789422940700,12.720940673828125,-2.157431393214422,-5.824928956838281,3.1309019478887246
1789147789432913700,12.73091357421875,-5.502602398191182,-3.1803099259089342,1.2262783885724322
1789147789442885600,12.7408857421875,-1.3135323017807803,2.880325909940104,-3.4932977743906357
1789147789452857900,12.75085791015625,7.90082141460838,6.397344119147687,-1.8036096032047686
1789147789462830600,12.76083056640625,11.152449000309286,4.794580277999072,2.4325397341881434
1789147789472802600,12.770802490234376,2.899886448004941,-0.8111440486234662,4.319550537475758
1789147789482774800,12.78077490234375,-6.48493713852474,-4.249678049991986,3.7434804375415003
1789147789492747500,12.79074755859375,-3.266777517699682,-4.092443246298446,1.161596887648096
1789147789502719700,12.8007197265625,-2.7880837953924793,-0.9015890081677064,-2.137981168651779
1789147789512691700,12.810691650390623,7.673762800707984,0.9742995636931032,-2.4043164046777683
1789147789522664400,12.82066455078125,10.215158897173792,-0.25697561620814635,-0.15217860909820768
1789147789532636700,12.83063671875,-4.775718142425356,-3.2330639898195748,3.0956737937500933
1789147789542608600,12.840608642578124,-6.54561099922631,-4.909501642491722,-0.22863585558380453
1789147789552581600,12.85058154296875,-3.839821562194821,-2.0560516788165146,-1.0722754333706925
1789147789562553600,12.8605537109375,-1.5700635401811804,-1.6027453937263256,-1.0178858707389435
1789147789572525800,12.87052587890625,-2.873267792184354,-0.6514457933827533,-1.0603324446451554
1789147789582498600,12.88049853515625,0.8636445269088896,1.7808154947454566,-0.35620455838313164
1789147789592470500,12.890470458984376,9.972377280321375,1.3179281534063367,-0.25949240404602775
1789147789602442800,12.90044287109375,6.286740692948221,1.538031389668528,0.6890102924829787
1789147789612415500,12.91041552734375,-1.9501418770558203,0.08438577938779744,1.8724809430669154
1789147789622387700,12.9203876953125,-0.7473000338983341,-1.7489158270894334,-1.428710098401894
1789147789632359700,12.930359619140624,-0.5827804799447355,-1.0860199434351012,-2.1696260576189306
1789147789642332700,12.940332763671876,-7.679540475474384,2.2292484633379845,-1.4178645332747557
1789147789652304600,12.9503046875,0.7919890534352979,3.3022880121313816,-2.367877038295601
1789147789662276900,12.96027685546875,7.8234518299046965,4.829398350219629,-1.4732144516467434
1789147789672249600,12.97024951171875,1.9854894782908208,2.9230281374109444,1.8776249791002435
1789147789682221600,12.9802216796875,-1.3394543012487237,-0.9674266949844349,0.8460973879457893
1789147789692193800,12.99019384765625,-1.0422146006142081,-1.6191360754107949,0.6810471839705194
1789147789702166500,13.00016650390625,-4.713403867600427,-0.7305774476849278,0.9723304601630954
1789147789712138800,13.010138671875,-6.334074593071538,1.2022417332307604,1.2922388084613008
1789147789722110700,13.02011083984375,1.4743828541670736,1.7319630139310103,-0.1884994334127277
1789147789732083500,13.03008349609375,2.9223834827504978,1.2579737920568195,1.444434214821183
1789147789742055700,13.0400556640625,-0.42225157483128706,-1.7590708341729138,3.1584643777213524
1789147789752027600,13.050027587890623,-1.1736808182599914,-2.049566387939602,3.1810047203573295
1789147789762000600,13.060000732421877,-2.164632968236666,-1.2290813547343888,1.3006803753192735
1789147789771972600,13.06997265625,-3.995034773356588,0.6133732693363574,0.3817282697912985
1789147789781944800,13.07994482421875,0.743510348640466,0.7751662176429208,0.04734322411883953
1789147789791917600,13.08991748046875,5.337751845304417,0.810414170722665,0.9997016685392751
1789147789801889500,13.0998896484375,0.48473109798916864,0.7938171822971473,2.3420428113777954
1789147789811861800,13.10986181640625,-3.58550401469151,-1.9430846909904858,0.6577555684149323
1789147789821834500,13.11983447265625,-3.842348121802437,-2.5906121948715897,-0.1985312028219631
1789147789831806700,13.129806640625,-2.366620372756643,-2.7894408185753714,-0.7611283472292592
1789147789841778700,13.13977880859375,-3.127074225601397,-1.469960798562096,0.013082815989819972
1789147789851751700,13.149751708984375,1.9105309885113055,-1.82616408472291,-0.5850724050740909
1789147789861723600,13.1597236328125,1.7724906789986006,0.7221978713361967,0.4442822034271248
1789147789871696000,13.16969580078125,-1.281226687497057,1.2692637243034202,0.677636557923882
1789147789881668600,13.179668701171876,-0.06331992472915059,-0.27647767725343747,0.004394076443607878
1789147789891640600,13.189640625,-0.8488145785158173,0.21787524074445824,0.3869550858426581
1789147789901612800,13.19961279296875,-1.7383409865960249,0.7248390908206906,-0.7217808299573807
1789147789911585500,13.20958544921875,-1.0926023073912345,-0.4224160306541152,-1.711706359707758
1789147789921557800,13.219557861328123,-3.4669282357337536,1.3460456773132603,-1.8434902780966882
1789147789931530200,13.2295302734375,-3.123199455838673,3.1017768165976514,-2.0333727317542927
1789147789941503200,13.239503173828124,4.20534077566943,3.377687330733071,-1.4334834473651812
1789147789951475500,13.249475341796876,1.1276378896299004,1.0010547147436724,0.6856221440049269
1789147789961447200,13.259447265625,0.9053796268350689,-4.207474413181153,1.3235310871355335
1789147789971420400,13.26942041015625,-2.3357812531040523,-3.050960282051292,0.9757849165278573
1789147789981392400,13.279392333984376,-3.3389356678212097,-1.0281960293877446,-0.35867001278962124
1789147789991364400,13.2893642578125,-0.2409153413237542,1.0839405441486056,-0.8757857522101333
1789147790001337300,13.29933740234375,3.7247141449711663,2.8164592563951683,-1.4603618310773556
1789147790011309300,13.309309326171874,6.39504651930008,2.5135423305177493,-0.4955188452599737
1789147790021281300,13.31928125,5.907013683569943,2.707715917849594,1.4411050722805647
1789147790031254300,13.329254150390623,1.0450673824777024,3.194884086162876,1.95315077042747
1789147790041226500,13.3392265625,-0.5545401419648316,2.3722199223801947,1.2347145296153161
1789147790051198200,13.3491982421875,-0.9890836936723927,0.9615924021016716,1.0277315529562727
1789147790061171200,13.359171142578123,-2.3348221623951977,-0.35489628222459285,-0.13768783121073452
1789147790071143400,13.369143310546876,-2.664358111536549,-0.5332917842547686,-1.6969987964843263
1789147790081115100,13.379115234375,1.422888731179834,-3.9700096591494534,-1.26479833271338
1789147790091088400,13.38908837890625,0.3962477160157328,-4.981658622661788,-0.8236863394259091
1789147790101060400,13.399060302734377,-1.4650611321208191,-4.198909355953093,0.3629441925353616
1789147790111032300,13.4090322265625,-0.24684643704039447,-2.5980822599125273,-1.6983686536660727
1789147790121005300,13.41900537109375,-1.493891172389544,-0.41525280821373783,1.0617007122126592
1789147790130977300,13.428977294921877,-0.22614571410714995,-0.016257683038450946,0.08258263061399591
1789147790140949200,13.43894921875,8.144944352398637,0.9854390686674598,-1.1042642004298455
1789147790150922200,13.448922119140626,5.932336686946665,4.258003723094919,-3.1658010232959546
1789147790160894500,13.45889453125,2.1321997343247854,3.1177977114561553,-2.4770319895189905
1789147790170866200,13.4688662109375,-2.063402931938024,0.6633932621346152,-1.001133128035375
1789147790180839400,13.47883935546875,-0.8002655222293504,-1.6432342595311036,-0.08798694613637967
1789147790190811400,13.488811279296876,-4.594338988934762,-0.7634181716880848,-2.4482111578584815
1789147790200783400,13.498783447265623,-4.2880406634571955,0.18435714104244388,-1.719789134640917
1789147790210756400,13.50875634765625,5.705977169728136,0.6627142198975117,-0.6228219560699692
1789147790220728300,13.518728271484376,2.1595996552341172,-0.08499003562918003,-0.16069027412996786
1789147790230700300,13.5287001953125,-6.271019447887928,-2.8231062169926697,-0.8919632233923667
1789147790240673300,13.53867333984375,-4.198037547043962,-4.225408133823856,-0.11729406105377399
1789147790250645500,13.5486455078125,-2.709142593023122,-3.2909294674819676,1.0960897022977398
1789147790260617200,13.5586171875,-4.049428012734687,-0.28483339240023187,0.3547253160297724
1789147790270590200,13.568590087890623,-0.8596182879707573,1.3059155588816398,1.1167968237991321
1789147790280562400,13.5785625,3.5547849029584615,2.212553004518193,2.0197826799164003
1789147790290534100,13.5885341796875,-0.3110154378385027,1.953144648261235,0.2400099131604307
1789147790300507400,13.59850732421875,-4.185602655347393,0.08185579434706451,-1.1479118311373016
1789147790310479400,13.608479248046876,-1.6877061799214856,-0.6841303805433763,-0.7305957535329713
1789147790320451300,13.618451416015626,-1.113696698334751,-0.5880024596488695,-1.5131466840501824
1789147790330424300,13.62842431640625,-0.11268833096587565,0.32881412485678635,-1.5336124268875302
1789147790340396300,13.638396240234377,3.3127019930075177,-0.8840435541472056,-0.4930171149357294
1789147790350368300,13.6483681640625,1.0378419792643627,-1.0346939673725177,0.6844037297184032
1789147790360341200,13.65834130859375,-1.223904863265718,-1.5074009907393486,0.8866031393563282
1789147790370313200,13.668313232421877,-1.2275774426943453,-1.5075034432272205,0.8980198176435892
1789147790380285200,13.67828515625,0.7602659919820676,1.9818252785620938,0.5131820073061231
1789147790390258400,13.688258544921876,-1.1051699919102473,2.044759883146143,1.5395889711164634
1789147790400230100,13.698230224609375,1.0101977257782997,1.4226922188801527,1.0785262324212668
1789147790410202400,13.708202392578125,-1.3646063751413167,2.359271348440973,1.2262255103868342
1789147790420175400,13.71817529296875,1.9274595053656858,3.998361069038515,0.8906662028254924
1789147790430147000,13.72814697265625,6.8276941228280394,6.1849184748623705,-0.29264850906247175
1789147790440119300,13.738119384765625,6.841027098911589,6.184961860562713,-0.28694078259980493
1789147790450092300,13.74809228515625,-6.751319266563783,-3.441170771145373,0.49109666148640313
1789147790460064300,13.758064208984376,-1.0934345491745368,-5.604283189135937,-0.6575364257805651
1789147790470036200,13.7680361328125,-5.1266673796799385,-2.682980953826883,-1.0417840630296
1789147790480009200,13.77800927734375,-0.28659271857639,1.5333573686803386,-1.9905350668668322
1789147790489981200,13.787981201171876,8.482792201642065,1.373861756058207,-0.874155412885108
1789147790499953200,13.797953125,2.713885208379516,0.6148347335351804,1.6775576783235426
1789147790509926400,13.807926513671877,-1.803642163471238,-2.6943851734694935,1.3253190284109497
1789147790519898000,13.817898193359374,-3.706396755939042,-2.9791157360106424,0.6871974864328433
1789147790529870300,13.827870361328126,-2.0883763303478498,-1.7736944860334625,0.3995299394247751
1789147790539843300,13.83784326171875,-1.5657580085764793,-0.9422795169133679,0.4242897299637589
1789147790549815300,13.847815185546876,2.030888056020495,0.2221696806615271,-1.4081062205033017
1789147790559787300,13.857787353515626,5.451142239432014,0.2580696710528944,-0.40191908773924423
1789147790569760300,13.86776025390625,-1.282376334482075,-0.6455594929452713,2.4535611488717652
1789147790579732200,13.877732177734377,-2.05061517742474,-2.405394411800651,0.09608709430351596
1789147790589704200,13.8877041015625,-0.1239142830996239,-2.3333347424843978,0.8521335382975065
1789147790599677400,13.897677490234376,-2.87825665968749,-2.015980730686357,1.7337830627620172
1789147790609649200,13.907649169921877,-1.2987393716558588,-1.4978380017879405,0.4957400612895443
1789147790619621400,13.917621337890624,-1.301287242050985,-1.4977838274438968,0.49228390421304924
1789147790629594400,13.927594482421876,1.7687957935507164,1.0139318189802342,1.2117195753203083
1789147790639566000,13.937566162109375,-0.3678823465039206,1.8714180125216142,0.3007847304583892
1789147790649538300,13.947538330078125,0.6477275474860392,1.5059574333657393,-0.03354724170369324
1789147790659511300,13.95751123046875,1.022269622935906,1.2307371335619537,0.3785950116240979
1789147790669483300,13.967483154296875,-1.401119925598598,1.9214236148552497,0.23912916679447602
1789147790679455200,13.977455322265625,-1.8375053154408123,0.8648455693648558,-0.7694141222264992
1789147790689428200,13.98742822265625,-3.5735415925159137,1.8579517320530838,-0.24444414229764394
1789147790699400200,13.997400146484376,1.2815311899842972,3.0877559393596243,-0.11783379934539696
1789147790709372200,14.0073720703125,2.0327013603351145,2.3270196960387253,0.5578625709164887
1789147790719345400,14.017345458984376,2.405619681099929,0.05844853626274978,0.7400283338517663
1789147790729317000,14.027317138671876,-0.29168907019703916,-0.11003549604920139,1.8411676436484248
1789147790739289300,14.037289306640623,-2.191703439966314,0.4876393082977037,0.16833140923800452
1789147790749262300,14.047262451171877,-3.0151222604023045,1.2690615738382143,-0.780646289429385
1789147790759234300,14.057234375,-0.4643329635756921,1.3392452050787294,-0.8233890320104336
1789147790769206300,14.067206298828124,2.9018543411160946,-0.5073924170982632,-0.044424220659863026
1789147790779179300,14.07717919921875,-1.7356671849807517,-3.391618904462034,1.8876689552160646
1789147790789151200,14.087151123046874,-1.7407893012310258,-3.3916763462950223,1.8725177493197234
