time,seconds_elapsed,z,y,x
1789147778243934700,1.541934814453125,-5.375701688975095,-7.991572754400968,-1.8458005929037928
1789147778253906700,1.55190673828125,-5.384278378662467,-7.976964383333921,-1.8836099529467525
1789147778263879700,1.561879638671875,-5.405007862958311,-7.953795104670524,-1.9218248250506813
1789147778273851600,1.5718515625,-5.427770314386486,-7.928351451334357,-1.9623753004953264
1789147778283824600,1.58182470703125,-5.443545975667238,-7.907518506664037,-2.0023319017000496
1789147778293796900,1.591796875,-5.448735361003876,-7.8937986088693135,-2.041960147733241
1789147778303768600,1.6017685546875,-5.45622425545454,-7.876552875036,-2.088039177341014
1789147778313741600,1.611741455078125,-5.45131894775629,-7.867320351788401,-2.135126799469441
1789147778323713800,1.6217138671875,-5.44378387607634,-7.860769614970684,-2.178051602829993
1789147778333685800,1.631685791015625,-5.443167790004611,-7.850564447298645,-2.216066422317177
1789147778343658800,1.64165869140625,-5.442399143719673,-7.840551587328314,-2.2530917923755944
1789147778353630700,1.651630615234375,-5.446586658537387,-7.826509617972373,-2.2914695999562738
1789147778363602700,1.661602783203125,-5.453544222590327,-7.811565731340647,-2.3256591620668767
1789147778373575700,1.67157568359375,-5.456790657165646,-7.798254998868703,-2.362423981492966
1789147778383548000,1.6815478515625,-5.460763652449846,-7.782965659800172,-2.403309241849929
1789147778393521000,1.69152099609375,-5.462651073631644,-7.768416325443982,-2.445719665947556
1789147778403492600,1.70149267578125,-5.468303400304913,-7.750725770452618,-2.4888342927917835
1789147778413464800,1.71146484375,-5.476446374750137,-7.731527733507752,-2.5302976452976464
1789147778423437800,1.721437744140625,-5.486463910895585,-7.712081274759769,-2.56766554518342
1789147778433409800,1.731409912109375,-5.494558370023966,-7.694657846271991,-2.6023969590857625
1789147778443381800,1.7413818359375,-5.50529136096239,-7.676386861044168,-2.633483879005909
1789147778453354800,1.751354736328125,-5.513466484111548,-7.65941117632389,-2.6656112478896974
1789147778463326700,1.76132666015625,-5.523026339617371,-7.640562098947167,-2.699700856757164
1789147778473298700,1.771298583984375,-5.53518790205419,-7.6190902718514195,-2.735240372171998
1789147778483272000,1.78127197265625,-5.552257110276818,-7.595023167565465,-2.7673881993219256
1789147778493243600,1.79124365234375,-5.567536512473225,-7.573943554657697,-2.7943349506974218
1789147778503216600,1.801216552734375,-5.592811823505163,-7.545852017161249,-2.819743240459263
1789147778513188900,1.81118896484375,-5.611470346745849,-7.522571094816922,-2.8447689606443047
1789147778523160600,1.82116064453125,-5.628557675147056,-7.499599969074129,-2.871539770931005
1789147778533133800,1.8311337890625,-5.644657161554694,-7.476392111966013,-2.900307892514765
1789147778543105800,1.841105712890625,-5.651913416293263,-7.458696880799532,-2.931569292218983
1789147778553077800,1.851077880859375,-5.659623260018229,-7.442761060521006,-2.957086887574196
1789147778563050800,1.86105078125,-5.671489054378867,-7.425847919642925,-2.976806902566552
1789147778573022700,1.871022705078125,-5.681007408830523,-7.412710205650329,-2.991365589272976
1789147778582994700,1.88099462890625,-5.687380450993776,-7.399765968403219,-3.0112387490004298
1789147778592967700,1.8909677734375,-5.696603037369251,-7.384003751125931,-3.032422991326451
1789147778602940000,1.90093994140625,-5.701543416380882,-7.370316002035141,-3.056343965139985
1789147778612912600,1.91091259765625,-5.701981807798147,-7.360788295233249,-3.07840703612715
1789147778622884900,1.920884765625,-5.70081977828145,-7.353538470235467,-3.097822807475924
1789147778632856800,1.93085693359375,-5.7033431592792265,-7.344985745945572,-3.11343158775717
1789147778642829600,1.94082958984375,-5.704651903790235,-7.338986797791719,-3.125156220081448
1789147778652801800,1.9508017578125,-5.705691768231987,-7.332714293393492,-3.1379549113780256
1789147778662773800,1.960773681640625,-5.708247297933697,-7.326324884617328,-3.148216485412419
1789147778672746800,1.970746826171875,-5.708520269656181,-7.322843472242355,-3.1558100092813373
1789147778682718700,1.98071875,-5.709128756943345,-7.319975223329663,-3.1613574142754075
1789147778692691000,1.99069091796875,-5.706373320755362,-7.320362761342525,-3.165435331238806
1789147778702663700,2.00066357421875,-5.706268691337108,-7.3193170516818755,-3.1680396685183045
1789147778712635600,2.0106357421875,-5.706612974730134,-7.317969144204259,-3.1705332388997074
1789147778722609000,2.02060888671875,-5.708497473302483,-7.317000591433048,-3.1693755932971834
1789147778732580600,2.03058056640625,-5.711220760786533,-7.315777187117934,-3.16729294180423
1789147778742552800,2.040552734375,-5.711039559000731,-7.317279408374429,-3.164149967603385
1789147778752525800,2.05052587890625,-5.709500512865185,-7.320936761838197,-3.158459939268232
1789147778762497500,2.06049755859375,-5.7020531194686885,-7.330668466779589,-3.149329122829437
1789147778772469800,2.0704697265625,-5.6888031772732734,-7.34435563134849,-3.141391315567493
1789147778782442800,2.08044287109375,-5.672685570687055,-7.361194537946582,-3.131106652918458
1789147778792414700,2.090414794921875,-5.659009512034058,-7.377604405477642,-3.1172017539456487
1789147778802387700,2.1003876953125,-5.645365017563105,-7.394539173665643,-3.1017779748424887
1789147778812360000,2.11035986328125,-5.636303174707293,-7.408709153315424,-3.084397508713603
1789147778822331600,2.12033154296875,-5.6300061203897,-7.422073661801218,-3.0636987118169663
1789147778832304600,2.1303046875,-5.629132844686508,-7.43447312464714,-3.035104193234444
1789147778842276900,2.14027685546875,-5.621860807856917,-7.449801042160391,-3.010901772131026
1789147778852248600,2.15024853515625,-5.617438315239548,-7.461585003456473,-2.989900777417421
1789147778862221800,2.160221923828125,-5.606271024537087,-7.4785238632977,-2.96846489841789
1789147778872193800,2.17019384765625,-5.59050413108468,-7.500165201741456,-2.943496169117093
1789147778882165800,2.180165771484375,-5.576763775023817,-7.519794031319022,-2.919382010819018
1789147778892138800,2.190138671875,-5.567223208740353,-7.538253817117214,-2.8898329679906367
1789147778902110700,2.20011083984375,-5.560462628564238,-7.555314257511496,-2.8581211941704154
1789147778912083700,2.210083740234375,-5.558253135821223,-7.568338574257493,-2.827799997925758
1789147778922056000,2.220055908203125,-5.556699476638436,-7.58182817042768,-2.794525212572515
1789147778932028200,2.230028076171875,-5.559648389571905,-7.591467520910501,-2.762301689837873
1789147778942001200,2.240001220703125,-5.562095198202133,-7.601739324077964,-2.7289266589805483
1789147778951972900,2.249972900390625,-5.572155988967419,-7.605673740917444,-2.697255217170716
1789147778961945000,2.259945068359375,-5.58049010207057,-7.609440984496474,-2.6692569109156725
1789147778971918000,2.26991796875,-5.5795759098351,-7.619270304593443,-2.642999603109061
1789147778981890000,2.27989013671875,-5.568280608838796,-7.638623824360966,-2.610760298283398
1789147778991862000,2.289862060546875,-5.560149909353256,-7.657161351570487,-2.5735207009524106
1789147779001835000,2.2998349609375,-5.549973967775702,-7.678028198510407,-2.5329937525138257
1789147779011807000,2.309806884765625,-5.5368923678845166,-7.701107460802793,-2.491215342709422
1789147779021780000,2.319780029296875,-5.525133541029692,-7.723517445531487,-2.4475625173352658
1789147779031752200,2.329752197265625,-5.521078712680936,-7.738557778275013,-2.408898001767694
1789147779041724000,2.339723876953125,-5.5229865921288726,-7.747191166585683,-2.3765610817864538
1789147779051697000,2.34969677734375,-5.521924515855312,-7.758158550801872,-2.343013763102144
1789147779061669000,2.359669189453125,-5.522222037497163,-7.7690715744823216,-2.305854537530988
1789147779071641000,2.36964111328125,-5.523578128281235,-7.778676438173651,-2.2699467733256515
1789147779081614000,2.379614013671875,-5.528124539539218,-7.785434095740317,-2.2354522369191048
1789147779091585800,2.389585693359375,-5.534714439323544,-7.790754413980245,-2.200333723395317
1789147779101558000,2.39955810546875,-5.539916684141755,-7.795677257335186,-2.169589479433
1789147779111531000,2.409531005859375,-5.540283763888478,-7.8046753873050205,-2.136044206575304
1789147779121503000,2.4195029296875,-5.538822459164262,-7.812579876819252,-2.1107858466781675
1789147779131476000,2.42947607421875,-5.533979695308208,-7.8220754349172115,-2.088205912210047
1789147779141448000,2.439447998046875,-5.526083389100432,-7.833254416057467,-2.0671064255580305
1789147779151420000,2.449419921875,-5.504036392465234,-7.853995006269216,-2.047130389977992
1789147779161393000,2.459392822265625,-5.473976185244322,-7.880510088229179,-2.025719353158772
1789147779171365000,2.469365234375,-5.458207538226247,-7.894656102481484,-2.013145556659252
1789147779181336800,2.4793369140625,-5.452422525084018,-7.902482266062497,-1.9980605079911649
1789147779191309800,2.489309814453125,-5.44921291538775,-7.905940882083773,-1.9931287506774067
1789147779201282000,2.499281982421875,-5.444600453156233,-7.911991268163919,-1.9816972560808064
1789147779211253800,2.509253662109375,-5.434838353076577,-7.922823043301701,-1.9651481262095272
1789147779221227000,2.51922705078125,-5.43973664651215,-7.924379040572047,-1.945216952684521
1789147779231199000,2.529198974609375,-5.458254884499311,-7.912723089569806,-1.940789930022508
1789147779241172000,2.539171875,-5.4564755998671055,-7.914773592358827,-1.937427175591141
1789147779251144000,2.54914404296875,-5.467854487493634,-7.905937374952435,-1.941419313967228
1789147779261116000,2.559115966796875,-5.481109690386057,-7.895025520315766,-1.948433284382522
1789147779271089200,2.569089111328125,-5.482680300703644,-7.893630266565084,-1.9496673562221227
1789147779281060900,2.579060791015625,-5.476797087883949,-7.898202981308102,-1.94768611927703
1789147779291033000,2.589033203125,-5.493987876659632,-7.8845637475341555,-1.954519764689356
1789147779301006000,2.599006103515625,-5.500375531870127,-7.878049835595488,-1.9627984943434595
1789147779310978000,2.60897802734375,-5.488041535475849,-7.886209761175513,-1.9645529367953536
1789147779320950000,2.618949951171875,-5.496891196885705,-7.877921240779757,-1.973049254722893
1789147779330923000,2.628923095703125,-5.512534171697497,-7.864350396066904,-1.983519941463321
1789147779340895000,2.63889501953125,-5.509195967185497,-7.865207889679074,-1.989385618626326
1789147779350868000,2.648867919921875,-5.507942752254009,-7.8627353620857,-2.002585145808756
1789147779360840200,2.658840087890625,-5.510134709340334,-7.853809128308296,-2.031375771485269
1789147779370812000,2.66881201171875,-5.505951870697737,-7.85035109680891,-2.05593621224612
1789147779380785000,2.678784912109375,-5.495925566723942,-7.853385349938273,-2.0711182915478945
1789147779390757000,2.688757080078125,-5.493283527782559,-7.850284461313485,-2.089795811749995
1789147779400728800,2.698728759765625,-5.493633656394481,-7.844266223937272,-2.111366715306044
1789147779410702000,2.7087021484375,-5.4959238131582735,-7.8378914282083505,-2.1290083165891467
1789147779420674000,2.718674072265625,-5.504575321647525,-7.827465311262011,-2.144951004999876
1789147779430646000,2.72864599609375,-5.513323276248574,-7.814948944038152,-2.1679975340664384
1789147779440619000,2.738618896484375,-5.516719348427653,-7.804974077990651,-2.195125341097265
1789147779450591000,2.748591064453125,-5.517177029067278,-7.796106880924105,-2.225276149211078
1789147779460563000,2.75856298828125,-5.524735481622815,-7.781503186032175,-2.257408194269985
1789147779470536000,2.768535888671875,-5.52599571081698,-7.771232551908493,-2.289473749963939
1789147779480508200,2.778508056640625,-5.538734196358919,-7.754040594089031,-2.316820606572926
1789147779490481000,2.78848095703125,-5.547641725435852,-7.74040837457776,-2.3409667674444616
1789147779500453000,2.798453125,-5.562057788801193,-7.721558712679148,-2.3688474386692047
1789147779510425000,2.808425048828125,-5.57243363686502,-7.704011950072646,-2.401370236611366
1789147779520397800,2.818397705078125,-5.580840815204382,-7.686496167126298,-2.4376972491420803
1789147779530370000,2.8283701171875,-5.5848190711855885,-7.671555203104019,-2.475362816800177
1789147779540342000,2.838342041015625,-5.595946614399552,-7.652088870611786,-2.510240653435886
1789147779550315000,2.84831494140625,-5.593724262174963,-7.642394575071334,-2.5444921748667952
1789147779560287000,2.858286865234375,-5.591124308809638,-7.633315196558833,-2.5772484893038867
1789147779570260000,2.868260009765625,-5.582264126005769,-7.6279978009283536,-2.611965582419932
1789147779580232000,2.87823193359375,-5.577204504528641,-7.618835420307517,-2.64924989567548
1789147779590204000,2.888203857421875,-5.566805860111117,-7.611786670839786,-2.6910525631383058
1789147779600177200,2.89817724609375,-5.554530900427698,-7.606533572617173,-2.7309742391601204
1789147779610148900,2.90814892578125,-5.5499055787146085,-7.59941526504457,-2.76004105142951
1789147779620121000,2.91812109375,-5.547053696414828,-7.593340329045056,-2.7824033976241944
1789147779630094000,2.928093994140625,-5.550138218426704,-7.585518841639161,-2.7975457294374704
1789147779640065800,2.938065673828125,-5.559387692809104,-7.574590035867691,-2.808770011024177
1789147779650038000,2.9480380859375,-5.5677042702555655,-7.564156320136785,-2.820389137147367
1789147779660011000,2.958010986328125,-5.58873302975893,-7.545549819344282,-2.828627973182499
1789147779669983000,2.96798291015625,-5.607081171876192,-7.528341494911909,-2.8381518805921075
1789147779679955000,2.977954833984375,-5.616216664490104,-7.516721199744939,-2.85085734064728
1789147779689928000,2.987927978515625,-5.61633473791182,-7.513477687779068,-2.859162519916892
1789147779699900000,2.99789990234375,-5.617313812077045,-7.510231837725639,-2.8657594339638948
1789147779709873000,3.007872802734375,-5.61461975068748,-7.510550986677408,-2.870199462237954
1789147779719845000,3.01784521484375,-5.622835790368915,-7.50502667029798,-2.8685666003391144
1789147779729816800,3.02781689453125,-5.621955500403046,-7.508711496290564,-2.86063902221024
1789147779739790000,3.0377900390625,-5.629106541201472,-7.505376798909902,-2.855321918840706
1789147779749762000,3.047761962890625,-5.6311143738925455,-7.505396672654151,-2.8513085915461183
1789147779759734000,3.057734130859375,-5.636135416924954,-7.502822438251972,-2.8481597721263765
1789147779769707000,3.06770703125,-5.635383137252926,-7.503610373759269,-2.847571158583462
1789147779779679000,3.077678955078125,-5.629760621196032,-7.506528891554474,-2.8510017175540328
1789147779789651000,3.08765087890625,-5.626456318953633,-7.5055860577464095,-2.859990495173633
1789147779799624000,3.0976240234375,-5.638227420768142,-7.498839506095647,-2.8545024191513657
1789147779809596200,3.10759619140625,-5.643073107233644,-7.50058664202392,-2.8403023366242643
1789147779819569200,3.117569091796875,-5.629229290798306,-7.516171749168634,-2.826540060992538
1789147779829540900,3.127540771484375,-5.627596721160412,-7.518701559907197,-2.823061278966069
1789147779839513000,3.13751318359375,-5.61698823338449,-7.530089215362071,-2.813820572412014
1789147779849485800,3.14748583984375,-5.617319657295942,-7.538570043459535,-2.790351434019208
1789147779859458000,3.1574580078125,-5.6221735270679,-7.545229501348733,-2.762439344742894
1789147779869430000,3.167429931640625,-5.623275935351848,-7.55601509925723,-2.730529125741124
1789147779879402800,3.17740283203125,-5.627261205595731,-7.562632471570372,-2.7038676210477948
1789147779889375000,3.187375,-5.641542244404554,-7.559275562357902,-2.683421337607503
1789147779899347000,3.197346923828125,-5.643556506836414,-7.564346874272823,-2.6648297421231866
1789147779909320000,3.20731982421875,-5.640447434905171,-7.573084892001748,-2.646530699844658
1789147779919292000,3.2172919921875,-5.647825854718685,-7.574006098499893,-2.628096048487723
1789147779929264600,3.2272646484375,-5.655159850868582,-7.575771939128637,-2.60714824526608
1789147779939236600,3.237236572265625,-5.657238995230197,-7.582921810883283,-2.581728265066445
1789147779949208800,3.247208740234375,-5.669444396808744,-7.583677597686647,-2.552572313208878
1789147779959181600,3.257181640625,-5.676692468240857,-7.588724944204092,-2.5212711660161613
1789147779969153500,3.267153564453125,-5.681864317920804,-7.593799178728461,-2.4941975733906028
1789147779979125800,3.277125732421875,-5.6863476008147,-7.596973132589459,-2.4742335205093027
1789147779989098500,3.287098388671875,-5.684559548354149,-7.603646619004011,-2.4577874126210806
1789147779999070700,3.29707080078125,-5.677450008609891,-7.616058941331505,-2.435693361973762
1789147780009042700,3.307042724609375,-5.667060132020712,-7.633622655072807,-2.404708733384311
1789147780019015400,3.317015380859375,-5.657603736889362,-7.650688356164097,-2.3725280268780886
1789147780028987600,3.326987548828125,-5.65117282705903,-7.663838929638266,-2.345249413199723
1789147780038960600,3.336960693359375,-5.643090642890334,-7.678692799898982,-2.3159413395203647
1789147780048932600,3.3469326171875,-5.638574042248726,-7.690897032433748,-2.286257272135466
1789147780058904600,3.356904541015625,-5.632985428461432,-7.703999675112962,-2.255715565007925
1789147780068877800,3.3668779296875,-5.624904997858405,-7.720904048162699,-2.2177637277543543
1789147780078849500,3.376849609375,-5.615144651344418,-7.739479569295049,-2.1773834943100807
1789147780088821800,3.38682177734375,-5.610071001341939,-7.754238747009635,-2.137583398841321
1789147780098794800,3.396794677734375,-5.609693400201201,-7.766997690817713,-2.0917611204735933
1789147780108766500,3.406766357421875,-5.608928261047601,-7.779762479844689,-2.045873229523748
1789147780118738700,3.41673876953125,-5.608774531790614,-7.790994652476907,-2.0031027399420736
1789147780128711700,3.426711669921875,-5.60605942761302,-7.803974545559287,-1.959711488113552
1789147780138683600,3.43668359375,-5.599049256590009,-7.819551469397544,-1.917196580728144
1789147780148655600,3.446655517578125,-5.587807147085666,-7.839158087143302,-1.869334613226354
1789147780158628600,3.456628662109375,-5.568154936632514,-7.8658660613268605,-1.8149888366632163
1789147780168600600,3.4666005859375,-5.55266276846826,-7.890240039604902,-1.755685876084119
1789147780178573600,3.476573486328125,-5.543249627956747,-7.909576023715734,-1.6974628196962176
1789147780188545800,3.4865458984375,-5.528457717016339,-7.931642894095182,-1.641824372974038
1789147780198517500,3.496517578125,-5.514370154953003,-7.952755240228772,-1.586127912454307
1789147780208490500,3.506490478515625,-5.512589116755128,-7.96517983751595,-1.5289435514643788
1789147780218462700,3.516462646484375,-5.515089701399207,-7.973691060751676,-1.47459470616132
1789147780228434700,3.5264345703125,-5.509290659731626,-7.987026927664876,-1.4232045645333826
1789147780238407700,3.53640771484375,-5.494204149758816,-8.007709065687656,-1.364076522129774
1789147780248379600,3.546379638671875,-5.493749391728639,-8.018637871459125,-1.3002142908111214
1789147780258351600,3.5563515625,-5.499769967192411,-8.024979349440336,-1.233941052827984
1789147780268324600,3.56632470703125,-5.50715715483427,-8.030209651309251,-1.1650560979764908
1789147780278296800,3.576296875,-5.50710162525475,-8.038741332811117,-1.1049189515955746
1789147780288269800,3.586269775390625,-5.503288204446434,-8.049810423836112,-1.0415137433294206
1789147780298241500,3.596241455078125,-5.488287034669519,-8.067990223649144,-0.9780692259661852
1789147780308213800,3.6062138671875,-5.473612612628936,-8.085654475155472,-0.9122187434397636
1789147780318186800,3.616186767578125,-5.45944964724183,-8.10268335136771,-0.8433965516261756
1789147780328158700,3.62615869140625,-5.44704901535213,-8.117303412872552,-0.7806515608344227
1789147780338130700,3.636130615234375,-5.444626756641268,-8.124851928555964,-0.7163865208685398
1789147780348103700,3.646103759765625,-5.441847355055809,-8.132021089532971,-0.653383390597254
1789147780358075600,3.65607568359375,-5.438785044875741,-8.139041197428106,-0.5882292928371579
1789147780368047600,3.666047607421875,-5.4344619209796186,-8.146752794718742,-0.5171321418289094
1789147780378020900,3.676020751953125,-5.423726591953635,-8.157942881774902,-0.4489353519046679
1789147780387992600,3.68599267578125,-5.411924510478973,-8.169203695979714,-0.381535594109632
1789147780397965600,3.695965576171875,-5.41291878221333,-8.171133787259459,-0.3213498593466356
1789147780407937800,3.705937744140625,-5.417597295418381,-8.17008749307692,-0.26398515508743
1789147780417909500,3.715909423828125,-5.429577071547508,-8.163868180170654,-0.2033219207394868
1789147780427882800,3.7258828125,-5.439203562548756,-8.158681717443466,-0.1461282530650962
1789147780437854700,3.735854736328125,-5.454516282492876,-8.149152257075905,-0.0997564327895175
1789147780447826700,3.74582666015625,-5.454869918236136,-8.149384896788,-0.0481755132632562
1789147780457799700,3.755799560546875,-5.456626406514644,-8.148348539477587,0.0036646442897806
1789147780467771600,3.765771728515625,-5.464079645130038,-8.14322929676771,0.0452718688101973
1789147780477743600,3.77574365234375,-5.470704616227746,-8.138468365976214,0.084334708646126
1789147780487716600,3.785716552734375,-5.479874595633149,-8.131845732966065,0.1202229461670853
1789147780497688800,3.795688720703125,-5.494881610628962,-8.12092569502294,0.1650028576087206
1789147780507660500,3.80566064453125,-5.50497571914196,-8.113197731119394,0.2040989512602798
1789147780517633800,3.8156337890625,-5.510404758453369,-8.108609234285353,0.2372040791350416
1789147780527605800,3.825605712890625,-5.508659960612654,-8.108663010299205,0.2731709896490909
1789147780537578500,3.83557861328125,-5.500637397676706,-8.112857539379597,0.3080732483400031
1789147780547550700,3.84555078125,-5.494358463537693,-8.11564863140285,0.3444617817996069
1789147780557522700,3.855522705078125,-5.497765641632676,-8.112027518296241,0.3741168057531118
1789147780567495700,3.86549560546875,-5.502913525915146,-8.107178324699401,0.4024602356513962
1789147780577467600,3.875467529296875,-5.508710814017057,-8.102049729639292,0.4257789692554622
1789147780587439900,3.88543994140625,-5.518168962714076,-8.094411782106757,0.4479836041377857
1789147780597412600,3.89541259765625,-5.523950468724966,-8.08948309353292,0.4654087861912325
1789147780607384600,3.905384521484375,-5.524153882342577,-8.08881089335978,0.474592428795807
1789147780617356800,3.915356689453125,-5.516870155075192,-8.093392375931144,0.4811784195899963
1789147780627329500,3.92532958984375,-5.513771604537964,-8.095416575235127,0.4826264995064586
1789147780637301800,3.9353017578125,-5.510103145158291,-8.098149799591303,0.4786567190926521
1789147780647274800,3.945274658203125,-5.50452797537446,-8.10218300063014,0.4745367165531963
1789147780657246500,3.95524658203125,-5.505343967932462,-8.102102921131253,0.4663640410894528
1789147780667218700,3.96521875,-5.514285399278998,-8.096946853542327,0.4499897928610444
1789147780677191700,3.975191650390625,-5.523449533465504,-8.09166219113767,0.4323076403718441
1789147780687163600,3.98516357421875,-5.529810885190964,-8.08817434902191,0.4159576863344758
1789147780697135600,3.995135498046875,-5.532230221292377,-8.087160203543306,0.403314112534374
1789147780707108900,4.00510888671875,-5.5328416311889885,-8.087349588635563,0.3909367153897881
1789147780717080600,4.01508056640625,-5.5342807240813965,-8.087067849084734,0.3760966544587165
1789147780727052800,4.025052734375,-5.531209646072983,-8.090213745895028,0.3528940215149894
1789147780737025800,4.03502587890625,-5.5318993819028135,-8.090759104818105,0.3287772694010287
1789147780746997500,4.04499755859375,-5.531108523786068,-8.092087138551474,0.3087820176638662
1789147780756970800,4.054970703125,-5.531074621516466,-8.092737711414694,0.291888330404926
1789147780766942700,4.064942626953125,-5.530985189667343,-8.093539675447344,0.2705725523874163
1789147780776914700,4.074914794921875,-5.530729169079661,-8.094463220033049,0.2471617931183427
1789147780786887700,4.0848876953125,-5.535935505551099,-8.091806568044424,0.2155546304500661
1789147780796859600,4.094859619140625,-5.536327135217189,-8.092209303626417,0.1887194131576456
1789147780806831600,4.10483154296875,-5.536677848351001,-8.092602686858177,0.159261336548347
1789147780816804600,4.1148046875,-5.532383366027474,-8.096043767222762,0.1310885139766149
1789147780826776800,4.12477685546875,-5.525222972878813,-8.101240166822075,0.1104425615120679
1789147780836748500,4.13474853515625,-5.514664753985405,-8.108687560218572,0.0897155066353268
1789147780846721500,4.144721435546875,-5.510494190302491,-8.111814752328396,0.0574840974217513
1789147780856693800,4.15469384765625,-5.524252666541933,-8.102640681269765,0.0154160752873169
1789147780866665700,4.164665771484375,-5.536476188299059,-8.094273250418901,-0.0235692423329921
1789147780876638700,4.174638671875,-5.539689889648557,-8.091899507024884,-0.0581724632784025
1789147780886610700,4.184610595703125,-5.540687083992362,-8.09101161827445,-0.0819096277905162
1789147780896583700,4.194583740234375,-5.544918437951803,-8.08770965411961,-0.1149943978638388
1789147780906555600,4.2045556640625,-5.53533695513606,-8.093961115729808,-0.1349995134078897
1789147780916527900,4.21452783203125,-5.53076833204627,-8.096808906376362,-0.1505862736535724
1789147780926501000,4.224501220703125,-5.542186382639408,-8.088656579580903,-0.1679143794075585
1789147780936473000,4.23447314453125,-5.547337189531326,-8.084743790051341,-0.1853573345797136
1789147780946445300,4.2444453125,-5.545684746149182,-8.085698314297199,-0.193021202004794
1789147780956418000,4.25441796875,-5.546913995683193,-8.084499459901451,-0.2073579895888455
1789147780966390000,4.26439013671875,-5.549985073691606,-8.082007058563828,-0.2218550092359073
1789147780976362200,4.2743623046875,-5.550308314296603,-8.081483911472558,-0.2325288538656197
1789147780986335000,4.2843349609375,-5.542530081510543,-8.086757467961311,-0.2347438265013508
1789147780996307200,4.29430712890625,-5.545749628078937,-8.084275588017702,-0.2439826881581917
1789147781006279200,4.304279052734375,-5.543685681286454,-8.085175167205929,-0.2605094418008811
1789147781016252200,4.314252197265625,-5.536631086599827,-8.089459712657332,-0.2770314096705988
1789147781026224000,4.32422412109375,-5.522848644962907,-8.09837776312828,-0.2912227609019726
1789147781036197000,4.334197021484375,-5.510594728067517,-8.10626763959527,-0.3035658539181575
1789147781046169000,4.344169189453125,-5.499369569697976,-8.113338016372918,-0.317909582699649
1789147781056141000,4.35414111328125,-5.487303284329176,-8.120864320224523,-0.3338374388674274
1789147781066114300,4.3641142578125,-5.47351324390769,-8.129425227820873,-0.3513974628143012
1789147781076086000,4.3740859375,-5.472659257426858,-8.129138227573037,-0.3707931777557358
1789147781086058200,4.384058349609375,-5.478786215874552,-8.124109001234173,-0.3900474018672481
1789147781096031200,4.39403125,-5.488354839208721,-8.116642903137206,-0.4104404207503422
1789147781106003000,4.4040029296875,-5.493226829159259,-8.112377062386274,-0.4291779640439898
1789147781115975200,4.41397509765625,-5.49307660703361,-8.111403833439946,-0.4490214592855423
1789147781125948200,4.4239482421875,-5.487381610262394,-8.114124198314547,-0.4690651167416945
1789147781135920000,4.433920166015625,-5.477139033189416,-8.12014243569076,-0.4843749506089836
1789147781145893000,4.44389306640625,-5.473796737024188,-8.121873789528012,-0.4930428622437641
1789147781155865000,4.453864990234375,-5.471539898008108,-8.123018283388019,-0.4992128926482051
1789147781165837000,4.463837158203125,-5.464373075118661,-8.127419733217359,-0.5060351764163002
1789147781175810000,4.47381005859375,-5.458750559061765,-8.13077488886416,-0.5127785862619056
1789147781185782300,4.4837822265625,-5.460886986568569,-8.128769394260644,-0.5217327674921601
1789147781195754000,4.49375390625,-5.463192340901494,-8.126568084824084,-0.5317935582574457
1789147781205727000,4.50372705078125,-5.461712331476807,-8.126829950630665,-0.542881865439564
1789147781215699200,4.51369921875,-5.46193152718544,-8.125818727761507,-0.5556725195601582
1789147781225671200,4.523671142578125,-5.474952336800098,-8.116257703211904,-0.5671398161225021
1789147781235644200,4.53364404296875,-5.483913641890883,-8.109412367361784,-0.5783813776375726
1789147781245616000,4.5436162109375,-5.488097649577259,-8.105859058794378,-0.588414074819535
1789147781255588000,4.553588134765625,-5.49328060517311,-8.10171596764028,-0.597039206758514
1789147781265561000,4.56356103515625,-5.493532534107565,-8.100809958711267,-0.6069338837092741
1789147781275533300,4.573533203125,-5.487008100774884,-8.104673648402095,-0.6143306063644588
1789147781285506000,4.583506103515625,-5.480072748553752,-8.108792774158715,-0.6218244692511856
1789147781295478000,4.59347802734375,-5.480215956416726,-8.108040494486689,-0.6303237097881734
1789147781305450200,4.6034501953125,-5.481338238444924,-8.106408509370684,-0.6414557099815458
1789147781315423000,4.613423095703125,-5.484515114915371,-8.10320766750276,-0.6546097905870527
1789147781325395200,4.623395263671875,-5.492867348197103,-8.096336612689495,-0.6694159492485224
1789147781335367200,4.6333671875,-5.5009284895777695,-8.089770678302646,-0.6824830822229385
1789147781345340000,4.64333984375,-5.507383949327468,-8.084638576111198,-0.6911784298539161
1789147781355312000,4.65331201171875,-5.50902236418426,-8.082771613195538,-0.6999055608626454
1789147781365284000,4.6632841796875,-5.50967469061315,-8.081599062284827,-0.7082529718387871
1789147781375257000,4.673257080078125,-5.51638850903809,-8.076306216573714,-0.7163154283937067
1789147781385229000,4.68322900390625,-5.517425450870395,-8.074816854798794,-0.7250863254789263
1789147781395202000,4.6932021484375,-5.512209177526831,-8.07765880022645,-0.7330483173340558
1789147781405174000,4.703174072265625,-5.506610042345524,-8.080565043061972,-0.7430375772330909
1789147781415146200,4.713146240234375,-5.499890378701687,-8.084007876992224,-0.7552588339678943
1789147781425119200,4.723119140625,-5.49263061683178,-8.087499810761212,-0.7705458349488675
1789147781435091000,4.733091064453125,-5.482791944384575,-8.092460063517093,-0.7883303518339991
1789147781445063200,4.743063232421875,-5.476443452140688,-8.095123729768394,-0.8049325270667672
1789147781455036200,4.7530361328125,-5.473451284587383,-8.095657398253678,-0.8197836939137428
1789147781465008000,4.763008056640625,-5.471697134396433,-8.095219591358303,-0.8356655920479447
1789147781474980000,4.77297998046875,-5.47323384244442,-8.092649448609352,-0.850368655661121
1789147781484953000,4.782953125,-5.473798490589857,-8.090762027427553,-0.8645674960792065
1789147781494925000,4.792925048828125,-5.47325079357922,-8.089905118337272,-0.8759819664757699
1789147781504897000,4.80289697265625,-5.4717772138953205,-8.089742036730051,-0.886622091498971
1789147781514870300,4.812870361328125,-5.47658958261311,-8.085670257246495,-0.894022796209529
1789147781524842000,4.822842041015625,-5.485531598481535,-8.079124196603894,-0.8983698855031281
1789147781534815000,4.83281494140625,-5.493754652425647,-8.072882087343931,-0.9042207304231822
1789147781544787200,4.842787109375,-5.4971238365978,-8.069501797255873,-0.9138645378854126
1789147781554759000,4.852759033203125,-5.49939821127057,-8.066554637888073,-0.9261204275421796
1789147781564732200,4.862732177734375,-5.498512076085806,-8.065430017772316,-0.9410583228245376
1789147781574704000,4.8727041015625,-5.493819534355402,-8.066884308233856,-0.9558897620577363
1789147781584676000,4.882676025390625,-5.491277448657154,-8.067329129391908,-0.9666793785542248
1789147781594649000,4.892649169921875,-5.482096363335848,-8.07254657177925,-0.9751869485281408
1789147781604621000,4.90262109375,-5.474773473101854,-8.077104088953137,-0.978578929053992
1789147781614593000,4.912593017578125,-5.4708156753867865,-8.07883252018094,-0.9864251125097274
1789147781624566000,4.92256591796875,-5.473534286695719,-8.07618522054255,-0.9929920698098836
1789147781634538200,4.932538330078125,-5.476788904577494,-8.07329417527616,-0.998537282846868
1789147781644510000,4.942510009765625,-5.478630148530006,-8.0711495644629,-1.0057515981398522
1789147781654483200,4.952483154296875,-5.47729919218719,-8.071189311951398,-1.0126622543111443
1789147781664455200,4.962455078125,-5.4812149043262,-8.0675109156996,-1.0207589784618467
1789147781674428200,4.97242822265625,-5.49699231917262,-8.056219706356526,-1.025084586576
1789147781684400000,4.982400146484375,-5.508308078435063,-8.048099528264999,-1.0281151133783162
1789147781694372000,4.9923720703125,-5.512307377204299,-8.044827959248423,-1.032273548232019
1789147781704345300,5.002345458984375,-5.514010673990845,-8.04302529374063,-1.0372150962874294
1789147781714317000,5.012317138671875,-5.510839058217406,-8.04414406863749,-1.045364938864857
1789147781724289300,5.022289306640625,-5.505526338762045,-8.046697844773531,-1.0536738444615157
1789147781734262300,5.03226220703125,-5.499183107215166,-8.050156460794806,-1.0603522993121297
1789147781744234000,5.04223388671875,-5.500101391103863,-8.048938317176699,-1.064823526442051
1789147781754206200,5.052206298828125,-5.502219113910198,-8.047343156939744,-1.0659471236445008
1789147781764179200,5.06217919921875,-5.506270435127616,-8.044490105596184,-1.0665617484115064
1789147781774151200,5.072151123046875,-5.5127177115708585,-8.039308319044112,-1.0723100097399203
1789147781784123100,5.082123046875,-5.517626526400447,-8.034727420994638,-1.0813568011570722
1789147781794096000,5.09209619140625,-5.521143010088801,-8.030525877651572,-1.0945398886613549
1789147781804068000,5.102068115234375,-5.5186634682327504,-8.029884657138586,-1.1116191068213432
1789147781814041000,5.112041015625,-5.522866765141487,-8.025240630725026,-1.1242069318462162
1789147781824013300,5.122013427734375,-5.525613433501124,-8.022102917221188,-1.133066530128196
1789147781833985000,5.131985107421875,-5.5258963420957325,-8.02088828073442,-1.1402654286563396
1789147781843958000,5.1419580078125,-5.522490917566419,-8.022267752394079,-1.1470392336402089
1789147781853930200,5.15193017578125,-5.519174340364336,-8.023352040499448,-1.1553832836154847
1789147781863902200,5.161902099609375,-5.514930711445212,-8.024535697326064,-1.1673724120948463
1789147781873875200,5.171875244140625,-5.510397744190692,-8.02564278178513,-1.1810837612569332
1789147781883847200,5.18184716796875,-5.510536860400438,-8.023464268702268,-1.1951510111846029
1789147781893819100,5.191819091796875,-5.509281307381391,-8.022263076218962,-1.2089257809717209
1789147781903792000,5.201792236328125,-5.506636930352449,-8.022512082543969,-1.2192762753985822
1789147781913764000,5.21176416015625,-5.50268147072494,-8.023754776081443,-1.2289217633612453
1789147781923736000,5.221736083984375,-5.497774993982911,-8.025227186721564,-1.241201691480726
1789147781933708800,5.231708740234375,-5.489604547008872,-8.028718535968661,-1.2547132072217762
1789147781943681000,5.241680908203125,-5.481017920449376,-8.032316852721571,-1.269139499720186
1789147781953654000,5.251654052734375,-5.468959818387031,-8.038126415783166,-1.2842865077085792
1789147781963626000,5.2616259765625,-5.463523764812946,-8.040342922788858,-1.2935172773905097
1789147781973598000,5.271597900390625,-5.457015113571286,-8.043537919437885,-1.3011062712147832
1789147781983571000,5.281571044921875,-5.451873074507713,-8.04612033714652,-1.3066785183891654
1789147781993543000,5.29154296875,-5.452463441616296,-8.045050662088393,-1.310801297407597
1789147782003515000,5.301514892578125,-5.451241790866852,-8.045202637779711,-1.3149398585170506
1789147782013488000,5.311488037109375,-5.450763651961088,-8.045224265089631,-1.3167897241674362
1789147782023459800,5.3214599609375,-5.450618690532446,-8.045832752376795,-1.3136682311460377
1789147782033432000,5.33143212890625,-5.43505754878521,-8.056485079294443,-1.3128525308489798
1789147782043405000,5.341405029296875,-5.428481677526236,-8.061248348173498,-1.3108191253252326
1789147782053377000,5.351376953125,-5.4116573839753865,-8.072598009705542,-1.3105414774276316
1789147782063349000,5.361348876953125,-5.408136224111915,-8.07530609962046,-1.3083882449164983
1789147782073322000,5.371322021484375,-5.40687657943964,-8.077568783855439,-1.299600396696478
1789147782083294000,5.3812939453125,-5.410392478606105,-8.077427914080022,-1.2857650558285414
1789147782093267000,5.391266845703125,-5.411117285749316,-8.079100231206416,-1.2721379508838058
1789147782103239200,5.4012392578125,-5.402074732115865,-8.087420900306105,-1.257617404230684
1789147782113211000,5.4112109375,-5.40973079982698,-8.084126534935832,-1.245834027456492
1789147782123183900,5.421183837890625,-5.422646395501494,-8.077146174529194,-1.234911797556281
1789147782133156000,5.431156005859375,-5.434114130455256,-8.071243672487139,-1.2230346050187946
1789147782143127800,5.4411279296875,-5.447996525335312,-8.064712224891782,-1.2042172379545866
1789147782153101000,5.45110107421875,-5.468711396583914,-8.054415287283062,-1.1789764137141403
1789147782163073000,5.461072998046875,-5.480044106981158,-8.050365135109423,-1.1537428229320794
1789147782173045000,5.471044921875,-5.493474081918597,-8.045203806823492,-1.1255339426662772
1789147782183018000,5.48101806640625,-5.5073260816603895,-8.039234084764123,-1.1002079243604093
1789147782192990000,5.490989990234375,-5.517705436855554,-8.035128987532854,-1.0779684738930315
1789147782202962000,5.5009619140625,-5.529069126912951,-8.03073572100997,-1.0521691389869898
1789147782212935000,5.510934814453125,-5.540303637632728,-8.026733499631286,-1.0232129474852234
1789147782222907100,5.5209072265625,-5.546074622249603,-8.026628870213031,-0.9923013110667468
1789147782232879900,5.5308798828125,-5.552301533940434,-8.026621271428466,-0.9569151595827192
1789147782242852000,5.54085205078125,-5.553992555767297,-8.029520500001311,-0.9221468477360903
1789147782252824000,5.550823974609375,-5.558768099606037,-8.030295576027035,-0.8859083902716636
1789147782262796800,5.560796875,-5.574090171900392,-8.023847130540013,-0.8472230511117727
1789147782272769000,5.57076904296875,-5.589175512829423,-8.017278858065605,-0.8091514599360525
1789147782282741000,5.580740966796875,-5.5984320014745,-8.014251619198918,-0.77442274944745
1789147782292714000,5.5907138671875,-5.609143365103006,-8.010093914997578,-0.7391072520468384
1789147782302686000,5.60068603515625,-5.615098474115133,-8.009266232001782,-0.7019369936250149
1789147782312658200,5.610658203125,-5.621475023409724,-8.00835613141954,-0.6600206366546452
1789147782322631000,5.620630859375,-5.629419260412455,-8.006587368181348,-0.6120340563924983
1789147782332603000,5.630602783203125,-5.6344508248388765,-8.006439484143257,-0.5659191152211278
1789147782342575000,5.6405751953125,-5.641261089375615,-8.004636234113574,-0.5218835741396993
1789147782352547800,5.6505478515625,-5.649426275652647,-8.001641728472709,-0.4775997939182445
1789147782362520000,5.66052001953125,-5.654297681081295,-8.000601864030957,-0.4355151677088811
1789147782372492000,5.670491943359375,-5.657442993369698,-8.000341751790046,-0.3978094141708687
1789147782382464800,5.68046484375,-5.661459243273734,-7.999391319197416,-0.3577738659784197
1789147782392437000,5.69043701171875,-5.66588816563189,-7.997973853614926,-0.3170440519114956
1789147782402410000,5.700409912109375,-5.665522839450836,-7.999781195297837,-0.2752165240020491
1789147782412382000,5.7103818359375,-5.66426553286612,-8.002043295010925,-0.2319142838975414
1789147782422354000,5.72035400390625,-5.664889217722416,-8.002738291537762,-0.1886741857764311
1789147782432327000,5.730326904296875,-5.662873201724887,-8.005005067425966,-0.1488217573322355
1789147782442299000,5.740298828125,-5.655324686041474,-8.010894709986449,-0.1151475699984002
1789147782452271000,5.75027099609375,-5.6457753519296645,-8.01805218052566,-0.0802065410665236
1789147782462244000,5.760244140625,-5.632303291416168,-8.027793822339177,-0.0454238216686295
1789147782472215800,5.7702158203125,-5.618197609174251,-8.037795576393604,-0.0090621659411524
1789147782482188000,5.78018798828125,-5.5995934464693065,-8.050733383899926,0.0250807109084445
1789147782492161000,5.7901611328125,-5.5934331702739,-8.05486536913812,0.0550962387374136
1789147782502133000,5.800133056640625,-5.599243902379274,-8.05057731655538,0.0839410240202676
1789147782512105000,5.81010498046875,-5.611491389533877,-8.041707196879386,0.1117716272918973
1789147782522078000,5.820077880859375,-5.616004483044147,-8.038208248847722,0.1345127436710987
1789147782532050000,5.8300498046875,-5.623059662252664,-8.032859289035201,0.1573802172431722
1789147782542023000,5.84002294921875,-5.6235401392459865,-8.03196730863154,0.183524109536875
1789147782551995100,5.8499951171875,-5.621731043997406,-8.032585148268938,0.2099936901209876
1789147782561966800,5.859966796875,-5.627535346361994,-8.027738877281546,0.2379932567513547
1789147782571939800,5.86993994140625,-5.649068548256159,-8.01184280449152,0.2622754102937877
1789147782581912000,5.879912109375,-5.654214678972959,-8.00751617346406,0.2827310460843145
1789147782591883800,5.8898837890625,-5.640678905573487,-8.016425456106662,0.3000932093715295
1789147782601857000,5.89985693359375,-5.6262359542012215,-8.026079419636726,0.3128907681569456
1789147782611829000,5.9098291015625,-5.6116883734107015,-8.035652719146013,0.3280796790583059
1789147782621801000,5.919801025390625,-5.59097057955265,-8.049211288899183,0.348768648680672
1789147782631774000,5.92977392578125,-5.563901955363154,-8.066829363176225,0.3736784874010831
1789147782641746000,5.939745849609375,-5.549378924492001,-8.07594264395833,0.3923378143593669
1789147782651718000,5.9497177734375,-5.544294168573618,-8.078788681039214,0.4054203640986233
1789147782661691000,5.95969091796875,-5.528009973248839,-8.089783537784218,0.4085276824641972
1789147782671663000,5.9696630859375,-5.508087129160762,-8.103474209484457,0.4062813648421317
1789147782681634800,5.979634765625,-5.493868634194135,-8.113011268636583,0.4084473837696015
1789147782691608000,5.989608154296875,-5.47446367650032,-8.125933294051885,0.4121302370008081
1789147782701580000,5.999580078125,-5.45395046530366,-8.139514660158753,0.4160707547875121
1789147782711553000,6.009552978515625,-5.434787499672174,-8.151837550637126,0.4254686611972749
1789147782721525000,6.01952490234375,-5.417372254490852,-8.16329768680632,0.4278325773170218
1789147782731497000,6.0294970703125,-5.413743542599677,-8.165510102158784,0.4315344275096431
1789147782741470200,6.03947021484375,-5.415438656079769,-8.164363270211219,0.4319594845212995
1789147782751442000,6.04944189453125,-5.421040129348635,-8.160550433924794,0.4337391344796866
1789147782761414100,6.0594140625,-5.419692221871018,-8.16151021886766,0.432531841049157
1789147782771387100,6.06938720703125,-5.405958295550942,-8.170771383687853,0.4295249873833731
1789147782781358800,6.07935888671875,-5.3835453882128,-8.18618171878755,0.4174239960273727
1789147782791331000,6.0893310546875,-5.356011484599113,-8.204948378577829,0.4029209484983235
1789147782801304000,6.099303955078125,-5.344206480515003,-8.21352273017764,0.384578468936868
1789147782811276000,6.109276123046875,-5.330995116764306,-8.222689786973595,0.3718248954236507
1789147782821248000,6.119248046875,-5.322486231616139,-8.228582936665415,0.3632611017504706
1789147782831221000,6.129220947265625,-5.31673921239674,-8.232630166229605,0.3556087603664025
1789147782841193000,6.13919287109375,-5.299120553597808,-8.244486608240008,0.3437172470426187
1789147782851165200,6.149165283203125,-5.291542227298021,-8.249905126157403,0.3301895838843658
1789147782861138200,6.15913818359375,-5.311197944882512,-8.237945223772526,0.3127808049764484
1789147782871110000,6.16910986328125,-5.334992661967873,-8.22337192401886,0.2904921085398644
1789147782881083100,6.179083251953125,-5.351371549838781,-8.213504025477171,0.2675196676228195
1789147782891055000,6.18905517578125,-5.365637975600362,-8.204826213502884,0.2472632259325124
1789147782901027000,6.199027099609375,-5.363230914458632,-8.206905942386388,0.2298283262026496
1789147782911000000,6.209,-5.362038489803672,-8.207998413798213,0.2183627101407386
1789147782920972000,6.218971923828125,-5.362998859268426,-8.207688032674788,0.2060891569631174
1789147782930944300,6.2289443359375,-5.3640439844071865,-8.207327382668852,0.1928905065635219
1789147782940917200,6.238917236328125,-5.352413167846202,-8.215335917079448,0.1741182024837471
1789147782950889500,6.248889404296875,-5.354285975980758,-8.214497712689637,0.1550329782635904
1789147782960861200,6.258861083984375,-5.367950928717852,-8.205939727702736,0.1343875007230788
1789147782970834200,6.268834228515625,-5.384249152567983,-8.19546977161467,0.120513097353233
1789147782980806400,6.278806396484375,-5.4090176831215615,-8.17933872102499,0.106430348462332
1789147782990778000,6.288778076171875,-5.430445086553693,-8.165335330113768,0.0890852276414632
1789147783000751400,6.29875146484375,-5.442015697360039,-8.157821885743736,0.0692242424089927
1789147783010723300,6.308723388671875,-5.455277329993248,-8.149126538112759,0.0454761683437973
1789147783020695300,6.3186953125,-5.462961454755067,-8.144083283248543,0.0184197894312324
1789147783030668300,6.328668212890625,-5.454439710125326,-8.14981335133314,-0.0007855222852722
1789147783040640300,6.33864013671875,-5.441218409502506,-8.158633786648512,-0.015272908523539
1789147783050613200,6.34861328125,-5.44039072650671,-8.159135306429862,-0.0326067887144745
1789147783060585200,6.358585205078125,-5.45419011927843,-8.14983322507739,-0.0489798199500422
1789147783070557400,6.368557373046875,-5.466783643391728,-8.141326093494891,-0.0588314021111698
1789147783080530200,6.3785302734375,-5.482264705640077,-8.130832756531237,-0.0687392125381389
1789147783090502100,6.388502197265625,-5.488949297970533,-8.126160673066973,-0.0856949458823539
1789147783100474400,6.398474365234375,-5.484697485744952,-8.128748935994505,-0.1092090924606658
1789147783110447000,6.408447021484375,-5.473918317577242,-8.135614145588875,-0.1355581976034212
1789147783120419300,6.41841943359375,-5.465423460954427,-8.140847954589129,-0.1616521224087104
1789147783130391300,6.428391357421875,-5.457385115927457,-8.14578658003509,-0.1830304260021075
1789147783140364300,6.4383642578125,-5.4406496697038405,-8.156571593421697,-0.200144642410241
1789147783150336300,6.448336181640625,-5.423478754672408,-8.167690368807316,-0.2123336591095663
1789147783160308500,6.45830859375,-5.415917379507422,-8.172478187605739,-0.2209529640959575
1789147783170281200,6.46828125,-5.413114012524486,-8.173977486252785,-0.2338273875098675
1789147783180253200,6.478253173828125,-5.409570640829205,-8.176033249738811,-0.2437471989018842
1789147783190225200,6.48822509765625,-5.405221797969937,-8.178473044106363,-0.2579730551910587
1789147783200198100,6.4981982421875,-5.400968232178688,-8.180704164159298,-0.2757228660889901
1789147783210170400,6.50817041015625,-5.409843028029799,-8.174298388770222,-0.2912633121080696
1789147783220143400,6.518143310546875,-5.422231384959817,-8.16559310426712,-0.3047380395026877
1789147783230115000,6.528114990234375,-5.424885114338994,-8.163479473114013,-0.3140006290949881
1789147783240087300,6.53808740234375,-5.425162177714705,-8.16311297788918,-0.318733722031489
1789147783250060300,6.548060302734375,-5.421378567522764,-8.165342344376445,-0.3259030291389673
1789147783260032300,6.5580322265625,-5.413775106781721,-8.16993960903883,-0.336912791192159
1789147783270004200,6.568004150390625,-5.411281536400318,-8.171297453388572,-0.3439674589440226
1789147783279977200,6.577977294921875,-5.3995116036295885,-8.17890909743607,-0.3479894810017198
1789147783289949200,6.58794921875,-5.391508329916,-8.184172717052698,-0.3483194070758297
1789147783299921200,6.597921142578125,-5.38673512416482,-8.18719118809104,-0.3512238232804462
1789147783309894400,6.607894287109375,-5.380461450722813,-8.191047863519191,-0.3574438668390736
1789147783319866000,6.6178662109375,-5.374285976958275,-8.194737950208783,-0.3656565455196425
1789147783329838300,6.62783837890625,-5.371773117354512,-8.196190487104653,-0.3699901908097788
1789147783339811300,6.637811279296875,-5.3687213285684585,-8.197990230002999,-0.3744027830876409
1789147783349783300,6.647783203125,-5.372496170932054,-8.195413072991371,-0.3766745274119079
1789147783359755300,6.65775537109375,-5.384865823161602,-8.18707720632255,-0.3812785140760242
1789147783369728300,6.667728271484375,-5.4020940213382245,-8.1754218398422,-0.3876143660340458
1789147783379700200,6.6777001953125,-5.422475130587816,-8.161760978758334,-0.3909049685446545
1789147783389673200,6.687673095703125,-5.434042818784714,-8.153779332354665,-0.3967980817038565
1789147783399645400,6.6976455078125,-5.438515580284595,-8.150381506609916,-0.4052343400072306
1789147783409617200,6.7076171875,-5.4363019958883525,-8.151497358897329,-0.4124249821636825
1789147783419590100,6.717590087890625,-5.439987990924716,-8.148698668089509,-0.4190878375863656
1789147783429562400,6.727562255859375,-5.433523763346671,-8.152789152273535,-0.4233592312952503
1789147783439534000,6.7375341796875,-5.42830573643744,-8.15611858895719,-0.4261464143283665
1789147783449507300,6.74750732421875,-5.42235471907854,-8.159822704172134,-0.4309808852801099
1789147783459479300,6.757479248046875,-5.419187194958329,-8.161472224944829,-0.4395015339313075
1789147783469451300,6.767451171875,-5.414693390670418,-8.163924878793955,-0.4492237038593739
1789147783479424300,6.77742431640625,-5.413261896562576,-8.164238182526827,-0.4606477092692628
1789147783489396200,6.787396240234375,-5.409142770805954,-8.166163013109564,-0.4747089313149452
1789147783499368200,6.7973681640625,-5.406665567037463,-8.167057331600784,-0.4873499112991616
1789147783509341200,6.807341064453125,-5.414202392283082,-8.161387469270824,-0.498556438033469
1789147783519313400,6.8173134765625,-5.421187428864837,-8.156039678502083,-0.5100195698773488
1789147783529285000,6.82728515625,-5.424792759880424,-8.153130513057112,-0.5181425244478508
1789147783539258400,6.83725830078125,-5.427219110244512,-8.151329016593099,-0.5210764590078965
1789147783549230300,6.847230224609375,-5.429378918626904,-8.149717489743232,-0.5237600355360656
1789147783559203000,6.857203125,-5.4284489443004125,-8.149934931886195,-0.5299854859221726
1789147783569175300,6.86717529296875,-5.4308887386679645,-8.14791307066977,-0.536046101135388
1789147783579147300,6.877147216796875,-5.435940761360526,-8.14384538283944,-0.5465495576342567
1789147783589120300,6.887120361328125,-5.447092854493856,-8.13586549000144,-0.5543148944061249
1789147783599092200,6.89709228515625,-5.454591101294755,-8.130316039180755,-0.5619556549502537
1789147783609064400,6.907064453125,-5.4611020906239744,-8.12528973545134,-0.5713323724415152
1789147783619037200,6.917037109375,-5.467965546652675,-8.119954804164172,-0.5814434320893138
1789147783629009200,6.927009033203125,-5.471493720778823,-8.116791371697188,-0.5923126896932721
1789147783638981400,6.9369814453125,-5.468230335068703,-8.118137525609136,-0.6038962695790454
1789147783648954000,6.9469541015625,-5.460123600980639,-8.122817792379855,-0.6142185242921113
1789147783658926300,6.95692626953125,-5.458066083928943,-8.123497006815672,-0.6234525819096713
1789147783668898300,6.966898193359375,-5.462544690647721,-8.119625718340277,-0.6345604705750942
1789147783678871000,6.97687109375,-5.460577189967036,-8.119895767453313,-0.6478929764874279
1789147783688843300,6.98684326171875,-5.457877867880463,-8.120798853772879,-0.659225540754199
1789147783698815200,6.996815185546875,-5.460489511683583,-8.118238647896051,-0.6690565413516014
1789147783708788200,7.006788330078125,-5.46019549717307,-8.117486368224025,-0.6804941003628074
1789147783718760200,7.01676025390625,-5.452116820135712,-8.122088893583417,-0.6902829423189163
1789147783728732400,7.026732421875,-5.449798021799325,-8.123077904620766,-0.6969141239617019
1789147783738705200,7.036705078125,-5.450753130567073,-8.121825858733057,-0.7040040091574191
1789147783748677400,7.046677490234375,-5.450132368320227,-8.121555809620022,-0.7118810261428355
1789147783758650400,7.056650390625,-5.448741790744662,-8.121701355570554,-0.7208113515734672
1789147783768622000,7.0666220703125,-5.447151306682825,-8.122063174620271,-0.7287122608911245
1789147783778594300,7.07659423828125,-5.442002837878466,-8.124854851165413,-0.7360159349679947
1789147783788567300,7.0865673828125,-5.439833092623949,-8.126017465204,-0.7392113700084387
1789147783798539300,7.096539306640625,-5.440567836639285,-8.125347603118419,-0.7411802589286118
1789147783808511200,7.10651123046875,-5.445656099689007,-8.121981926077604,-0.7406902103893458
1789147783818484200,7.116484130859375,-5.4487014587342735,-8.120157048738003,-0.7383045573618262
1789147783828456200,7.126456298828125,-5.450086191090941,-8.119797567775844,-0.7320082336965948
1789147783838428200,7.13642822265625,-5.447344783428311,-8.122356604608893,-0.7239751493666321
1789147783848401400,7.1464013671875,-5.440532765325903,-8.127576969605684,-0.7165748099822551
1789147783858373000,7.156373046875,-5.431592503023147,-8.134328781953453,-0.7077260253552347
1789147783868345300,7.166345458984375,-5.419176089042425,-8.143485901877284,-0.6975215152703225
1789147783878318300,7.176318359375,-5.407725305223464,-8.152266589704155,-0.6836904121860862
1789147783888290000,7.1862900390625,-5.411005057546496,-8.151637059628962,-0.6650033204380422
1789147783898262300,7.19626220703125,-5.419783407285809,-8.147019336700438,-0.6499216327708214
1789147783908235300,7.2062353515625,-5.424026451683044,-8.145164648744464,-0.6376593864385038
1789147783918207200,7.216207275390625,-5.431966597032547,-8.140995254105329,-0.6231435890257359
1789147783928179500,7.226179443359375,-5.437991848671436,-8.138153308677673,-0.607530607493408
1789147783938151700,7.236151611328125,-5.4409220569044345,-8.137401613527535,-0.5911493084697053
1789147783948123600,7.24612353515625,-5.4485103200763465,-8.133241571238637,-0.5783646091658622
1789147783958096400,7.256096435546875,-5.457298606687784,-8.128128173747658,-0.5672889422696084
1789147783968068600,7.266068603515625,-5.459201809960604,-8.127443114092946,-0.5587127640388906
1789147783978040600,7.27604052734375,-5.456428253594041,-8.13015821827054,-0.5461630790673196
1789147783988013600,7.286013671875,-5.456826897522807,-8.130728127112985,-0.533567801388353
1789147783997985500,7.295985595703125,-5.452957947134971,-8.134250456020235,-0.5192341556094586
1789147784007957800,7.305957763671875,-5.447791358152031,-8.138505775377153,-0.506632923113741
1789147784017930500,7.315930419921875,-5.44039014198482,-8.144290788519381,-0.4930192256398498
1789147784027902700,7.32590283203125,-5.429640784433484,-8.152323872849344,-0.4785502265108749
1789147784037874700,7.335874755859375,-5.420877632263302,-8.15908562206924,-0.4623873560108244
1789147784047847400,7.345847412109375,-5.416678427007794,-8.162641853246093,-0.4486215367151424
1789147784057819600,7.355819580078125,-5.419591684105992,-8.16145176667869,-0.4348730704130604
1789147784067791600,7.36579150390625,-5.425315906971693,-8.15841517546177,-0.4202343772729858
1789147784077764600,7.3757646484375,-5.424590515306591,-8.159526936095952,-0.4078138716390356
1789147784087736600,7.385736572265625,-5.435427551141381,-8.152972692146896,-0.3943925183994695
1789147784097708800,7.395708740234375,-5.4466199762851,-8.146195160835981,-0.3797471032576635
1789147784107681500,7.405681640625,-5.444231035321951,-8.148265537369252,-0.3694557916721329
1789147784117653500,7.415653564453125,-5.443816024780273,-8.148724971574545,-0.3654106079345569
1789147784127626800,7.425626708984375,-5.445069824233651,-8.14791190162599,-0.3648690849363804
1789147784137598500,7.435598388671875,-5.439724956074357,-8.151256535878778,-0.3698730307035148
1789147784147570700,7.44557080078125,-5.436314855369925,-8.15317318315506,-0.377649838717468
1789147784157543700,7.455543701171875,-5.4386324846625325,-8.151393898522853,-0.382676142446883
1789147784167515400,7.465515380859375,-5.432636459118127,-8.155203812199831,-0.3866457401975989
1789147784177487600,7.475487548828125,-5.432413756278157,-8.155349358150362,-0.3867053248977288
1789147784187460600,7.485460693359375,-5.448171297380328,-8.14504073010385,-0.3822473956407979
1789147784197432600,7.4954326171875,-5.46334840824604,-8.134915641930698,-0.3812568137008696
1789147784207404500,7.505404541015625,-5.462743428090215,-8.135526467305422,-0.3768571539698168
1789147784217377500,7.51537744140625,-5.45756748675704,-8.139061655694245,-0.3755044607192278
1789147784227349500,7.525349609375,-5.444058016842603,-8.148040496441721,-0.3768864531295374
1789147784237321700,7.53532177734375,-5.433650020074844,-8.155134254094957,-0.3736534625576809
1789147784247294700,7.545294677734375,-5.428555327284336,-8.158731401804088,-0.3691460316032171
1789147784257266400,7.555266357421875,-5.42532233671248,-8.161303882640599,-0.3597062588131055
1789147784267238700,7.56523876953125,-5.418705548921227,-8.166248937827348,-0.346977929338999
1789147784277211600,7.575211669921875,-5.414400545203685,-8.169663130185008,-0.3335599371002987
1789147784287183600,7.58518359375,-5.417298604732752,-8.16824157294929,-0.3210812350057065
1789147784297155600,7.595155517578125,-5.420269144976139,-8.166696097072958,-0.3100852092169225
1789147784307128600,7.605128662109375,-5.431271600505709,-8.159697031965852,-0.3016781404754147
1789147784317100500,7.6151005859375,-5.4476890668213365,-8.149096727496385,-0.2920535491703078
1789147784327073500,7.625073486328125,-5.454625003564358,-8.144810428479314,-0.2819969779224134
1789147784337045800,7.635045654296875,-5.459982146683335,-8.141613678264617,-0.2703659238994121
1789147784347017500,7.645017578125,-5.463401015216112,-8.13963156453669,-0.2608558440857567
1789147784356990500,7.654990478515625,-5.462811817151308,-8.14024765060842,-0.253864249899052
1789147784366962700,7.664962646484375,-5.456476184388995,-8.144799907085298,-0.2439167102498933
1789147784376934700,7.6749345703125,-5.451728113079071,-8.148186042392254,-0.2369014246603474
1789147784386907600,7.68490771484375,-5.448841159465909,-8.150278630757331,-0.2312371335546486
1789147784396879600,7.694879638671875,-5.454538494324684,-8.14670135679245,-0.2228452806485816
1789147784406851600,7.7048515625,-5.45967527269125,-8.14347479596138,-0.2148232109029777
1789147784416824600,7.714824462890625,-5.462047262519597,-8.142021674543619,-0.2095483209736645
1789147784426796800,7.724796875,-5.467649320310354,-8.138353215163946,-0.2059181295114569
1789147784436768500,7.7347685546875,-5.469608053162694,-8.13713273345828,-0.2021177325814962
1789147784446741500,7.744741455078125,-5.468486940178275,-8.138002502030133,-0.1973981749800033
1789147784456713700,7.754713623046875,-5.464383596512675,-8.140950245919823,-0.1892746906865388
1789147784466685400,7.764685546875,-5.461702394604683,-8.143055109244585,-0.1756276389323174
1789147784476658700,7.77465869140625,-5.454854136145115,-8.147986135905981,-0.1589722356749698
1789147784486630700,7.784630615234375,-5.450854252853989,-8.15093621788323,-0.1442947266281582
1789147784496603600,7.794603759765625,-5.44717877921164,-8.153641969710588,-0.1293930717029608
1789147784506575600,7.80457568359375,-5.440638563787937,-8.15818721192479,-0.1175163266900461
1789147784516547600,7.814547607421875,-5.434036389043927,-8.16272193274498,-0.1077811054841615
1789147784526520800,7.824520751953125,-5.432629444855452,-8.163803882762789,-0.0961010794865898
1789147784536492500,7.834492431640625,-5.435866527080536,-8.16179078937471,-0.0831590067971032
1789147784546464800,7.84446484375,-5.450720397341251,-8.152021675032376,-0.0676764193119481
1789147784556437800,7.854437744140625,-5.4628147397607565,-8.144040028628707,-0.0514460365336388
1789147784566409500,7.864409423828125,-5.466427669560909,-8.141689666110278,-0.0377447064420674
1789147784576381700,7.874381591796875,-5.467527155235409,-8.14099291601777,-0.027546196839679
1789147784586354700,7.884354736328125,-5.462194562035799,-8.144603507730364,-0.0159046442555496
1789147784596326700,7.89432666015625,-5.460741440618038,-8.145592518767714,-0.0038103380832515
1789147784606298600,7.904298583984375,-5.461943217623234,-8.14478003334105,0.0107628654868807
1789147784616271600,7.914271728515625,-5.469397040760517,-8.13974145465195,0.0260004812180413
1789147784626243600,7.92424365234375,-5.475486589807272,-8.135597778975963,0.0383168529073707
1789147784636215800,7.9342158203125,-5.486694212520122,-8.12799607180059,0.0473601234934525
1789147784646188800,7.944188720703125,-5.49675091163218,-8.121164764475822,0.0528928515081992
1789147784656160500,7.954160400390625,-5.504599871566891,-8.115808205878734,0.0585771898880833
1789147784666132700,7.9641328125,-5.508451286298036,-8.113145708671212,0.0649903448660159
1789147784676105500,7.97410546875,-5.513042121219635,-8.109971754810214,0.0714767523098271
1789147784686077700,7.98407763671875,-5.518977356487512,-8.10587600992918,0.0778076358317863
1789147784696050700,7.99405078125,-5.53280188370049,-8.096386297050119,0.0838115158890839
1789147784706022400,8.0040224609375,-5.5405292630821465,-8.091004604011774,0.0925710147974546
1789147784715994600,8.01399462890625,-5.546883016023039,-8.086527750858664,0.1026845312638208
1789147784725967600,8.023967529296876,-5.550266228720545,-8.084116598063707,0.1094516507785767
1789147784735939600,8.033939697265625,-5.543477006971836,-8.088701003244518,0.1147222481252625
1789147784745911600,8.04391162109375,-5.536191526138782,-8.09358643719852,0.1217809709977358
1789147784755884500,8.053884521484376,-5.5329322320818894,-8.0957865775913,0.1236284985605627
1789147784765856500,8.0638564453125,-5.542458185318112,-8.089249869298934,0.1248057621790096
1789147784775828500,8.073828369140625,-5.553351919776201,-8.081736424928904,0.1272901080743409
1789147784785801700,8.0838017578125,-5.551082805800438,-8.083225786703824,0.1316118254646658
1789147784795773400,8.0937734375,-5.544798026442527,-8.087479937016964,0.1351475892422255
1789147784805745700,8.10374560546875,-5.534966952779889,-8.094184987613557,0.1367507501225452
1789147784815718700,8.11371875,-5.520569594115019,-8.104039442151784,0.1350140259904321
1789147784825690600,8.123690673828126,-5.5016796002060175,-8.116848070320486,0.1366648619373794
1789147784835662600,8.13366259765625,-5.487679131904244,-8.126265302485226,0.1399250875760335
1789147784845635600,8.143635498046875,-5.481679014706612,-8.13023128350675,0.14462510022684
1789147784855607600,8.153607666015626,-5.47808303604126,-8.132593920984863,0.1480606185003183
1789147784865579500,8.16357958984375,-5.476045392733812,-8.133940074896811,0.1494297696953639
1789147784875552800,8.173552734375,-5.47442626709938,-8.135088660410046,0.1462095290072262
1789147784885524500,8.1835244140625,-5.472675624039769,-8.13629219098091,0.144734798545856
1789147784895497500,8.19349755859375,-5.464400547647476,-8.141808908575772,0.1471573129850439
1789147784905469700,8.2034697265625,-5.459343264257908,-8.145194459360837,0.1475480567351449
1789147784915441400,8.21344140625,-5.455942515903711,-8.147432593676447,0.1497580426685046
1789147784925414700,8.22341455078125,-5.449306438890099,-8.151802479323745,0.1534928178831935
1789147784935387000,8.233386962890625,-5.442020373535156,-8.156689082321524,0.1524386235219892
1789147784945359000,8.243359130859375,-5.436791240710019,-8.160178678002953,0.15225436212942
1789147784955331800,8.253331787109374,-5.430285512077808,-8.164553824347257,0.1497813596120104
1789147784965303800,8.2633037109375,-5.4199996803849935,-8.171437154120206,0.1469773807077203
1789147784975276000,8.273276123046875,-5.4087248376548285,-8.178949429446458,0.1444345460908021
1789147784985248800,8.283248779296875,-5.4115708747357125,-8.177073114180564,0.1440360117598902
1789147784995221000,8.293220947265626,-5.41620145714581,-8.174111926287413,0.1379923842140939
1789147785005193000,8.30319287109375,-5.415650837525725,-8.174587142583727,0.1312723369777668
1789147785015165700,8.313165771484375,-5.412306787794828,-8.176911201617122,0.1242315242213197
1789147785025138000,8.323137939453124,-5.4040790576756,-8.182446039390564,0.1178736522277351
1789147785035110000,8.33310986328125,-5.390560235410929,-8.19142429561615,0.1131643785582389
1789147785045083000,8.343082763671875,-5.386532295069098,-8.19414524501264,0.1078795152241829
1789147785055054800,8.353054931640624,-5.379157382386922,-8.19910783585608,0.0984090367685537
1789147785065027000,8.363027099609376,-5.371157031282782,-8.20447725393474,0.0873048287644051
1789147785074999800,8.372999755859375,-5.369291237410903,-8.205831591153144,0.0736168559113284
1789147785084972000,8.382971923828125,-5.372600800350308,-8.203791609758138,0.0579168399829417
1789147785094945000,8.392945068359374,-5.369180178251862,-8.20611976044476,0.0433680399162927
1789147785104916700,8.402916748046875,-5.3714808564096685,-8.204681252074241,0.0280666724832495
1789147785114889000,8.412888916015625,-5.386089227476716,-8.195140685790777,0.0102075126094627
1789147785124862000,8.422862060546874,-5.400699936631321,-8.185522962617874,-0.0068454414522188
1789147785134834000,8.432833984375,-5.409093086445331,-8.179961236837507,-0.0184719557265983
1789147785144806000,8.442805908203125,-5.418096477112174,-8.17396638033688,-0.0299401016723131
1789147785154779000,8.45277880859375,-5.424173751199245,-8.169854853364825,-0.0469073930235812
1789147785164750800,8.462750732421876,-5.422129093629121,-8.171071243417263,-0.0670708089684601
1789147785174722800,8.472722900390625,-5.422648149067163,-8.170539913019537,-0.0869195466407109
1789147785184696000,8.482696044921875,-5.413742958077788,-8.176215036046505,-0.1061891601176001
1789147785194667800,8.492667724609374,-5.410840222373604,-8.177906057873368,-0.1226873452529311
1789147785204640000,8.502639892578125,-5.408045038697123,-8.179499464544653,-0.1386526108216494
1789147785214613000,8.512613037109375,-5.4075838509261605,-8.179438089746236,-0.1587610406097024
1789147785224584700,8.522584716796874,-5.40835015912354,-8.178493502372502,-0.1799136091558262
1789147785234557000,8.532556884765626,-5.409663579809665,-8.17713682706654,-0.2008872044058516
1789147785244530000,8.542530029296875,-5.406621143373847,-8.178690486249327,-0.2187477822018787
1789147785254502000,8.552501953125,-5.400856588497757,-8.182002387276292,-0.2365728502931073
1789147785264473900,8.562473876953124,-5.395915624964237,-8.184768344858288,-0.2530667428458109
1789147785274446800,8.57244677734375,-5.4025002640515565,-8.180018519982696,-0.2658169005592353
1789147785284418800,8.582418701171875,-5.405954788419604,-8.177390509566663,-0.2762760977912694
1789147785294391000,8.59239111328125,-5.407440643063187,-8.175947325021028,-0.289602667153161
1789147785304364000,8.602364013671876,-5.410040011906624,-8.173422774979471,-0.3114968295805156
1789147785314335700,8.612335693359375,-5.41079404514432,-8.171879052668809,-0.3377455522218719
1789147785324309000,8.62230908203125,-5.409826661416888,-8.17154353710413,-0.3606034268485382
1789147785334281000,8.632281005859374,-5.414357875105738,-8.167460651704669,-0.38430538761653
1789147785344253000,8.6422529296875,-5.424095425266027,-8.159895184886455,-0.4070462848000228
1789147785354226000,8.652225830078125,-5.433423225581645,-8.15272427034378,-0.4259071622123941
1789147785364198000,8.662197998046874,-5.444871671313047,-8.14418382101357,-0.4427648465761915
1789147785374169900,8.672169921875,-5.456238868501782,-8.135283890721201,-0.4658259886899962
1789147785384142800,8.682142822265625,-5.4607186442643405,-8.130925695511698,-0.4888505616530775
1789147785394115000,8.692114990234375,-5.462291008147597,-8.128458428615332,-0.5117770080039278
1789147785404086800,8.702086669921876,-5.457176441612839,-8.130428851905465,-0.5345399343561381
1789147785414059800,8.712059814453125,-5.454262599992751,-8.130956090649962,-0.5558491547686979
1789147785424032000,8.722031982421875,-5.460578359010816,-8.125217254737018,-0.5773398692280054
1789147785434003700,8.732003662109374,-5.468157854354382,-8.118503436312078,-0.5996128931714222
1789147785443977000,8.74197705078125,-5.472036741614342,-8.114401261690258,-0.6194363320056349
1789147785453949000,8.751948974609375,-5.4756087548822165,-8.110375659435986,-0.6402318672750145
1789147785463921000,8.7619208984375,-5.477155399802327,-8.10716254260838,-0.6671463968813419
1789147785473894000,8.771893798828126,-5.473374127697944,-8.107593335241079,-0.6924515915948897
1789147785483865900,8.781865966796875,-5.4747021614313125,-8.104659619876742,-0.7158971299163996
1789147785493837800,8.791837890625,-5.483081867241859,-8.097680428513884,-0.7305898182660341
1789147785503810800,8.801810791015624,-5.488681586945057,-8.092274770078063,-0.7482234554383903
1789147785513783000,8.811782958984375,-5.488696199992299,-8.090717019242048,-0.7647758001800626
1789147785523754800,8.821754638671875,-5.489373076340556,-8.088320479494334,-0.7850101213701068
1789147785533728000,8.83172802734375,-5.485173286563158,-8.089004954627155,-0.8070024652086197
1789147785543700000,8.841699951171876,-5.482972561648488,-8.088247998780012,-0.8292351936742662
1789147785553673000,8.8516728515625,-5.470984017691016,-8.093617416858672,-0.8556165662519634
1789147785563645000,8.86164501953125,-5.4598412769079205,-8.098549612563849,-0.8797758058007806
1789147785573617000,8.871616943359374,-5.456003306180238,-8.098331585898995,-0.9052224548116324
1789147785583590000,8.88158984375,-5.466290306916832,-8.088657164102793,-0.9293396087843924
1789147785593561900,8.891561767578125,-5.478591570085287,-8.077686857277154,-0.952043023501709
1789147785603534000,8.9015341796875,-5.485164518734813,-8.070762026450037,-0.9727120097819716
1789147785613506800,8.9115068359375,-5.4888651268184185,-8.065789498734473,-0.9928695394087582
1789147785623478800,8.921478759765625,-5.492172936192155,-8.060747412914036,-1.0152715600267053
1789147785633451000,8.931450927734375,-5.50279311440587,-8.051030905541777,-1.0346747641548513
1789147785643423700,8.941423828125,-5.516195616814493,-8.039516993358731,-1.0526802303142846
1789147785653396000,8.95139599609375,-5.516683108070493,-8.036916455471514,-1.0698390165165066
1789147785663368000,8.961367919921875,-5.509504594743252,-8.039823282828927,-1.0848926471330225
1789147785673340700,8.971340576171874,-5.5121179921120405,-8.036223797032237,-1.098195342428982
1789147785683313000,8.98131298828125,-5.513624889543652,-8.033483558413385,-1.11061146414876
1789147785693284900,8.991284912109375,-5.506103846389055,-8.036717718029022,-1.1244422749720513
1789147785703257900,9.0012578125,-5.495044107714295,-8.042420898106693,-1.137694701385498
1789147785713229800,9.011229736328126,-5.5035962474823,-8.035300836968421,-1.1466229809895156
1789147785723202000,9.0212021484375,-5.527365830126405,-8.01842452096939,-1.150429168339446
1789147785733174800,9.0311748046875,-5.549132256254554,-8.002981452643871,-1.1531729871548713
1789147785743147000,9.04114697265625,-5.548931765246391,-8.001025642400979,-1.1676171075709163
1789147785753119000,9.051118896484375,-5.547344203794002,-7.999670136138796,-1.1843260311137884
1789147785763091700,9.061091796875,-5.538665807297826,-8.003307615858317,-1.2002614860661327
1789147785773064000,9.07106396484375,-5.539534991347789,-8.0013021212548,-1.2095849755328147
1789147785783037000,9.081036865234376,-5.551558606618642,-7.993329827201366,-1.207166662344709
1789147785793009000,9.0910087890625,-5.553600341579318,-7.99265178180933,-1.2022582128413022
1789147785802980900,9.10098095703125,-5.551615305241942,-7.9940388522535555,-1.2022019526094196
1789147785812953900,9.110953857421874,-5.546006817710399,-7.997475840964912,-1.2052222502786665
1789147785822925800,9.12092578125,-5.537273476156592,-8.003146287816762,-1.2077415396232156
1789147785832897800,9.130897705078125,-5.5282841140151024,-8.009283767658472,-1.2082349491633475
1789147785842871000,9.14087109375,-5.517197487333417,-8.016347714695334,-1.2120546535819767
1789147785852842800,9.1508427734375,-5.513686848863959,-8.018639040502906,-1.2128765644241124
1789147785862815000,9.16081494140625,-5.516376818600297,-8.016860924914479,-1.2124027363672851
1789147785872788000,9.1707880859375,-5.519437959736585,-8.014851338657737,-1.2117610043976454
1789147785882760000,9.180760009765624,-5.515246937787532,-8.0182596857965,-1.2082801034793258
1789147785892732000,9.19073193359375,-5.513664052510261,-8.019924404138326,-1.204452654145658
1789147785902705000,9.200704833984377,-5.508271253556013,-8.023807967573404,-1.20326249451302
1789147785912676900,9.2106767578125,-5.499943570193648,-8.030228940531611,-1.1985071897447108
1789147785922648800,9.22064892578125,-5.490695849376917,-8.037733032551408,-1.190579465485364
1789147785932622300,9.230622314453123,-5.488810766282677,-8.040678438353538,-1.179339767133817
1789147785942594600,9.240594482421876,-5.492523064804077,-8.040577900588511,-1.1626136001951992
1789147785952566300,9.250566162109376,-5.495232908284664,-8.041108061942458,-1.14602552655302
1789147785962539500,9.26053955078125,-5.494510439229011,-8.04259508562982,-1.139036617513746
1789147785972511500,9.270511474609377,-5.492725893899798,-8.044705209651589,-1.1327279458235948
1789147785982483500,9.2804833984375,-5.487785514888167,-8.049182062804698,-1.1248386538784951
1789147785992456400,9.29045654296875,-5.478948712959885,-8.056220290878414,-1.1175047307938335
1789147786002428400,9.300428466796877,-5.469228113934397,-8.064668385750055,-1.1041085850607604
1789147786012401700,9.310401611328125,-5.459191873088479,-8.073510448375345,-1.0890560504227875
1789147786022373400,9.320373291015626,-5.446336483168602,-8.083951762890814,-1.0758889642052352
1789147786032345600,9.330345703125,-5.435622781452536,-8.093131679168343,-1.0609496806833894
1789147786042318600,9.340318603515623,-5.426158787536621,-8.101438319742678,-1.0458894741956144
1789147786052290600,9.35029052734375,-5.418746465453506,-8.107899040189386,-1.034190122443065
1789147786062262500,9.360262451171875,-5.406788316634297,-8.117335561576486,-1.0226855626102536
1789147786072235500,9.370235595703123,-5.4036412507802245,-8.121659854516386,-1.004830391641706
1789147786082207500,9.38020751953125,-5.4093602129489184,-8.120601285374164,-0.9823654618553816
1789147786092179500,9.390179443359376,-5.417370500925183,-8.117787981519102,-0.9612512160256504
1789147786102152700,9.400152587890624,-5.425784109005332,-8.114401261690258,-0.9421966792047024
1789147786112124400,9.41012451171875,-5.437996524846554,-8.108498175126314,-0.9223999457143248
1789147786122096600,9.4200966796875,-5.445274406895041,-8.105291488039493,-0.907529051253572
1789147786132069600,9.430069580078126,-5.446669660645723,-8.106424875983596,-0.8888454666368663
1789147786142041300,9.440041259765623,-5.450712798556685,-8.10585847427249,-0.8690136618331075
1789147786152013600,9.450013671875,-5.461080463314056,-8.10104318294525,-0.8485707393936812
1789147786161986600,9.459986572265626,-5.4706221986413,-8.096317323467135,-0.8320639142941683
1789147786171958500,9.46995849609375,-5.476507749548554,-8.093630276340246,-0.8193927949000149
1789147786181930500,9.479930419921876,-5.484488226908445,-8.089083280560374,-0.8108762379020452
1789147786191903500,9.489903564453124,-5.49067071493566,-8.085931538531185,-0.8004005827255547
1789147786201875500,9.49987548828125,-5.492245416906476,-8.086225553041697,-0.7864987524926662
1789147786211847400,9.509847412109377,-5.492375180765986,-8.087555924862622,-0.7717763996571302
1789147786221820700,9.519820556640624,-5.499505178776383,-8.083669438818097,-0.7616483158092945
1789147786231792400,9.52979248046875,-5.504051590034365,-8.08119924931228,-0.7549918535947799
1789147786241764600,9.5397646484375,-5.50460279417634,-8.081356485700606,-0.7492778598621487
1789147786251737600,9.549737548828125,-5.506864893889427,-8.080362798488139,-0.7433410171590745
1789147786261709600,9.55970947265625,-5.506303168353438,-8.0811641779989,-0.7387712250255047
1789147786271682600,9.5696826171875,-5.501477355632185,-8.085124313801527,-0.7313607295732945
1789147786281654500,9.579654541015625,-5.501143593633175,-8.086017463248968,-0.7239743456490337
1789147786291626500,9.58962646484375,-5.505775345087051,-8.083164411905408,-0.7206121757395565
1789147786301599500,9.599599609375,-5.505351566717028,-8.083425693190097,-0.7209129122518002
1789147786311571700,9.60957177734375,-5.498533703395724,-8.087828896585107,-0.7235513709966093
1789147786321543400,9.61954345703125,-5.495909200111031,-8.089046455681324,-0.7298525900326669
1789147786331516400,9.629516357421876,-5.495018388751149,-8.089050547334551,-0.7364872788067907
1789147786341488600,9.639488525390624,-5.491181002545356,-8.091068316897749,-0.7429151929624378
1789147786351460400,9.64946044921875,-5.481086894032359,-8.097523192125559,-0.7471148366093635
1789147786361433600,9.65943359375,-5.472199238699674,-8.103250337600707,-0.7501629721336066
1789147786371405600,9.669405517578124,-5.47524752035439,-8.100733970865607,-0.7550847195100039
1789147786381377500,9.67937744140625,-5.47381135007143,-8.101268223872781,-0.7597508846901356
1789147786391350500,9.6893505859375,-5.464622081443667,-8.106924057677388,-0.7655531412281096
1789147786401322500,9.699322509765626,-5.454699237844348,-8.11302003646493,-0.7717210162080824
1789147786411294500,9.70929443359375,-5.444301177948713,-8.119425227332115,-0.7777650456126779
1789147786421267500,9.719267333984376,-5.434577071791887,-8.125839770549534,-0.7787806523960084
1789147786431239700,9.72923974609375,-5.423249037569761,-8.133837199044228,-0.7742417668573558
1789147786441211400,9.73921142578125,-5.419947073414922,-8.13687262121737,-0.7654117599960416
1789147786451184400,9.749184326171877,-5.418789135551452,-8.137768693274259,-0.7640833609364927
1789147786461156600,9.759156494140624,-5.409120558974147,-8.143580594423414,-0.7706348284065723
1789147786471128600,9.769128662109376,-5.397482728150487,-8.150360463821887,-0.7805155864298343
1789147786481101600,9.7791015625,-5.382040828868746,-8.159764836505055,-0.7888369131166487
1789147786491073500,9.789073486328125,-5.363623128646612,-8.171364088883996,-0.7941990977369249
1789147786501045500,9.79904541015625,-5.346410128039121,-8.1823419944942,-0.7972147922962903
1789147786511018500,9.8090185546875,-5.344311694455146,-8.18360689986348,-0.7983044872291386
1789147786520990700,9.81899072265625,-5.349454318040609,-8.180041900858283,-0.8003928378105163
1789147786530963500,9.82896337890625,-5.364539074447751,-8.170286815041303,-0.7990687495999038
1789147786540935400,9.838935302734376,-5.369187777036428,-8.166530092856288,-0.8062225668773054
1789147786550907600,9.84890771484375,-5.369496989116072,-8.165086908310652,-0.8186836967825889
1789147786560880400,9.85888037109375,-5.367498508775234,-8.164950714710354,-0.8330242106936872
1789147786570852600,9.8688525390625,-5.367976647680997,-8.16260678193271,-0.8526823394309729
1789147786580824300,9.87882421875,-5.380792290112376,-8.152472341409325,-0.8687152634084224
1789147786590797300,9.88879736328125,-5.394262597060203,-8.142920084688066,-0.8747457757443189
1789147786600769500,9.89876953125,-5.401906974333524,-8.136959714978932,-0.8829987864352762
1789147786610741500,9.908741455078124,-5.4064212368875735,-8.133577671325206,-0.8865225766472518
1789147786620714500,9.918714599609377,-5.4009886904448265,-8.136917044880986,-0.888989185956493
1789147786630686500,9.9286865234375,-5.38764931640029,-8.14502202540338,-0.8956712940689175
1789147786640658400,9.938658447265626,-5.385821516451239,-8.14541482411325,-0.9030629386901856
1789147786650631400,9.94863134765625,-5.392560469317436,-8.13987531016469,-0.9127497085113078
1789147786660603600,9.958603759765625,-5.399205314159393,-8.134925578802823,-0.9175805627338588
1789147786670575400,9.968575439453126,-5.406497809255123,-8.12987998585105,-0.9193613817360252
1789147786680548400,9.97854833984375,-5.421591918012499,-8.120034299141167,-0.9174863085791468
1789147786690520600,9.9885205078125,-5.434430356797575,-8.111929318618774,-0.9132154263269155
1789147786700492300,9.9984921875,-5.432454088288545,-8.113284824880957,-0.912927987687662
1789147786710465500,10.008465576171876,-5.432973143726587,-8.11272076125741,-0.914847557573393
1789147786720437500,10.0184375,-5.43953381741643,-8.108511619129777,-0.9131791129045188
1789147786730409500,10.028409423828125,-5.451144175711274,-8.101434812611341,-0.9067383392672984
1789147786740382500,10.038382568359374,-5.453535454761981,-8.100832170543073,-0.8976952741771936
1789147786750354400,10.0483544921875,-5.453308660268784,-8.10223969925344,-0.8863048422433435
1789147786760326400,10.058326416015625,-5.456511255702376,-8.100935046395659,-0.8784696185730397
1789147786770299400,10.06829931640625,-5.461064681223035,-8.098412834441662,-0.8734206646203995
1789147786780271600,10.078271728515626,-5.462390961390733,-8.098033479735255,-0.8686286811035125
1789147786790244600,10.08824462890625,-5.4615200237751,-8.099303645801543,-0.8622407336320728
1789147786800216300,10.09821630859375,-5.464264354047179,-8.09849057585299,-0.8524445120871067
1789147786810188500,10.1081884765625,-5.473451284587383,-8.093520970746875,-0.8406076515600085
1789147786820161500,10.11816162109375,-5.482337186354399,-8.088813231447338,-0.8279179005306213
1789147786830133500,10.128133544921877,-5.48567188373506,-8.08798847106099,-0.8137708633650094
1789147786840105500,10.13810546875,-5.488708474951983,-8.087421484827995,-0.7987954856164753
1789147786850078500,10.148078369140626,-5.486579646229743,-8.090254077905415,-0.7846190031606703
1789147786860050400,10.158050537109377,-5.483574034672976,-8.093692820182442,-0.770018523139134
1789147786870022700,10.168022705078124,-5.477244831651449,-8.099687092161178,-0.7518272520840168
1789147786879995600,10.17799560546875,-5.479057434031367,-8.100443463486432,-0.7301561760891229
1789147786889967400,10.18796728515625,-5.488443102014064,-8.095932123541832,-0.7094154397469014
1789147786899939600,10.197939697265625,-5.505971744441986,-8.086001681157946,-0.6864652106616645
1789147786909912600,10.20791259765625,-5.5220799986779685,-8.07685508262813,-0.664395344607532
1789147786919884500,10.217884521484375,-5.537327252170443,-8.068082578107715,-0.6437753851007669
1789147786929856300,10.227856201171877,-5.551812873640656,-8.059911546611785,-0.6209492207866162
1789147786939829200,10.237829345703124,-5.559997349140048,-8.056113907894492,-0.5965333395956084
1789147786949801200,10.24780126953125,-5.567663938245177,-8.052783886688948,-0.5693585150852799
1789147786959773200,10.257773193359377,-5.587737004458904,-8.041204508054255,-0.535354319478944
1789147786969746400,10.267746337890625,-5.599891552633046,-8.034913883477449,-0.5017470873009413
1789147786979718100,10.27771826171875,-5.60367107117176,-8.034376707860828,-0.4669407449988648
1789147786989690400,10.2876904296875,-5.601094498682022,-8.037876824936271,-0.4366329562250524
1789147786999663400,10.297663330078125,-5.593481685590744,-8.044848417514562,-0.4046776194399222
1789147787009635300,10.30763525390625,-5.583360689070821,-8.05365599334836,-0.3675342124924063
1789147787019607300,10.317607177734375,-5.5743859399765725,-8.061661020627618,-0.3259172768600284
1789147787029580300,10.327580322265623,-5.574705088928342,-8.0630165268898,-0.2842827325057238
1789147787039552300,10.33755224609375,-5.576325968128442,-8.063141614574194,-0.2464305014354176
1789147787049524200,10.347524169921876,-5.57248741287887,-8.066689077922701,-0.2151633661101572
1789147787059497500,10.35749755859375,-5.56855299603939,-8.070145940378309,-0.1853499549908563
1789147787069469200,10.36746923828125,-5.562482736214995,-8.074973506665229,-0.1548545164241455
1789147787079442200,10.377442138671874,-5.55661881261766,-8.079546805930137,-0.1236537608659826
1789147787089414400,10.387414306640624,-5.543842917674779,-8.08873432099223,-0.0925438436627388
1789147787099386000,10.39738623046875,-5.533703216454386,-8.095984145990014,-0.0596363618185045
1789147787109359400,10.407359375,-5.533199358585477,-8.096510215690731,-0.0247867009645095
1789147787119331300,10.417331298828126,-5.528963912972808,-8.099437501314283,0.0070562592040398
1789147787129303300,10.42730322265625,-5.526505413904786,-8.101033830595016,0.0370308362514013
1789147787139276300,10.4372763671875,-5.524200059571862,-8.102413886776565,0.0669928437948459
1789147787149248300,10.447248291015624,-5.519518039235472,-8.1052797976017,0.0987122757651377
1789147787159220200,10.45722021484375,-5.505046446290612,-8.114685339328647,0.1293228925435803
1789147787169193200,10.467193115234377,-5.490751378956436,-8.123845381861925,0.1586706406462006
1789147787179165400,10.47716552734375,-5.481766692990064,-8.129278512826561,0.1882832684963941
1789147787189137200,10.48713720703125,-5.474516867992282,-8.133470703819393,0.2161064008476212
1789147787199110100,10.497110107421875,-5.46476645835042,-8.139224152779578,0.2444075625067576
1789147787209082400,10.507082275390625,-5.455896923196315,-8.144396002459526,0.2690515898978337
1789147787219054300,10.517054443359376,-5.446389674660563,-8.150026117300987,0.2903434755831025
1789147787229027300,10.52702734375,-5.437857408636808,-8.154899276295303,0.3125993474623188
1789147787238999300,10.536999267578125,-5.422694326296448,-8.164172131553292,0.3332616848060861
1789147787248971300,10.54697119140625,-5.412236060646176,-8.170062943157554,0.3580098301587626
1789147787258944300,10.5569443359375,-5.4101598388940095,-8.170427684816717,0.3803355341374874
1789147787268916500,10.56691650390625,-5.41013996514976,-8.169667806360126,0.3966136650476604
1789147787278888200,10.57688818359375,-5.409914924222231,-8.169232922074197,0.4084598413923755
1789147787288861200,10.586861083984376,-5.401022008192539,-8.174405940797925,0.4224142420627176
1789147787298833400,10.59683349609375,-5.388440174517036,-8.181789036786556,0.4398092481736093
1789147787308805000,10.60680517578125,-5.380528086218238,-8.186214452013372,0.4540992374738678
1789147787318778400,10.6167783203125,-5.388700871279835,-8.180802363836765,0.454708601543866
1789147787328750300,10.626750244140624,-5.391878332272172,-8.17902015659511,0.4490753814298659
1789147787338722300,10.636722412109377,-5.392601970371604,-8.178804468017816,0.4442718901382759
1789147787348695300,10.6466953125,-5.393592150452733,-8.178285412579774,0.4418041117852553
1789147787358667300,10.656667236328126,-5.397376345166563,-8.175912253707647,0.4395122379884124
1789147787368639200,10.66663916015625,-5.393845248430967,-8.17834970998764,0.437507912428677
1789147787378612200,10.6766123046875,-5.391426496851444,-8.180131917229295,0.4339950089368969
1789147787388584400,10.68658447265625,-5.393792056939006,-8.178865842816233,0.4284318218518048
1789147787398557200,10.69655712890625,-5.39736348568499,-8.176884898132085,0.4211761516351252
1789147787408529400,10.706529296875,-5.396259908357262,-8.178015947988628,0.4132973810840398
1789147787418501400,10.71650146484375,-5.404329817566275,-8.172965094339848,0.4077295543564483
1789147787428474000,10.72647412109375,-5.415124183303117,-8.166060137256979,0.402844522261247
1789147787438446300,10.7364462890625,-5.426262247911096,-8.159004958048463,0.3958588646249845
1789147787448418300,10.746418212890624,-5.432890726140141,-8.155045991289615,0.3863981951773166
1789147787458391300,10.756391357421874,-5.43764931884408,-8.152312766933441,0.3770313414929434
1789147787468363300,10.76636328125,-5.445522244176268,-8.14733439399898,0.3709648445282131
1789147787478335500,10.77633544921875,-5.450021309161186,-8.144710475236177,0.3624133258147164
1789147787488308200,10.78630810546875,-5.448268912535905,-8.14625361302495,0.3539626005945727
1789147787498280200,10.7962802734375,-5.4447156039685005,-8.149010802778601,0.3450844072099774
1789147787508252400,10.80625244140625,-5.437531245422363,-8.15419785002768,0.3357199281457811
1789147787518225200,10.81622509765625,-5.429079643419384,-8.160138930514455,0.3280609743578359
1789147787528197400,10.826197265625,-5.419386516922712,-8.16682352284491,0.3219342716384679
1789147787538169300,10.83616943359375,-5.414755934512615,-8.170099768036604,0.3166801870351657
1789147787548142000,10.84614208984375,-5.411440526354313,-8.172477018561958,0.3119566291119903
1789147787558114300,10.8561142578125,-5.405377280792593,-8.17672649269998,0.3056625522027723
1789147787568086300,10.866086181640624,-5.395850743034481,-8.183156818008422,0.3018406923596747
1789147787578059300,10.876059326171877,-5.3848710838586085,-8.190566802003978,0.296923986484576
1789147787588031200,10.88603125,-5.374646626964212,-8.197358946362137,0.2947490353319794
1789147787598003500,10.89600341796875,-5.365289600554108,-8.20343154427409,0.2962537408065051
1789147787607976200,10.90597607421875,-5.366327126908302,-8.202731871572137,0.2968394865388982
1789147787617948400,10.915948486328125,-5.372160655367374,-8.198813236823678,0.2995833966858685
1789147787627920400,10.92592041015625,-5.375260374948383,-8.196694929495454,0.3019077114475891
1789147787637893000,10.93589306640625,-5.381005640602112,-8.192959834620357,0.3009530410712585
1789147787647865300,10.945865234375,-5.3919882223874325,-8.18593797315955,0.2954175639769993
1789147787657837300,10.95583740234375,-5.393062573620677,-8.185404889196157,0.2905454278959892
1789147787667810300,10.965810302734376,-5.399174334499239,-8.181653427708149,0.2825645304109901
1789147787677782300,10.9757822265625,-5.406310177728534,-8.177217491087317,0.2744235652597621
1789147787687754500,10.98575439453125,-5.416524697750806,-8.170713516020774,0.2666203989618457
1789147787697727200,10.995727294921876,-5.42325020661354,-8.166422540828584,0.2613097253330983
1789147787707699200,11.00569921875,-5.431949645897745,-8.160763784414529,0.2573915107097476
1789147787717672400,11.01567236328125,-5.435035921475291,-8.158987422391771,0.2483765026703476
1789147787727644200,11.02564404296875,-5.43367690808177,-8.160102690157293,0.2413775288947857
1789147787737616400,11.035616455078124,-5.43399313442409,-8.160171663740277,0.2317495948551222
1789147787747589400,11.04558935546875,-5.427610739910603,-8.164540964865685,0.2273874175902455
1789147787757561000,11.05556103515625,-5.427097529691458,-8.16482796511352,0.2292916803089901
1789147787767533300,11.065533203125,-5.422519554251432,-8.167965678617358,0.2258287899713963
1789147787777506300,11.07550634765625,-5.423239685219526,-8.167628994008899,0.2206552963236346
1789147787787478300,11.085478271484376,-5.421529374170303,-8.1687454308182,0.2213499092579819
1789147787797450200,11.0954501953125,-5.417197482445836,-8.171662195047736,0.2197296693786978
1789147787807423200,11.10542333984375,-5.412496757408976,-8.17495539137423,0.2129817660210654
1789147787817395200,11.115395263671877,-5.405619857376814,-8.179632151013612,0.2080053841142915
1789147787827367400,11.125367431640624,-5.403585721200704,-8.181007531020045,0.2067621791201643
1789147787837340400,11.13534033203125,-5.401950813475251,-8.182133904701471,0.2049112174912355
1789147787847312100,11.14531201171875,-5.400290186786651,-8.18321760828495,0.2054162261376157
1789147787857284400,11.155284423828125,-5.40014347179234,-8.183436803993581,0.2005041599050164
1789147787867257300,11.16525732421875,-5.40428422485888,-8.180861400547624,0.1938860569395124
1789147787877229300,11.175229248046875,-5.404553689450025,-8.18081346975267,0.1883559136074967
1789147787887201300,11.185201171875,-5.4037049636662005,-8.181498529407381,0.1828470322592184
1789147787897174300,11.19517431640625,-5.403782705077528,-8.181664533624053,0.1728561101260595
1789147787907146200,11.205146240234376,-5.409121143496036,-8.17836783016622,0.1615669648759067
1789147787917118200,11.2151181640625,-5.40687599491775,-8.1800296258986,0.1523152346043381
1789147787927091500,11.225091552734376,-5.404108283770084,-8.182030444326996,0.1427858107693959
1789147787937063400,11.2350634765625,-5.402973726782203,-8.182965679350495,0.1316514176895376
1789147787947035400,11.245035400390623,-5.399157967886328,-8.185624669426678,0.1225957031804136
1789147787957008400,11.25500830078125,-5.391577303498983,-8.190740989527105,0.1142225823742803
1789147787966980400,11.26498046875,-5.383799070712923,-8.196016299581528,0.1020754594547674
1789147787976952300,11.274952392578124,-5.390488923740387,-8.191784945622086,0.0876269642577041
1789147787986925300,11.28492529296875,-5.398005290719866,-8.186974330469965,0.0732955743679776
1789147787996897500,11.2948974609375,-5.405560820665955,-8.182094157212973,0.0602148603927809
1789147788006869200,11.304869140625,-5.418111674681305,-8.173883378228545,0.0456984008263098
1789147788016842200,11.31484228515625,-5.428145577439666,-8.167300492706895,0.0289098932581837
1789147788026814500,11.324814453125,-5.429987405914068,-8.166120927533507,0.0090706831785704
1789147788036786400,11.334786376953126,-5.431577305454016,-8.165062942913174,-0.0097251302117772
1789147788046759400,11.344759521484375,-5.439169075757265,-8.159966496556997,-0.0277350636254181
1789147788056731400,11.3547314453125,-5.447442398583889,-8.15434807215333,-0.0485500091314548
1789147788066703400,11.364703369140624,-5.450201926425099,-8.152371803644298,-0.0672634819963481
1789147788076676400,11.37467626953125,-5.451013242807984,-8.151632967975734,-0.0879126858639065
1789147788086648600,11.384648681640623,-5.453082450297474,-8.149976432940363,-0.1103221134701743
1789147788096620300,11.394620361328125,-5.453363020804524,-8.149445102542638,-0.1332531629309058
1789147788106593300,11.40459326171875,-5.452540598505735,-8.149649100682138,-0.1529688944737892
1789147788116565500,11.4145654296875,-5.453531363108754,-8.148494085428117,-0.1772584002056159
1789147788126537200,11.424537109375,-5.460509969949722,-8.143281319215893,-0.2004998125234618
1789147788136510500,11.434510498046874,-5.471313688036799,-8.135448725894094,-0.2226739426696672
1789147788146482400,11.444482421875,-5.484682872697711,-8.1256831186831,-0.2488212324968539
1789147788156454400,11.454454345703123,-5.491048316076397,-8.120395533668994,-0.2792091555684804
1789147788166427400,11.464427490234376,-5.490891664209961,-8.119480756911635,-0.3074691814996302
1789147788176399400,11.4743994140625,-5.485502372387051,-8.121962052333355,-0.3367105466183275
1789147788186372400,11.484372314453124,-5.479304102268815,-8.124975847196579,-0.3638426279654726
1789147788196344300,11.49434423828125,-5.480680066797137,-8.122897287356853,-0.3886785611994564
1789147788206316500,11.504316650390624,-5.482761549246311,-8.120081060892343,-0.4171087560657411
1789147788216289300,11.514289306640626,-5.4837868006408215,-8.117807270741462,-0.4468593493482097
1789147788226261500,11.524261474609377,-5.479689886716008,-8.11896754669249,-0.4751132743321359
1789147788236233500,11.5342333984375,-5.476729867866635,-8.119381972712278,-0.5014540957037359
1789147788246206200,11.544206298828126,-5.469832509568334,-8.12260502641201,-0.5240208418967202
1789147788256178400,11.554178466796875,-5.464558368557691,-8.125025531557203,-0.541239797320962
1789147788266150400,11.564150390625,-5.460969988676905,-8.126224385952948,-0.5591666452862322
1789147788276123400,11.574123291015624,-5.466950232130289,-8.120857890483736,-0.5783584716860205
1789147788286095400,11.584095458984375,-5.48020952667594,-8.111043767955898,-0.5904654543913901
1789147788296067600,11.594067626953125,-5.471083970934152,-8.115916926950216,-0.6078828549971804
1789147788306040300,11.604040283203124,-5.466980042746663,-8.117640097481011,-0.6216386643555015
1789147788316012300,11.61401220703125,-5.451497226932645,-8.126620107272267,-0.6400065340865403
1789147788325984500,11.623984619140623,-5.428074850291013,-8.14146111805141,-0.6503863276731222
1789147788335957200,11.633957275390625,-5.408737697136401,-8.154000866150856,-0.6543810233324766
1789147788345929500,11.643929443359376,-5.400909779989719,-8.158286580646038,-0.6655255907464772
1789147788355901400,11.6539013671875,-5.4077977859377855,-8.152783891576528,-0.6769221601601689
1789147788365874200,11.663874267578125,-5.422307372805476,-8.142367126980423,-0.6861670314326882
1789147788375846400,11.673846435546874,-5.433539545437693,-8.13413238259852,-0.6949263842105865
1789147788385818400,11.683818359375,-5.446926850277185,-8.124381388434767,-0.7041427600409835
1789147788395791400,11.693791259765623,-5.454474781438708,-8.118087841248512,-0.7181479775831103
1789147788405763300,11.703763427734376,-5.446230100184679,-8.12197140468359,-0.7365799985915422
1789147788415735600,11.713735595703126,-5.443762248766422,-8.122614378762245,-0.7476474091161042
1789147788425708300,11.723708251953123,-5.446528206348419,-8.120493733346462,-0.750532536098361
1789147788435680500,11.733680419921876,-5.449698068556189,-8.118017698621749,-0.7542987567640841
1789147788445652500,11.743652587890624,-5.45695140068531,-8.112734205260873,-0.7586917310260236
1789147788455625200,11.753625244140624,-5.466703563892841,-8.105731048500537,-0.7633244323279709
1789147788465597400,11.763597412109377,-5.467366411715745,-8.104594737946986,-0.7706110822048038
1789147788475569400,11.7735693359375,-5.472459935462474,-8.100654475888609,-0.7758668107759207
1789147788485542400,11.78354248046875,-5.483390494799614,-8.092548910844325,-0.7832382163267583
1789147788495514400,11.793514404296875,-5.507338356620073,-8.07551418941319,-0.7909980366732925
1789147788505486300,11.803486328125,-5.528415046918392,-8.060337663069367,-0.7987311151433736
1789147788515459300,11.813459228515624,-5.537071816104651,-8.053910844892263,-0.8035817700449377
1789147788525431300,11.823431396484375,-5.542743432000279,-8.04981334644556,-0.8055434985719621
1789147788535403300,11.8334033203125,-5.5351516616970295,-8.054218887928128,-0.8136535205956548
1789147788545376300,11.843376220703124,-5.522249510025977,-8.062489872667193,-0.8193895800296217
1789147788555348500,11.853348388671876,-5.523321523171663,-8.062017578980326,-0.8168043858420103
1789147788565320200,11.8633203125,-5.526785399889945,-8.060652135846018,-0.806795982851088
1789147788575293200,11.873293212890625,-5.527921125921607,-8.06096368601322,-0.7958376587241888
1789147788585265400,11.883265380859376,-5.530320003756881,-8.059616947579384,-0.7927947108317166
1789147788595237400,11.8932373046875,-5.535017221662402,-8.056460529375077,-0.792086124170944
1789147788605210400,11.90321044921875,-5.539550773438811,-8.053775235813855,-0.7877000180412084
1789147788615182300,11.913182373046874,-5.549395875626802,-8.047394010344147,-0.7836033233121037
1789147788625154300,11.923154296875,-5.556660313671827,-8.043092513757944,-0.7762544218540192
1789147788635127300,11.933127197265623,-5.557208595204353,-8.043148043337464,-0.7717450546707958
1789147788645099500,11.943099609375,-5.557652247318625,-8.043543180134892,-0.764395057234168
1789147788655071200,11.9530712890625,-5.555744952392578,-8.045440538188815,-0.7582710944611579
1789147788665044200,11.963044189453123,-5.546139504179358,-8.052495132875443,-0.7536927536949515
1789147788675016400,11.973016357421876,-5.5417684494882815,-8.055973622640966,-0.7486508870702236
1789147788684988200,11.98298828125,-5.53151593554318,-8.063243321382998,-0.7461978678949177
1789147788694961400,11.99296142578125,-5.518894354379177,-8.072253726312518,-0.74223042556867
1789147788704933400,12.002933349609377,-5.50760606764555,-8.080467427906393,-0.7366838242921978
1789147788714905300,12.0129052734375,-5.496842681568861,-8.088074980300664,-0.7335864427987485
1789147788724878300,12.02287841796875,-5.494611561515927,-8.08985368041098,-0.7306902099005878
1789147788734850300,12.032850341796877,-5.48979451662302,-8.093806801950931,-0.7230780543964356
1789147788744823600,12.042823486328125,-5.479036975765228,-8.101555808642505,-0.7178777092743664
1789147788754795300,12.052795166015626,-5.457711279141902,-8.11680306213498,-0.708022451018542
1789147788764767500,12.062767578125,-5.449777563533186,-8.123166167426108,-0.6960548767838627
1789147788774740500,12.072740478515623,-5.446817544683814,-8.126120925578475,-0.6846423060834408
1789147788784712200,12.082712158203124,-5.442636459606885,-8.13015529566109,-0.6698372434005141
1789147788794684400,12.092684326171875,-5.433593905973434,-8.13716955833733,-0.657961585232988
1789147788804657400,12.102657470703123,-5.426091567519307,-8.143143956571818,-0.6458516799181699
1789147788814629400,12.11262939453125,-5.418186493483185,-8.149020739650727,-0.6380380835577846
1789147788824601300,12.122601318359376,-5.408016981646418,-8.156451766434312,-0.6293036460254341
1789147788834574300,12.13257421875,-5.401500147098303,-8.161517233130335,-0.619540376901999
1789147788844546300,12.14254638671875,-5.395645575851201,-8.166238416433334,-0.6082406189262867
1789147788854518500,12.1525185546875,-5.393649433597922,-8.168210593289137,-0.5993767097953706
1789147788864491500,12.162491455078126,-5.391849690699577,-8.16980692256987,-0.5937988731304183
1789147788874463200,12.172463134765623,-5.387627104568481,-8.172594507461787,-0.5937774284835905
1789147788884435500,12.182435546875,-5.383272416490316,-8.17521550361514,-0.597171235640347
1789147788894408400,12.192408447265626,-5.385305383622646,-8.173473043861986,-0.6026609190978109
1789147788904380400,12.20238037109375,-5.391729863712191,-8.169033015587926,-0.6054136153394356
1789147788914352400,12.212352294921876,-5.399450228831172,-8.163963457238674,-0.6050038289621472
1789147788924325400,12.222325439453124,-5.403952800947428,-8.160999931257964,-0.6047838295359164
1789147788934296600,12.232296630859375,-5.407682050603628,-8.157971523347497,-0.6122562112431973
1789147788944268800,12.242268798828125,-5.402430121424794,-8.160569723147153,-0.6238803058024496
1789147788954241800,12.25224169921875,-5.394148030769824,-8.165341759854554,-0.6330505774687976
1789147788964213500,12.262213623046875,-5.3895291387975215,-8.167603275045751,-0.6431215973671526
1789147788974185700,12.272185791015623,-5.3972436586976045,-8.161655180296302,-0.6538535653922707
1789147788984158700,12.28215869140625,-5.406448709416389,-8.155062357902526,-0.660055561837554
1789147788994130700,12.292130615234376,-5.417367578315735,-8.147200538486242,-0.6675521281380206
1789147789004102700,12.3021025390625,-5.433581046491861,-8.13558316592872,-0.6773937231946736
1789147789014075600,12.31207568359375,-5.44781298546195,-8.125207902386784,-0.6875418999824673
1789147789024047600,12.322047607421876,-5.455475482913851,-8.119056394019722,-0.6993463195446878
1789147789034019600,12.33201953125,-5.45823734884262,-8.11628342217505,-0.709903296329081
1789147789043992800,12.341992919921877,-5.464902651950717,-8.111058381003142,-0.7182946925774216
1789147789053964500,12.351964599609374,-5.467836367315053,-8.108582346278428,-0.7239041299570351
1789147789063936800,12.361936767578126,-5.46950342374444,-8.106877880448103,-0.7303778560157865
1789147789073909800,12.37190966796875,-5.4725271554797885,-8.104266821166872,-0.7366859431840479
1789147789083881700,12.3818818359375,-5.475061642393469,-8.101461116096377,-0.7486098244074731
1789147789093853700,12.391853759765626,-5.4763411608099934,-8.09931007554233,-0.7624038834169506
1789147789103826700,12.40182666015625,-5.482983083042502,-8.093447320988775,-0.7767778612062335
1789147789113798700,12.411798583984377,-5.493926501861214,-8.085251155051589,-0.7847739014614373
1789147789123770600,12.4217705078125,-5.503831809803844,-8.077744724944234,-0.7926313369635493
1789147789133743900,12.431743896484376,-5.510916215106844,-8.071943345189094,-0.8024459709480405
1789147789143715600,12.441715576171877,-5.515225894999504,-8.067822465866804,-0.8141962491702288
1789147789153687800,12.451687744140624,-5.516262836831808,-8.066092865595222,-0.8242449841715395
1789147789163660800,12.461660888671876,-5.516164052632451,-8.065196209016442,-0.8336231995001435
1789147789173632500,12.471632568359375,-5.517818249580264,-8.063338013929128,-0.8406255525428802
1789147789183604700,12.481604736328125,-5.525997464382648,-8.05688138513565,-0.8487601244859397
1789147789193577700,12.49157763671875,-5.551490802079439,-8.039179724228381,-0.8502478788256644
1789147789203549700,12.5015498046875,-5.586249396249651,-8.015009159567951,-0.8507860773555934
1789147789213521700,12.511521728515625,-5.604816149553656,-8.001430131548643,-0.8564677762538194
1789147789223494700,12.52149462890625,-5.606740395614504,-7.99891785646677,-0.8672772664945572
1789147789233466600,12.531466552734376,-5.610559661641717,-7.994978178930282,-0.8788242041643708
1789147789243438800,12.54143896484375,-5.600723911803961,-8.000355195793508,-0.892524228214845
1789147789253411800,12.551411865234376,-5.609623257574439,-7.993821994632482,-0.8951749619193374
1789147789263383600,12.561383544921876,-5.605728588223457,-7.996407919472455,-0.8964747194062918
1789147789273355800,12.571355712890623,-5.587962629908323,-8.008830763193965,-0.8964850216045975
1789147789283328800,12.581328857421877,-5.571553346899152,-8.020136585584282,-0.8975404489416628
1789147789293300700,12.59130078125,-5.559206491023302,-8.028429782155156,-0.8999535744979977
1789147789303272700,12.601272705078124,-5.542914112392068,-8.038506355011462,-0.910444719504565
1789147789313245700,12.61124560546875,-5.524560709577798,-8.049171541410685,-0.9275999255102128
1789147789323217700,12.6212177734375,-5.522310884824395,-8.04875068565011,-0.9444996223848312
1789147789333189600,12.631189697265626,-5.548516170182824,-8.029682412564753,-0.9531841563608496
1789147789343163000,12.641162841796875,-5.572790779739618,-8.012764010989665,-0.9539349016629158
1789147789353134600,12.651134521484376,-5.570379042422771,-8.014681827309728,-0.9519156707949936
1789147789363106800,12.66110693359375,-5.56506573844552,-8.017709066176414,-0.9574862374689428
1789147789373079800,12.671079833984376,-5.544483553665876,-8.030420079189538,-0.9702838327869772
1789147789383051500,12.681051513671877,-5.53142065847516,-8.038948253560065,-0.9742090434066952
1789147789393023700,12.691023681640624,-5.532974317657947,-8.038907921549677,-0.965678165622428
1789147789402996700,12.700996826171876,-5.5523594016075135,-8.027430834245681,-0.94975878502205
1789147789412968700,12.71096875,-5.560246939986944,-8.023410492688416,-0.9375068408880384
1789147789422940700,12.720940673828125,-5.553060243353247,-8.029702286309004,-0.9261693081852048
1789147789432913700,12.73091357421875,-5.546687201189995,-8.034453280228377,-0.923155951713398
1789147789442885600,12.7408857421875,-5.526182173299789,-8.048364901202916,-0.9249454654786736
1789147789452857900,12.75085791015625,-5.499746586316824,-8.06762197485864,-0.9146779000949116
1789147789462830600,12.76083056640625,-5.4823108828693625,-8.081694923874736,-0.8949060087848454
1789147789472802600,12.770802490234376,-5.477900665211677,-8.086526581814885,-0.8781041462615132
1789147789482774800,12.78077490234375,-5.481874245017766,-8.084625132107734,-0.8707956498790532
1789147789492747500,12.79074755859375,-5.471324793952703,-8.091827610832452,-0.8702368469525128
1789147789502719700,12.8007197265625,-5.459626757374406,-8.09968475407362,-0.8706151056803763
1789147789512691700,12.810691650390623,-5.437371086424589,-8.115101518914104,-0.8663205502916127
1789147789522664400,12.82066455078125,-5.436027270600199,-8.117771030384302,-0.8495797703057527
1789147789532636700,12.83063671875,-5.450594140613079,-8.10962337976396,-0.8339215248595923
1789147789542608600,12.840608642578124,-5.457035571837425,-8.106014541617036,-0.8268519517995416
1789147789552581600,12.85058154296875,-5.452051353684068,-8.110087490144371,-0.8197642585609107
1789147789562553600,12.8605537109375,-5.443507981744408,-8.117052652981878,-0.8075085880998522
1789147789572525800,12.87052587890625,-5.433567017966508,-8.12504482077956,-0.7939656543072312
1789147789582498600,12.88049853515625,-5.412215017858148,-8.140554524600505,-0.7808280133798718
1789147789592470500,12.890470458984376,-5.3880748483359815,-8.15796275551915,-0.7659519312873482
1789147789602442800,12.90044287109375,-5.379799187421798,-8.164972342020272,-0.7492546981822699
1789147789612415500,12.91041552734375,-5.382397387221455,-8.164635657411813,-0.7341082747157662
1789147789622387700,12.9203876953125,-5.382727057567238,-8.165231285217404,-0.7250112874813377
1789147789632359700,12.930359619140624,-5.383932926225662,-8.165194460338354,-0.7164140664625912
1789147789642332700,12.940332763671876,-5.39070695040524,-8.161344799172877,-0.7093065725449472
1789147789652304600,12.9503046875,-5.381024345302581,-8.168153310143946,-0.7044351671162993
1789147789662276900,12.96027685546875,-5.374581160512566,-8.17299782756567,-0.6973932857807725
1789147789672249600,12.97024951171875,-5.382993015027046,-8.168378935593367,-0.6865414177030325
1789147789682221600,12.9802216796875,-5.395515811991691,-8.160748002323508,-0.6789573923148214
1789147789692193800,12.99019384765625,-5.405269144243001,-8.1548712192446,-0.6719631495133042
1789147789702166500,13.00016650390625,-5.418418548673391,-8.146654595041275,-0.6656934946592897
1789147789712138800,13.010138671875,-5.423468817800283,-8.143776993778348,-0.6597507336720824
1789147789722110700,13.02011083984375,-5.417762715113163,-8.147897873100638,-0.6557420094873756
1789147789732083500,13.03008349609375,-5.417195728880166,-8.14906808592379,-0.6458069639936089
1789147789742055700,13.0400556640625,-5.419974545943736,-8.148010685825348,-0.6357572791442274
1789147789752027600,13.050027587890623,-5.423562341302633,-8.146186977529526,-0.6284946677301079
1789147789762000600,13.060000732421877,-5.427867345020175,-8.143612743127346,-0.624659546546638
1789147789771972600,13.06997265625,-5.429280718949437,-8.142980290442704,-0.6206218154631554
1789147789781944800,13.07994482421875,-5.4254269661307335,-8.146009282875061,-0.6145447605717926
1789147789791917600,13.08991748046875,-5.424994419932365,-8.146950363117456,-0.6058298679901286
1789147789801889500,13.0998896484375,-5.436354602858424,-8.140126070055365,-0.5956372675387188
1789147789811861800,13.10986181640625,-5.449148617979884,-8.132094154769181,-0.5883944933362305
1789147789821834500,13.11983447265625,-5.460056380963326,-8.125356370946765,-0.5803005456645042
1789147789831806700,13.129806640625,-5.468401015460491,-8.120332405304909,-0.5720027094511315
1789147789841778700,13.13977880859375,-5.475352734294534,-8.116266471040248,-0.5631364622326568
1789147789851751700,13.149751708984375,-5.479039313852787,-8.114352746373415,-0.5547974902912974
1789147789861723600,13.1597236328125,-5.488333211898803,-8.108684053087234,-0.5457256374981254
1789147789871696000,13.16969580078125,-5.501940881490707,-8.100156463238596,-0.5352497996585444
1789147789881668600,13.179668701171876,-5.5109910339087245,-8.094679493132233,-0.5249090229080989
1789147789891640600,13.189640625,-5.522845722353458,-8.087081877610087,-0.5173739512281492
1789147789901612800,13.19961279296875,-5.534388860630989,-8.079203107059001,-0.5171070804528892
1789147789911585500,13.20958544921875,-5.541285634407401,-8.07433579328358,-0.5192580479416996
1789147789921557800,13.219557861328123,-5.548780958598852,-8.069056391575932,-0.5212848045289517
1789147789931530200,13.2295302734375,-5.547149558004737,-8.070097425061464,-0.5225347315248101
1789147789941503200,13.239503173828124,-5.537476305252313,-8.076957373958825,-0.5191314989525825
1789147789951475500,13.249475341796876,-5.536221921277046,-8.078219356718659,-0.5128451121594757
1789147789961447200,13.259447265625,-5.5339609906077385,-8.080175166961551,-0.5063996258145198
1789147789971420400,13.26942041015625,-5.53442334742248,-8.080001563960312,-0.5041101266378537
1789147789981392400,13.279392333984376,-5.527324329072236,-8.084807502937316,-0.5049387594817206
1789147789991364400,13.2893642578125,-5.5127036830455065,-8.094716902533174,-0.5059987899286672
1789147790001337300,13.29933740234375,-5.497187549483776,-8.105188027665019,-0.5071877074522897
1789147790011309300,13.309309326171874,-5.485589466148615,-8.113173765721916,-0.5050932924563065
1789147790021281300,13.31928125,-5.480266809821129,-8.117150268137454,-0.4989394825343042
1789147790031254300,13.329254150390623,-5.4846489704281085,-8.114550314772128,-0.4930423873197287
1789147790041226500,13.3392265625,-5.489022363206744,-8.111919381746649,-0.4876334774808958
1789147790051198200,13.3491982421875,-5.492011608150601,-8.110365138041972,-0.479768479726836
1789147790061171200,13.359171142578123,-5.494704500496387,-8.108945918893813,-0.4728675777645781
1789147790071143400,13.369143310546876,-5.493474666440487,-8.110000396382809,-0.4690526591189205
1789147790081115100,13.379115234375,-5.4857186454862354,-8.115756183430552,-0.4601889691837131
1789147790091088400,13.38908837890625,-5.482333679223061,-8.118567733719944,-0.4508499898869544
1789147790101060400,13.399060302734377,-5.478605598610639,-8.121713630530238,-0.4393506542185321
1789147790111032300,13.4090322265625,-5.473173636689782,-8.12577605766356,-0.4318901090795174
1789147790121005300,13.41900537109375,-5.465983432924747,-8.131181131577492,-0.4210757600005715
1789147790130977300,13.428977294921877,-5.454873425367475,-8.138849474248289,-0.4169761061294004
1789147790140949200,13.43894921875,-5.437535921597481,-8.150549264392255,-0.4148926874514669
1789147790150922200,13.448922119140626,-5.438004708153009,-8.150141852635144,-0.416759358106181
1789147790160894500,13.45889453125,-5.445114247897267,-8.145520038053393,-0.4142738979659974
1789147790170866200,13.4688662109375,-5.456961922079325,-8.137903133308887,-0.4080309849884361
1789147790180839400,13.47883935546875,-5.465801062095165,-8.13189249471724,-0.4095522032063454
1789147790190811400,13.488811279296876,-5.479317546272277,-8.122218657442927,-0.420743203577958
1789147790200783400,13.498783447265623,-5.483514997962117,-8.118765302118659,-0.4325472943466156
1789147790210756400,13.50875634765625,-5.480478406745196,-8.12014360473454,-0.4449760198196396
1789147790220728300,13.518728271484376,-5.49393526968956,-8.110493148335815,-0.4549315601121634
1789147790230700300,13.5287001953125,-5.509343851223588,-8.099445100098848,-0.4653132899275049
1789147790240673300,13.53867333984375,-5.516906979954243,-8.093928382503986,-0.4716430774709209
1789147790250645500,13.5486455078125,-5.520813924264908,-8.09090055911541,-0.4778439779376611
1789147790260617200,13.5586171875,-5.521705904668569,-8.08974320577383,-0.4870437314268201
1789147790270590200,13.568590087890623,-5.5166538819760085,-8.09276226133406,-0.4940740684550255
1789147790280562400,13.5785625,-5.510512310481071,-8.096540026307105,-0.5006854494187981
1789147790290534100,13.5885341796875,-5.510558487710356,-8.095863149958848,-0.5110028452936559
1789147790300507400,13.59850732421875,-5.508059072110057,-8.096781433847546,-0.5232559584714472
1789147790310479400,13.608479248046876,-5.498430243021249,-8.10257287673056,-0.5347476588226855
1789147790320451300,13.618451416015626,-5.487924631097912,-8.108864670351148,-0.5471458795595914
1789147790330424300,13.62842431640625,-5.474189535734057,-8.117343744882941,-0.5588883763341232
1789147790340396300,13.638396240234377,-5.461519439253211,-8.125202057167888,-0.568573209926486
1789147790350368300,13.6483681640625,-5.456252897027135,-8.128064460861683,-0.5781419063258916
1789147790360341200,13.65834130859375,-5.451812284231186,-8.13032539153099,-0.5881612691022455
1789147790370313200,13.668313232421877,-5.448719578912854,-8.13155697915256,-0.5996834011243656
1789147790380285200,13.67828515625,-5.447750441619753,-8.131458194953202,-0.609745580129139
1789147790390258400,13.688258544921876,-5.448294046977162,-8.13054867889285,-0.6169665808912366
1789147790400230100,13.698230224609375,-5.446444619718194,-8.131116249647736,-0.6257599820692091
1789147790410202400,13.708202392578125,-5.448402183526754,-8.129139981138707,-0.6343435398887842
1789147790420175400,13.71817529296875,-5.445390142229199,-8.130370984238386,-0.6443339688315988
1789147790430147000,13.72814697265625,-5.445446256330609,-8.129459714612365,-0.6552797988031059
1789147790440119300,13.738119384765625,-5.456489043870568,-8.121630628421903,-0.6604856968831271
1789147790450092300,13.74809228515625,-5.471289722639322,-8.111393312045932,-0.663828358374536
1789147790460064300,13.758064208984376,-5.473213384178281,-8.109694106912613,-0.668715692024678
1789147790470036200,13.7680361328125,-5.478244364082813,-8.106009865441917,-0.6721847563747316
1789147790480009200,13.77800927734375,-5.47123770019114,-8.110321298900246,-0.6772192434106021
1789147790489981200,13.787981201171876,-5.461247052052617,-8.116907107031345,-0.678961410902813
1789147790499953200,13.797953125,-5.468282942038774,-8.1123472517699,-0.6768204533513635
1789147790509926400,13.807926513671877,-5.476606533747911,-8.106611922988295,-0.6782398186299949
1789147790519898000,13.817898193359374,-5.484279552593827,-8.101072993561624,-0.6824036603111774
1789147790529870300,13.827870361328126,-5.4872395714432,-8.098422771313786,-0.6900285291664302
1789147790539843300,13.83784326171875,-5.486020843303203,-8.098502266290783,-0.6987232922755181
1789147790549815300,13.847815185546876,-5.481815208306909,-8.100198548814653,-0.7119415972236544
1789147790559787300,13.857787353515626,-5.480472561526298,-8.100427681395411,-0.7196342706181108
1789147790569760300,13.86776025390625,-5.489100104618072,-8.094692352613807,-0.7184154694128781
1789147790579732200,13.877732177734377,-5.494191874799132,-8.091224968764186,-0.7185510784912854
1789147790589704200,13.8877041015625,-5.495941348814964,-8.090399039334057,-0.7144645398300141
1789147790599677400,13.897677490234376,-5.501010907164216,-8.087424407437442,-0.7091044010363519
1789147790609649200,13.907649169921877,-5.499951168978214,-8.088404650646448,-0.70614474751316
1789147790619621400,13.917621337890624,-5.497876116269826,-8.090106778389215,-0.7027928798019886
1789147790629594400,13.927594482421876,-5.496921007502079,-8.09125536390245,-0.6970237218160182
1789147790639566000,13.937566162109375,-5.499397042226791,-8.090257585036754,-0.6890297273874283
1789147790649538300,13.947538330078125,-5.499494072860479,-8.090989406442642,-0.6795832691282033
1789147790659511300,13.95751123046875,-5.500664285683632,-8.091061887156963,-0.6691706692505628
1789147790669483300,13.967483154296875,-5.504475952926278,-8.089251038342713,-0.6596558949954807
1789147790679455200,13.977455322265625,-5.5056870822817086,-8.089192586153745,-0.6502056373439729
1789147790689428200,13.98742822265625,-5.505462625876069,-8.090179259103536,-0.6397508788250387
1789147790699400200,13.997400146484376,-5.496140086257458,-8.097426161491871,-0.6281159706108271
1789147790709372200,14.0073720703125,-5.49117515732646,-8.1019585442245,-0.6129075147587806
1789147790719345400,14.017345458984376,-5.488166623160243,-8.105148864698409,-0.5974830050032586
1789147790729317000,14.027317138671876,-5.490358580246568,-8.10477477068901,-0.5822158047012984
1789147790739289300,14.037289306640623,-5.491539898985624,-8.104704043540359,-0.5719669440180063
1789147790749262300,14.047262451171877,-5.490943102136254,-8.105699484318494,-0.5635231965279206
1789147790759234300,14.057234375,-5.484549017184972,-8.110714097610115,-0.5535648066911846
1789147790769206300,14.067206298828124,-5.477584438869357,-8.116363501673936,-0.5395455240910872
1789147790779179300,14.07717919921875,-5.477012776461243,-8.11786572293043,-0.5224589263422414
1789147790789151200,14.087151123046874,-5.4727475202322005,-8.12168908061087,-0.5075260360285639
1789147790799123200,14.097123291015626,-5.465632135269045,-8.12728529318273,-0.4944446553330868
1789147790809096400,14.107096435546875,-5.456199705535173,-8.134649099949002,-0.4772441123483702
1789147790819068200,14.117068115234376,-5.448413289442658,-8.140798854750395,-0.4610431383276357
1789147790829040400,14.127040283203126,-5.435208939954638,-8.150589596402645,-0.4435986670518294
1789147790839013400,14.137013427734376,-5.423562341302633,-8.1591955121845,-0.4276624449145048
1789147790848985000,14.146985107421877,-5.435704029995203,-8.151859177947044,-0.4131525657858699
1789147790858957300,14.156957275390624,-5.452991849404573,-8.141107482308149,-0.3970351783953607
1789147790868930300,14.166930419921876,-5.461505410727858,-8.136352981257438,-0.3769705877490341
