time,seconds_elapsed,z,y,x
1789997625158861300,0.062861328125,0.228300541639328,-0.15317116677761078,0.04458678513765335
1789997625168932000,0.07293212890625,0.27264755964279175,-0.13666313886642456,0.04154730215668678
1789997625179002400,0.08300244140625,0.3192172050476074,-0.11286059021949768,0.04855754226446152
1789997625189073400,0.093073486328125,0.2958206832408905,-0.103287473320961,0.04327681288123131
1789997625199143200,0.10314306640625,0.2711486220359802,-0.051704972982406616,-0.010781362652778625
1789997625209214200,0.113214111328125,0.2769043445587158,-0.00906815193593502,-0.01424778625369072
1789997625219284200,0.1232841796875,0.2656130790710449,-0.035801760852336884,-0.014565767720341682
1789997625229355300,0.133355224609375,0.2916622459888458,-0.08582103997468948,0.03229083865880966
1789997625239425300,0.14342529296875,0.2759557068347931,-0.08139060437679291,0.021642453968524933
1789997625249496300,0.153496337890625,0.23255091905593872,-0.11402688175439835,0.06463494151830673
1789997625259566300,0.16356640625,0.2127910554409027,-0.10249965637922287,0.07326118648052216
1789997625269637400,0.173637451171875,0.22115735709667206,-0.09779956191778183,0.06652380526065826
1789997625279707100,0.18370703125,0.26918748021125793,-0.09403011947870255,0.05086788162589073
1789997625289778200,0.193778076171875,0.2818998694419861,-0.08266445994377136,0.03939482569694519
1789997625299849200,0.20384912109375,0.2785389721393585,-0.05395664647221565,0.027027640491724014
1789997625309919200,0.213919189453125,0.3025265634059906,-0.02757549285888672,0.031187640503048897
1789997625319990300,0.223990234375,0.3108111321926117,-0.018002226948738098,0.00044783763587474823
1789997625330060300,0.234060302734375,0.3053608536720276,0.0035834931768476963,0.012114152312278748
1789997625340131300,0.24413134765625,0.2760349214076996,-0.025153612717986107,0.05306211858987808
1789997625350201300,0.254201416015625,0.2595116198062897,0.017358213663101196,0.09444667398929596
1789997625360272100,0.264272216796875,0.28110718727111816,0.05819699168205261,0.07587911188602448
1789997625370342100,0.274342041015625,0.33611831068992615,0.04040171951055527,0.060507193207740784
1789997625380413200,0.2844130859375,0.35275375843048096,0.041841425001621246,-0.008251098915934563
1789997625390483500,0.2944833984375,0.3613625168800354,0.02135453000664711,-0.023464452475309372
1789997625400554200,0.30455419921875,0.3204100430011749,0.029069174081087112,0.03009198233485222
1789997625410624300,0.314624267578125,0.29969942569732666,0.04329065978527069,0.01677790842950344
1789997625420695300,0.3246953125,0.3153705298900604,0.058540187776088715,0.04175276681780815
1789997625430765300,0.334765380859375,0.3270811140537262,0.10588033497333527,-0.003201060462743044
1789997625440836000,0.344836181640625,0.3546765148639679,0.09217917174100876,0.022215615957975388
1789997625450907100,0.3549072265625,0.3395017981529236,0.11269210278987885,0.03916318342089653
1789997625460977400,0.364977294921875,0.3683861792087555,0.16223196685314178,-0.015906725078821182
1789997625471048400,0.37504833984375,0.34553050994873047,0.19795840978622437,0.022350331768393517
1789997625481118200,0.3851181640625,0.33733731508255005,0.2624590992927551,-0.03473346307873726
1789997625491189200,0.395189208984375,0.3365939259529114,0.339920312166214,-0.015611939132213593
1789997625501259300,0.40525927734375,0.3435157537460327,0.39815378189086914,-0.03407962992787361
1789997625511330300,0.415330322265625,0.36772221326828003,0.3960907757282257,-0.018094347789883614
1789997625521400300,0.425400390625,0.3833935856819153,0.3816380500793457,0.02585739642381668
1789997625531471400,0.435471435546875,0.39350393414497375,0.3552490174770355,0.04158580303192139
1789997625541541400,0.445541259765625,0.3853703737258911,0.36907002329826355,0.04392831772565842
1789997625551612700,0.45561279296875,0.34584835171699524,0.38996797800064087,-0.022009655833244324
1789997625561682400,0.465682373046875,0.35721179842948914,0.33627837896347046,-0.05491620674729347
1789997625571753500,0.47575341796875,0.3597077429294586,0.2786179482936859,-0.03129846602678299
1789997625581823500,0.485823486328125,0.305806428194046,0.23833152651786804,-0.0030862679705023766
1789997625591894500,0.49589453125,0.30362823605537415,0.26935526728630066,-0.015815390273928642
1789997625601965300,0.50596533203125,0.36099565029144287,0.2984740138053894,-0.09321030974388123
1789997625612035600,0.51603564453125,0.34767335653305054,0.2607772946357727,-0.0321761891245842
1789997625622106600,0.526106689453125,0.2992107570171356,0.23599418997764587,0.007932347245514393
1789997625632176600,0.5361767578125,0.28382962942123413,0.28440260887145996,0.03420417010784149
1789997625642247400,0.546247314453125,0.2946455478668213,0.40235933661460876,-0.03168110549449921
1789997625652317400,0.5563173828125,0.34020793437957764,0.42886489629745483,-0.009353702887892723
1789997625662388500,0.566388427734375,0.35574987530708313,0.4655741751194,0.027659442275762558
1789997625672458800,0.576458740234375,0.34819817543029785,0.5560858249664307,0.03206181526184082
1789997625682529500,0.586529541015625,0.33230364322662354,0.6742428541183472,0.008632919751107693
1789997625692599600,0.596599609375,0.347251832485199,0.6851660013198853,0.004870620556175709
1789997625702670600,0.606670654296875,0.3464406430721283,0.6769541501998901,0.04733924940228462
1789997625712740400,0.616740234375,0.2530747354030609,0.6822024583816528,0.06582053005695343
1789997625722811400,0.626811279296875,0.1670982986688614,0.6466833353042603,0.09367719292640686
1789997625732881700,0.636881591796875,0.17343416810035706,0.6447230577468872,0.09410862624645233
1789997625742952700,0.64695263671875,0.1827791929244995,0.6177476048469543,0.04097749665379524
1789997625753022500,0.6570224609375,0.14199048280715942,0.5552895069122314,0.03225087374448776
1789997625763093500,0.667093505859375,0.05642790347337723,0.4240254759788513,0.0627661719918251
1789997625773164500,0.67716455078125,0.005436611361801624,0.36193516850471497,0.035681042820215225
1789997625783234600,0.687234619140625,-0.003843706101179123,0.32262957096099854,-0.008588952012360096
1789997625793305600,0.6973056640625,0.009816478006541729,0.21086667478084564,0.04838709905743599
1789997625803375400,0.707375244140625,-0.11851006746292114,0.12560397386550903,0.1014399304986
1789997625813446400,0.7174462890625,-0.14969152212142944,0.10147478431463242,0.025010190904140472
1789997625823516700,0.7275166015625,-0.11292978376150131,0.048524484038352966,0.06781838089227676
1789997625833587700,0.737587646484375,-0.12507078051567078,-0.09702570736408234,0.0932505801320076
1789997625843657500,0.747657470703125,-0.1960514783859253,-0.17132683098316193,0.10778877139091492
1789997625853728500,0.757728515625,-0.255843847990036,-0.18192562460899353,0.1054559126496315
1789997625863798500,0.767798583984375,-0.29726532101631165,-0.1647477000951767,0.04841845855116844
1789997625873869300,0.777869384765625,-0.2383030503988266,-0.18107660114765167,0.0008478102972730994
1789997625883939600,0.787939697265625,-0.2406599372625351,-0.23843549191951752,-0.057187262922525406
1789997625894010600,0.7980107421875,-0.3125814199447632,-0.30271846055984497,-0.07522996515035629
1789997625904081700,0.80808154296875,-0.37115606665611267,-0.3800542652606964,0.0008083430584520102
1789997625914151400,0.8181513671875,-0.33745619654655457,-0.41199612617492676,0.003943574149161577
1789997625924222500,0.828222412109375,-0.283514142036438,-0.41918134689331055,0.039900775998830795
1789997625934292500,0.83829248046875,-0.28707262873649597,-0.4787605404853821,0.022112030535936356
1789997625944363500,0.848363525390625,-0.3033280074596405,-0.5361465811729431,0.050983890891075134
1789997625954433500,0.85843359375,-0.2942013740539551,-0.5684147477149963,0.018312230706214905
1789997625964504600,0.868504638671875,-0.2910822629928589,-0.6185791492462158,0.04752311110496521
1789997625974574600,0.87857470703125,-0.2898072600364685,-0.5736010074615479,0.026638660579919815
1789997625984645600,0.888645751953125,-0.2587769031524658,-0.4863910377025604,-0.018771696835756302
1789997625994715400,0.89871533203125,-0.2524295449256897,-0.3970702886581421,-0.050713926553726196
1789997626004786400,0.908786376953125,-0.20137594640254974,-0.3867521286010742,-0.04147568717598915
1789997626014856700,0.918856689453125,-0.17474780976772308,-0.3915442228317261,-0.03842567652463913
1789997626024927700,0.928927734375,-0.16910670697689056,-0.28021395206451416,-0.04980216547846794
1789997626034997500,0.93899755859375,-0.11812310665845871,-0.281936913728714,-0.012557744048535824
1789997626045068500,0.949068603515625,-0.11445886641740799,-0.25859084725379944,0.015392131172120571
1789997626055138600,0.959138671875,0.0014606239274144173,-0.1556100994348526,-0.04432559013366699
1789997626065209600,0.969209716796875,0.03868309408426285,-0.08023013174533844,-0.0018987716175615788
1789997626075279400,0.979279296875,0.05695827677845955,-0.0870971754193306,0.03338306024670601
1789997626085350400,0.989350341796875,0.1062760204076767,-0.044953715056180954,0.07140261679887772
1789997626095421400,0.99942138671875,0.11866740137338638,0.00265703909099102,0.07421879470348358
1789997626105491700,1.00949169921875,0.17390881478786469,0.050634950399398804,0.043193500488996506
1789997626115562500,1.0195625,0.21587508916854858,0.1584516167640686,-0.022119421511888504
1789997626125632500,1.029632568359375,0.24750570952892303,0.23270826041698456,-0.03864993155002594
1789997626135703600,1.03970361328125,0.2563539743423462,0.27821072936058044,-0.02718750573694706
1789997626145773600,1.049773681640625,0.23992682993412018,0.33090484142303467,-0.03754027932882309
1789997626155844400,1.05984423828125,0.2593460977077484,0.3534225821495056,0.02911049872636795
1789997626165914600,1.06991455078125,0.2346697747707367,0.3762682378292084,0.040205225348472595
1789997626175985700,1.079985595703125,0.2922484278678894,0.4399467408657074,0.053650837391614914
1789997626186055400,1.090055419921875,0.3032611310482025,0.5042324662208557,0.04221575707197189
1789997626196126500,1.10012646484375,0.3196346163749695,0.5141676664352417,0.05349205434322357
1789997626206196500,1.110196533203125,0.27471137046813965,0.5299972295761108,0.06036221235990524
1789997626216267500,1.120267578125,0.2545081079006195,0.5247423052787781,0.04865068569779396
1789997626226338600,1.130338623046875,0.2486763298511505,0.49961721897125244,0.0283115915954113
1789997626236408600,1.14040869140625,0.17499803006649017,0.4302610456943512,0.062400754541158676
1789997626246479600,1.150479736328125,0.1266251653432846,0.3705630898475647,0.03515821695327759
1789997626256549600,1.160549560546875,0.07064948230981827,0.29567238688468933,0.0418936051428318
1789997626266620700,1.17062060546875,0.06281978636980057,0.22651834785938263,0.016114741563796997
1789997626276690400,1.1806904296875,0.07829775661230087,0.17813996970653534,-0.0051070270128548145
1789997626286761500,1.190761474609375,0.11592502892017365,0.12131796777248383,-0.05280051380395889
1789997626296831500,1.20083154296875,0.10711778700351715,0.10118195414543152,-0.04000284522771835
1789997626306902500,1.210902587890625,0.07942783832550049,0.05201520770788193,0.016622085124254227
1789997626316972500,1.22097265625,0.06847736239433289,0.04854315519332886,-0.0016495529562234879
1789997626327043600,1.231043701171875,0.034527651965618134,0.07512123882770538,0.010300051420927048
1789997626337113600,1.241113525390625,0.03809225931763649,0.06377631425857544,0.031020905822515488
1789997626347184400,1.251184326171875,0.02642815001308918,0.08880071341991425,0.03171572461724281
1789997626357254400,1.26125439453125,0.032953664660453796,0.09076493978500366,0.04645342379808426
1789997626367325400,1.271325439453125,0.05536949262022972,0.10745629668235779,0.017265712842345238
1789997626377395700,1.281395751953125,0.05120396241545677,0.14695627987384796,-0.024582915008068085
1789997626387466500,1.291466552734375,0.04489227011799812,0.16545139253139496,-0.01656174287199974
1789997626397536500,1.30153662109375,0.029403923079371452,0.2174040526151657,-0.0755036324262619
1789997626407607600,1.311607666015625,0.04313571751117706,0.24314668774604797,-0.08298204839229584
1789997626417678600,1.3216787109375,0.06370781362056732,0.27116307616233826,-0.07372632622718811
1789997626427748400,1.331748291015625,0.06780669093132019,0.2939530611038208,-0.046912822872400284
1789997626437819400,1.3418193359375,0.104700468480587,0.31573161482810974,-0.04169417917728424
1789997626447889700,1.3518896484375,0.13347432017326355,0.3593408763408661,-0.051402732729911804
1789997626457960700,1.361960693359375,0.1324828714132309,0.4058774411678314,-0.07174123823642731
1789997626468030500,1.372030517578125,0.13313375413417816,0.4047301411628723,-0.07741616666316986
1789997626478101500,1.3821015625,0.11638897657394409,0.3458217680454254,-0.0067412662319839
1789997626488171500,1.392171630859375,0.12269534170627594,0.3255543112754822,0.00963690783828497
1789997626498242600,1.40224267578125,0.11028722673654556,0.3307344913482666,0.004301575943827629
1789997626508312600,1.4123125,0.11249898374080658,0.32396048307418823,0.021551670506596565
1789997626518383600,1.422383544921875,0.11346041411161423,0.3239326477050781,-0.0057455794885754585
1789997626528453600,1.43245361328125,0.08592945337295532,0.27742239832878113,-0.003554863389581442
1789997626538524700,1.442524658203125,0.03852541372179985,0.24000242352485657,0.02301926352083683
1789997626548594200,1.45259423828125,-0.01160353422164917,0.19127829372882843,0.03462159261107445
1789997626558665200,1.462665283203125,-0.04834647476673126,0.17604698240756989,-0.005477739032357931
1789997626568735500,1.472735595703125,-0.08057019114494324,0.15780620276927948,-0.02793138287961483
1789997626578806500,1.482806640625,-0.087257981300354,0.12284025549888611,-0.0501859188079834
1789997626588877300,1.492877197265625,-0.08903750777244568,0.08418793976306915,-0.01662103272974491
1789997626598947300,1.502947265625,-0.12235528975725174,0.01212795078754425,0.006614030338823795
1789997626609018400,1.513018310546875,-0.15307138860225677,-0.02308143675327301,0.02687961980700493
1789997626619088100,1.523088134765625,-0.18279248476028442,-0.0371459499001503,0.013515296392142773
1789997626629159200,1.5331591796875,-0.2353915125131607,-0.048927243798971176,0.021315163001418114
1789997626639229200,1.543229248046875,-0.20573723316192627,-0.056451261043548584,-0.015036295168101788
1789997626649300200,1.55330029296875,-0.19228321313858032,-0.09288090467453003,0.04095080494880676
1789997626659370200,1.563370361328125,-0.19095608592033386,-0.09260710328817368,0.02887667343020439
1789997626669441300,1.573441162109375,-0.20242339372634888,-0.06903679668903351,0.04866955056786537
1789997626679511300,1.58351123046875,-0.1833716779947281,-0.018357373774051666,0.026669712737202644
1789997626689582300,1.593582275390625,-0.14979027211666107,0.024747218936681747,0.03837456926703453
1789997626699652000,1.603652099609375,-0.16915571689605713,0.06785819679498672,-0.0051254029385745525
1789997626709723100,1.61372314453125,-0.1896631270647049,0.08239559829235077,-0.002033739350736141
1789997626719793400,1.62379345703125,-0.15771794319152832,0.07751760631799698,0.0411229282617569
1789997626729864400,1.633864501953125,-0.15243849158287048,0.030221732333302498,0.1014520451426506
1789997626739934200,1.643934326171875,-0.11712498962879181,0.026846380904316902,0.04186303913593292
1789997626750005200,1.654005126953125,-0.08873303234577179,0.006234315223991871,0.028131777420639992
1789997626760076300,1.664076171875,-0.05495062470436096,-0.054829809814691544,0.05119837820529938
1789997626770146300,1.674146240234375,-0.03182053938508034,-0.11231707036495209,0.032600194215774536
1789997626780217000,1.684217041015625,-0.027591824531555176,-0.1576906144618988,0.057900916785001755
1789997626790287400,1.694287353515625,-0.05342502146959305,-0.18371263146400452,0.014918032102286816
1789997626800358400,1.7043583984375,-0.10134785622358322,-0.23071366548538208,-0.017386851832270622
1789997626810428400,1.714428466796875,-0.1360001116991043,-0.24669742584228516,-0.029976680874824524
1789997626820499200,1.724499267578125,-0.15148140490055084,-0.28439685702323914,0.0023208195343613625
1789997626830569200,1.7345693359375,-0.20371398329734802,-0.2883218228816986,-0.013648292981088161
1789997626840640300,1.74464013671875,-0.18670879304409027,-0.28181135654449463,-0.04667752608656883
1789997626850710300,1.754710205078125,-0.1898992657661438,-0.2805301249027252,-0.01087186112999916
1789997626860781300,1.76478125,-0.20304691791534424,-0.32775312662124634,0.07288198918104172
1789997626870851300,1.774851318359375,-0.21654382348060608,-0.3076944649219513,0.04607700556516647
1789997626880922400,1.78492236328125,-0.226962149143219,-0.2932312488555908,0.08387911319732666
1789997626890992000,1.7949921875,-0.23219232261180878,-0.29711413383483887,0.006785658188164234
1789997626901063200,1.805063232421875,-0.24309103190898895,-0.31031107902526855,-0.04367870092391968
1789997626911133200,1.81513330078125,-0.2669902443885803,-0.3102476894855499,-0.028136759996414185
1789997626921204200,1.825204345703125,-0.23829029500484467,-0.2934243381023407,-0.06737495958805084
1789997626931274200,1.835274169921875,-0.2117803990840912,-0.2925316393375397,-0.04732455313205719
1789997626941345300,1.84534521484375,-0.15846094489097595,-0.282536119222641,-0.024697119370102882
1789997626951416300,1.855416259765625,-0.14177091419696808,-0.2625003755092621,0.025120237842202187
1789997626961486300,1.865486328125,-0.13927599787712097,-0.24015860259532928,0.02447744831442833
1789997626971557400,1.875557373046875,-0.10619369149208069,-0.21923094987869263,0.03343126177787781
1789997626981627100,1.885627197265625,-0.06236134469509125,-0.1971433162689209,0.02715093456208706
1789997626991698200,1.8956982421875,-0.01510887686163187,-0.20977814495563507,-0.005364662501960993
1789997627001768400,1.9057685546875,0.017890898510813713,-0.17749470472335815,-0.006419289857149124
1789997627011839500,1.915839599609375,0.07700668275356293,-0.16535654664039612,0.052608340978622437
1789997627021909200,1.9259091796875,0.10792040824890137,-0.10266568511724472,0.009405991062521935
1789997627031980300,1.935980224609375,0.13082225620746613,-0.053722117096185684,-0.007429447956383228
1789997627042050300,1.94605029296875,0.15177008509635925,-0.02635384351015091,-0.010393111035227776
1789997627052121000,1.95612109375,0.17095257341861725,0.021997710689902306,-0.03906949609518051
1789997627062191400,1.96619140625,0.19981053471565247,0.08213910460472107,-0.049132347106933594
1789997627072262400,1.976262451171875,0.20365773141384125,0.1131468191742897,0.01238667219877243
1789997627082332400,1.98633251953125,0.23011617362499237,0.1401851326227188,-0.025736311450600624
1789997627092403200,1.9964033203125,0.26508721709251404,0.18309052288532257,-0.04363701492547989
1789997627102473200,2.00647314453125,0.25128528475761414,0.20509080588817596,-0.07022876292467117
1789997627112544300,2.016544189453125,0.23236699402332306,0.2115444540977478,-0.09495914727449417
1789997627122615300,2.026615234375,0.235771045088768,0.21561294794082642,-0.06954475492238998
1789997627132685300,2.036685302734375,0.24012531340122223,0.2242186963558197,-0.018591023981571198
1789997627142756000,2.046756103515625,0.1921325922012329,0.21608582139015198,-0.019276302307844162
1789997627152826400,2.056826416015625,0.14469583332538605,0.2311723530292511,-0.06131669878959656
1789997627162897400,2.0668974609375,0.15659287571907043,0.24100060760974884,-0.053358856588602066
1789997627172967200,2.07696728515625,0.1657291054725647,0.23932600021362305,-0.05428696796298027
1789997627183038200,2.0870380859375,0.229622021317482,0.21317411959171295,-0.0123245595023036
1789997627193108200,2.097108154296875,0.25911495089530945,0.22750911116600037,0.014949140138924122
1789997627203179300,2.10717919921875,0.2695581614971161,0.2807328701019287,-0.004341707564890385
1789997627213249300,2.117249267578125,0.2649027109146118,0.2949000895023346,-0.03773055598139763
1789997627223320300,2.1273203125,0.2745557129383087,0.2828758656978607,-0.04816462844610214
1789997627233390300,2.137390380859375,0.28658735752105713,0.30210787057876587,-0.023932525888085365
1789997627243461400,2.14746142578125,0.3072826862335205,0.3368043303489685,-0.008716898038983345
1789997627253531100,2.15753125,0.31284257769584656,0.3655092120170593,-0.027603503316640854
1789997627263602200,2.167602294921875,0.3497520983219147,0.3942846655845642,-0.05167105048894882
1789997627273672400,2.17767236328125,0.3484404683113098,0.38893598318099976,0.018455039709806442
1789997627283743500,2.187743408203125,0.3502790629863739,0.39320507645606995,0.056977223604917526
1789997627293813200,2.197813232421875,0.33459410071372986,0.40844208002090454,0.11683443188667297
1789997627303884300,2.20788427734375,0.31654271483421326,0.5000358819961548,0.09403574466705322
1789997627313955300,2.217955322265625,0.31674724817276,0.5691134929656982,0.0332203283905983
1789997627324025300,2.228025390625,0.2756187617778778,0.5936679244041443,0.027820540592074394
1789997627334096100,2.23809619140625,0.2589479088783264,0.5932777523994446,0.0015756190987303853
1789997627344166400,2.24816650390625,0.2310168445110321,0.60990309715271,0.03720036894083023
1789997627354237400,2.258237548828125,0.2176661640405655,0.6157471537590027,-0.0015017538098618388
1789997627364307200,2.26830712890625,0.20086254179477692,0.6116144061088562,-0.02331978641450405
1789997627374378200,2.278378173828125,0.15924319624900818,0.6206920146942139,-0.03599563613533974
1789997627384448300,2.2884482421875,0.1285901516675949,0.5752553343772888,-0.021923895925283432
1789997627394519300,2.298519287109375,0.14577819406986237,0.49923595786094666,0.08232660591602325
1789997627404589000,2.308589111328125,0.14977242052555084,0.46333953738212585,0.0712752416729927
1789997627414660000,2.31866015625,0.11492043733596802,0.38990312814712524,0.07590302079916
1789997627424730400,2.32873046875,0.09434548020362854,0.33466288447380066,0.07630889117717743
1789997627434801400,2.338801513671875,0.05883994325995445,0.29166507720947266,0.06802539527416229
1789997627444871200,2.34887109375,0.017442775890231133,0.26741117238998413,0.03693009540438652
1789997627454942200,2.358942138671875,0.009884990751743317,0.21706973016262054,0.07754995673894882
1789997627465012200,2.36901220703125,-0.006847959943115711,0.17558681964874268,0.07500305026769638
1789997627475083300,2.379083251953125,-0.05162821337580681,0.1525731086730957,0.05085430294275284
1789997627485153300,2.3891533203125,-0.10921334475278854,0.05710836127400398,0.08358708769083023
1789997627495224300,2.399224365234375,-0.14401046931743622,0.04152114316821098,0.04348680377006531
1789997627505294300,2.40929443359375,-0.18538373708724976,0.06178196147084236,-0.024425692856311798
1789997627515365400,2.419365478515625,-0.16964899003505707,0.055127788335084915,-0.00504853343591094
1789997627525436200,2.429436279296875,-0.18206341564655304,0.026666490361094475,0.034177184104919434
1789997627535506200,2.439506103515625,-0.21151717007160187,0.03536383807659149,-0.004080190788954496
1789997627545577200,2.4495771484375,-0.2319665253162384,-0.009785527363419533,0.06411058455705643
1789997627555647200,2.459647216796875,-0.2105933278799057,-0.03283225744962692,0.06887231022119522
1789997627565718300,2.46971826171875,-0.21578001976013184,-0.034412819892168045,0.0405413918197155
1789997627575788300,2.479788330078125,-0.2642631232738495,-0.03462720662355423,0.02021108940243721
1789997627585859300,2.489859375,-0.24844491481781006,-0.025058036670088768,0.017590438947081566
1789997627595929000,2.49992919921875,-0.25348788499832153,-0.009354174137115479,-0.002818695968016982
1789997627606000000,2.510000244140625,-0.209394633769989,-0.035087741911411285,0.011798138730227947
1789997627616070100,2.520070068359375,-0.21198537945747375,-0.08221796900033951,0.06856554746627808
1789997627626141200,2.53014111328125,-0.208148792386055,-0.09901014715433121,0.07768621295690536
1789997627636211200,2.540211181640625,-0.19660532474517822,-0.1023782417178154,0.07664304971694946
1789997627646282200,2.5502822265625,-0.2111385613679886,-0.08975048363208771,0.04798722639679909
1789997627656352300,2.560352294921875,-0.2091696858406067,-0.06898155063390732,0.003405377734452486
1789997627666423000,2.570423095703125,-0.22054597735404968,-0.09622597694396973,0.011385718360543251
1789997627676493000,2.5804931640625,-0.20720939338207245,-0.09411782026290894,0.0029059480875730515
1789997627686564000,2.590564208984375,-0.18403922021389008,-0.06936448812484741,0.01911506988108158
1789997627696634400,2.60063427734375,-0.20454689860343933,-0.06518465280532837,0.014820723794400692
1789997627706705200,2.610705078125,-0.18507613241672516,-0.05042308568954468,0.008493078872561455
1789997627716775200,2.620775146484375,-0.17298351228237152,-0.04308181256055832,0.004050127230584621
1789997627726846200,2.63084619140625,-0.18947793543338776,-0.06177426874637604,-0.0009455959079787135
1789997627736917200,2.640917236328125,-0.17975446581840515,-0.060305800288915634,-0.014428913593292236
1789997627746987000,2.650987060546875,-0.16607587039470673,-0.03686356917023659,0.010718854144215584
1789997627757058000,2.66105810546875,-0.14587260782718658,-0.04144606739282608,0.025546804070472717
1789997627767128300,2.67112841796875,-0.1549622118473053,-0.05451440066099167,0.0543152280151844
1789997627777199400,2.681199462890625,-0.13531234860420227,-0.06707493215799332,0.04750153049826622
1789997627787269000,2.69126904296875,-0.12788476049900055,-0.05696572735905647,0.05882525444030762
1789997627797340200,2.701340087890625,-0.11303126066923141,-0.051209304481744766,0.03998631611466408
1789997627807410200,2.71141015625,-0.12319057434797287,-0.04228945076465607,0.018579812720417976
1789997627817481200,2.721481201171875,-0.11958865076303482,-0.03574473410844803,-0.01929939165711403
1789997627827551200,2.73155126953125,-0.11741796135902405,-0.06174885109066963,0.032145705074071884
1789997627837622300,2.741622314453125,-0.09690629690885544,-0.058405254036188126,0.06969254463911057
1789997627847692300,2.7516923828125,-0.09876324981451035,-0.06780858337879181,0.057850729674100876
1789997627857763300,2.761763427734375,-0.120140440762043,-0.04270616173744202,0.03855639323592186
1789997627867833000,2.7718330078125,-0.14546799659729004,-0.029763013124465942,-0.0157266054302454
1789997627877904100,2.781904052734375,-0.15568014979362488,-0.058419160544872284,0.008610425516963005
1789997627887974100,2.79197412109375,-0.13377578556537628,-0.07517396658658981,0.04937856271862984
1789997627898045200,2.802045166015625,-0.11631425470113754,-0.09830432385206223,0.05713901296257973
1789997627908115200,2.812115234375,-0.1252177357673645,-0.11571820825338364,0.01059658918529749
1789997627918186200,2.822186279296875,-0.16017678380012512,-0.13134005665779114,-0.008060984313488007
1789997627928256300,2.83225634765625,-0.16230735182762146,-0.11234390735626221,0.013786922208964825
1789997627938327300,2.842327392578125,-0.15658901631832123,-0.1303359568119049,-0.034916434437036514
1789997627948398000,2.852398193359375,-0.17559580504894257,-0.13941547274589539,-0.014339365065097809
1789997627958468000,2.862468017578125,-0.1588413268327713,-0.14649814367294312,0.0038084806874394417
1789997627968539100,2.8725390625,-0.18322443962097168,-0.1670069545507431,0.050939787179231644
1789997627978609200,2.882609130859375,-0.1706085056066513,-0.15679985284805298,0.02027828060090542
1789997627988680200,2.89268017578125,-0.1695713847875595,-0.16366565227508545,0.020308172330260277
1789997627998750200,2.902750244140625,-0.1850707232952118,-0.1809042990207672,0.017787223681807518
1789997628008821200,2.9128212890625,-0.16241729259490967,-0.1882816106081009,-0.014988177455961704
1789997628018891000,2.92289111328125,-0.13258908689022064,-0.15509329736232758,-0.023522542789578438
1789997628028962000,2.932962158203125,-0.0875481441617012,-0.14982861280441284,0.008822198957204819
1789997628039032300,2.9430322265625,-0.06477385759353638,-0.1400548219680786,0.042444873601198196
1789997628049103400,2.953103271484375,-0.08466116338968277,-0.12221010029315948,0.007293197326362133
1789997628059173000,2.963173095703125,-0.11860821396112442,-0.07290860265493393,-0.008661000989377499
1789997628069244200,2.973244140625,-0.13908560574054718,-0.0059557631611824036,-0.021269463002681732
1789997628079314200,2.983314208984375,-0.13442081212997437,0.010134257376194,-0.02000473067164421
1789997628089385200,2.99338525390625,-0.08083809167146683,0.012005385011434555,0.006934081669896841
1789997628099455200,3.003455322265625,-0.058202020823955536,0.023801324889063835,-0.019804855808615685
1789997628109526300,3.0135263671875,-0.02985219843685627,0.030059238895773888,-0.03630794957280159
1789997628119596300,3.02359619140625,0.02369198575615883,0.048646509647369385,-0.03937937319278717
1789997628129667300,3.033667236328125,0.03609536588191986,0.063381128013134,0.008667834103107452
1789997628139737000,3.043737060546875,0.010156974196434021,0.07571502774953842,0.034078121185302734
1789997628149808000,3.05380810546875,-0.008730325847864151,0.061961546540260315,0.03330601751804352
1789997628159878100,3.063878173828125,-0.07871820032596588,0.05688902735710144,-0.004802484530955553
1789997628169949200,3.07394921875,-0.06822808086872101,0.041246622800827026,-0.0029220241121947765
1789997628180020000,3.08402001953125,-0.0831574946641922,0.024698270484805107,0.019076485186815262
1789997628190090200,3.09409033203125,-0.04103695601224899,0.0011716117151081562,0.039668336510658264
1789997628200161300,3.104161376953125,-0.05227230116724968,-0.004229811951518059,0.017519893124699593
1789997628210231300,3.114231201171875,-0.050147540867328644,-0.030066393315792084,0.023962903767824173
1789997628220302000,3.124302001953125,-0.044993527233600616,-0.058114539831876755,-0.014853733591735363
1789997628230372000,3.1343720703125,-0.07874840497970581,-0.06693005561828613,-0.019440485164523125
1789997628240443100,3.144443115234375,-0.06550903618335724,-0.0789363831281662,0.03757646307349205
1789997628250513400,3.154513427734375,-0.06904783099889755,-0.08042585104703903,0.028180332854390144
1789997628260584200,3.164584228515625,-0.07998143881559372,-0.04390193149447441,-0.029576705768704414
1789997628270654200,3.174654296875,-0.11038155853748322,-0.027631070464849472,-0.036994557827711105
1789997628280725200,3.184725341796875,-0.1123024970293045,-0.048165641725063324,0.009035252034664154
1789997628290795000,3.194794921875,-0.11813822388648987,-0.08443952351808548,0.03541555255651474
1789997628300866000,3.204865966796875,-0.1357734203338623,-0.11909203976392746,0.022279778495430946
1789997628310936300,3.214936279296875,-0.13610263168811798,-0.14690476655960083,0.01056844275444746
1789997628321007400,3.22500732421875,-0.1399058997631073,-0.18159963190555573,0.01625535637140274
1789997628331077000,3.2350771484375,-0.14689013361930847,-0.21514226496219635,0.04294319823384285
1789997628341148200,3.245148193359375,-0.1295982301235199,-0.24717316031455994,0.02243552729487419
1789997628351218200,3.25521826171875,-0.13819819688796997,-0.26202890276908875,0.01796909049153328
1789997628361289200,3.265289306640625,-0.12028125673532486,-0.263356477022171,0.01598317176103592
1789997628371359200,3.275359130859375,-0.13979315757751465,-0.24556756019592285,0.04287521913647652
1789997628381430300,3.28543017578125,-0.11510299146175385,-0.2440365105867386,0.05306580290198326
1789997628391500300,3.295500244140625,-0.11229994148015976,-0.2513953447341919,0.04942213371396065
1789997628401571300,3.3055712890625,-0.08954189717769623,-0.22864341735839844,-0.0058784037828445435
1789997628411641000,3.31564111328125,-0.09472108632326126,-0.2192491888999939,0.0007959301583468914
1789997628421712100,3.325712158203125,-0.07167142629623413,-0.23052740097045898,-0.036301106214523315
1789997628431783200,3.335783203125,-0.07911521196365356,-0.2326757162809372,-0.042665302753448486
1789997628441853200,3.345853271484375,-0.04955918714404106,-0.21303704380989075,-0.026471149176359177
1789997628451924000,3.355924072265625,-0.024838054552674294,-0.22633709013462067,0.0018653476145118475
1789997628461994200,3.365994140625,-0.02698482759296894,-0.21964696049690247,0.037451304495334625
1789997628472065300,3.376065185546875,-0.025543926283717155,-0.22080595791339874,0.0815582349896431
1789997628482135300,3.38613525390625,-0.04219214618206024,-0.22840209305286407,0.11199816316366196
1789997628492206000,3.3962060546875,-0.02559683471918106,-0.18624231219291687,0.03600491210818291
1789997628502276000,3.406276123046875,-0.05597018823027611,-0.1682116538286209,0.021783364936709404
1789997628512347100,3.41634716796875,-0.042467664927244186,-0.17546945810317993,0.004382191225886345
1789997628522417400,3.42641748046875,-0.019573267549276352,-0.16387058794498444,0.007632313296198845
1789997628532488200,3.43648828125,0.016420094296336174,-0.1613410860300064,0.06862793117761612
1789997628542558200,3.44655810546875,0.03461134806275368,-0.15568719804286957,0.06085682660341263
1789997628552629200,3.456629150390625,-0.008055866695940495,-0.13337194919586182,0.006319013424217701
1789997628562699000,3.466698974609375,-0.027392545714974403,-0.10408702492713928,-0.023671908304095268
1789997628572770000,3.47677001953125,-0.007689279969781637,-0.11609043926000595,-0.026623884215950966
1789997628582840300,3.48684033203125,0.022510433569550514,-0.11114867776632309,-0.009747964330017567
1789997628592911400,3.496911376953125,0.06177649274468422,-0.12940457463264465,0.0602935254573822
1789997628602981000,3.506981201171875,0.08193182945251465,-0.11471058428287506,0.019444098696112633
1789997628613052200,3.51705224609375,0.09720492362976074,-0.06887917220592499,-0.005616927519440651
1789997628623122200,3.5271220703125,0.11433117836713791,-0.026189768686890602,0.027144480496644974
1789997628633193200,3.537193115234375,0.15380044281482697,0.01669491082429886,0.022782566025853157
1789997628643263000,3.547262939453125,0.16438890993595123,0.032432593405246735,0.03879508748650551
1789997628653334000,3.557333984375,0.16617809236049652,0.06350723654031754,-0.01402495801448822
1789997628663405000,3.567405029296875,0.14573673903942108,0.11925172805786133,-0.06362687051296234
1789997628673475300,3.577475341796875,0.1490161269903183,0.19868040084838867,-0.0784454196691513
1789997628683546000,3.587546142578125,0.19662758708000183,0.22217027842998505,-0.027978520840406418
1789997628693616000,3.5976162109375,0.21978697180747986,0.2397434115409851,0.035457175225019455
1789997628703687200,3.607687255859375,0.21206726133823395,0.2708965241909027,0.01452712807804346
1789997628713757000,3.6177568359375,0.168436199426651,0.259786993265152,0.014682798646390438
1789997628723828000,3.627827880859375,0.17130762338638306,0.27309614419937134,-0.025898713618516922
1789997628733898200,3.637898193359375,0.16632620990276337,0.3030847907066345,-0.04807170853018761
1789997628743969300,3.64796923828125,0.1543387919664383,0.327181339263916,-0.06222827360033989
1789997628754039000,3.6580390625,0.18514813482761383,0.3239627480506897,-0.028154047206044197
1789997628764110000,3.668110107421875,0.15592500567436218,0.3338979482650757,-0.019891589879989624
1789997628774180000,3.67818017578125,0.15137876570224762,0.33398735523223877,-0.04139306768774986
1789997628784251100,3.688251220703125,0.11802322417497635,0.3042867183685303,-0.006924037355929613
1789997628794321200,3.698321044921875,0.09079837054014206,0.29527270793914795,-0.04803931340575218
1789997628804392200,3.70839208984375,0.03428395465016365,0.2529856860637665,-0.08919394016265869
1789997628814462200,3.718462158203125,0.037298016250133514,0.18874825537204742,-0.03869849443435669
1789997628824533200,3.728533203125,0.039825890213251114,0.161733940243721,-0.01704113744199276
1789997628834603000,3.73860302734375,0.01758161559700966,0.135923832654953,-0.03420162573456764
1789997628844674000,3.748674072265625,0.004699372686445713,0.06592530757188797,0.023623324930667877
1789997628854744300,3.758744384765625,-0.01642712764441967,0.04251859337091446,0.03175105154514313
1789997628864815400,3.7688154296875,-0.04121663048863411,0.03913984075188637,-0.002827164251357317
1789997628874885000,3.778885009765625,-0.04107492417097092,0.00475509837269783,0.04601990059018135
1789997628884956200,3.7889560546875,-0.030811099335551262,-0.01561249140650034,0.07381238043308258
1789997628895026200,3.799026123046875,-0.03479301184415817,-0.05178523063659668,0.07330437749624252
1789997628905097200,3.80909716796875,-0.08134134113788605,-0.07383513450622559,0.050504788756370544
1789997628915168000,3.81916796875,-0.1609639823436737,-0.06692391633987427,-0.003682314418256283
1789997628925238000,3.829238037109375,-0.14851850271224976,-0.10049279034137726,0.024272622540593147
1789997628935309000,3.83930908203125,-0.09333262592554092,-0.12405730038881302,0.06736461818218231
1789997628945379300,3.84937939453125,-0.10614669322967529,-0.13169153034687042,0.04482575133442879
1789997628955450000,3.8594501953125,-0.17382892966270447,-0.17083385586738586,0.00399321224540472
1789997628965520100,3.86952001953125,-0.20443663001060486,-0.21935664117336273,0.005326390732079744
1789997628975591200,3.879591064453125,-0.23594264686107635,-0.26409250497817993,0.029873035848140717
1789997628985661200,3.8896611328125,-0.24932104349136353,-0.3552144169807434,0.026238087564706802
1789997628995732000,3.89973193359375,-0.2586437165737152,-0.41843533515930176,0.019733434543013573
1789997629005802200,3.90980224609375,-0.2542215585708618,-0.44500914216041565,0.03779606148600578
1789997629015873300,3.919873291015625,-0.24158816039562225,-0.45885220170021057,0.028292939066886902
1789997629025943000,3.929943115234375,-0.2359987199306488,-0.4602849781513214,0.06410419940948486
1789997629036014000,3.94001416015625,-0.24553751945495605,-0.45854252576828003,0.020665274932980537
1789997629046084000,3.950083984375,-0.2527032792568207,-0.47715669870376587,0.01941385678946972
1789997629056155100,3.960155029296875,-0.22466345131397247,-0.45716243982315063,-0.007779775653034449
1789997629066225200,3.97022509765625,-0.19994212687015533,-0.4442005753517151,0.03433545306324959
1789997629076296200,3.980296142578125,-0.17147675156593323,-0.3990504741668701,0.04285325109958649
1789997629086366200,3.9903662109375,-0.1128443256020546,-0.35322946310043335,0.04769487679004669
1789997629096437200,4.000437255859375,-0.07798335701227188,-0.29151394963264465,0.017178788781166077
1789997629106507000,4.010507080078125,-0.020302753895521164,-0.23147162795066833,0.057252172380685806
1789997629116578000,4.020578125,0.02153240144252777,-0.18271999061107635,0.05473843961954117
1789997629126648000,4.03064794921875,0.05463708937168121,-0.16311220824718475,0.06272206455469131
1789997629136719000,4.040718994140625,0.05290726199746132,-0.11274131387472153,0.027230115607380867
1789997629146789000,4.0507890625,0.05702557414770126,-0.06149090826511383,-0.036562711000442505
1789997629156860200,4.060860107421875,0.08549361675977707,-0.022172890603542328,-0.04425815865397453
1789997629166931200,4.07093115234375,0.11752744764089584,0.03676552325487137,-0.04648642614483833
1789997629177001200,4.081001220703125,0.13374538719654083,0.08208461850881577,-0.05147397145628929
1789997629187072000,4.091072021484375,0.17358574271202087,0.08547508716583252,-0.009882587008178234
1789997629197142000,4.10114208984375,0.19936320185661316,0.08839921653270721,-0.00021163595374673605
1789997629207213000,4.111213134765625,0.19853948056697845,0.11749584972858429,-0.03958194702863693
1789997629217283300,4.121283447265625,0.19098420441150665,0.10777942836284637,-0.010240348055958748
1789997629227354000,4.13135400390625,0.16385644674301147,0.08713220804929733,-0.009490135125815868
1789997629237424000,4.141424072265625,0.13488949835300446,0.07520465552806854,0.01869894377887249
1789997629247495200,4.1514951171875,0.13336724042892456,0.04330877214670181,0.062052275985479355
1789997629257565200,4.161565185546875,0.11538366228342056,0.03424827754497528,0.05893969535827637
1789997629267636000,4.171635986328125,0.09900522232055664,0.04204148054122925,0.023975584656000137
1789997629277706200,4.181706298828125,0.11194606125354767,0.026093117892742157,0.03269265219569206
1789997629287777300,4.19177734375,0.08106217533349991,0.008967661298811436,-0.012707850895822048
1789997629297847300,4.201847412109375,0.08081559836864471,0.01175159402191639,-0.04207354784011841
1789997629307918000,4.21191796875,0.06885907053947449,-0.002184460870921612,-0.015948735177516937
1789997629317988000,4.221988037109375,0.05276830494403839,-0.04681292921304703,-0.01048121228814125
1789997629328059100,4.23205908203125,0.02413106895983219,-0.06167736276984215,-0.048606496304273605
1789997629338129200,4.242129150390625,-0.01971488818526268,-0.04472985491156578,-0.07305685430765152
1789997629348200200,4.2522001953125,-0.0490778349339962,-0.03911484405398369,-0.09990257769823074
1789997629358270200,4.262270263671875,-0.042507272213697433,-0.03299296274781227,-0.12679523229599
1789997629368341200,4.27234130859375,-0.010727505199611187,-0.02528684027493,-0.08087781071662903
1789997629378411000,4.282410888671875,-0.0035378416068851948,-0.05804988741874695,0.022742290049791336
1789997629388482000,4.29248193359375,0.0073707327246665955,-0.10916021466255188,0.05964331701397896
1789997629398552000,4.302552001953125,-0.054964013397693634,-0.15496684610843658,0.017636744305491447
1789997629408623000,4.312623046875,-0.08429767191410065,-0.1757032871246338,-0.014472189359366894
1789997629418694100,4.322694091796875,-0.07988395541906357,-0.176071897149086,-0.03813668340444565
1789997629428764200,4.33276416015625,-0.060178156942129135,-0.23692725598812103,0.005820652935653925
1789997629438835200,4.342835205078125,-0.0386158712208271,-0.300601601600647,0.021273378282785416
1789997629448905200,4.3529052734375,-0.07599680125713348,-0.28559601306915283,-0.004151553846895695
1789997629458976300,4.362976318359375,-0.10545246303081512,-0.28483259677886963,-0.01975999027490616
1789997629469046000,4.3730458984375,-0.09930988401174545,-0.31286847591400146,-0.021780796349048615
1789997629479117000,4.383116943359375,-0.06404329091310501,-0.3193923830986023,-0.023331383243203163
1789997629489187300,4.393187255859375,-0.03696320578455925,-0.3283717632293701,0.025752274319529533
1789997629499258000,4.403258056640625,-0.0020301498007029295,-0.3209635317325592,-0.04116128757596016
1789997629509328100,4.413328125,-0.005078137386590242,-0.3228820860385895,-0.027342945337295532
1789997629519399200,4.423399169921875,0.046497832983732224,-0.3055288791656494,0.028765695169568062
1789997629529469200,4.43346923828125,0.0824664905667305,-0.26312708854675293,0.017308775335550308
1789997629539540000,4.4435400390625,0.07370365411043167,-0.22102506458759308,-0.011595098301768303
1789997629549610200,4.4536103515625,0.1040024384856224,-0.18424920737743378,0.04274856671690941
1789997629559681000,4.463680908203125,0.13775281608104706,-0.12765510380268097,0.01586882770061493
1789997629569751000,4.4737509765625,0.13420096039772034,-0.08751434832811356,0.03765961155295372
1789997629579822000,4.483822021484375,0.19605565071105957,-0.04436507821083069,0.06369273364543915
1789997629589892000,4.49389208984375,0.2235618531703949,0.0024437084794044495,0.05726386234164238
1789997629599963000,4.503962890625,0.26308155059814453,0.058298639953136444,0.0679549053311348
1789997629610033200,4.514033203125,0.2824488580226898,0.13988912105560303,0.019106673076748848
1789997629620104200,4.524104248046875,0.3159926235675812,0.18472974002361298,0.046933505684137344
1789997629630174000,4.534174072265625,0.3615766167640686,0.2597408592700958,-0.007772084325551987
1789997629640245000,4.544244873046875,0.3942975699901581,0.3051077127456665,-0.04176853224635124
1789997629650315000,4.55431494140625,0.39259928464889526,0.3570238947868347,-0.045405078679323196
1789997629660386000,4.564385986328125,0.40595743060112,0.41691920161247253,-0.03915943205356598
1789997629670455800,4.574455810546875,0.424003541469574,0.4378524422645569,-0.025835637003183365
1789997629680526800,4.58452685546875,0.4505757987499237,0.4807113707065582,0.02074265480041504
1789997629690597000,4.59459716796875,0.43572843074798584,0.5323548316955566,-0.00952124036848545
1789997629700668200,4.604668212890625,0.4018154442310333,0.5210810899734497,-0.023465199396014214
1789997629710738000,4.614738037109375,0.39712855219841003,0.5417501926422119,-0.017941271886229515
1789997629720809000,4.62480908203125,0.4027794897556305,0.557399332523346,-0.008570896461606026
1789997629730879000,4.63487890625,0.384290486574173,0.5347241163253784,0.00427725724875927
1789997629740950000,4.644949951171875,0.3707307279109955,0.5225470662117004,0.02517108805477619
1789997629751021000,4.65502099609375,0.3357008397579193,0.5003309845924377,-0.036850474774837494
1789997629761091000,4.665091064453125,0.2846846282482147,0.45717984437942505,-0.02645690366625786
1789997629771162000,4.675162109375,0.27944111824035645,0.4689920246601105,0.0004695181269198656
1789997629781232000,4.685232177734375,0.2583548128604889,0.4376188814640045,-0.004112360067665577
1789997629791303000,4.695302978515625,0.19400377571582794,0.3835013210773468,0.015069856308400631
1789997629801373000,4.705373046875,0.15732616186141968,0.37186476588249207,-0.004831063095480204
1789997629811444000,4.71544384765625,0.0851379781961441,0.35507169365882874,-0.036945853382349014
1789997629821514200,4.72551416015625,0.03904323652386665,0.36181923747062683,-0.09279513359069824
1789997629831585000,4.7355849609375,0.019023187458515167,0.3847160339355469,-0.12161985784769058
1789997629841655000,4.745655029296875,0.015846818685531616,0.38587072491645813,-0.056717514991760254
1789997629851726000,4.75572607421875,0.02308582328259945,0.39201730489730835,0.013517233543097973
1789997629861796000,4.765796142578125,0.02812599018216133,0.36342853307724,0.07438524067401886
1789997629871867000,4.775866943359375,-0.022084182128310204,0.33802250027656555,0.07999332249164581
1789997629881937200,4.785937255859375,-0.05423585698008537,0.2994559407234192,0.06092466786503792
1789997629892008200,4.79600830078125,-0.08833789825439453,0.2559468150138855,0.051333822309970856
1789997629902078000,4.806077880859375,-0.1287936270236969,0.2258920669555664,0.04279495030641556
1789997629912149000,4.81614892578125,-0.10895227640867233,0.22115030884742737,0.04161863029003143
1789997629922219000,4.826218994140625,-0.10102545469999313,0.20562486350536346,0.05549126863479614
1789997629932290000,4.8362900390625,-0.13077349960803986,0.20697961747646332,0.01016160473227501
1789997629942359800,4.84635986328125,-0.13819284737110138,0.17565394937992096,-0.0031353794038295746
1789997629952430800,4.856430908203125,-0.1409047544002533,0.12561874091625214,0.04044139012694359
1789997629962501000,4.866501220703125,-0.14216019213199615,0.07646092027425766,0.06277554482221603
1789997629972572200,4.876572265625,-0.17724467813968658,0.04875897988677025,0.018654949963092804
1789997629982642000,4.886641845703125,-0.2112518548965454,0.028164220973849297,-0.0015042885206639767
1789997629992713000,4.896712890625,-0.2450590878725052,0.023532982915639877,0.02571428380906582
1789997630002783000,4.906782958984375,-0.2604566812515259,0.007898629643023014,0.04232814908027649
1789997630012854000,4.91685400390625,-0.23040612041950226,-0.034792639315128326,0.0556386262178421
1789997630022924000,4.926924072265625,-0.2542278468608856,-0.05563999339938164,0.07032445818185806
1789997630032995000,4.9369951171875,-0.2760505974292755,-0.08822058141231537,0.0604553148150444
1789997630043065000,4.947065185546875,-0.27157607674598694,-0.10597292333841324,0.09827658534049988
1789997630053136100,4.95713623046875,-0.28776755928993225,-0.10925208032131195,0.06765369325876236
1789997630063207200,4.967207275390625,-0.27150440216064453,-0.14309272170066833,0.06272325664758682
1789997630073277000,4.97727685546875,-0.2861784100532532,-0.1921079307794571,0.06576138734817505
1789997630083348000,4.987347900390625,-0.29952242970466614,-0.2390090376138687,0.08929890394210815
1789997630093418200,4.997418212890625,-0.3063414692878723,-0.2601681351661682,0.04455459490418434
1789997630103489000,5.007489013671875,-0.31911253929138184,-0.2931220233440399,0.046743981540203094
1789997630113559000,5.01755908203125,-0.3029916286468506,-0.36094874143600464,0.08513930439949036
1789997630123630000,5.027630126953125,-0.335290789604187,-0.3882693350315094,0.012969465926289558
1789997630133700000,5.0377001953125,-0.36156314611434937,-0.4271775782108307,-0.016007857397198677
1789997630143771000,5.04777099609375,-0.3768983483314514,-0.4382663369178772,-0.06007518991827965
1789997630153841000,5.0578408203125,-0.37647223472595215,-0.4363366365432739,-0.039898280054330826
1789997630163912000,5.067911865234375,-0.3688591718673706,-0.4610093832015991,-0.03288082033395767
1789997630173982200,5.077982177734375,-0.36380741000175476,-0.5234825611114502,0.002300602849572897
1789997630184053000,5.088052978515625,-0.4076102077960968,-0.5483946204185486,-0.003355401800945401
1789997630194123000,5.098123046875,-0.4367004632949829,-0.548217236995697,0.002092360518872738
1789997630204194000,5.108194091796875,-0.403668612241745,-0.5318393707275391,-0.008576327003538609
1789997630214263800,5.118263916015625,-0.38312631845474243,-0.5324593186378479,0.040878839790821075
1789997630224334800,5.1283349609375,-0.33362269401550293,-0.5248402953147888,0.04641423746943474
1789997630234405000,5.138405029296875,-0.31517818570137024,-0.4940674901008606,0.015298663638532162
1789997630244476200,5.14847607421875,-0.3353625535964966,-0.4443581700325012,-0.016542229801416397
1789997630254546000,5.1585458984375,-0.2793506979942322,-0.4263474643230438,-0.004081830382347107
1789997630264617000,5.168616943359375,-0.22307182848453522,-0.41905084252357483,-0.013246790505945683
1789997630274687000,5.17868701171875,-0.1893780380487442,-0.39659664034843445,-0.011599625460803509
1789997630284758000,5.188758056640625,-0.1567889004945755,-0.3533553183078766,-0.03042132966220379
1789997630294828000,5.198828125,-0.11664868146181107,-0.32607895135879517,-0.030335042625665665
1789997630304899000,5.208899169921875,-0.057679254561662674,-0.29282864928245544,0.003442802932113409
1789997630314969000,5.218968994140625,-0.04327048733830452,-0.2521078586578369,0.008763532154262066
1789997630325040000,5.2290400390625,-0.01740654557943344,-0.22839300334453583,-0.015481448732316494
1789997630335110000,5.23910986328125,0.02880968526005745,-0.205105260014534,0.010398617945611477
1789997630345181000,5.249180908203125,0.06436996161937714,-0.15673604607582092,0.029593180865049362
1789997630355251200,5.259251220703125,0.10320816934108734,-0.11546637862920761,0.07982253283262253
1789997630365322200,5.269322265625,0.09378527849912643,-0.08405662328004837,0.0575808621942997
1789997630375392000,5.27939208984375,0.11877132207155228,-0.03643796965479851,-0.06636611372232437
1789997630385463000,5.289463134765625,0.12021037936210632,-0.010375410318374634,-0.06952426582574844
1789997630395534000,5.2995341796875,0.14667579531669617,0.048101481050252914,-0.054250236600637436
1789997630405604000,5.30960400390625,0.17699794471263885,0.10011295229196548,-0.061337701976299286
1789997630415675000,5.3196748046875,0.17439895868301392,0.1154591515660286,-0.009909133426845074
1789997630425745000,5.329744873046875,0.17819049954414368,0.11001459509134293,0.026785701513290405
1789997630435816000,5.33981591796875,0.15918830037117004,0.10664329677820206,0.02489965222775936
1789997630445886200,5.34988623046875,0.1659938246011734,0.14462503790855408,0.02858957089483738
1789997630455957000,5.35995703125,0.19371573626995087,0.1841719150543213,0.036631252616643906
1789997630466027000,5.370027099609375,0.17430053651332855,0.211137056350708,-0.008594389073550701
1789997630476098000,5.38009814453125,0.15771889686584473,0.2345488965511322,-0.05219859257340431
1789997630486168000,5.39016796875,0.17163196206092834,0.23572388291358948,-0.03162144124507904
1789997630496238800,5.40023876953125,0.21812011301517487,0.22613729536533356,0.007231682538986206
1789997630506309000,5.41030908203125,0.19806009531021118,0.22192040085792542,0.023305771872401237
1789997630516380200,5.420380126953125,0.19219155609607697,0.2122102528810501,0.036167506128549576
1789997630526450000,5.430449951171875,0.16472569108009338,0.22138690948486328,0.023946436122059822
1789997630536521000,5.44052099609375,0.13565649092197418,0.2249574065208435,-0.01974431797862053
1789997630546591000,5.450591064453125,0.14235980808734894,0.20560075342655182,-0.00808193814009428
1789997630556662000,5.460662109375,0.1531762331724167,0.18584169447422028,0.033566173166036606
1789997630566732000,5.47073193359375,0.16856297850608826,0.17862428724765778,0.0952863097190857
1789997630576803000,5.480802978515625,0.1537560671567917,0.18159930408000946,0.07422097027301788
1789997630586873000,5.490873046875,0.09077902883291245,0.14902189373970032,0.048385996371507645
1789997630596944100,5.500944091796875,0.04638253524899483,0.08439362049102783,0.03880367800593376
1789997630607014000,5.511013916015625,-0.0019372383831068873,0.03675136715173721,0.012196038849651814
1789997630617085000,5.5210849609375,-0.049701035022735596,0.017279136925935745,-0.019462287425994873
1789997630627155000,5.531155029296875,-0.04193439334630966,-0.03432203829288483,0.01639779843389988
1789997630637226000,5.54122607421875,-0.04969751089811325,-0.07304494082927704,-0.016895443201065063
1789997630647296000,5.5512958984375,-0.09062951803207397,-0.09994078427553177,-0.01394888199865818
1789997630657367000,5.561366943359375,-0.11285971850156784,-0.12848667800426483,-0.05204540118575096
1789997630667437000,5.57143701171875,-0.1435067057609558,-0.16103389859199524,-0.05756232142448425
1789997630677508000,5.581508056640625,-0.18273532390594482,-0.20898091793060303,-0.04463214427232742
1789997630687577900,5.591577880859375,-0.1670355647802353,-0.26749852299690247,-0.02199145033955574
1789997630697649000,5.60164892578125,-0.152766615152359,-0.2775722146034241,-0.0070854718796908855
1789997630707719200,5.61171923828125,-0.14693278074264526,-0.3249054551124573,0.029710346832871437
1789997630717790200,5.621790283203125,-0.13185076415538788,-0.34112223982810974,0.047084543853998184
1789997630727861000,5.631861083984375,-0.13580603897571564,-0.34238219261169434,0.05636176839470863
1789997630737931000,5.641930908203125,-0.13851207494735718,-0.32357707619667053,0.019179243594408035
1789997630748002000,5.652001953125,-0.13061611354351044,-0.31031787395477295,-0.007708205375820398
1789997630758072000,5.662072021484375,-0.10552140325307846,-0.29556208848953247,-0.026091473177075386
1789997630768142800,5.672142822265625,-0.08763641864061356,-0.2828825116157532,-0.018002919852733612
1789997630778213000,5.682213134765625,-0.05871421843767166,-0.27405813336372375,-0.019027970731258392
1789997630788284200,5.6922841796875,-0.03776736184954643,-0.27912092208862305,0.043843045830726624
1789997630798354200,5.702354248046875,-0.014381879940629005,-0.26303064823150635,0.04564068093895912
1789997630808425000,5.712425048828125,-0.021347127854824066,-0.210106760263443,0.019215764477849007
1789997630818495000,5.722494873046875,-0.008890989236533642,-0.16107742488384247,-0.005013142246752977
1789997630828566000,5.73256591796875,-0.0035041100345551968,-0.1427621841430664,-0.021888842806220055
1789997630838636000,5.742635986328125,0.011598942801356316,-0.12215092033147812,-0.017147881910204887
1789997630848707000,5.75270703125,0.012023978866636753,-0.10294590890407562,-0.058269742876291275
1789997630858777000,5.762777099609375,0.0041588651947677135,-0.10510227084159851,-0.08496446907520294
1789997630868848000,5.77284814453125,0.0027820460963994265,-0.07601447403430939,-0.054572828114032745
1789997630878918000,5.78291796875,0.06024374067783356,-0.06387179344892502,-0.008314784616231918
1789997630888989000,5.792989013671875,0.050737056881189346,-0.05565674230456352,0.027160387486219406
1789997630899059000,5.803058837890625,0.03639273717999458,-0.06778104603290558,0.038283877074718475
1789997630909130000,5.8131298828125,0.025715282186865807,-0.061652228236198425,0.009506956674158573
1789997630919200000,5.823199951171875,0.06075981631875038,-0.04785306006669998,0.04467106983065605
1789997630929271000,5.83327099609375,0.08354096114635468,-0.041209325194358826,0.0314185805618763
1789997630939341000,5.843341064453125,0.059775177389383316,-0.02337200567126274,0.007111644372344017
1789997630949412000,5.853412109375,0.0775708481669426,-0.009435832500457764,-0.02236684411764145
1789997630959481900,5.86348193359375,0.06427527964115143,-0.0014964165166020393,-0.020220603793859482
1789997630969553000,5.873552978515625,0.05039220303297043,-0.02614585869014263,-0.020078863948583603
1789997630979623200,5.883623046875,0.049406833946704865,-0.03481604531407356,-0.002957135671749711
1789997630989694200,5.893694091796875,0.054523758590221405,-0.015500182285904884,0.026019087061285973
1789997630999764000,5.903763916015625,0.02735765278339386,0.007381164934486151,-0.015111837536096573
1789997631009835000,5.9138349609375,0.037673331797122955,0.005846898537129164,-0.030626662075519562
1789997631019905000,5.923905029296875,0.0583953894674778,-0.014519093558192253,-0.012217827141284943
1789997631029976000,5.93397607421875,0.07766379415988922,-0.07407128065824509,0.08464109897613525
1789997631040046000,5.944046142578125,0.03997394070029259,-0.1161779910326004,0.07511444389820099
1789997631050117000,5.9541171875,0.03932779282331467,-0.1641278713941574,0.023809904232621193
1789997631060187100,5.964187255859375,0.030158793553709984,-0.15455913543701172,0.011792122386395931
1789997631070258200,5.974258056640625,0.03169356286525726,-0.11528851091861725,0.013177808374166489
1789997631080329000,5.984328857421875,0.06915944814682007,-0.11486533284187317,0.007461864966899157
1789997631090399000,5.99439892578125,0.06375676393508911,-0.14310197532176971,0.027521375566720963
1789997631100470000,6.004469970703125,0.06081210449337959,-0.16624832153320312,0.03732021152973175
1789997631110540000,6.0145400390625,0.07018546760082245,-0.1619013547897339,0.023520195856690407
1789997631120611000,6.024611083984375,0.07256846129894257,-0.16936086118221283,0.015407940372824669
1789997631130681000,6.03468115234375,0.09029197692871094,-0.1588771641254425,0.028688330203294754
1789997631140752100,6.044752197265625,0.08234190940856934,-0.12817171216011047,0.00026920554228127003
1789997631150822000,6.05482177734375,0.06110930070281029,-0.11845371127128601,-0.03674572706222534
1789997631160893000,6.064892822265625,0.08093094080686569,-0.11816608905792236,-0.0390312522649765
1789997631170963000,6.074962890625,0.1139388456940651,-0.10506114363670349,0.000657935393974185
1789997631181034000,6.085033935546875,0.13519832491874695,-0.07351839542388916,0.031232357025146484
1789997631191104000,6.09510400390625,0.11473771184682846,-0.03918227553367615,0.01328367367386818
1789997631201175000,6.105175048828125,0.1148809865117073,-0.030982669442892075,-0.015579932369291782
1789997631211245000,6.1152451171875,0.09638117253780365,-0.009422714821994305,-0.026980403810739517
1789997631221316000,6.125316162109375,0.09683576971292496,-0.005216518417000771,-0.036616250872612
1789997631231385900,6.1353857421875,0.1200038269162178,-0.021448872983455658,-0.027688220143318176
1789997631241457000,6.145456787109375,0.13233374059200287,0.004484989680349827,-0.054700665175914764
1789997631251527200,6.155527099609375,0.13528084754943848,0.014897087588906288,-0.07044067233800888
1789997631261598200,6.16559814453125,0.15679919719696045,0.010901546105742455,-0.04160422831773758
1789997631271668000,6.17566796875,0.17168408632278442,0.026868831366300583,-0.029337793588638306
1789997631281739000,6.185739013671875,0.19013819098472595,0.02029641531407833,0.0032718153670430183
1789997631291809000,6.19580908203125,0.18102101981639862,0.04935694485902786,-0.016773756593465805
1789997631301880000,6.205880126953125,0.2111530900001526,0.0536198690533638,0.010380899533629417
1789997631311950000,6.2159501953125,0.22985388338565826,0.05018211901187897,0.05446953326463699
1789997631322021000,6.226021240234375,0.23351626098155975,0.09281080216169357,0.0071036131121218204
1789997631332091100,6.236091064453125,0.23968350887298584,0.12620000541210175,-0.0803244486451149
1789997631342162200,6.246162109375,0.24558933079242706,0.16997091472148895,-0.09226179867982864
1789997631352232000,6.25623193359375,0.2717406749725342,0.22365979850292206,-0.12244650721549988
1789997631362303000,6.266302978515625,0.28038448095321655,0.24981363117694855,-0.11563413590192795
1789997631372373000,6.276373046875,0.2810114324092865,0.3154529929161072,-0.08983995765447617
1789997631382444000,6.286444091796875,0.2800915539264679,0.34936514496803284,-0.06910112500190735
1789997631392514000,6.29651416015625,0.29693880677223206,0.3461262285709381,-0.02128749154508114
1789997631402585000,6.306585205078125,0.2845170199871063,0.33515694737434387,0.013344787992537022
1789997631412655000,6.316655029296875,0.2869480848312378,0.3450222909450531,-0.006517432164400816
1789997631422726000,6.326725830078125,0.2923378050327301,0.3489813506603241,-0.026223493739962578
1789997631432796000,6.3367958984375,0.2699671983718872,0.36792609095573425,-0.06457767635583878
1789997631442867000,6.346866943359375,0.23655463755130768,0.35991743206977844,-0.09022711217403412
1789997631452938000,6.35693798828125,0.23144879937171936,0.33883610367774963,-0.06370996683835983
1789997631463008000,6.367008056640625,0.23423101007938385,0.34819498658180237,-0.0782787874341011
1789997631473079000,6.3770791015625,0.20708365738391876,0.3503269553184509,-0.04670172929763794
1789997631483149000,6.387149169921875,0.21087706089019775,0.318711519241333,-0.0013291873037815094
1789997631493220000,6.39722021484375,0.20441730320453644,0.32137206196784973,-0.021289104595780373
1789997631503289900,6.407289794921875,0.19014382362365723,0.3007543981075287,0.015141608193516731
1789997631513361000,6.41736083984375,0.19400331377983093,0.2549806535243988,0.07884062081575394
1789997631523431200,6.42743115234375,0.1748887449502945,0.2559886574745178,0.07152465730905533
1789997631533502200,6.437502197265625,0.15593761205673218,0.2933114469051361,0.03253995627164841
1789997631543572000,6.447572021484375,0.15274128317832947,0.2877824306488037,0.033794838935136795
1789997631553642800,6.457642822265625,0.1242152526974678,0.30185791850090027,-0.026168841868638992
1789997631563712500,6.46771240234375,0.1313229650259018,0.3148205876350403,-0.054583173245191574
1789997631573783600,6.477783447265625,0.12665194272994995,0.33358773589134216,-0.0657910406589508
1789997631583853800,6.487853759765625,0.14223089814186096,0.3270789682865143,-0.024757854640483856
1789997631593924900,6.4979248046875,0.1324443817138672,0.3063489496707916,-0.0026695490814745426
1789997631603994600,6.50799462890625,0.13072238862514496,0.2798022925853729,0.02715599164366722
1789997631614065700,6.518065673828125,0.10881272703409195,0.2375393956899643,0.050335392355918884
1789997631624135700,6.5281357421875,0.09341566264629364,0.19547609984874725,0.04484342038631439
1789997631634206700,6.538206787109375,0.038339558988809586,0.14818096160888672,0.061001550406217575
1789997631644276700,6.54827685546875,-0.0066175302490592,0.1325860172510147,0.04447663202881813
1789997631654347800,6.55834765625,0.017565488815307617,0.05342436581850052,0.13588453829288483
1789997631664417800,6.568417724609375,0.02138153277337551,0.0138963982462883,0.1527775079011917
1789997631674488600,6.578488525390625,-0.03799307346343994,0.053412456065416336,0.04573936015367508
1789997631684558600,6.58855859375,-0.06948042660951614,0.05048777163028717,0.013033878058195114
1789997631694629600,6.598629638671875,-0.08928891271352768,0.09490039199590683,-0.0514061376452446
1789997631704699600,6.60869970703125,-0.05765056237578392,0.10649047046899796,-0.020890839397907257
1789997631714770400,6.6187705078125,-0.03702279552817345,0.07002295553684235,0.016095735132694244
1789997631724840700,6.6288408203125,-0.05379032716155052,0.06672170013189316,0.007672423031181097
1789997631734911700,6.638911865234375,-0.07903774827718735,0.08096222579479218,0.046603407710790634
1789997631744981800,6.648981689453125,-0.09706415235996246,0.07735257595777512,0.01794167049229145
1789997631755052500,6.659052490234375,-0.10938003659248352,0.08251816034317017,0.07538716495037079
1789997631765122600,6.66912255859375,-0.09115442633628845,0.05642131716012955,0.09021617472171783
1789997631775193600,6.679193603515625,-0.05007811635732651,0.06184506043791771,0.1497490555047989
1789997631785263600,6.689263671875,-0.07373391836881638,0.08689980953931808,0.16086828708648682
1789997631795334700,6.699334716796875,-0.08150231093168259,0.09999142587184906,0.13675689697265625
1789997631805404700,6.70940478515625,-0.09315124154090881,0.09976053237915039,0.08398155868053436
1789997631815475700,6.719475830078125,-0.07427289336919785,0.08910670876502991,0.0952070876955986
1789997631825545500,6.72954541015625,-0.09426844120025635,0.08690400421619415,0.05464367941021919
1789997631835616500,6.739616455078125,-0.08039993792772293,0.09657798707485199,0.06788413971662521
1789997631845687600,6.7496875,-0.10002344101667404,0.0890127420425415,0.039900973439216614
1789997631855757800,6.7597578125,-0.1221666932106018,0.051462989300489426,0.05110344663262367
1789997631865828900,6.769828857421875,-0.13281027972698212,0.048516735434532166,-0.01342308335006237
1789997631875898600,6.779898681640625,-0.1367899477481842,0.07928043603897095,-0.034290023148059845
1789997631885969700,6.7899697265625,-0.14321374893188477,0.07355916500091553,-0.04811315983533859
1789997631896039700,6.800039794921875,-0.0977320522069931,0.05168880522251129,-0.007373862434178591
1789997631906110700,6.81011083984375,-0.13068759441375732,0.01912553794682026,-0.030232839286327362
1789997631916180700,6.8201806640625,-0.17096565663814545,0.014681234955787659,-0.026083804666996002
1789997631926251800,6.830251708984375,-0.1469399482011795,0.01955668441951275,-0.027790624648332596
1789997631936321800,6.84032177734375,-0.16751624643802643,-0.004131465684622526,-0.026100262999534607
1789997631946392800,6.850392822265625,-0.16731597483158112,-0.02787034958600998,-0.025046449154615402
1789997631956462600,6.860462646484375,-0.17082957923412323,-0.003784553147852421,-0.010694142431020737
1789997631966533600,6.87053369140625,-0.1645738035440445,-0.050288669764995575,-0.000368533656001091
1789997631976603600,6.880603759765625,-0.16849373281002045,-0.09614124894142151,0.050169818103313446
1789997631986674400,6.89067431640625,-0.16759997606277466,-0.10664475709199905,0.08503645658493042
1789997631996744700,6.90074462890625,-0.1710188239812851,-0.11034520715475082,0.06850370019674301
1789997632006815700,6.910815673828125,-0.20509903132915497,-0.13519196212291718,0.004617924802005291
1789997632016885800,6.9208857421875,-0.24330778419971466,-0.15208059549331665,-0.04333033785223961
1789997632026956500,6.93095654296875,-0.28213319182395935,-0.16754025220870972,-0.07854398339986801
1789997632037026600,6.941026611328125,-0.29399237036705017,-0.18107661604881287,-0.15195688605308533
1789997632047097600,6.95109765625,-0.2994084358215332,-0.1885606348514557,-0.1527228057384491
1789997632057168000,6.96116796875,-0.2707085609436035,-0.20223848521709442,-0.11872030049562454
1789997632067238700,6.97123876953125,-0.23795700073242188,-0.21276064217090607,-0.10851346701383591
1789997632077308700,6.98130859375,-0.2531239986419678,-0.20848800241947174,-0.11566264182329178
1789997632087379700,6.991379638671875,-0.2693788707256317,-0.23204979300498962,-0.06690975278615952
1789997632097449500,7.001449462890625,-0.28101298213005066,-0.3006027638912201,-0.02345791831612587
1789997632107520500,7.0115205078125,-0.2999997138977051,-0.350557804107666,-0.022690128535032272
1789997632117590800,7.0215908203125,-0.2406516671180725,-0.37802937626838684,0.00524417869746685
1789997632127661800,7.031661865234375,-0.17630358040332794,-0.38724496960639954,0.054662059992551804
1789997632137731600,7.041731689453125,-0.14455311000347137,-0.3532981276512146,0.042732495814561844
1789997632147802600,7.051802734375,-0.09780318289995193,-0.34524819254875183,0.08328870683908463
1789997632157872600,7.06187255859375,-0.0695885643362999,-0.35304802656173706,0.09961410611867905
1789997632167943700,7.071943603515625,-0.07874904572963715,-0.32194283604621887,0.11089418828487396
1789997632178013400,7.082013427734375,-0.08437471836805344,-0.26524287462234497,0.07397138327360153
1789997632188084500,7.09208447265625,-0.09046456962823868,-0.20776306092739105,-0.02165234461426735
1789997632198154800,7.10215478515625,-0.0864364355802536,-0.17484703660011292,-0.05339833348989487
1789997632208225800,7.112225830078125,-0.07979211956262589,-0.1591373085975647,-0.011004802770912647
1789997632218295600,7.122295654296875,-0.05648735165596008,-0.1558617502450943,0.00452176108956337
1789997632228366600,7.13236669921875,-0.032961517572402954,-0.1429813802242279,0.013921921141445637
1789997632238436600,7.1424365234375,-0.020901376381516457,-0.13836818933486938,0.028336215764284134
1789997632248507600,7.152507568359375,-0.010681763291358948,-0.12648676335811615,0.017589028924703598
1789997632258577700,7.16257763671875,-0.03396819531917572,-0.14450789988040924,0.06868450343608856
1789997632268648700,7.172648681640625,-0.046451762318611145,-0.17173711955547333,0.09906584769487381
1789997632278718700,7.18271875,-0.027882114052772522,-0.19726742804050446,0.08173677325248718
1789997632288789800,7.192789794921875,-0.038244474679231644,-0.20375888049602509,0.0789274051785469
1789997632298860500,7.202860595703125,-0.03353163227438927,-0.18896372616291046,-0.01660502701997757
1789997632308930600,7.2129306640625,-0.0032339151948690414,-0.20226700603961945,-0.00030594936106354
1789997632319001600,7.223001708984375,0.014698960818350315,-0.21245041489601135,-0.000813947175629437
1789997632329071900,7.23307177734375,0.03920137137174606,-0.22906187176704407,0.03848791867494583
1789997632339142700,7.243142578125,0.05653760954737663,-0.2718053162097931,0.054459065198898315
1789997632349212700,7.253212646484375,0.06195687875151634,-0.2631172835826874,0.06173136085271835
1789997632359283700,7.26328369140625,0.0899106040596962,-0.24568001925945282,0.056009743362665176
1789997632369353700,7.273353759765625,0.09677569568157196,-0.209688201546669,0.07743114233016968
1789997632379424500,7.283424560546875,0.14329402148723602,-0.17767611145973206,-0.00023303460329771042
1789997632389494800,7.293494873046875,0.18285101652145386,-0.1274172067642212,-0.020098883658647537
1789997632399565800,7.30356591796875,0.1968054175376892,-0.06455793976783752,-0.05757585167884827
1789997632409635600,7.313635498046875,0.22410175204277039,-0.020022697746753693,-0.06685670465230942
1789997632419706600,7.32370654296875,0.24408656358718872,0.017656899988651276,-0.020933745428919792
1789997632429776600,7.333776611328125,0.2557370960712433,0.06370215117931366,0.037240877747535706
1789997632439847700,7.34384765625,0.25594988465309143,0.1413189172744751,-0.002251403871923685
1789997632449917400,7.35391748046875,0.27593129873275757,0.14516185224056244,0.023404425010085106
1789997632459988500,7.363988525390625,0.2611493766307831,0.1606661081314087,0.055694106966257095
1789997632470058800,7.374058837890625,0.279193639755249,0.2156401425600052,0.009868297725915909
1789997632480129800,7.3841298828125,0.2842046320438385,0.22226262092590332,0.019473254680633545
1789997632490199600,7.394199462890625,0.28315481543540955,0.24849900603294373,-0.04563144966959953
1789997632500270600,7.4042705078125,0.26095643639564514,0.26208561658859253,-0.0924278050661087
1789997632510340600,7.414340576171875,0.29186001420021057,0.25754547119140625,-0.07096245884895325
1789997632520411600,7.42441162109375,0.29899340867996216,0.2578272223472595,-0.018536929041147232
1789997632530481700,7.434481689453125,0.3122549057006836,0.28751668334007263,0.01913881115615368
1789997632540552700,7.444552734375,0.3441709876060486,0.3340337872505188,0.02845911867916584
1789997632550623500,7.45462353515625,0.3176349997520447,0.3836838901042938,0.025374379009008408
1789997632560694500,7.464694580078125,0.335855633020401,0.4183942675590515,-0.027916545048356056
1789997632570764500,7.4747646484375,0.30473101139068604,0.46490851044654846,-0.0603242889046669
1789997632580835600,7.484835693359375,0.3163539469242096,0.4540573060512543,-0.0487804040312767
1789997632590905300,7.4949052734375,0.3280993103981018,0.46383777260780334,-0.05780931934714317
1789997632600976400,7.504976318359375,0.31926047801971436,0.4684390425682068,-0.05037330090999603
1789997632611046700,7.515046630859375,0.32755517959594727,0.4648834466934204,-0.02329321578145027
1789997632621117700,7.52511767578125,0.33063769340515137,0.4344627559185028,0.043824780732393265
1789997632631187500,7.5351875,0.3323250710964203,0.42270970344543457,0.022482741624116898
1789997632641258500,7.545258544921875,0.31967976689338684,0.4286641478538513,0.006541569717228413
1789997632651328500,7.55532861328125,0.27444252371788025,0.4075053334236145,-0.004315871279686689
1789997632661399600,7.565399658203125,0.2370695322751999,0.3993581533432007,-0.025049053132534027
1789997632671469600,7.575469482421875,0.20744027197360992,0.3827802538871765,-0.025888215750455856
1789997632681540600,7.58554052734375,0.19427601993083954,0.3466895520687103,-0.031940240412950516
1789997632691610600,7.595610595703125,0.1813919097185135,0.2956109344959259,-0.00745593523606658
1789997632701681700,7.605681640625,0.17769625782966614,0.27542251348495483,-0.001370124751701951
1789997632711751400,7.61575146484375,0.15003827214241028,0.27551785111427307,0.015804866328835487
1789997632721822500,7.625822509765625,0.1100006029009819,0.28800535202026367,-0.021970009431242943
1789997632731892500,7.635892578125,0.12550872564315796,0.28288623690605164,0.031068973243236542
1789997632741963500,7.645963623046875,0.10195077955722809,0.278022438287735,0.07978661358356476
1789997632752033500,7.656033447265625,0.10926595330238342,0.24666345119476318,0.06838296353816986
1789997632762104600,7.6661044921875,0.056935448199510574,0.23502466082572937,0.06646391749382019
1789997632772174600,7.676174560546875,0.012248671613633633,0.22605140507221222,0.018640734255313873
1789997632782245600,7.68624560546875,0.0010018333559855819,0.19207169115543365,-0.04376872628927231
1789997632792316400,7.69631640625,-0.031076474115252495,0.21619859337806702,-0.09335172176361084
1789997632802386400,7.706386474609375,-0.023405728861689568,0.22341807186603546,-0.0702153667807579
1789997632812457500,7.71645751953125,0.007407044991850853,0.1919403076171875,0.013969549909234047
1789997632822527700,7.72652783203125,0.033813439309597015,0.18756216764450073,0.04428272694349289
1789997632832598500,7.7365986328125,-0.029070453718304634,0.17555689811706543,0.07011086493730545
1789997632842668500,7.74666845703125,-0.05994632840156555,0.179588183760643,0.029630761593580246
1789997632852739600,7.756739501953125,-0.07303363084793091,0.1563294678926468,-0.0019588570576161146
1789997632862809300,7.766809326171875,-0.09165909886360168,0.16643595695495605,-0.07945088297128677
1789997632872880400,7.77688037109375,-0.05432185158133507,0.18839851021766663,-0.0602276548743248
1789997632882950700,7.78695068359375,-0.050860702991485596,0.18212372064590454,0.023069586604833603
1789997632893021700,7.797021728515625,-0.019979219883680344,0.1758676916360855,0.0178173016756773
1789997632903091500,7.807091552734375,-0.032181233167648315,0.14891274273395538,0.047617357224226
1789997632913162500,7.81716259765625,-0.057865820825099945,0.1644727885723114,0.057178374379873276
1789997632923232500,7.827232421875,-0.06977149844169617,0.17609265446662903,0.0587821789085865
1789997632933303600,7.837303466796875,-0.11004435271024704,0.18425871431827545,0.028709232807159424
1789997632943373600,7.84737353515625,-0.12400244176387787,0.1510070562362671,0.03607584536075592
1789997632953444600,7.857444580078125,-0.1473463773727417,0.13833759725093842,0.046636078506708145
1789997632963514600,7.8675146484375,-0.1473534256219864,0.16261500120162964,-0.013719053007662296
1789997632973585700,7.877585693359375,-0.1502717137336731,0.1610376089811325,0.001779212267138064
1789997632983655400,7.887655517578125,-0.13515649735927582,0.16694964468479156,-0.0018065024632960558
1789997632993726500,7.8977265625,-0.14497371017932892,0.14569096267223358,0.011064555495977402
1789997633003796500,7.90779638671875,-0.13343045115470886,0.10879775136709213,0.02670702524483204
1789997633013867500,7.917867431640625,-0.17244043946266174,0.10657721012830734,0.020049922168254852
1789997633023937500,7.9279375,-0.2081184685230255,0.12627644836902618,-0.043371640145778656
1789997633034008600,7.938008544921875,-0.19934521615505219,0.07524415850639343,-0.014286990277469158
1789997633044078600,7.94807861328125,-0.24399080872535706,0.03295372053980827,-0.03126164898276329
1789997633054149600,7.958149658203125,-0.26409581303596497,-0.01972946524620056,-0.02789594605565071
1789997633064219400,7.968219482421875,-0.2773521840572357,-0.0802842378616333,-0.00943664088845253
1789997633074290400,7.97829052734375,-0.26469871401786804,-0.1189059317111969,0.10348644852638245
1789997633084360700,7.988360595703125,-0.2539103031158447,-0.16802719235420227,0.12051703035831451
1789997633094431700,7.998431640625,-0.25758999586105347,-0.20395882427692413,0.06733397394418716
1789997633104501500,8.00850146484375,-0.24058832228183746,-0.23892933130264282,0.032585952430963516
1789997633114572500,8.018572509765624,-0.263126403093338,-0.2515101134777069,0.008969041518867016
1789997633124642600,8.028642578125,-0.27092763781547546,-0.26525434851646423,-0.014266638085246086
1789997633134713600,8.038713623046876,-0.28712472319602966,-0.28989630937576294,0.0014598610578104854
1789997633144783600,8.04878369140625,-0.2810061275959015,-0.343055784702301,0.03162370249629021
1789997633154854700,8.058854736328126,-0.28244394063949585,-0.39173969626426697,0.00630875863134861
1789997633164924700,8.068924560546876,-0.24934181571006775,-0.4049074351787567,-0.003503783605992794
1789997633174995500,8.078995361328126,-0.23500707745552063,-0.3330846428871155,-0.02841632440686226
1789997633185065500,8.0890654296875,-0.215796560049057,-0.2803940176963806,-0.013809595257043839
1789997633195136500,8.099136474609375,-0.2176852822303772,-0.23023124039173126,-0.016986746340990067
1789997633205206500,8.10920654296875,-0.20817099511623383,-0.18691302835941315,-0.04425159841775894
1789997633215277300,8.11927734375,-0.1656046211719513,-0.14788466691970825,-0.012029211968183517
1789997633225348400,8.129348388671875,-0.13430334627628326,-0.13706104457378387,-0.010848088189959526
1789997633235418600,8.139418701171875,-0.09972912073135376,-0.14037641882896423,-0.019944114610552788
1789997633245489700,8.14948974609375,-0.07930414378643036,-0.08624577522277832,-0.04376964643597603
1789997633255559400,8.159559326171875,-0.026819102466106415,-0.047342851758003235,-0.015388605184853077
1789997633265630500,8.16963037109375,-0.02035835012793541,-0.013819793239235878,0.003712091129273176
1789997633275700500,8.179700439453125,0.009562263265252113,0.029750321060419083,-0.009968566708266735
1789997633285771500,8.189771484375,0.026754062622785568,0.09180770069360733,-0.032418832182884216
1789997633295841500,8.199841552734375,0.05419127643108368,0.13350801169872284,-0.0281058419495821
1789997633305912600,8.20991259765625,0.05405277758836746,0.1605459600687027,0.0013953611487522721
1789997633315982600,8.219982666015625,0.07353992760181427,0.1871970146894455,-0.01665021851658821
1789997633326053600,8.2300537109375,0.04149683564901352,0.19528762996196747,-0.0918000191450119
1789997633336123400,8.240123291015625,0.01640906184911728,0.21417264640331268,-0.1301916241645813
1789997633346194400,8.2501943359375,0.039242275059223175,0.20478159189224243,-0.1106809675693512
1789997633356264700,8.2602646484375,0.049650441855192184,0.19972531497478485,-0.009564473293721676
1789997633366335700,8.270335693359375,0.07873321324586868,0.21272678673267365,-0.011515487916767597
1789997633376405500,8.280405517578124,0.06908485293388367,0.1819765865802765,0.015410136431455612
1789997633386476500,8.2904765625,0.035705674439668655,0.18657995760440826,0.007884860038757324
1789997633396546600,8.300546630859374,0.019218575209379196,0.1681908369064331,0.06846165657043457
1789997633406617600,8.31061767578125,-0.021734418347477913,0.1553322970867157,-0.012148930691182613
1789997633416687600,8.3206875,-0.04761262238025665,0.0971803069114685,0.021339785307645798
1789997633426758400,8.33075830078125,-0.06534691154956818,0.06521732360124588,-0.01518370769917965
1789997633436828700,8.34082861328125,-0.07037602365016937,0.01167579647153616,-0.009805720299482346
1789997633446899500,8.3508994140625,-0.08771322667598724,-0.03124091401696205,0.0282389298081398
1789997633456969500,8.360969482421876,-0.09175696969032288,-0.04692613333463669,0.028338000178337097
1789997633467040500,8.37104052734375,-0.12213568389415741,-0.05379292368888855,0.03893297165632248
1789997633477110500,8.381110595703126,-0.18109194934368134,-0.048709750175476074,-0.009995687752962112
1789997633487181300,8.391181396484376,-0.21644631028175354,-0.05769149959087372,-0.0284231249243021
1789997633497251600,8.40125146484375,-0.18869563937187195,-0.1018000990152359,0.0020333172287791967
1789997633507322600,8.411322509765625,-0.20706911385059357,-0.1483459621667862,-0.025059854611754417
1789997633517392600,8.421392578125,-0.2096843421459198,-0.20554213225841522,-0.026543233543634415
1789997633527463400,8.43146337890625,-0.18902748823165894,-0.21292373538017273,0.0022541608195751905
1789997633537533400,8.441533447265625,-0.1651274859905243,-0.22609147429466248,0.050608109682798386
1789997633547604500,8.4516044921875,-0.1638297736644745,-0.22316670417785645,0.03291871398687363
1789997633557674200,8.46167431640625,-0.1948486715555191,-0.20518024265766144,0.01670645736157894
1789997633567745300,8.471745361328125,-0.19367338716983795,-0.22182878851890564,0.007514734752476215
1789997633577815000,8.48181494140625,-0.18871404230594635,-0.2578113079071045,0.04578302800655365
1789997633587886000,8.491885986328125,-0.1925598382949829,-0.28032317757606506,0.08931851387023926
1789997633597956000,8.5019560546875,-0.19913996756076813,-0.2678734362125397,0.016978535801172256
1789997633608027100,8.512027099609375,-0.2192842662334442,-0.24964240193367004,-0.07749856263399124
1789997633618097200,8.52209716796875,-0.24447697401046753,-0.22226589918136597,-0.07867967337369919
1789997633628168200,8.532168212890625,-0.2080218493938446,-0.2331094592809677,-0.028720324859023094
1789997633638238200,8.54223828125,-0.16452497243881226,-0.2632407546043396,-0.01214214600622654
1789997633648309200,8.552309326171875,-0.16863873600959778,-0.26774862408638,-0.010905423201620579
1789997633658379000,8.56237890625,-0.20496265590190887,-0.2376573085784912,0.004211477003991604
1789997633668450000,8.572449951171874,-0.1924871802330017,-0.25314292311668396,0.051826175302267075
1789997633678521000,8.58252099609375,-0.20107401907444,-0.29300567507743835,0.05420038476586342
1789997633688591400,8.59259130859375,-0.17861782014369965,-0.3350706994533539,0.04794173315167427
1789997633698662100,8.602662109375,-0.17587316036224365,-0.3574329912662506,0.008422285318374634
1789997633708732200,8.612732177734374,-0.14460809528827667,-0.36716338992118835,-0.03961019963026047
1789997633718803200,8.62280322265625,-0.12648528814315796,-0.3254076838493347,-0.07521186769008636
1789997633728873200,8.632873291015626,-0.07686071842908859,-0.31990915536880493,-0.011170903220772743
1789997633738944000,8.642944091796876,-0.035054948180913925,-0.3870866000652313,0.05063866823911667
1789997633749014000,8.653013916015626,-0.031198589131236076,-0.42457231879234314,0.022145992144942284
1789997633759085000,8.6630849609375,-0.010978537611663342,-0.400372177362442,0.011420113034546375
1789997633769155300,8.6731552734375,0.026976391673088074,-0.40063148736953735,0.05403922498226166
1789997633779226000,8.68322607421875,0.050096623599529266,-0.3604837954044342,0.06262072920799255
1789997633789296000,8.693296142578125,0.12903720140457153,-0.3421347141265869,0.05117081478238106
1789997633799367200,8.7033671875,0.12692877650260925,-0.28978070616722107,0.0022565345279872417
1789997633809437200,8.713437255859375,0.12741023302078247,-0.24150609970092773,-0.03521556034684181
1789997633819508000,8.723508056640625,0.1861981749534607,-0.19165199995040894,-0.051046185195446014
1789997633829578200,8.733578125,0.2645217180252075,-0.12147082388401031,0.03990773856639862
1789997633839649300,8.743649169921875,0.2661241590976715,-0.10885702818632126,0.043122440576553345
1789997633849719000,8.753718994140625,0.24656829237937927,-0.09696601331233978,0.0194525308907032
1789997633859790000,8.7637900390625,0.26182952523231506,-0.049384910613298416,0.03273504599928856
1789997633869860000,8.773860107421875,0.29244163632392883,0.03406597301363945,0.018942974507808685
1789997633879931100,8.78393115234375,0.31445345282554626,0.07821985334157944,0.0694785863161087
1789997633890001200,8.794001220703125,0.3308354914188385,0.12176286429166794,-0.020009657368063927
1789997633900072200,8.804072265625,0.37560322880744934,0.11356832087039948,0.06456275284290314
1789997633910142200,8.81414208984375,0.36679208278656006,0.1562008559703827,0.03056834265589714
1789997633920213200,8.824213134765625,0.3926287591457367,0.19911450147628784,0.016955329105257988
1789997633930283000,8.834282958984375,0.3765730559825897,0.2690154016017914,0.008080951869487762
1789997633940354000,8.84435400390625,0.402371883392334,0.3176940083503723,0.0024624806828796864
1789997633950424300,8.85442431640625,0.41879597306251526,0.3269471228122711,-0.016754698008298874
1789997633960495400,8.864495361328125,0.3979162573814392,0.36531901359558105,-0.061229221522808075
1789997633970565000,8.874565185546874,0.38858562707901,0.40523549914360046,-0.0650937631726265
1789997633980636200,8.88463623046875,0.39578816294670105,0.45195427536964417,-0.04974862560629845
1789997633990706200,8.8947060546875,0.38781213760375977,0.49057289958000183,-0.05541762709617615
1789997634000777200,8.904777099609374,0.38226476311683655,0.48254987597465515,-0.03046540357172489
1789997634010847000,8.914846923828126,0.33936023712158203,0.5320774912834167,0.0012789845932275057
1789997634020918000,8.92491796875,0.36857911944389343,0.537666916847229,-0.009090298786759377
1789997634030988300,8.93498828125,0.3277694284915924,0.4978153705596924,0.026435822248458862
1789997634041059300,8.945059326171876,0.35336560010910034,0.4847773313522339,0.07076627016067505
1789997634051129000,8.955129150390626,0.3139549791812897,0.49985677003860474,0.00043787143658846617
1789997634061200100,8.9652001953125,0.25658515095710754,0.49132636189460754,-0.06710761785507202
1789997634071270100,8.975270263671876,0.23731039464473724,0.49479013681411743,-0.0720309168100357
1789997634081341200,8.985341064453126,0.1769368052482605,0.5144533514976501,-0.08792093396186829
1789997634091411200,8.9954111328125,0.1909237951040268,0.44128090143203735,-0.056248459964990616
1789997634101482200,9.005482177734375,0.1882028430700302,0.40313857793807983,0.012154031544923782
1789997634111552300,9.01555224609375,0.16712576150894165,0.3903011679649353,0.021816061809659004
1789997634121623000,9.025623046875,0.15867795050144196,0.3257006108760834,0.04049041494727135
1789997634131693000,9.035693115234375,0.12663333117961884,0.31124526262283325,0.0352952741086483
1789997634141764000,9.04576416015625,0.11997915804386139,0.3368808329105377,-0.014521284028887749
1789997634151834400,9.05583447265625,0.11143840104341507,0.2991366684436798,0.055430103093385696
1789997634161905200,9.0659052734375,0.06685229390859604,0.2841683626174927,0.004721386823803186
1789997634171975200,9.07597509765625,0.03386417031288147,0.24365141987800598,-0.03786532208323479
1789997634182046200,9.086046142578125,0.011273639276623726,0.23926866054534912,-0.06252619624137878
1789997634192116200,9.0961162109375,0.015451638959348202,0.20419718325138092,-0.007545005064457655
1789997634202187000,9.10618701171875,0.0050024595111608505,0.18996019661426544,0.024668589234352112
1789997634212258000,9.116258056640625,-0.040562815964221954,0.17004376649856567,0.030217044055461884
1789997634222328000,9.126328125,-0.019023969769477844,0.17059238255023956,0.0690762922167778
1789997634232399000,9.136399169921875,0.005376264452934265,0.15935365855693817,0.07638855278491974
1789997634242469000,9.14646923828125,-0.061543650925159454,0.1264822632074356,0.03747577592730522
1789997634252540200,9.1565400390625,-0.08028753846883774,0.07955168187618256,-0.013245359994471073
1789997634262610200,9.166610107421874,-0.09703589230775833,0.0724857822060585,-0.03963089734315872
1789997634272681200,9.17668115234375,-0.11811399459838867,0.06463749706745148,-0.08222420513629913
1789997634282751000,9.1867509765625,-0.11678348481655121,0.07598575949668884,-0.0735660046339035
1789997634292822000,9.196822021484374,-0.08388575166463852,0.04225260764360428,0.025116687640547752
1789997634302892300,9.206892333984374,-0.08106679469347,-0.006362335290759802,0.09041393548250198
1789997634312963300,9.21696337890625,-0.10122375935316086,-0.01788690686225891,0.12685221433639526
1789997634323033000,9.227033203125,-0.09652167558670044,0.031242022290825844,0.08598628640174866
1789997634333104000,9.237104248046874,-0.09625761955976486,0.05318600311875343,0.08473654836416245
1789997634343174100,9.247174072265626,-0.11539136618375778,0.05904016271233559,0.06082829087972641
1789997634353245200,9.2572451171875,-0.1318354606628418,0.03616217523813248,0.029081406071782112
1789997634363315200,9.267315185546876,-0.1303427517414093,0.06186807155609131,0.0024236966855823994
1789997634373386200,9.27738623046875,-0.05880032479763031,0.07104325294494629,-0.009220623411238194
1789997634383456300,9.287456298828126,-0.09089008718729019,0.07884497940540314,0.007814552634954453
1789997634393527300,9.29752734375,-0.07103244960308075,0.08090928941965103,0.06241961196064949
1789997634403597000,9.30759716796875,-0.09724301844835281,0.12237443774938583,0.04790458828210831
1789997634413668000,9.317668212890625,-0.12652890384197235,0.15977507829666138,0.020604195073246956
1789997634423738400,9.32773828125,-0.13699032366275787,0.14908301830291748,-0.00004089588765054941
1789997634433809200,9.33780908203125,-0.140690416097641,0.1268228441476822,-0.005522239953279495
1789997634443879200,9.347879150390625,-0.09764387458562851,0.1014181450009346,0.009919833391904831
1789997634453950200,9.3579501953125,-0.06203291565179825,0.08418016880750656,0.0016404051566496491
1789997634464020200,9.368020263671875,-0.021950742229819298,0.09478834271430969,-0.023730996996164322
1789997634474091000,9.378091064453125,-0.03934164717793465,0.0888570249080658,0.014925611205399036
1789997634484161000,9.3881611328125,-0.023643111810088158,0.07426849007606506,0.030836399644613266
1789997634494232000,9.398232177734375,-0.04038650915026665,0.06834864616394043,0.021934596821665764
1789997634504302300,9.40830224609375,-0.05397981405258179,0.07287707924842834,-0.03295448422431946
1789997634514373000,9.418373046875,-0.05536265671253204,0.046019621193408966,-0.02262263186275959
1789997634524443100,9.428443115234375,-0.047791555523872375,0.026455506682395935,0.037288639694452286
1789997634534514200,9.43851416015625,-0.05926898866891861,0.01723753660917282,0.04608187451958656
1789997634544584200,9.448584228515625,-0.0442117415368557,0.022079963237047195,0.003376220352947712
1789997634554655200,9.4586552734375,-0.02882281132042408,0.038992833346128464,-0.06053946167230606
1789997634564725500,9.4687255859375,-0.0450822077691555,0.03291230648756027,-0.04887454956769943
1789997634574796500,9.478796630859375,-0.03292083740234375,0.032054416835308075,-0.019684843719005585
1789997634584866300,9.4888662109375,-0.062317073345184326,0.027704941108822823,-0.0061200326308608055
1789997634594937300,9.498937255859374,-0.07423394918441772,0.04085652902722359,-0.0022360358852893114
1789997634605007400,9.50900732421875,-0.03235413879156113,0.023229598999023438,0.0296180322766304
1789997634615078100,9.519078125,-0.05368034541606903,0.062342964112758636,0.015307980589568615
1789997634625148400,9.5291484375,-0.1030910387635231,0.07817438989877701,-0.03464812785387039
1789997634635219500,9.539219482421874,-0.10858061909675598,0.08212218433618546,-0.06909660249948502
1789997634645289500,9.54928955078125,-0.09151668101549149,0.12359745055437088,-0.06532850116491318
1789997634655360300,9.5593603515625,-0.08905602246522903,0.09968478232622147,0.040585197508335114
1789997634665431300,9.569431396484376,-0.07147916406393051,0.07951346784830093,0.08660994470119476
1789997634675501300,9.579501220703126,-0.11108915507793427,0.0750872939825058,0.11276058852672577
1789997634685572400,9.589572265625,-0.12687212228775024,0.10449125617742538,0.10302513837814331
1789997634695642000,9.59964208984375,-0.12926004827022552,0.12573477625846863,0.04242824390530586
1789997634705713200,9.609713134765625,-0.12363091856241226,0.1161295548081398,-0.019645245745778084
1789997634715783400,9.619783447265625,-0.11638182401657104,0.11603185534477234,-0.03166613727807999
1789997634725854500,9.6298544921875,-0.10373926907777786,0.1364295482635498,-0.03807370364665985
1789997634735924200,9.63992431640625,-0.07059191912412643,0.12246153503656387,0.029019448906183243
1789997634745995300,9.649995361328125,-0.05366300046443939,0.11040007323026657,0.03545604273676872
1789997634756065300,9.660065185546875,-0.06963605433702469,0.11656516790390015,-0.012042672373354435
1789997634766136300,9.67013623046875,-0.06897639483213425,0.11666317284107208,-0.011250115931034088
1789997634776206300,9.680206298828125,-0.07619935274124146,0.12342742085456848,0.07773122191429138
1789997634786277400,9.69027734375,-0.09241693466901779,0.12271422147750854,0.09315438568592072
1789997634796347400,9.700347412109375,-0.12780418992042542,0.14230605959892273,0.05715852603316307
1789997634806418400,9.71041845703125,-0.10937698930501938,0.11752188205718994,0.06518981605768204
1789997634816488200,9.72048828125,-0.1277034729719162,0.10490938276052475,0.049867670983076096
1789997634826559200,9.730559326171875,-0.1142694279551506,0.06538701057434082,0.07504147291183472
1789997634836629500,9.74062939453125,-0.10333000123500824,0.010449275374412537,0.10007689893245697
1789997634846700500,9.750700439453125,-0.16896307468414307,0.03766731172800064,0.02798300050199032
1789997634856770300,9.760770263671875,-0.18205030262470245,0.039502549916505814,0.027065351605415344
1789997634866841300,9.77084130859375,-0.2290569692850113,0.0343669094145298,-0.0027854889631271362
1789997634876911400,9.780911376953124,-0.22947350144386292,0.004919754341244698,0.038671720772981644
1789997634886982400,9.790982421875,-0.23606695234775543,-0.017558656632900238,0.03132539242506027
1789997634897052400,9.801052490234374,-0.23354823887348175,-0.03641313686966896,0.016378128901124
1789997634907123200,9.811123291015624,-0.24382244050502777,-0.08985185623168945,0.08100851625204086
1789997634917193500,9.821193359375,-0.2972923517227173,-0.0921986922621727,0.017020799219608307
1789997634927264300,9.83126416015625,-0.27012330293655396,-0.11260329931974411,0.06428977847099304
1789997634937334300,9.841334228515626,-0.2763742506504059,-0.09331708401441574,0.02919987589120865
1789997634947405300,9.8514052734375,-0.27869996428489685,-0.12182196229696274,-0.0005851851310580969
1789997634957475300,9.861475341796876,-0.2813325524330139,-0.1478872448205948,0.04918406158685684
1789997634967546000,9.871546142578126,-0.26925936341285706,-0.19839489459991455,0.07584017515182495
1789997634977616400,9.881616455078126,-0.2826160192489624,-0.24782682955265045,0.08825768530368805
1789997634987687400,9.8916875,-0.3185393810272217,-0.2395063042640686,0.039667777717113495
1789997634997757400,9.90175732421875,-0.3287164568901062,-0.24607780575752258,0.01590191200375557
1789997635007828200,9.911828125,-0.3576633930206299,-0.26861295104026794,-0.008150693029165268
1789997635017898200,9.921898193359375,-0.33109474182128906,-0.31350934505462646,-0.011855226941406727
1789997635027969300,9.93196923828125,-0.323218435049057,-0.36498239636421204,0.005415905732661486
1789997635038039300,9.942039306640625,-0.35892266035079956,-0.389182984828949,-0.01779981516301632
1789997635048110300,9.9521103515625,-0.3727380633354187,-0.3771923780441284,-0.04380505159497261
1789997635058180400,9.962180419921875,-0.3589969575405121,-0.37974661588668823,0.0013030386762693524
1789997635068251400,9.97225146484375,-0.31812143325805664,-0.41346555948257446,0.046203624457120895
1789997635078321200,9.982321044921875,-0.3389153480529785,-0.45070043206214905,0.04882136732339859
1789997635088392200,9.99239208984375,-0.35027000308036804,-0.4851071536540985,0.02950466051697731
1789997635098462500,10.00246240234375,-0.3393697738647461,-0.45067495107650757,-0.006659419741481543
1789997635108533500,10.012533447265625,-0.3145959973335266,-0.4082678556442261,-0.023064758628606796
1789997635118603300,10.022603271484375,-0.2754562795162201,-0.3857748806476593,-0.024135209619998932
1789997635128674300,10.03267431640625,-0.2952403724193573,-0.3469907343387604,-0.028547002002596855
1789997635138744300,10.042744384765625,-0.2731335759162903,-0.3534955084323883,-0.015755731612443924
1789997635148815400,10.0528154296875,-0.24192878603935242,-0.36150309443473816,-0.0027110364753752947
1789997635158885000,10.062885009765624,-0.1937696933746338,-0.3711255192756653,0.05729000270366669
1789997635168956200,10.0729560546875,-0.17221753299236298,-0.3698781132698059,0.022878497838974
1789997635179027200,10.083027099609374,-0.16361171007156372,-0.3284831643104553,-0.028792409226298332
1789997635189097500,10.093097412109374,-0.17131251096725464,-0.3025975227355957,-0.017249204218387604
1789997635199168300,10.103168212890624,-0.15813617408275604,-0.26862648129463196,-0.012215531431138515
1789997635209238300,10.11323828125,-0.10813825577497482,-0.2281019538640976,0.008329691365361214
1789997635219309300,10.123309326171874,-0.08667344599962234,-0.23021063208580017,0.07382214814424515
1789997635229379300,10.13337939453125,-0.07713852822780609,-0.27244409918785095,0.1178537905216217
1789997635239450000,10.1434501953125,-0.11223439872264862,-0.23906861245632172,0.08431562036275864
1789997635249520400,10.153520263671876,-0.10864605754613876,-0.19393016397953033,0.06347984820604324
1789997635259591400,10.16359130859375,-0.117084801197052,-0.16626891493797302,0.035234563052654266
1789997635269661400,10.173661376953126,-0.12609294056892395,-0.16909053921699524,0.019170109182596207
1789997635279732200,10.183732177734376,-0.15378372371196747,-0.13717639446258545,-0.04722903296351433
1789997635289802200,10.19380224609375,-0.14650903642177582,-0.12214363366365433,-0.04718322679400444
1789997635299873300,10.203873291015626,-0.09460331499576569,-0.13594743609428406,-0.02441534772515297
1789997635309943600,10.213943603515625,-0.1082749217748642,-0.17513957619667053,-0.013986675068736076
1789997635320014300,10.224014404296875,-0.1310638040304184,-0.1834854781627655,-0.0033168448135256767
1789997635330084400,10.23408447265625,-0.11469575762748718,-0.17868779599666595,0.024104924872517586
1789997635340155400,10.2441552734375,-0.12021873891353607,-0.2196415513753891,0.05413615703582764
1789997635350225200,10.25422509765625,-0.133932963013649,-0.2877984941005707,0.040141511708498
1789997635360296200,10.264296142578125,-0.14105302095413208,-0.32546186447143555,0.05573010444641113
1789997635370366200,10.2743662109375,-0.1477857530117035,-0.364462286233902,0.005157740321010351
1789997635380437200,10.284437255859375,-0.1650562584400177,-0.3578777313232422,0.021109234541654587
1789997635390507300,10.29450732421875,-0.1580047458410263,-0.3432985246181488,-0.05615253373980522
1789997635400578300,10.304578369140625,-0.14368213713169098,-0.38154688477516174,-0.013374263420701027
1789997635410648300,10.3146484375,-0.14701135456562042,-0.4357728362083435,-0.030827023088932037
1789997635420719400,10.32471923828125,-0.13226474821567535,-0.45090940594673157,-0.027050837874412537
1789997635430789000,10.3347890625,-0.1313323825597763,-0.42076000571250916,-0.0796101838350296
1789997635440860200,10.344860107421875,-0.1661486029624939,-0.39528846740722656,-0.044730473309755325
1789997635450930400,10.354930419921875,-0.1344069242477417,-0.39597848057746887,-0.05711071193218231
1789997635461001500,10.36500146484375,-0.13477614521980286,-0.44330599904060364,0.00986096728593111
1789997635471071200,10.3750712890625,-0.09041321277618408,-0.46841558814048767,0.006795935332775116
1789997635481142300,10.385142333984374,-0.05850357934832573,-0.4788929522037506,0.07637470215559006
1789997635491212300,10.39521240234375,-0.045178718864917755,-0.4878869652748108,0.08221794664859772
1789997635501283300,10.405283447265624,-0.049910616129636765,-0.4644063115119934,0.047656528651714325
1789997635511353300,10.415353271484374,-0.08156920969486237,-0.4178183078765869,0.040197283029556274
1789997635521424400,10.42542431640625,-0.03564086928963661,-0.40574538707733154,0.051209986209869385
1789997635531494400,10.435494384765626,-0.0545881949365139,-0.4173482358455658,0.09662967175245285
1789997635541565400,10.4455654296875,-0.03848475217819214,-0.44121667742729187,0.07404868304729462
1789997635551635200,10.45563525390625,-0.05024580657482147,-0.41613104939460754,-0.022305551916360855
1789997635561706500,10.46570654296875,-0.02753930538892746,-0.37767478823661804,-0.054882511496543884
1789997635571776500,10.475776611328126,0.01292502973228693,-0.34621939063072205,-0.05335358902812004
1789997635581847600,10.48584765625,0.042283330112695694,-0.34861645102500916,-0.009247273206710815
1789997635591917600,10.49591748046875,0.06201229244470596,-0.3497437536716461,0.07134263962507248
1789997635601988600,10.505988525390626,0.08128854632377625,-0.33862733840942383,0.06210993230342865
1789997635612058600,10.51605859375,0.10216932743787766,-0.304808646440506,0.013564232736825943
1789997635622129400,10.52612939453125,0.07321496307849884,-0.29275384545326233,0.0013947357656434178
1789997635632199400,10.536199462890625,0.08692145347595215,-0.2786063551902771,-0.034528110176324844
1789997635642270500,10.5462705078125,0.11682707071304321,-0.22430408000946045,-0.02274950034916401
1789997635652341500,10.556341552734375,0.18723279237747192,-0.20108583569526672,0.032262351363897324
1789997635662411500,10.56641162109375,0.2348005175590515,-0.19566121697425842,0.11501467227935791
1789997635672482600,10.576482666015625,0.25817349553108215,-0.17655836045742035,0.13082478940486908
1789997635682552600,10.586552490234375,0.26294538378715515,-0.13863906264305115,0.13253700733184814
1789997635692623600,10.59662353515625,0.26321864128112793,-0.04911983758211136,0.0964125469326973
1789997635702693400,10.606693359375,0.29928267002105713,0.03785412758588791,0.03777575492858887
1789997635712764400,10.616764404296875,0.3127782344818115,0.09333363175392151,-0.011015751399099827
1789997635722834700,10.626834716796875,0.3458625376224518,0.10927747189998627,-0.0017597554251551628
1789997635732905700,10.63690576171875,0.3485792279243469,0.14387592673301697,0.03750908747315407
1789997635742975500,10.6469755859375,0.37565428018569946,0.18545399606227875,0.056389302015304565
1789997635753046500,10.657046630859375,0.40488484501838684,0.2649208605289459,0.02336823381483555
1789997635763116500,10.667116455078125,0.4376485347747803,0.30538514256477356,-0.0014778340701013803
1789997635773187600,10.6771875,0.401134192943573,0.30749940872192383,-0.042978137731552124
1789997635783257600,10.687257568359374,0.40965744853019714,0.2644015848636627,-0.005941266193985939
1789997635793328600,10.69732861328125,0.40880870819091797,0.23542584478855133,0.05186930298805237
1789997635803398700,10.707398681640624,0.4145841598510742,0.22775188088417053,0.07233745604753494
1789997635813469700,10.7174697265625,0.4036806523799896,0.20898832380771637,0.061578553169965744
1789997635823539500,10.72753955078125,0.36082351207733154,0.20415924489498138,-0.007387654855847359
1789997635833610500,10.737610595703124,0.3603076636791229,0.16237345337867737,0.012209216132760048
1789997635843680500,10.747680419921876,0.33268895745277405,0.16257072985172272,-0.01109354104846716
1789997635853751300,10.757751220703126,0.3726872205734253,0.148481547832489,0.020288614556193352
1789997635863821600,10.767821533203126,0.380447655916214,0.15420912206172943,0.017278965562582016
1789997635873892600,10.777892578125,0.3510255813598633,0.16212163865566254,-0.00856701284646988
1789997635883962600,10.787962646484376,0.338778018951416,0.16046342253684998,-0.02885901741683483
1789997635894033400,10.798033447265626,0.3031558394432068,0.17066439986228943,-0.07440678775310516
1789997635904103400,10.808103515625,0.310306578874588,0.12473097443580627,-0.019053170457482338
1789997635914174500,10.818174560546876,0.29637610912323,0.12846419215202332,-0.04969550296664238
1789997635924244700,10.82824462890625,0.30143722891807556,0.11397984623908997,-0.009722155518829823
1789997635934315500,10.8383154296875,0.26607897877693176,0.11944784224033356,-0.013797590509057045
1789997635944385500,10.848385498046875,0.25949814915657043,0.11885157972574234,0.008920925669372082
1789997635954456600,10.85845654296875,0.2104557901620865,0.1270863562822342,0.006778412498533726
1789997635964526300,10.8685263671875,0.22267821431159973,0.10986409336328506,0.04215073958039284
1789997635974597400,10.878597412109375,0.20668458938598633,0.11146785318851471,0.021086733788251877
1789997635984667600,10.888667724609375,0.20864059031009674,0.11059121787548065,-0.013110404834151268
1789997635994738700,10.89873876953125,0.13455039262771606,0.16081923246383667,-0.08995591849088669
1789997636004808400,10.908808349609375,0.13701950013637543,0.1595672070980072,-0.09260573983192444
1789997636014879500,10.91887939453125,0.115047886967659,0.16147243976593018,-0.05377472564578056
1789997636024949500,10.928949462890625,0.10533446073532104,0.1293519139289856,-0.02733788453042507
1789997636035020500,10.9390205078125,0.08520549535751343,0.11085997521877289,0.04171362146735191
1789997636045090600,10.949090576171875,0.0743788480758667,0.10760100930929184,0.047307390719652176
1789997636055161600,10.95916162109375,0.05584324151277542,0.08816925436258316,-0.0008404321852140129
1789997636065231600,10.969231689453125,0.0435350276529789,0.08799119293689728,-0.06250368058681488
1789997636075302700,10.979302734375,0.03849979117512703,0.08968415856361389,-0.07385966181755066
1789997636085372400,10.989372314453124,0.03261767327785492,0.046570610255002975,-0.059529952704906464
1789997636095443500,10.999443359375,0.057911310344934464,0.033922191709280014,-0.00788193754851818
1789997636105513500,11.009513427734374,0.06196995824575424,0.009631002321839333,0.05391942709684372
1789997636115584500,11.01958447265625,0.07230436056852341,0.0010883812792599201,0.022074146196246147
1789997636125654500,11.029654541015624,0.059524908661842346,0.004008537624031305,0.03230814263224602
1789997636135725600,11.0397255859375,0.04282955080270767,0.01599329523742199,-0.011903793551027775
1789997636145795600,11.049795654296876,0.04694840684533119,-0.021801259368658066,0.009372416883707047
1789997636155866600,11.05986669921875,0.051955416798591614,-0.05918644741177559,0.02094065584242344
1789997636165937400,11.0699375,0.04453213885426521,-0.06623179465532303,0.016277389600872993
1789997636176007400,11.08000732421875,0.027443433180451393,-0.03957994282245636,-0.05826102942228317
1789997636186078500,11.090078369140626,0.04887557029724121,0.0033921292051672935,-0.06449119001626968
1789997636196148700,11.100148681640626,0.06024087592959404,0.02909882366657257,-0.027034630998969078
1789997636206219500,11.110219482421876,0.09236691892147064,-0.0013035908341407776,0.012830303981900215
1789997636216289500,11.12028955078125,0.09523434191942215,-0.0012921392917633057,-0.003356654429808259
1789997636226360600,11.130360595703126,0.06949213147163391,0.012720021419227123,0.009903536178171635
1789997636236430600,11.1404306640625,0.08711719512939453,-0.02264409512281418,0.054100289940834045
1789997636246501400,11.15050146484375,0.08764669299125671,-0.012887371703982353,0.008505459874868393
1789997636256571600,11.160571533203125,0.07359772175550461,-0.0181116946041584,-0.03277513384819031
1789997636266642700,11.170642578125,0.05056145787239075,-0.005658739246428013,-0.05681253969669342
1789997636276712400,11.18071240234375,0.05267307534813881,0.00135416304692626,-0.043239206075668335
1789997636286783500,11.190783447265625,0.07595274597406387,-0.006877239793539047,0.0024677948094904423
1789997636296853500,11.200853515625,0.10005808621644974,-0.0032374975271523,0.03509844094514847
1789997636306924500,11.210924560546875,0.11117571592330933,0.02511158585548401,0.022579988464713097
1789997636316994300,11.220994384765625,0.09840905666351318,0.07854125648736954,-0.04366933926939964
1789997636327065300,11.2310654296875,0.09483540058135986,0.07867806404829025,-0.059972792863845825
1789997636337135600,11.241135498046875,0.10699459910392761,0.08843162655830383,-0.05471491441130638
1789997636347206700,11.25120654296875,0.10996761918067932,0.08748577535152435,-0.05816569924354553
1789997636357276400,11.2612763671875,0.14495117962360382,0.08029790222644806,-0.04588639363646507
1789997636367347500,11.271347412109375,0.16266179084777832,0.0911015048623085,-0.03585497662425041
1789997636377417500,11.28141748046875,0.18173162639141083,0.11335647851228714,-0.01387670636177063
1789997636387488500,11.291488525390625,0.19336384534835815,0.1373554766178131,-0.017801107838749886
1789997636397558500,11.30155859375,0.20325295627117157,0.1907941997051239,-0.06507515162229538
1789997636407629600,11.311629638671874,0.23329517245292664,0.2235940843820572,-0.060787949711084366
1789997636417699600,11.321699462890624,0.25792115926742554,0.2203516811132431,0.02384704165160656
1789997636427770600,11.3317705078125,0.26134634017944336,0.2376817762851715,0.035616643726825714
1789997636437840400,11.34184033203125,0.243106871843338,0.253330796957016,0.01796627789735794
1789997636447911400,11.351911376953124,0.2293282300233841,0.28077104687690735,-0.03676414117217064
1789997636457981700,11.361981689453126,0.2598169147968292,0.287631630897522,-0.05216147378087044
1789997636468052700,11.372052734375,0.2738859951496124,0.3353055715560913,-0.03546284884214401
1789997636478122500,11.38212255859375,0.2953295111656189,0.35937413573265076,-0.012844622135162354
1789997636488193500,11.392193603515626,0.3124169111251831,0.35076090693473816,0.06413934379816055
1789997636498263600,11.402263671875,0.34089434146881104,0.39384526014328003,0.04324018582701683
1789997636508334600,11.41233447265625,0.29248395562171936,0.4194575548171997,-0.0014756974996998906
1789997636518404600,11.422404541015625,0.2553400695323944,0.4224269688129425,-0.02447235956788063
1789997636528475600,11.4324755859375,0.20908591151237488,0.44335904717445374,-0.10219565778970718
1789997636538545700,11.442545654296875,0.21148355305194855,0.4561765789985657,-0.07430410385131836
1789997636548616700,11.45261669921875,0.24125581979751587,0.4853369891643524,-0.07791847735643387
1789997636558686500,11.4626865234375,0.21037007868289948,0.45548775792121887,-0.06322714686393738
1789997636568757500,11.472757568359375,0.21258926391601562,0.45971760153770447,-0.011340724304318428
1789997636578827500,11.48282763671875,0.18193335831165314,0.468680739402771,0.009604505263268948
1789997636588898600,11.492898681640625,0.1666254997253418,0.43322068452835083,-0.015052647329866886
1789997636598968600,11.502968505859375,0.12376751005649567,0.4028409421443939,0.06491781771183014
1789997636609039600,11.51303955078125,0.11242760717868805,0.37953975796699524,0.07477227598428726
1789997636619109600,11.523109619140625,0.10389457643032074,0.36547452211380005,0.051436856389045715
1789997636629180700,11.5331806640625,0.0579700693488121,0.3605002462863922,0.07741622626781464
1789997636639251500,11.54325146484375,0.013191414065659046,0.3646542429924011,0.07603511214256287
1789997636649321500,11.553321533203125,0.023131104186177254,0.34699174761772156,0.022429736331105232
1789997636659392500,11.563392578125,-0.02911745198071003,0.364629864692688,0.008692619390785694
1789997636669462800,11.573462890625,-0.02867847867310047,0.3493010699748993,0.02312990091741085
1789997636679533600,11.583533447265625,-0.047699570655822754,0.31021013855934143,0.02637576125562191
1789997636689603600,11.593603515625,-0.08755262941122055,0.27113768458366394,0.08062060922384262
1789997636699674600,11.603674560546875,-0.12160460650920868,0.23715843260288239,0.119930200278759
1789997636709744400,11.613744384765624,-0.2050204575061798,0.21477487683296204,0.04611098766326904
1789997636719815400,11.6238154296875,-0.2517631947994232,0.15751025080680847,0.005806710571050644
1789997636729885700,11.6338857421875,-0.31178027391433716,0.10823603719472885,0.046214472502470016
1789997636739956700,11.643956787109374,-0.3226741850376129,0.04667068272829056,0.10413529723882675
1789997636750026500,11.654026611328124,-0.31687867641448975,-0.017334289848804474,0.1373356282711029
1789997636760097500,11.66409765625,-0.33278706669807434,-0.08495674282312393,0.1309347152709961
1789997636770167600,11.67416748046875,-0.3497142493724823,-0.12074572592973709,0.061393871903419495
1789997636780238600,11.684238525390626,-0.38925981521606445,-0.14376209676265717,0.06661286950111389
1789997636790308400,11.694308349609376,-0.3624899685382843,-0.17995108664035797,0.09644893556833267
1789997636800379400,11.70437939453125,-0.35630157589912415,-0.21398387849330902,0.10625762492418289
1789997636810449700,11.71444970703125,-0.35570597648620605,-0.2487516552209854,0.08845700323581696
1789997636820520700,11.724520751953126,-0.3520902097225189,-0.2970848083496094,0.07070330530405045
1789997636830590500,11.734590576171875,-0.37434446811676025,-0.3140803277492523,0.03371172770857811
1789997636840661500,11.74466162109375,-0.35050544142723083,-0.36889031529426575,0.04898681864142418
1789997636850731500,11.7547314453125,-0.3274919390678406,-0.4078153669834137,0.06210540980100632
1789997636860802600,11.764802490234375,-0.2899187207221985,-0.4454602003097534,0.07012072205543518
1789997636870872600,11.77487255859375,-0.2814076542854309,-0.45362961292266846,0.09922166168689728
1789997636880943600,11.784943603515625,-0.2638973593711853,-0.46751266717910767,0.07985994964838028
1789997636891013600,11.795013671875,-0.25210896134376526,-0.444799542427063,0.0020655414555221796
1789997636901084700,11.805084716796875,-0.22959433495998383,-0.4429856538772583,-0.03919081762433052
1789997636911154400,11.815154541015625,-0.18165399134159088,-0.41109514236450195,-0.030132008716464043
1789997636921225500,11.8252255859375,-0.13572299480438232,-0.36345118284225464,-0.025819284841418266
1789997636931295700,11.835295654296875,-0.11760976910591125,-0.3169638514518738,-0.014395656064152718
1789997636941366800,11.84536669921875,-0.09598942846059799,-0.28666454553604126,0.01929093524813652
1789997636951436500,11.8554365234375,-0.08641036599874496,-0.254002183675766,-0.02935151755809784
1789997636961507600,11.865507568359375,-0.07707225531339645,-0.20025211572647095,-0.04824744537472725
1789997636971577600,11.87557763671875,-0.03587772697210312,-0.15360127389431,-0.05162397399544716
1789997636981648600,11.885648681640625,0.0022225179709494114,-0.11992853879928589,-0.0559161938726902
1789997636991718700,11.89571875,0.033228639513254166,-0.09419307112693787,-0.0024758707731962204
1789997637001789700,11.905789794921875,0.05304575338959694,-0.005222991108894348,-0.020977916195988655
1789997637011859700,11.915859619140624,0.07991382479667664,0.03592684119939804,0.00897320918738842
1789997637021930500,11.925930419921874,0.08903808146715164,0.09892098605632782,-0.001123899593949318
1789997637032000500,11.93600048828125,0.0682028979063034,0.15113461017608643,-0.012252632528543472
1789997637042071600,11.946071533203124,0.07557612657546997,0.1759001463651657,-0.0052101691253483295
1789997637052141600,11.9561416015625,0.11159174144268036,0.2388267070055008,-0.009782595559954643
1789997637062212400,11.96621240234375,0.11049212515354156,0.2984306812286377,0.00604643439874053
1789997637072282600,11.97628271484375,0.11084775626659393,0.35716766119003296,0.04142174497246742
1789997637082353700,11.986353759765626,0.1327514499425888,0.4359639286994934,-0.023719705641269684
1789997637092423700,11.996423583984376,0.12360243499279022,0.5189246535301208,-0.024312525987625122
1789997637102494500,12.006494384765626,0.168471097946167,0.552245557308197,-0.01720108836889267
1789997637112565500,12.0165654296875,0.14728420972824097,0.5562164187431335,0.01695803925395012
1789997637122635500,12.026635498046875,0.15655013918876648,0.5684107542037964,0.045384086668491364
1789997637132705800,12.036705810546875,0.12586736679077148,0.6130017638206482,-0.001869542640633881
1789997637142776600,12.046776611328125,0.15494348108768463,0.6122150421142578,0.02857385203242302
1789997637152847600,12.05684765625,0.15218700468540192,0.5839373469352722,0.07320447266101837
1789997637162917600,12.066917724609375,0.13868318498134613,0.5415001511573792,0.08143177628517151
1789997637172988700,12.07698876953125,0.10895001143217087,0.5333439111709595,0.04796184226870537
1789997637183058400,12.087058349609375,0.06285202503204346,0.5060060024261475,-0.012981134466826916
1789997637193129500,12.09712939453125,0.03824372589588165,0.45740795135498047,-0.010445327498018742
1789997637203199700,12.10719970703125,0.05831171199679375,0.3944969177246094,-0.010845866985619068
1789997637213270800,12.117270751953125,0.038909412920475006,0.327813059091568,-0.01932825893163681
1789997637223340500,12.127340576171875,-0.011310880072414875,0.27416980266571045,-0.05308276042342186
1789997637233411600,12.13741162109375,-0.05459928140044212,0.23182860016822815,-0.041437938809394836
1789997637243481600,12.147481689453125,-0.0930609181523323,0.20593415200710297,-0.011090153828263283
1789997637253552600,12.157552734375,-0.1232454776763916,0.15183217823505402,0.03431922569870949
1789997637263622400,12.167622314453125,-0.1749187856912613,0.1359080672264099,0.06058305501937866
1789997637273693400,12.177693359375,-0.2067231684923172,0.09541050344705582,0.07528912276029587
1789997637283763700,12.187763671875,-0.27938592433929443,0.052032407373189926,0.06348918378353119
1789997637293834800,12.197834716796875,-0.3473416268825531,-0.005672987550497055,0.05692657455801964
1789997637303904500,12.207904541015624,-0.3827957510948181,-0.06582314521074295,0.06504415720701218
1789997637313975600,12.2179755859375,-0.43152785301208496,-0.11740212887525558,0.0799839198589325
1789997637324045600,12.228045654296874,-0.4868220090866089,-0.1538538783788681,0.06190025806427002
1789997637334116400,12.238116455078124,-0.5094602108001709,-0.2013470083475113,0.0528312623500824
1789997637344186600,12.2481865234375,-0.5280059576034546,-0.2405916154384613,0.04304387792944908
1789997637354257700,12.258257568359374,-0.5326400399208069,-0.3101966083049774,0.040390744805336
1789997637364327700,12.26832763671875,-0.5366640686988831,-0.3541584610939026,0.04270343482494354
1789997637374398500,12.2783984375,-0.5534799695014954,-0.41137367486953735,0.004451467655599117
1789997637384468500,12.288468505859376,-0.5570270419120789,-0.5057912468910217,0.024038750678300858
1789997637394539500,12.29853955078125,-0.569972813129425,-0.5891256332397461,-0.0041566225700080395
