time,seconds_elapsed,z,y,x
1789141117388456700,1.540456787109375,0.1763967126607895,-0.026470061391592,0.0031093542929738
1789141117398428700,1.5504287109375,0.2028003633022308,-0.0253456719219684,-0.0098474565893411
1789141117408401700,1.560401611328125,0.2105780392885208,-0.0090963449329137,-0.0052610570564866
1789141117418374000,1.570373779296875,0.2022330164909362,-0.0107139497995376,0.008629192598164
1789141117428345600,1.580345703125,0.2476177364587783,-0.0080438125878572,-0.048353761434555
1789141117438318800,1.59031884765625,0.2618704438209533,0.0083737755194306,-0.0295478515326976
1789141117448290800,1.600290771484375,0.2469022125005722,0.0100428191944956,0.0288975741714239
1789141117458263600,1.610263671875,0.2397454977035522,0.0187958292663097,0.0216063726693391
1789141117468235800,1.62023583984375,0.2431635111570358,0.021309956908226,-0.0008977960096672
1789141117478207700,1.630207763671875,0.2067485004663467,0.0176760740578174,0.034070573747158
1789141117488180700,1.6401806640625,0.2100145667791366,0.0175242125988006,0.0639119744300842
1789141117498152700,1.650152587890625,0.2488455772399902,0.0312653221189975,0.0127108413726091
1789141117508125700,1.660125732421875,0.2574554085731506,0.0594744458794593,-0.0457671508193016
1789141117518097700,1.67009765625,0.2535112798213959,0.0520857721567153,-0.0308609046041965
1789141117528069600,1.680069580078125,0.225199744105339,0.0769537463784217,-0.0189851988106966
1789141117538043000,1.69004296875,0.2354036569595337,0.0815873816609382,-0.0195995904505252
1789141117548014600,1.7000146484375,0.2873235940933227,0.115113541483879,-0.0428540669381618
1789141117557986800,1.70998681640625,0.3258435726165771,0.1143074035644531,-0.0177071709185838
1789141117567959800,1.719959716796875,0.2936027944087982,0.1114810779690742,0.0395434647798538
1789141117577931500,1.729931640625,0.2822596132755279,0.1116664335131645,0.0611358396708965
1789141117587904800,1.73990478515625,0.2928244471549988,0.1204054355621337,0.0400351583957672
1789141117597876700,1.749876708984375,0.3059783279895782,0.1493952721357345,-0.0068175657652318
1789141117607848700,1.7598486328125,0.2469088733196258,0.1684233099222183,0.0220203660428524
1789141117617821700,1.76982177734375,0.2424451559782028,0.1542893797159195,0.0200317837297916
1789141117627793700,1.779793701171875,0.2726365327835083,0.1947214603424072,-0.0077377529814839
1789141117637765600,1.789765625,0.2349176704883575,0.186442494392395,0.0354219675064086
1789141117647738600,1.799738525390625,0.2324639409780502,0.1415183395147323,0.0226598791778087
1789141117657710800,1.8097109375,0.2279504239559173,0.1389917880296707,0.0177428852766752
1789141117667683600,1.81968359375,0.1731602549552917,0.1431359350681305,-0.0389060713350772
1789141117677655800,1.82965576171875,0.0918331891298294,0.1197683066129684,-0.0204309206455945
1789141117687627800,1.839627685546875,0.0799580439925193,0.1288325488567352,-0.0389354377985
1789141117697600500,1.8496005859375,0.045154258608818,0.1218132451176643,-0.0050533721223473
1789141117707572700,1.85957275390625,0.0501485392451286,0.0729801654815673,0.043660894036293
1789141117717545700,1.869545654296875,0.0316797867417335,0.0848416164517402,0.0478918589651584
1789141117727517700,1.879517578125,0.008139138109982,0.0665674582123756,0.0613775067031383
1789141117737489700,1.88948974609375,0.0211920887231826,0.065293401479721,0.0633301436901092
1789141117747462700,1.899462646484375,-0.0092137530446052,0.0655333548784256,0.0515376590192317
1789141117757434600,1.9094345703125,-0.0768644362688064,0.0562405213713645,0.0590357892215251
1789141117767406600,1.919406494140625,-0.0552232898771762,0.0568361580371856,0.0052132843993604
1789141117777379800,1.9293798828125,-0.0470915958285331,0.0828645601868629,-0.0420136153697967
1789141117787351600,1.9393515625,-0.0658959746360778,0.0623102486133575,0.003491592593491
1789141117797324500,1.949324462890625,-0.0078526446595788,0.0554185137152671,-0.030787019059062
1789141117807296800,1.959296875,-0.0029373094439506,0.0619265176355838,-0.0031002503819763
1789141117817268700,1.969268798828125,-0.0393214151263237,0.0757203549146652,0.0427050553262233
1789141117827241700,1.97924169921875,-0.0487842224538326,0.0793376863002777,0.0206663720309734
1789141117837213700,1.989213623046875,-0.0508388504385948,0.0826527923345565,-0.0003145434311591
1789141117847185700,1.999185546875,-0.005983511917293,0.0921859294176101,-0.0081243989989161
1789141117857158700,2.00915869140625,0.0435960218310356,0.0998297333717346,0.005811390466988
1789141117867131000,2.019130859375,0.0259104315191507,0.0891895070672035,0.0163322817534208
1789141117877103900,2.029103759765625,0.0067343413829803,0.0958865582942962,0.0152177494019269
1789141117887075600,2.03907568359375,0.0055089779198169,0.0910525843501091,0.0320448130369186
1789141117897047800,2.0490478515625,-0.0095099192112684,0.0657770559191703,0.0002088532783091
1789141117907020800,2.059020751953125,-0.0226655825972557,0.0629613101482391,-1.50535488501e-05
1789141117916992800,2.06899267578125,-0.0723505839705467,0.0890914499759674,-0.0179498456418514
1789141117926965800,2.0789658203125,-0.076824240386486,0.021559864282608,-0.0098155820742249
1789141117936937700,2.088937744140625,-0.0911845415830612,-0.0109362937510013,0.0181031338870525
1789141117946909700,2.09890966796875,-0.0821103677153587,-0.0526847131550312,0.0347498878836631
1789141117956882700,2.108882568359375,-0.0917427539825439,-0.0670103877782821,0.0525504574179649
1789141117966855000,2.11885498046875,-0.1493106037378311,-0.0568836145102977,-0.0167710166424512
1789141117976826600,2.12882666015625,-0.1966243237257003,-0.0946754664182663,-0.0063165118917822
1789141117986799600,2.138799560546875,-0.2208018153905868,-0.0680878981947898,-0.0612073242664337
1789141117996771800,2.148771728515625,-0.1940620690584182,-0.0960398986935615,-0.0647088512778282
1789141118006744600,2.15874462890625,-0.1852092742919922,-0.0731599926948547,-0.0767220258712768
1789141118016716800,2.168716796875,-0.1299563944339752,-0.0896361693739891,-0.0411200933158397
1789141118026688800,2.178688720703125,-0.1177712082862854,-0.0688148140907287,0.0067162974737584
1789141118036661500,2.18866162109375,-0.1193920075893402,-0.0940741002559661,0.0439384989440441
1789141118046633700,2.1986337890625,-0.1199956536293029,-0.0883316695690155,0.0798107162117958
1789141118056605700,2.208605712890625,-0.1304139345884323,-0.0774023234844207,0.0607078596949577
1789141118066578700,2.21857861328125,-0.1313902735710144,-0.0802810192108154,0.0560774132609367
1789141118076550700,2.228550537109375,-0.1061437800526619,-0.0440023653209209,0.0402712896466255
1789141118086523600,2.238523681640625,-0.0723112747073173,-0.0306712705641984,0.014930797740817
1789141118096495600,2.24849560546875,-0.050164695829153,0.0033101327717304,-0.0171887893229722
1789141118106467800,2.2584677734375,0.0170969404280185,0.0442268103361129,-0.0525400303304195
1789141118116440800,2.26844091796875,0.0330812335014343,0.0263162516057491,-0.0087432796135544
1789141118126412500,2.27841259765625,0.0829647034406662,0.0236043222248554,-0.0338497161865234
1789141118136385800,2.2883857421875,0.0869261547923088,0.0675334334373474,-0.0147127732634544
1789141118146358300,2.298358154296875,0.0767677128314971,0.0670842006802558,0.0257791634649038
1789141118156330200,2.308330322265625,0.0754222869873046,0.0808096006512641,0.0242286715656518
1789141118166303500,2.318303466796875,0.0918477624654769,0.0820329636335372,0.0072757117450237
1789141118176275200,2.328275146484375,0.0725656747817993,0.0742133855819702,0.0357494316995143
1789141118186247400,2.338247314453125,0.0492295958101749,0.0725933760404586,0.0155430184677243
1789141118196220400,2.348220458984375,0.0243988148868083,0.0667184442281723,0.0382664427161216
1789141118206192000,2.358192138671875,0.0486653819680213,0.0706748664379119,0.0295249819755554
1789141118216165400,2.368165283203125,0.0691386982798576,0.0471490323543548,0.0181588772684335
1789141118226137300,2.378137451171875,0.0726416483521461,0.0432088151574134,0.0513404682278633
1789141118236109300,2.388109375,0.0482460297644138,0.0351950973272323,0.0569775812327861
1789141118246082300,2.398082275390625,0.0073276259936392,0.0291585084050893,0.0288354288786649
1789141118256054500,2.408054443359375,-0.0088172554969787,0.0483111664652824,-0.0047723334282636
1789141118266026200,2.418026123046875,-0.0093130460008978,0.0210211481899023,-0.0256204158067703
1789141118275999200,2.427999267578125,-0.0306383073329925,0.0176168289035558,-0.0266883447766304
1789141118285971500,2.437971435546875,-0.0568121783435344,0.0043433276005089,-0.0068426951766014
1789141118295944400,2.4479443359375,-0.035084780305624,0.0009621777571737,0.0032229884527623
1789141118305916400,2.45791650390625,-0.0305522680282592,-0.0091759953647851,0.0265912562608718
1789141118315888400,2.467888427734375,-0.0406091623008251,-0.0681492984294891,0.06931022554636
1789141118325861400,2.477861328125,-0.0744576901197433,-0.0530051440000534,0.0109477145597338
1789141118335833300,2.487833251953125,-0.1156160458922386,-0.0477153062820434,-0.0086488900706171
1789141118345805300,2.497805419921875,-0.108108565211296,-0.0394967086613178,-0.0322777815163135
1789141118355778600,2.507778564453125,-0.1076710075139999,-0.0315959081053733,-0.0347071178257465
1789141118365750300,2.517750244140625,-0.0958839133381843,-0.0217110235244035,-0.0833348259329795
1789141118375723300,2.52772314453125,-0.0945342257618904,-0.0446957014501094,-0.0852371230721473
1789141118385695500,2.537695556640625,-0.1048366576433181,-0.0013006492517888,-0.054672684520483
1789141118395667200,2.547667236328125,-0.0460367165505886,-0.0248025134205818,-0.0326462127268314
1789141118405640400,2.557640380859375,-0.0351415574550628,-0.0143418088555336,-0.0215386375784873
1789141118415612400,2.5676123046875,-0.0595699325203895,-0.0236476920545101,-0.0210462193936109
1789141118425584400,2.57758447265625,-0.1134750843048095,-0.040082961320877,0.0233930759131908
1789141118435557400,2.587557373046875,-0.1348144710063934,-0.0570243932306766,0.0444059483706951
1789141118445529300,2.597529296875,-0.1361484229564666,-0.0129427090287208,0.0237274095416069
1789141118455502300,2.60750244140625,-0.1277011483907699,-0.033532403409481,0.0003251478774473
1789141118465474300,2.617474365234375,-0.1482163518667221,-0.0472891777753829,0.0468057356774807
1789141118475446300,2.6274462890625,-0.1295699626207351,-0.0389691963791847,0.0108261629939079
1789141118485419300,2.637419189453125,-0.1352240294218063,-0.0401807390153408,-0.0318396016955375
1789141118495391500,2.6473916015625,-0.150363028049469,-0.0259669162333011,-0.0621743351221084
1789141118505363200,2.65736328125,-0.1591332554817199,-0.0269817262887954,-0.0284422431141138
1789141118515336200,2.667336181640625,-0.1624872386455536,-0.0151522308588027,-0.0520865879952907
1789141118525308400,2.677308349609375,-0.1503863185644149,-0.0224022846668958,-0.0123223019763827
1789141118535281400,2.687281494140625,-0.1363794356584549,-0.0381527505815029,-0.016269639134407
1789141118545253400,2.69725341796875,-0.0860670357942581,-0.0567034035921096,-0.0547103323042392
1789141118555225300,2.707225341796875,-0.1539353132247924,-0.0572189912199974,0.0335372388362884
1789141118565198300,2.7171982421875,-0.2001929432153701,-0.0620494224131107,0.021593440324068
1789141118575170300,2.72717041015625,-0.1810251176357269,-0.0798199027776718,0.0141933131963014
1789141118585143300,2.737143310546875,-0.189133808016777,-0.061277724802494,0.0066153416410088
1789141118595115500,2.747115478515625,-0.1378059089183807,-0.0788735002279281,0.0402832925319671
1789141118605087200,2.757087158203125,-0.1365104168653488,-0.050121184438467,0.010166497901082
1789141118615060200,2.767060302734375,-0.1387573331594467,-0.0663632750511169,0.0073387529700994
1789141118625032400,2.777032470703125,-0.1095877587795257,-0.0823732838034629,0.00736247561872
1789141118635004200,2.787004150390625,-0.0861580669879913,-0.0734572932124137,0.0108621353283524
1789141118644977400,2.796977294921875,-0.1238558664917945,-0.0862286239862442,-0.0033602679613977
1789141118654949400,2.806949462890625,-0.1166996881365776,-0.1171596422791481,0.0034254665952175
1789141118664922000,2.816922119140625,-0.1017045825719833,-0.0886903628706932,-0.0394136682152748
1789141118674894300,2.826894287109375,-0.1081920489668846,-0.0988103747367858,-0.0221814177930355
1789141118684866300,2.8368662109375,-0.1025335863232612,-0.0917944088578224,0.0208404455333948
1789141118694839300,2.84683935546875,-0.0423285700380802,-0.0943928584456443,-0.0200582519173622
1789141118704811300,2.856811279296875,-0.0251790732145309,-0.087392508983612,0.0099608823657035
1789141118714783500,2.866783447265625,0.0040073059499263,-0.0786834359169006,0.010541183874011
1789141118724756200,2.876756103515625,-0.0006688591092824,-0.0252122692763805,-0.0027441657148301
1789141118734728400,2.886728515625,0.0265417229384183,-0.0183138847351074,0.0188569985330104
1789141118744701400,2.896701416015625,0.0586613416671752,-0.0029259859584271,0.0704986006021499
1789141118754673200,2.906673095703125,0.1072869300842285,0.0252116415649652,0.018509704619646
1789141118764645400,2.916645263671875,0.1459203958511352,0.0139886103570461,0.0148857906460762
1789141118774618400,2.926618408203125,0.1184634715318679,0.0242087561637163,0.0390225499868392
1789141118784590300,2.93659033203125,0.1291650831699371,0.0349643118679523,0.0292524993419647
1789141118794562300,2.946562255859375,0.0934534221887588,0.0551875568926334,-0.0155405383557081
1789141118804535300,2.956535400390625,0.0821089297533035,0.0158038008958101,0.0105505418032407
1789141118814507300,2.96650732421875,0.092485673725605,0.0272063929587602,-0.0363237559795379
1789141118824480300,2.976480224609375,0.1027052849531173,-0.0049262442626059,-0.0113318534567952
1789141118834452500,2.986452392578125,0.0683603659272193,-0.0134113412350416,0.0263926219195127
1789141118844424200,2.996424072265625,0.040411576628685,-0.0334988608956337,0.0126979826018214
1789141118854397200,3.006397216796875,-0.0310895070433616,-0.0578800998628139,0.0497441515326499
1789141118864369400,3.016369384765625,-0.0574607588350772,-0.0984087362885475,0.0214750003069639
1789141118874341400,3.02634130859375,-0.0661216229200363,-0.0855041220784187,0.0091703971847891
1789141118884314400,3.036314453125,-0.0823882073163986,-0.086086556315422,0.0145148281008005
1789141118894286300,3.046286376953125,-0.069718487560749,-0.1060192510485649,0.0171492267400026
1789141118904259300,3.05625927734375,-0.030046209692955,-0.0731725096702575,-0.0195120945572853
1789141118914231300,3.066231201171875,-0.0671443045139312,-0.0649705082178115,0.0103147756308317
1789141118924203500,3.07620361328125,-0.0423026978969574,-0.0638484507799148,-0.0237246230244636
1789141118934176500,3.086176513671875,0.00286983884871,-0.0594411827623844,0.0054524359293282
1789141118944148200,3.096148193359375,-0.0008830465376377,-0.0414423421025276,0.0273892525583505
1789141118954121500,3.10612158203125,-0.0002244468778371,-0.0518483780324459,0.0543391145765781
1789141118964093400,3.116093505859375,0.039637204259634,-0.0238480363041162,0.019275726750493
1789141118974065400,3.1260654296875,0.0793342813849449,-0.021630423143506,0.0417251102626323
1789141118984038400,3.136038330078125,0.0838314667344093,0.0255962442606687,-0.0277222786098718
1789141118994010400,3.14601025390625,0.0601652860641479,0.0315619893372058,-0.0324440598487854
1789141119003982300,3.155982421875,0.0733448788523674,0.0339542254805564,-0.0364837311208248
1789141119013955300,3.165955322265625,0.1146289408206939,0.0386520437896251,-0.0350562781095504
1789141119023927600,3.175927490234375,0.147169753909111,0.070219412446022,-0.0045837061479687
1789141119033900300,3.185900390625,0.1811239868402481,0.0804241150617599,-0.0140866637229919
1789141119043872300,3.195872314453125,0.1833344101905822,0.0571542307734489,0.0182037837803363
1789141119053844500,3.205844482421875,0.1541815847158432,0.058390200138092,0.0439658723771572
1789141119063817200,3.215817138671875,0.1005504131317138,0.0475616306066513,0.0229786392301321
1789141119073789400,3.22578955078125,0.1102597713470459,0.02302086353302,0.0003462982131168
1789141119083761400,3.235761474609375,0.1559968590736389,0.0436205491423606,-0.0319864302873611
1789141119093734100,3.245734130859375,0.1934361010789871,0.0574862957000732,-0.0770266130566597
1789141119103706400,3.255706298828125,0.1776457726955413,0.0616663210093975,-0.08664121478796
1789141119113679400,3.265679443359375,0.1308441907167434,0.0352586843073368,-0.0680598095059394
1789141119123651300,3.2756513671875,0.1262988448143005,0.0200492907315492,-0.0660636872053146
1789141119133623300,3.285623291015625,0.1539176851511001,0.0315861031413078,-0.030147498473525
1789141119143596300,3.29559619140625,0.1196740120649337,0.0154240448027849,-0.0548676699399948
1789141119153568000,3.305568115234375,0.0939089953899383,-0.0318382754921913,-0.0560061708092689
1789141119163540200,3.315540283203125,0.062062568962574,0.0106969848275184,-0.0873391553759574
1789141119173513200,3.32551318359375,0.0509318895637989,-0.0064330007880926,-0.0744614452123642
1789141119183485000,3.33548486328125,0.058186337351799,-0.0035048548597842,-0.0981755629181861
1789141119193458200,3.345458251953125,0.1125246807932853,-0.054091066122055,-0.0119032533839344
1789141119203430100,3.35543017578125,0.1183014512062072,-0.0123672904446721,-0.0089033665135502
1789141119213402000,3.365402099609375,0.1088083460927009,-0.0621225982904434,0.0333977527916431
1789141119223375000,3.375375,0.0171784069389104,-0.0403809770941734,0.059696540236473
1789141119233347000,3.38534716796875,0.0099356733262538,-0.0379492491483688,0.0500737391412258
1789141119243319000,3.395319091796875,-0.0032888958230614,-0.0046997121535241,0.0203889813274145
1789141119253292000,3.4052919921875,0.0107536856085062,-0.0093996590003371,0.0114644635468721
1789141119263264300,3.41526416015625,0.0050626187585294,0.0056470376439392,0.0119593543931841
1789141119273237000,3.425237060546875,0.0649129003286361,0.0057479715906083,-0.0313356555998325
1789141119283209000,3.435208984375,0.1008214801549911,0.0414647944271564,-0.0411682352423667
1789141119293181200,3.44518115234375,0.1276434957981109,0.0435971841216087,-0.0229918956756591
1789141119303154000,3.45515380859375,0.1528513133525848,0.0529661662876606,0.0058822911232709
1789141119313126100,3.465126220703125,0.1351218521595001,0.0711632743477821,0.0045389924198389
1789141119323098000,3.47509814453125,0.1274556666612625,0.0896329209208488,0.0076243951916694
1789141119333071000,3.485071044921875,0.0986695513129234,0.0961363613605499,0.0375149175524711
1789141119343043000,3.49504296875,0.0898370221257209,0.0823197215795517,0.0465833209455013
1789141119353016000,3.50501611328125,0.1352713406085968,0.070613794028759,0.0458442941308021
1789141119362988000,3.514988037109375,0.1316511183977127,0.1034979224205017,0.0436542071402072
1789141119372960000,3.5249599609375,0.0955706238746643,0.0778367668390274,0.0637751892209053
1789141119382933200,3.534933349609375,0.0849461629986763,0.1061399653553962,0.0340654961764812
1789141119392905000,3.544905029296875,0.0611068755388259,0.1095924898982048,0.0082474797964096
1789141119402877200,3.554877197265625,0.0634024366736412,0.0910822600126266,-0.0109365452080965
1789141119412850200,3.56485009765625,0.0800655707716941,0.0974514782428741,0.0256329178810119
1789141119422822000,3.57482177734375,0.0762926712632179,0.0885583609342575,0.0808632671833038
1789141119432795100,3.584795166015625,0.0850816369056701,0.0807592943310737,0.0564537942409515
1789141119442767000,3.59476708984375,0.0397338010370731,0.0736049562692642,0.0956003218889236
1789141119452739000,3.604739013671875,0.0002622902393341,0.0734249204397201,0.1056425720453262
1789141119462712000,3.614712158203125,0.0344822332262992,0.0469813868403434,0.0864384174346923
1789141119472684000,3.62468408203125,0.025401122868061,0.0644171014428138,0.0436044037342071
1789141119482656000,3.634656005859375,0.0018058586865663,0.0578278563916683,-0.0301578715443611
1789141119492629000,3.64462890625,-0.0357401855289936,0.0361934006214141,0.0136473998427391
1789141119502601200,3.654601318359375,0.0095706181600689,0.0530656538903713,-0.0212428234517574
1789141119512574200,3.66457421875,0.0185763649642467,0.0757720321416854,-0.0252538118511438
1789141119522546200,3.674546142578125,-0.0455317124724388,0.0706483945250511,0.0122552886605262
1789141119532518100,3.68451806640625,-0.0384242683649063,0.0577555038034915,0.0164753347635269
1789141119542491100,3.6944912109375,-0.0585919432342052,0.0525102093815803,0.0087184021249413
1789141119552463000,3.704463134765625,-0.0350075215101242,0.034181535243988,0.0135578978806734
1789141119562435000,3.71443505859375,-0.0662682875990867,0.0403118059039115,0.0036556182894855
1789141119572408300,3.724408203125,-0.0768551528453826,0.0074052563868463,-0.0170105118304491
1789141119582380000,3.734380126953125,-0.1091496348381042,0.0088973939418792,0.0197048746049404
1789141119592353000,3.74435302734375,-0.1295081675052642,0.0023489468730986,0.0151109229773283
1789141119602325200,3.7543251953125,-0.1043162867426872,-0.0423782169818878,0.0222733579576015
1789141119612297000,3.764296875,-0.1149891689419746,-0.0021415827795863,-0.0284534692764282
1789141119622270200,3.774270263671875,-0.1177878379821777,0.0010939524509012,0.0020081498660147
1789141119632242200,3.7842421875,-0.1340802609920501,0.011824095621705,-0.0188020579516887
1789141119642214100,3.794214111328125,-0.1589892208576202,-0.0075168353505432,0.0062308032065629
1789141119652187100,3.804187255859375,-0.1285740584135055,0.0272251646965742,-0.0671709701418876
1789141119662159000,3.8141591796875,-0.1008296236395835,0.0141959059983491,-0.0535869374871254
1789141119672132000,3.824132080078125,-0.1032616272568702,0.0126286353915929,-0.039458867162466
1789141119682104000,3.83410400390625,-0.0854047760367393,-0.0093923136591911,-0.0294132139533758
1789141119692076300,3.844076171875,-0.0994364395737648,-0.0155266392976045,-0.0026420536451041
1789141119702049000,3.854049072265625,-0.1290726363658905,-0.0382572524249553,-0.0071731563657522
1789141119712021000,3.86402099609375,-0.1675941944122314,-0.0603122189640998,-0.0018337843939661
1789141119721993200,3.8739931640625,-0.1902330815792083,-0.096804954111576,-0.0230857115238904
1789141119731966000,3.883966064453125,-0.2523404061794281,-0.1100896000862121,-0.009054047986865
1789141119741938200,3.893938232421875,-0.274617850780487,-0.122880145907402,-0.0127575192600488
1789141119751911200,3.9039111328125,-0.2838401198387146,-0.1420629024505615,-0.018625795841217
1789141119761883100,3.913883056640625,-0.2625890970230102,-0.159617468714714,-0.0303361825644969
1789141119771855000,3.923855224609375,-0.2798902988433838,-0.1542349606752395,-0.0073626898229122
1789141119781828000,3.933828125,-0.2506285607814789,-0.1543766260147094,-0.0317432507872581
1789141119791800000,3.943800048828125,-0.2602292597293854,-0.1185397952795028,-0.0442728921771049
1789141119801772000,3.95377197265625,-0.2533770203590393,-0.1387792229652404,0.0452437326312065
1789141119811745300,3.963745361328125,-0.2131308168172836,-0.1038028597831726,-0.0057163881137967
1789141119821717000,3.973717041015625,-0.1728848665952682,-0.0963313430547714,-0.0420550629496574
1789141119831690000,3.98368994140625,-0.0921426117420196,-0.0786817744374275,0.0013099848292768
1789141119841662200,3.993662109375,-0.1325044184923172,-0.0205889102071523,-0.0018495894037187
1789141119851634000,4.003634033203125,-0.0909268856048584,-0.0595070160925388,-0.0379636511206626
1789141119861607200,4.013607177734375,-0.0757504925131797,-0.0006091652903705,-0.0208613090217113
1789141119871579100,4.0235791015625,-0.0628410875797271,0.0207488536834716,-0.003455952508375
1789141119881551000,4.033551025390625,-0.0327307544648647,0.009531739167869,0.0226544383913278
1789141119891524000,4.043524169921875,-0.0471821315586566,0.0195875689387321,-0.0115067278966307
1789141119901496000,4.05349609375,-0.0784091651439666,0.0094153694808483,0.0137405153363943
1789141119911469000,4.063468994140625,-0.0579134747385978,0.0187185890972614,0.0139623563736677
1789141119921441000,4.07344091796875,-0.0524072535336017,0.007536232471466,0.0595666505396366
1789141119931413200,4.083413330078125,-0.0545859858393669,-0.0156774781644344,0.0165683161467313
1789141119941386000,4.093385986328125,-0.0038194200024008,-0.0363446287810802,0.0023131766356527
1789141119951358000,4.10335791015625,-0.0533347763121128,-0.0036266301758587,0.0449988543987274
1789141119961330200,4.113330078125,-0.0638573542237281,-0.0462115220725536,0.0943543836474418
1789141119971303000,4.123302978515625,-0.0388111248612403,-0.0490147620439529,0.0240085795521736
1789141119981275100,4.133275146484375,-0.0530770644545555,-0.0874833986163139,0.0402311719954013
1789141119991248100,4.143248046875,-0.0835558772087097,-0.0678817331790924,-0.0168049540370702
1789141120001220000,4.15322021484375,-0.0440004765987396,-0.0976287126541137,-0.0215696152299642
1789141120011192000,4.163192138671875,-0.0792804360389709,-0.0764531195163726,-0.0301633700728416
1789141120021165000,4.1731650390625,-0.0685742646455764,-0.0968246981501579,-0.0259462539106607
1789141120031137000,4.183136962890625,-0.0911192521452903,-0.0991288647055625,-0.027793688699603
1789141120041109000,4.19310888671875,-0.1165092661976814,-0.1034430339932441,-0.0004795265849679
1789141120051082200,4.203082275390625,-0.0644553899765014,-0.095965676009655,-0.0015586394583806
1789141120061054000,4.213053955078125,-0.005840734578669,-0.1258589327335357,0.0286775082349777
1789141120071026200,4.223026123046875,-0.0144544625654816,-0.1343634724617004,0.0294168032705783
1789141120080999200,4.232999267578125,-0.0185226127505302,-0.1319590210914611,0.0649018138647079
1789141120090971000,4.242970947265625,-0.0112931951880455,-0.0960129871964454,0.0278188996016979
1789141120100944100,4.252944091796875,-0.0131598711013793,-0.131713181734085,0.0506255477666854
1789141120110916000,4.262916015625,0.0240687243640422,-0.1012191921472549,0.0192865319550037
1789141120120888000,4.27288818359375,0.0606073588132858,-0.0891036838293075,0.0032594939693808
1789141120130861000,4.282861083984375,0.0524018928408622,-0.0852716639637947,-0.0097822714596986
1789141120140833000,4.2928330078125,0.0739838182926178,-0.0913386046886444,-0.0121255973353981
1789141120150805500,4.302805419921875,0.0565371811389923,-0.0576251186430454,-0.0284481104463338
1789141120160778500,4.312778564453125,0.0528012104332447,-0.0855163037776947,-0.039678044617176
1789141120170750700,4.322750732421875,0.0642669200897216,-0.0649756118655204,0.0215016901493072
1789141120180723700,4.3327236328125,0.0763409063220024,-0.047638464719057,0.0202310606837272
1789141120190695400,4.3426953125,0.0708212405443191,-0.0499737933278083,0.0161708034574985
1789141120200667600,4.352667724609375,0.0904152393341064,-0.0577598288655281,0.0550730638206005
1789141120210640600,4.362640625,0.096454232931137,-0.0169804394245147,-0.0017569317715242
1789141120220612600,4.372612548828125,0.0978419482707977,-0.0120845455676317,-0.0354665406048297
1789141120230584600,4.38258447265625,0.1028287187218666,0.0070747672580182,-0.0254107099026441
1789141120240557600,4.3925576171875,0.1220020726323127,0.0302704200148582,-0.0341371856629848
1789141120250529500,4.402529541015625,0.175617903470993,0.0290829166769981,-0.0367191210389137
1789141120260502500,4.41250244140625,0.1863606721162796,0.0256797485053539,-0.0166168566793203
1789141120270474800,4.422474853515625,0.180636465549469,0.0133538404479622,-0.0100915795192122
1789141120280446500,4.432446533203125,0.1589042544364929,0.0242790356278419,-0.0239149648696184
1789141120290419500,4.44241943359375,0.149242028594017,-0.0087721236050128,-0.0040230164304375
1789141120300391700,4.4523916015625,0.1137268915772438,-0.0077546844258904,0.0212730374187231
1789141120310363600,4.46236376953125,0.1223379522562027,0.0049038524739444,-0.0441123582422733
1789141120320336600,4.472336669921875,0.1082641556859016,-0.0197541322559118,-0.0296737290918827
1789141120330308600,4.48230859375,0.1079397872090339,-0.0209592133760452,-0.0616846568882465
1789141120340281600,4.492281494140625,0.1180955097079277,-0.0363167077302932,-0.0565431788563728
1789141120350253600,4.502253662109375,0.115266166627407,-0.0272824671119451,-0.0641158744692802
1789141120360225800,4.512225830078125,0.1042160242795944,-0.0289380680769681,-0.0286008324474096
1789141120370198500,4.522198486328125,0.1358767449855804,-0.0334489271044731,-0.0002035460784099
1789141120380170500,4.53217041015625,0.1384413689374923,-0.0252373218536376,0.0156360194087028
1789141120390142700,4.542142822265625,0.1285269558429718,-0.0307556577026844,0.0302080363035202
1789141120400115500,4.552115478515625,0.1037977337837219,-0.02828199416399,0.0556015074253082
1789141120410087700,4.562087646484375,0.098046638071537,0.0039523751474916,0.0554747432470321
1789141120420060700,4.572060791015625,0.1285099983215332,0.0431363396346569,0.0433767810463905
1789141120430032400,4.582032470703125,0.1651196628808975,0.0613880455493927,0.0134551022201776
1789141120440004600,4.592004638671875,0.1910267323255539,0.0404799543321132,-0.0020956681109964
1789141120449977600,4.6019775390625,0.2157142460346222,0.0570727810263633,-0.0019238942768424
1789141120459949600,4.611949462890625,0.2184993773698806,0.1100270003080368,0.0041057919152081
1789141120469921500,4.621921630859375,0.2332783341407776,0.0959151834249496,0.0525899715721607
1789141120479894500,4.63189453125,0.2445700168609619,0.0830080658197403,0.0186772029846906
1789141120489866500,4.641866455078125,0.1863868683576584,0.0867279693484306,0.0522609949111938
1789141120499839500,4.651839599609375,0.1810657978057861,0.0744495615363121,0.0371458120644092
1789141120509811700,4.661811767578125,0.1405702978372573,0.0713363289833068,0.0425751954317092
1789141120519783400,4.671783447265625,0.1084654629230499,0.0454806238412857,0.0403012298047542
1789141120529756700,4.681756591796875,0.1098937168717384,0.0161997023969888,0.0100317392498254
1789141120539728600,4.691728759765625,0.1076193526387214,-0.0173297226428985,0.0135341063141822
1789141120549700600,4.70170068359375,0.0721425861120224,-0.0118998037651181,0.0192101001739501
1789141120559673600,4.711673583984375,0.0286701321601867,-0.0357091389596462,-0.0091111389920115
1789141120569645600,4.7216455078125,-0.0514265708625316,-0.0497831478714942,0.0196219719946384
1789141120579618800,4.731618896484375,-0.0705881267786026,-0.0352972336113452,-0.0336616784334182
1789141120589590500,4.741590576171875,-0.0536938346922397,-0.0636463165283203,0.0076958825811743
1789141120599562800,4.751562744140625,-0.0218693669885396,-0.0280407443642616,0.0338732749223709
1789141120609535700,4.76153564453125,0.0178732518106699,-0.0606343746185302,0.059082493185997
1789141120619507500,4.771507568359375,0.0520582757890224,-0.0402269251644611,0.0064963167533278
1789141120629479700,4.781479736328125,0.0567813925445079,-0.0216668248176574,0.0259352624416351
1789141120639452700,4.79145263671875,0.0171866491436958,0.0198116116225719,0.0427586995065212
1789141120649424600,4.801424560546875,0.0260917264968156,0.0157718621194362,0.004408115055412
1789141120659396600,4.811396728515625,0.0254538599401712,0.0682863891124725,-0.0236813109368085
1789141120669369600,4.82136962890625,0.0098040606826543,0.0898531973361969,-0.0503914840519428
1789141120679341600,4.831341552734375,0.0741442441940307,0.0817483514547348,-0.0482914894819259
1789141120689314600,4.841314453125,0.0999726429581642,0.1147654205560684,-0.0631151720881462
1789141120699286800,4.851286865234375,0.1277393102645874,0.1156388446688652,-0.056582573801279
1789141120709258500,4.861258544921875,0.1041849926114082,0.1150231212377548,0.0074560632929205
1789141120719231500,4.8712314453125,0.0967209264636039,0.0791589468717575,0.0021587549708783
1789141120729203700,4.88120361328125,0.0825052410364151,0.0573021173477172,-0.0048450920730829
1789141120739175700,4.89117578125,0.0268692430108785,0.02794542722404,0.0451859608292579
1789141120749148700,4.901148681640625,-0.0348122343420982,0.0116724502295255,0.062563881278038
1789141120759120600,4.91112060546875,-0.0683228597044944,-0.0177107062190771,0.0198036581277847
1789141120769093600,4.92109375,-0.0972096398472786,-0.0474875122308731,-0.0014105499722063
1789141120779065600,4.931065673828125,-0.0900685787200927,-0.0497386939823627,-0.0652778148651123
1789141120789037800,4.941037841796875,-0.0911780521273613,-0.0605181045830249,-0.0920361876487732
1789141120799010600,4.951010498046875,-0.0336769446730613,-0.0491101145744323,-0.1306571066379547
1789141120808982500,4.960982421875,-0.0444989688694477,-0.0484672263264656,-0.083492524921894
1789141120818954800,4.970954833984375,-0.0109796226024627,-0.0795566961169242,-0.0360118225216865
1789141120828927500,4.980927490234375,0.0123533960431814,-0.0304205827414989,0.0018524681217968
1789141120838899700,4.990899658203125,0.0127602200955152,-0.0254991631954908,0.0494132526218891
1789141120848872700,5.000872802734375,-0.01843605004251,-0.0189094375818967,0.0757351368665695
1789141120858844400,5.010844482421875,-0.0197162106633186,-0.0019987246487289,0.0434915795922279
1789141120868816600,5.020816650390625,-0.0141661828383803,0.016438340768218,-0.0149964950978755
1789141120878789600,5.03078955078125,0.0192877855151891,0.040896002203226,-0.0715710371732711
1789141120888761600,5.04076171875,0.0739398449659347,0.0533113926649093,-0.0456057451665401
1789141120898733600,5.050733642578125,0.1219440177083015,0.0850290060043335,-0.0563436858355999
1789141120908706600,5.06070654296875,0.1717331409454345,0.1298976689577102,-0.0686653405427932
1789141120918678500,5.070678466796875,0.1783905178308487,0.1490900069475174,-0.0692375302314758
1789141120928651500,5.080651611328125,0.2142515778541565,0.1335989236831665,-0.028652025386691
1789141120938623700,5.090623779296875,0.229429230093956,0.1690499931573867,-0.0171345490962266
1789141120948595500,5.100595458984375,0.1776605695486068,0.1630975753068924,0.000927808927372
1789141120958568400,5.110568359375,0.2083813846111297,0.1664388477802276,0.0035521383397281
1789141120968540700,5.120540771484375,0.2287116944789886,0.1993408650159835,0.0561935119330883
1789141120978512600,5.1305126953125,0.216615617275238,0.2135959714651107,0.0050109010189771
1789141120988485600,5.140485595703125,0.2381286323070526,0.1693246513605117,0.015878727659583
1789141120998457600,5.15045751953125,0.1947619020938873,0.177548810839653,0.0051375720649957
1789141121008429600,5.1604296875,0.1482607126235962,0.1470223218202591,0.0166655965149402
1789141121018402600,5.170402587890625,0.1618640571832656,0.1362765282392501,-0.025146659463644
1789141121028374800,5.180374755859375,0.1797101646661758,0.128128319978714,-0.0216667056083679
1789141121038347500,5.190347412109375,0.1394592672586441,0.1358787268400192,-0.0430463664233684
1789141121048319500,5.200319580078125,0.1267019212245941,0.1197722032666206,0.0162907242774963
1789141121058291700,5.210291748046875,0.0922836512327194,0.1382840126752853,0.0294691827148199
1789141121068264400,5.220264404296875,0.0628570467233657,0.1209460347890853,0.0378195270895957
1789141121078236700,5.230236572265625,0.0752433836460113,0.1029109582304954,0.0164103899151086
1789141121088208600,5.240208740234375,0.0677998438477516,0.1378731876611709,-0.0043345689773559
1789141121098181400,5.250181396484375,0.0882127806544303,0.1158717274665832,0.0403572544455528
1789141121108153600,5.260153564453125,0.1079324185848236,0.0824961960315704,0.0947856083512306
1789141121118126600,5.270126708984375,0.0714661628007888,0.0880845561623573,0.034647487103939
1789141121128098600,5.2800986328125,0.0154303237795829,0.0960673838853836,0.0483190938830375
1789141121138070500,5.290070556640625,-0.0122222825884819,0.0980618447065353,0.0337440781295299
1789141121148043000,5.30004296875,-0.0434337295591831,0.0991212502121925,-0.0148349087685346
1789141121158014700,5.3100146484375,-0.0414097793400287,0.0944854468107223,-0.0119734276086092
1789141121167987000,5.319987060546875,0.0159531123936176,0.0803507193922996,-0.029093824326992
1789141121177960000,5.3299599609375,-0.0097059113904833,0.0923432037234306,-0.0314158350229263
1789141121187932000,5.339931884765625,-0.0322336181998252,0.068376712501049,0.0196706540882587
1789141121197905000,5.34990478515625,-0.0654426887631416,0.0672154948115348,0.0596532374620437
1789141121207876900,5.359876953125,-0.10429447889328,0.0480037219822406,0.0420223176479339
1789141121217848800,5.369848876953125,-0.1171195581555366,0.0514697022736072,0.0396987460553646
1789141121227821800,5.37982177734375,-0.1042128130793571,0.0358084514737129,0.0600522197782993
1789141121237794000,5.3897939453125,-0.0804855450987815,0.0266177225857973,0.0363903753459453
1789141121247765800,5.399765869140625,-0.1200614497065544,0.0309629365801811,0.0491330698132514
1789141121257738800,5.40973876953125,-0.1382235884666443,0.0103891491889953,0.0602061711251735
1789141121267711000,5.4197109375,-0.1347188651561737,0.0123234037309885,0.0184155851602554
1789141121277684000,5.42968408203125,-0.1160989627242088,0.016971331089735,0.0139442076906561
1789141121287656000,5.439656005859375,-0.1074282377958297,0.0390340201556682,-0.0155444415286183
1789141121297628000,5.4496279296875,-0.0692067891359329,0.0163152832537889,0.0125055499374866
1789141121307601000,5.459600830078125,-0.0788948386907577,0.0247391276061534,-0.0092998798936605
1789141121317572900,5.46957275390625,-0.0907404944300651,0.0563699565827846,-0.0217518098652362
1789141121327544800,5.479544921875,-0.0723974406719207,0.0607609748840332,0.0318927764892578
1789141121337518000,5.48951806640625,-0.0646869838237762,0.0665010884404182,0.01692496240139
1789141121347489800,5.49948974609375,-0.034282736480236,0.0368899367749691,0.0151827223598957
1789141121357462000,5.5094619140625,-0.0220378674566745,0.028053380548954,0.0194130856543779
1789141121367435000,5.51943505859375,-0.047195415943861,0.0294083952903747,0.0147837121039628
1789141121377406700,5.52940673828125,-0.0696064233779907,0.0417349934577941,-0.0258244518190622
1789141121387380000,5.5393798828125,-0.0899939835071563,0.0361029393970966,-0.042705163359642
1789141121397352000,5.54935205078125,-0.0995046943426132,0.0100315026938915,-0.0332991257309913
1789141121407324000,5.559323974609375,-0.1008716970682144,0.0044971876777708,-0.0733088627457618
1789141121417297000,5.569296875,-0.0830339267849922,-0.0097328294068574,-0.071637287735939
1789141121427268900,5.579268798828125,-0.0878494530916214,-0.0223412979394197,-0.0273545142263174
1789141121437240800,5.58924072265625,-0.1140548214316368,-0.0401418767869472,-0.0109773464500904
1789141121447213800,5.5992138671875,-0.0876857936382293,-0.038919486105442,-0.0138666098937392
1789141121457186000,5.60918603515625,-0.1319677531719207,-0.0304065197706222,0.0123443519696593
1789141121467158800,5.61915869140625,-0.1306082159280777,-0.0791759192943573,0.0234667789191007
1789141121477131000,5.629131103515625,-0.1364863067865371,-0.0564023554325103,0.0295113585889339
1789141121487103000,5.63910302734375,-0.1578003764152526,-0.0537634268403053,0.0346563160419464
1789141121497075700,5.64907568359375,-0.1480005085468292,-0.0917204916477203,0.0105729345232248
1789141121507048000,5.6590478515625,-0.0897630378603935,-0.0683653652667999,0.001179433427751
1789141121517020000,5.66902001953125,-0.0698527619242668,-0.0486364476382732,-0.0035250051878392
1789141121526993000,5.678992919921875,-0.0609098672866821,-0.0663627162575721,0.0009917160496115
1789141121536964900,5.68896484375,-0.1107411384582519,-0.0154197122901678,0.0215001963078975
1789141121546937900,5.698937744140625,-0.0982959121465683,-0.0343164391815662,-0.0014908739831298
1789141121556909800,5.708909912109375,-0.0959211960434913,-0.019741378724575,0.00282878940925
1789141121566881800,5.7188818359375,-0.0668764933943748,0.0043626241385936,0.0116031058132648
1789141121576855000,5.72885498046875,-0.0476620011031627,-0.0062263119034469,0.023128580302
1789141121586826800,5.73882666015625,-0.0224242899566888,-0.0213802307844162,0.0219016633927822
1789141121596799000,5.748799072265625,-0.0394461490213871,0.0187512096017599,0.0148200495168566
1789141121606772000,5.75877197265625,-0.005540114827454,0.0223419498652219,-0.0064074741676449
1789141121616743700,5.76874365234375,-0.0037208031862974,0.0135464454069733,-0.010572699829936
1789141121626716000,5.7787158203125,-0.0343005508184433,0.0138931898400187,0.0298788528889417
1789141121636689000,5.78868896484375,0.008849180303514,0.0068981386721134,0.0287080686539411
1789141121646660900,5.798660888671875,0.0086814006790518,-0.0003927969373762,0.0426356010138988
1789141121656633900,5.8086337890625,-0.003780910745263,-0.0084159113466739,0.0799504891037941
1789141121666605800,5.818605712890625,-0.0001986930146813,0.0010020919144153,0.0463155657052993
1789141121676577800,5.828577880859375,0.0034326072782278,-0.0043005803599953,-0.0003040417796
1789141121686550800,5.83855078125,-0.007287947461009,0.0087965801358222,-0.0042090350762009
1789141121696523000,5.84852294921875,0.0131943337619304,0.020702326670289,-0.052380621433258
1789141121706494700,5.85849462890625,0.0242512468248605,0.023916495963931,-0.0700384378433227
1789141121716468000,5.868468017578125,0.0653420463204383,0.0183112546801567,-0.0021858313120901
1789141121726440000,5.87843994140625,0.1066607236862182,-0.0017047971487045,0.0197026878595352
1789141121736413000,5.888412841796875,0.0729331523180008,0.009852678515017,0.0388260334730148
1789141121746385000,5.898385009765625,0.0370885953307151,-0.0179390050470829,0.0530134886503219
1789141121756356900,5.90835693359375,-0.0332932919263839,-0.011797466315329,0.0485629066824913
1789141121766329900,5.918329833984375,-0.0519924089312553,-0.0220011007040739,0.0096216313540935
1789141121776301800,5.9283017578125,-0.0741085261106491,0.006386152934283,-0.0056386198848485
1789141121786274000,5.938274169921875,-0.0662130489945411,0.0074463565833866,-0.0027695964090526
1789141121796246800,5.948246826171875,-0.0326724536716938,0.0016547222621738,-0.017305240035057
1789141121806218800,5.95821875,0.0539601743221282,-0.0127708222717046,-0.0346975475549697
1789141121816192000,5.96819189453125,0.049310378730297,0.0216957554221153,-0.045827068388462
1789141121826163700,5.978163818359375,0.0344858914613723,0.0185218006372451,-0.0017693301197141
1789141121836136000,5.988135986328125,0.0539040863513946,0.0026442208327353,0.0346904247999191
1789141121846109000,5.99810888671875,0.0015838895924389,0.0735993534326553,0.0099187642335891
1789141121856081000,6.008080810546875,0.0131452064961195,0.034867376089096,0.0317981988191604
1789141121866052900,6.018052978515625,-0.0015743505209684,0.0540903396904468,0.0296903103590011
1789141121876025900,6.02802587890625,-0.0068425899371504,0.0281465388834476,0.0344054475426673
1789141121885997800,6.037997802734375,-0.0170912332832813,0.0662907287478447,-0.0413114205002784
1789141121895969800,6.0479697265625,0.0062445583753287,0.0499033369123935,-0.0569984279572963
1789141121905943000,6.057943115234375,-0.0050802677869796,0.0534954071044921,-0.0332499556243419
1789141121915914800,6.067914794921875,-0.0138126388192176,0.0523587614297866,-0.0486954301595687
1789141121925887700,6.0778876953125,0.0013838917948305,0.0329288728535175,-0.0072137676179409
1789141121935860000,6.08785986328125,0.042893499135971,0.0590965971350669,0.0059835659340023
1789141121945831700,6.097831787109375,0.0159135479480028,0.0610399022698402,0.0495531484484672
1789141121955805000,6.107804931640625,0.016141714528203,0.0263940766453742,0.0423447862267494
1789141121965777000,6.11777685546875,0.0063844248652458,0.0401975065469741,-0.0012024251045659
1789141121975748900,6.127748779296875,-0.0282275080680847,0.0276210978627204,-0.0103532364591956
1789141121985721900,6.137721923828125,-0.0427483916282653,0.0306187495589256,-0.0175680071115493
1789141121995693800,6.14769384765625,-0.0053697824478149,0.0516746900975704,-0.0532396472990512
1789141122005667000,6.1576669921875,-0.0230009723454713,0.0156024377793073,0.0151266241446137
1789141122015638800,6.167638671875,-0.0197529643774032,0.0245711021125316,-0.0147413648664951
1789141122025611000,6.177611083984375,-0.0344397611916065,0.0199284125119447,0.0320556983351707
1789141122035584000,6.187583984375,-0.0526429116725921,-0.0042731496505439,0.0500949472188949
1789141122045555700,6.1975556640625,-0.075207345187664,-0.0020608617924153,0.0279848538339138
1789141122055528000,6.20752783203125,-0.0404514446854591,-0.0030805105343461,0.0151217821985483
1789141122065501000,6.2175009765625,-0.0476917810738086,-0.0456167832016944,0.0006608174880966
1789141122075473000,6.227472900390625,-0.0545665174722671,-0.0611553266644477,-0.0266300402581691
1789141122085446000,6.23744580078125,-0.0808915942907333,-0.0347660630941391,-0.0188024770468473
1789141122095417900,6.24741796875,-0.0858329236507415,0.0091155227273702,-0.074064090847969
1789141122105389800,6.257389892578125,-0.092094287276268,-0.0121064092963933,-0.012351194396615
1789141122115362800,6.26736279296875,-0.0775161981582641,0.0087426360696554,-0.0260043870657682
1789141122125335000,6.2773349609375,-0.0684840828180313,0.0055665504187345,-0.0408893264830112
1789141122135306800,6.287306640625,-0.0832141935825347,0.0135113950818777,0.0062649464234709
1789141122145279700,6.29727978515625,-0.0726358518004417,0.0199242867529392,0.0403680577874183
1789141122155251700,6.307251708984375,-0.052262719720602,0.0426777452230453,-0.0011001378297805
1789141122165223700,6.3172236328125,-0.034540981054306,0.047832291573286,0.0369143560528755
1789141122175196700,6.32719677734375,-0.0131824314594268,0.0617052428424358,0.0014941967092454
1789141122185168600,6.337168701171875,-0.006882457062602,0.0542246922850608,-0.0332515314221382
1789141122195142000,6.347141845703125,-0.0553236529231071,0.0604030489921569,-0.0079883262515068
1789141122205113600,6.357113525390625,-0.0508575290441513,0.0586901009082794,-0.0416938252747058
1789141122215085800,6.3670859375,-0.0274013429880142,0.0358575172722339,-0.0503106601536273
1789141122225058800,6.377058837890625,-0.0598343834280967,0.0088807586580514,0.0058005470782518
1789141122235030500,6.387030517578125,-0.0827903449535369,0.0039961808361113,0.0020731904078274
1789141122245002800,6.397002685546875,-0.1365502476692199,-0.0128935873508453,0.027186531573534
1789141122254975700,6.406975830078125,-0.1469075828790664,-0.0500262081623077,0.0364083983004093
1789141122264947700,6.41694775390625,-0.1794167906045913,-0.0336560271680355,0.0173590742051601
1789141122274920700,6.426920654296875,-0.1754777133464813,-0.0288745369762182,-0.0006879186257719
1789141122284892700,6.436892578125,-0.1787896305322647,-0.0699415430426597,0.0465642847120761
1789141122294864600,6.44686474609375,-0.2139567881822586,-0.0607489012181758,0.026025328785181
1789141122304837600,6.456837646484375,-0.1818561106920242,-0.090281493961811,0.0105022955685853
1789141122314809900,6.466809814453125,-0.1563360542058944,-0.0961573868989944,0.0059477840550243
1789141122324781600,6.476781494140625,-0.2005037814378738,-0.0889282375574112,-0.0045879473909735
1789141122334754800,6.4867548828125,-0.2240238785743713,-0.100680261850357,-0.0114004109054803
1789141122344726800,6.496726806640625,-0.2165878117084503,-0.1131379976868629,0.0088721038773655
1789141122354699500,6.506699462890625,-0.2110913842916488,-0.1264947652816772,0.0266073308885097
1789141122364671700,6.516671630859375,-0.2321063876152038,-0.1128721609711647,0.0153488162904977
1789141122374643700,6.526643798828125,-0.2167568057775497,-0.1537593454122543,0.0268700886517763
1789141122384616700,6.53661669921875,-0.2058945596218109,-0.1406773626804351,0.038357637822628
1789141122394588700,6.546588623046875,-0.198942020535469,-0.1509666591882705,0.0433359593152999
1789141122404561000,6.556560791015625,-0.2047671526670456,-0.1407161504030227,0.0255508366972208
1789141122414533600,6.56653369140625,-0.1751190274953842,-0.1629919409751892,0.0341310463845729
1789141122424505600,6.576505615234375,-0.1723016649484634,-0.1665011793375015,0.0452952831983566
1789141122434478800,6.586478759765625,-0.1744603812694549,-0.1868391633033752,0.0607587769627571
1789141122444450600,6.596450439453125,-0.1600361615419387,-0.171909213066101,-0.0019418897572904
1789141122454422800,6.6064228515625,-0.1403117179870605,-0.1944862455129623,0.0351571440696716
1789141122464395800,6.616395751953125,-0.133995234966278,-0.1474108844995498,0.0520711466670036
1789141122474367700,6.62636767578125,-0.1186479777097702,-0.1680217981338501,0.0345821492373943
1789141122484339700,6.636339599609375,-0.07770986109972,-0.1777532547712326,0.0172140784561634
1789141122494312700,6.646312744140625,-0.0559989437460899,-0.1287261694669723,-0.0119313076138496
1789141122504284700,6.65628466796875,-0.0621721521019935,-0.1083711087703704,0.0255151316523551
1789141122514256600,6.666256591796875,-0.0203339550644159,-0.1048120856285095,0.0108160022646188
1789141122524230000,6.67622998046875,0.00744947232306,-0.0974756106734275,0.0239049065858125
1789141122534201600,6.68620166015625,0.0185432154685258,-0.0668676868081092,-0.0149680944159626
1789141122544174600,6.696174560546875,0.0765282213687896,-0.0889953598380088,0.0157762356102466
1789141122554146800,6.706146728515625,0.0473007783293724,-0.0344893001019954,-0.0054514035582542
1789141122564118500,6.716118408203125,0.0213549323379993,-0.0605296865105629,0.010759525001049
1789141122574091800,6.726091796875,0.0487454123795032,-0.0325944684445858,-0.033534113317728
1789141122584063700,6.736063720703125,0.0897847190499305,-0.0259586703032255,-0.0260788612067699
1789141122594035700,6.74603564453125,0.1020458713173866,-0.0301558710634708,-0.0044794054701924
1789141122604008700,6.7560087890625,0.1523929238319397,-0.0358545072376728,-0.0396578982472419
1789141122613980700,6.765980712890625,0.1317308992147445,-0.0135155385360121,-0.0688354149460792
1789141122623954000,6.775953857421875,0.1091502234339714,-0.0203252434730529,-0.0629831179976463
1789141122633925600,6.785925537109375,0.1208306327462196,0.0179364383220672,-0.0927391797304153
1789141122643897900,6.79589794921875,0.1336414963006973,-0.0033842967823147,-0.0708011239767074
1789141122653870800,6.805870849609375,0.1321347057819366,-0.0344578921794891,-0.0050784451887011
1789141122663842600,6.815842529296875,0.1694669127464294,-0.0338943675160408,-0.0178421754390001
1789141122673814800,6.825814697265625,0.1852939575910568,-0.0634510144591331,0.0392986834049224
1789141122683787800,6.835787841796875,0.1536814421415329,-0.0649280026555061,0.0515524186193943
1789141122693759700,6.845759765625,0.1124241575598716,-0.0763071775436401,0.0303253326565027
1789141122703732700,6.855732666015625,0.1129826158285141,-0.0534263662993907,-0.0172813329845666
1789141122713704700,6.86570458984375,0.0733421817421913,-0.0446860864758491,-0.0166422687470912
1789141122723676700,6.8756767578125,0.1454925537109375,-0.0468613542616367,-0.061988178640604
1789141122733649700,6.885649658203125,0.1401997208595276,-0.0171908400952816,-0.0608633384108543
1789141122743622000,6.895621826171875,0.1321346014738083,-0.0251251962035894,-0.0507646314799785
1789141122753593600,6.905593505859375,0.1472794711589813,-0.0229129251092672,-0.0194529350847005
1789141122763566800,6.91556689453125,0.1469662934541702,-0.0013413198757916,-0.0294605605304241
1789141122773538800,6.925538818359375,0.1292162090539932,0.0005930713377892,-0.0025259824469685
1789141122783510800,6.9355107421875,0.1547894775867462,0.0243356861174106,-0.0084163621068
1789141122793483800,6.94548388671875,0.1318102329969406,0.0530119203031063,-0.0293075740337371
1789141122803455700,6.955455810546875,0.1314304769039154,0.0471154153347015,-0.0423133894801139
1789141122813428700,6.9654287109375,0.1525384932756424,0.0571773201227188,-0.0640561357140541
1789141122823400700,6.975400634765625,0.1671741604804992,0.0603219792246818,-0.0481844991445541
1789141122833373000,6.985373046875,0.1935450136661529,0.0634023398160934,-0.0464366152882576
1789141122843345700,6.995345703125,0.2053007334470749,0.0586477927863597,-0.0549888238310813
1789141122853317600,7.005317626953125,0.1617644131183624,0.061421662569046,-0.0149026559665799
1789141122863289900,7.015289794921875,0.12146757543087,0.0382907763123512,0.0238199718296527
1789141122873262600,7.0252626953125,0.1040031239390373,0.0112862298265099,0.0096747232601046
1789141122883234800,7.03523486328125,0.0871437191963195,-0.0024117394350469,0.0435440056025981
1789141122893207800,7.045207763671875,0.0465433523058891,-0.0025949359405785,0.0909675359725952
1789141122903179500,7.055179443359375,0.039489172399044,-0.0357928350567817,0.0600048191845417
1789141122913151700,7.06515185546875,0.0180889926850795,-0.0327139049768447,0.0268177464604377
1789141122923124700,7.075124755859375,0.0392893552780151,-0.0445966608822345,-0.015476182103157
1789141122933096700,7.0850966796875,0.0121504385024309,-0.0339592956006526,-0.0551283918321132
1789141122943068700,7.095068603515625,-0.0150763886049389,-0.0627845525741577,-0.1092243790626525
1789141122953041700,7.105041748046875,-0.0095678810030221,-0.0606964640319347,-0.071523480117321
1789141122963013600,7.115013671875,0.0015438920818269,-0.0375663749873638,-0.0465161278843879
1789141122972986600,7.124986572265625,0.0106383739039301,-0.0608572848141193,-0.0213065631687641
1789141122982958800,7.134958740234375,0.0324003957211971,-0.0444364994764328,-0.0046407668851315
1789141122992930600,7.1449306640625,0.0008368231356143,-0.0496403500437736,0.046489980071783
1789141123002903800,7.15490380859375,-0.0021565705537796,-0.043067667633295,-0.0042613507248461
1789141123012875800,7.164875732421875,0.0134420562535524,-0.0182079933583736,-0.0338531583547592
1789141123022847700,7.17484765625,0.0068805594928562,-0.0114163998514413,-0.0322501994669437
1789141123032820700,7.18482080078125,0.0438845418393611,0.0075758309103548,-0.0502481870353221
1789141123042792700,7.194792724609375,0.0739215314388275,0.0212532933801412,-0.0250972919166088
1789141123052764700,7.2047646484375,0.0810698494315147,0.033541452139616,0.0273792687803506
1789141123062737700,7.214737548828125,0.0973995551466941,0.0405546203255653,0.0511490441858768
1789141123072710000,7.2247099609375,0.0880561172962188,0.0486117452383041,0.0537048801779747
1789141123082682600,7.2346826171875,0.1124879568815231,0.0650120228528976,0.0259259827435016
1789141123092654600,7.244654541015625,0.1248467490077018,0.0726420059800148,-0.0163228455930948
1789141123102626800,7.254626708984375,0.1132135316729545,0.0564430654048919,-0.0100550949573516
1789141123112599600,7.264599609375,0.1163462102413177,0.0645473301410675,-0.0259341932833194
1789141123122571800,7.27457177734375,0.1467781364917755,0.0879884734749794,-0.0626935437321662
1789141123132543700,7.284543701171875,0.15426866710186,0.0821450650691986,-0.0612207353115081
1789141123142516700,7.294516845703125,0.1360374689102172,0.0765945091843605,-0.0022988291457295
1789141123152488700,7.30448876953125,0.147245168685913,0.0622568652033805,0.047731515020132
1789141123162461400,7.31446142578125,0.1089438498020172,0.0383840203285217,0.0876666828989982
1789141123172433700,7.32443359375,0.0872936844825744,0.0342763885855674,0.0826655626296997
1789141123182405600,7.334405517578125,0.0574883855879306,0.0336023420095443,0.0813614130020141
1789141123192378600,7.344378662109375,0.0687504410743713,0.0079666879028081,0.0698655545711517
1789141123202350600,7.3543505859375,0.0852971971035003,0.0045623681508004,0.0648689270019531
1789141123212322600,7.364322509765625,0.0907568335533142,0.0194908790290355,0.0457223206758499
1789141123222295600,7.374295654296875,0.1051943600177764,0.0211585536599159,0.0469862595200538
1789141123232267500,7.384267578125,0.1100291386246681,0.0594827085733413,0.011398653499782
1789141123242239500,7.394239501953125,0.1331123560667038,0.0405686721205711,0.0452146716415882
1789141123252212500,7.40421240234375,0.1347836554050445,0.0540675967931747,0.0051268311217427
1789141123262184700,7.414184814453125,0.1021146550774574,0.044828824698925,5.0398521125e-06
1789141123272157700,7.42415771484375,0.1024327203631401,0.0813577696681022,0.0024348830338567
1789141123282129400,7.43412939453125,0.1063776537775993,0.0604130737483501,0.0416720323264598
1789141123292101600,7.4441015625,0.0965982377529144,0.0857446268200874,0.0104689775034785
1789141123302074600,7.45407470703125,0.0824784263968467,0.0879585072398185,0.0337793603539466
1789141123312046600,7.464046630859375,0.091112844645977,0.0969158411026001,0.0873159915208816
1789141123322018600,7.4740185546875,0.1064462587237358,0.114796832203865,0.0809361264109611
1789141123331991600,7.483991455078125,0.1318289339542389,0.1251663565635681,0.0622249990701675
1789141123341963500,7.493963623046875,0.1037365719676017,0.1574438661336898,0.0304849129170179
1789141123351936500,7.5039365234375,0.1329740583896637,0.163962572813034,-0.0016318764537572
1789141123361908700,7.51390869140625,0.1418253481388092,0.175992876291275,-0.0361893214285373
1789141123371880400,7.52388037109375,0.1580302715301513,0.1728594154119491,0.0049419635906815
1789141123381853700,7.533853759765625,0.1747072488069534,0.1870000064373016,0.0145173594355583
1789141123391825700,7.54382568359375,0.1633506566286087,0.1530695110559463,0.0627964958548545
1789141123401797600,7.553797607421875,0.1495296508073806,0.1744589507579803,0.0509214587509632
1789141123411770600,7.5637705078125,0.1030353605747222,0.1888888776302337,0.017819982022047
1789141123421742600,7.57374267578125,0.0441696494817733,0.1631195992231369,0.04567451775074
1789141123431715600,7.583715576171875,0.0337371379137039,0.1495618671178817,0.02181251719594
1789141123441687600,7.5936875,0.0261442009359598,0.1383693963289261,-0.0188869759440422
1789141123451659800,7.60365966796875,0.0609616190195083,0.1190146654844284,-0.0265421159565448
1789141123461632500,7.613632568359375,0.0880702063441276,0.1191819161176681,-0.0111626284196972
1789141123471604500,7.6236044921875,0.0649212151765823,0.0841301679611206,-0.0186252240091562
1789141123481576700,7.63357666015625,-0.0090526118874549,0.0818949788808822,-0.0348563902080059
1789141123491549400,7.643549560546875,-0.0901678875088691,0.0580351240932941,-0.0200537964701652
1789141123501521700,7.653521728515625,-0.1127264574170112,0.0254750475287437,-0.0424624308943748
1789141123511493600,7.66349365234375,-0.1189466565847396,0.0144292172044515,-0.0165145322680473
1789141123521466400,7.67346630859375,-0.1470003873109817,-0.0016237848903983,0.0049454867839813
1789141123531438600,7.6834384765625,-0.1363929361104965,-0.0536630526185035,-0.009017489850521
1789141123541411600,7.69341162109375,-0.1225253194570541,-0.0268623325973749,0.0344453006982803
1789141123551383600,7.703383544921875,-0.1418720930814743,-0.0044629373587667,0.0420579500496387
1789141123561355500,7.71335546875,-0.119459718465805,-0.0221564471721649,-0.0083378488197922
1789141123571328500,7.72332861328125,-0.1116620823740959,-0.014685871079564,0.0073881531134247
1789141123581300500,7.733300537109375,-0.1337239742279052,-0.0118831600993871,0.0488634258508682
1789141123591272700,7.743272705078125,-0.1177939847111702,-0.0065780044533312,0.018233174458146
1789141123601245700,7.75324560546875,-0.1227924600243568,-0.0301352627575397,0.0482722967863082
1789141123611217400,7.763217529296875,-0.1451610773801803,-0.0208320766687393,0.0512907058000564
1789141123621190700,7.773190673828125,-0.1243767142295837,-0.0172961987555027,0.0162152759730815
1789141123631162600,7.78316259765625,-0.0902454704046249,-0.0113065857440233,0.0189763642847538
1789141123641134600,7.793134521484375,-0.1263680607080459,-0.0018821908161044,0.040158350020647
1789141123651107600,7.803107666015625,-0.1059799045324325,-0.0257776267826557,-0.0302399545907974
1789141123661079600,7.81307958984375,-0.123989000916481,-0.0012003786396235,-0.0482913926243782
1789141123671051500,7.823051513671875,-0.1327049732208252,-0.0014353955630213,-0.0202138517051935
1789141123681024500,7.8330244140625,-0.1107810214161872,0.031352911144495,-0.0749846845865249
1789141123690996700,7.842996826171875,-0.0831444710493087,0.0184632055461406,-0.0488203987479209
1789141123700968400,7.852968505859375,-0.0774634182453155,0.0108657386153936,0.0081411525607109
1789141123710941400,7.86294140625,-0.0860427618026733,0.0081463027745485,0.0100272120907902
1789141123720913700,7.87291357421875,-0.0846890807151794,0.0038128071464598,0.0235078670084476
1789141123730886700,7.88288671875,-0.0918306410312652,0.0114676430821418,0.0345533490180969
1789141123740858600,7.892858642578125,-0.0731371119618415,-0.0037706987932324,0.0549190752208232
1789141123750830600,7.90283056640625,-0.0632524713873863,-0.0172872468829154,0.0464881509542465
1789141123760803600,7.912803466796875,-0.0884776636958122,-0.0126205887645483,0.0571743510663509
1789141123770775600,7.922775634765625,-0.071192093193531,-0.0417129173874855,0.0441248267889022
1789141123780747800,7.932747802734375,-0.0560610815882682,-0.0363945849239826,0.0061414893716573
1789141123790720800,7.942720703125,-0.079212948679924,-0.0408731624484062,-0.0046109100803732
1789141123800692500,7.9526923828125,-0.1070842742919921,-0.0522126369178295,-0.0570573396980762
1789141123810665700,7.962665771484375,-0.1204622611403465,-0.0485768988728523,-0.0710979998111724
1789141123820637700,7.9726376953125,-0.1193426623940467,-0.0714089795947074,-0.0294786524027586
1789141123830609700,7.982609619140625,-0.1161236464977264,-0.0735106840729713,-0.0172093547880649
1789141123840582700,7.992582763671875,-0.1450932472944259,-0.0892640799283981,0.0016524834791198
1789141123850554600,8.0025546875,-0.1190819814801216,-0.1022493168711662,0.0354355387389659
1789141123860526600,8.012526611328125,-0.0985870882868766,-0.0702783316373825,0.0308138895779848
1789141123870499600,8.02249951171875,-0.0958301573991775,-0.085771657526493,0.0452330261468887
1789141123880471800,8.032471923828124,-0.0971665307879448,-0.0627888366580009,-0.0126811433583498
1789141123890444500,8.042444580078126,-0.0630954504013061,-0.0552896223962307,-0.0408319495618343
1789141123900416500,8.05241650390625,-0.0634549707174301,-0.0387484654784202,-0.0233906414359807
1789141123910388700,8.062388671875,-0.0294814296066761,-0.0308378040790557,-0.0451862812042236
1789141123920361500,8.072361572265624,0.0091266855597496,-0.0190876703709363,-0.043537251651287
1789141123930333700,8.082333740234375,0.0300293564796447,-0.0260294079780578,0.0160186011344194
1789141123940305700,8.0923056640625,0.0323601551353931,-0.0228149723261594,0.0267546027898788
1789141123950278400,8.1022783203125,-0.0195761770009994,-0.018440343439579,0.0434102416038513
1789141123960250600,8.112250732421876,0.00478748511523,-0.0063226940110325,0.0481325574219226
1789141123970223600,8.1222236328125,0.0008632699027657,-0.0106338951736688,0.048632439225912
1789141123980195600,8.132195556640625,0.0059879906475543,-0.0037746571470052,0.0955964773893356
1789141123990167600,8.14216748046875,0.026548221707344,0.0109985675662755,0.0319856628775596
1789141124000140500,8.152140625,0.0408715046942234,-0.0111275082454085,-0.0048732873983681
1789141124010112500,8.162112548828125,0.0408849827945232,0.0028353240340948,-0.0118914786726236
1789141124020084700,8.172084716796874,0.0680500268936157,0.0027469070628285,-0.0146941896528005
1789141124030057700,8.1820576171875,0.066456101834774,0.0059313438832759,-0.0270071793347597
1789141124040029400,8.192029541015625,0.0641383528709411,0.0036367643624544,-0.0257312580943107
1789141124050001700,8.202001708984374,0.037566527724266,0.0042570219375193,-0.0238372776657342
1789141124059974700,8.211974609375,0.0611677281558513,0.0243250057101249,-0.0292344391345977
1789141124069946600,8.221946533203125,0.0262693203985691,0.0206722654402256,0.0360017269849777
1789141124079919600,8.231919677734375,0.0374183766543865,-0.0032170875929296,0.0185087528079748
1789141124089891600,8.2418916015625,0.0514984801411628,-0.0038002235814929,0.0192180890589952
1789141124099863600,8.251863525390625,0.0599883720278739,0.0029194643720984,0.0704080387949943
1789141124109836500,8.26183642578125,0.0352028645575046,0.0061277626082301,0.0826600342988967
1789141124119808800,8.271808837890624,0.0649226754903793,-0.034234307706356,0.0503718666732311
1789141124129780500,8.281780517578126,0.0427779108285903,-0.0387422703206539,0.0355227962136268
1789141124139753500,8.29175341796875,0.0239205993711948,-0.0421923957765102,-0.0099637303501367
1789141124149726700,8.301726806640625,-0.0159211456775665,-0.016986982896924,-0.0138077279552817
1789141124159699700,8.31169970703125,0.0259871557354927,-0.0359063446521759,-0.0218968130648136
1789141124169671400,8.32167138671875,0.0287148207426071,0.003404633142054,-0.0748949348926544
1789141124179643600,8.3316435546875,0.0346483439207077,-0.013347715139389,-0.0248197894543409
1789141124189616600,8.34161669921875,0.0425536185503006,-0.0021335105411708,0.0141746932640671
1789141124199588600,8.351588623046876,0.0374275632202625,-0.0116026457399129,-0.0135173881426453
1789141124209560600,8.361560546875,0.0045446897856891,-0.0196337737143039,0.0477340929210186
1789141124219533600,8.371533447265625,-0.0203942153602838,0.0175317041575908,-0.0231179762631654
1789141124229505500,8.381505615234374,-0.0236383974552154,-0.0251710712909698,-0.0050914762541651
1789141124239478500,8.391478515625,-0.0197280794382095,-0.0207560826092958,-0.0111440420150756
1789141124249450800,8.40145068359375,0.0070998314768075,-0.0136287882924079,-0.0125700626522302
1789141124259422500,8.41142236328125,0.0059938207268714,0.0079931495711207,-0.039512999355793
1789141124269395700,8.421395751953124,0.0116600170731544,-0.0048016686923801,-0.0087399119511246
1789141124279367700,8.43136767578125,0.0162992440164089,0.023139152675867,-0.0277229249477386
1789141124289339600,8.441339599609375,0.0099153006449341,0.0274255629628896,-0.0486578643321991
1789141124299312600,8.451312744140624,0.0069011347368359,0.0114924013614654,-0.025787966325879
1789141124309284600,8.46128466796875,0.0062742545269429,0.0199970938265323,-0.0362997464835643
1789141124319256600,8.471256591796875,0.003700309433043,0.0236541479825973,-0.0533271990716457
1789141124329229600,8.4812294921875,0.0050913840532302,0.0170319788157939,-0.0203857775777578
1789141124339201800,8.491201904296876,0.0063350801356136,0.0074395388364791,-0.0288650169968605
1789141124349174800,8.5011748046875,0.0046234829351305,-0.0128684174269437,-0.0027158607263118
1789141124359146500,8.511146484375,-0.019192099571228,0.0202487912029027,-0.0256073288619518
1789141124369118700,8.52111865234375,-0.0265568830072879,-0.0017006655689328,-0.0100734708830714
1789141124379091700,8.531091796875,-0.0351423844695091,0.0186852999031543,-0.0276117175817489
1789141124389063700,8.541063720703125,-0.0205243416130542,-0.002524176146835,-0.0115423183888196
1789141124399035600,8.55103564453125,-0.0252948626875877,0.0333235710859298,-0.0211613904684782
1789141124409008600,8.561008544921876,-0.0140378093346953,0.0168204847723245,-0.0122940726578235
1789141124418980600,8.570980712890625,0.0282473303377628,0.0334181040525436,-0.0092692542821168
1789141124428953600,8.58095361328125,0.0607728622853755,0.0201256666332483,0.0125885875895619
1789141124438925800,8.59092578125,0.0641396343708038,0.0279164798557758,0.005420955363661
1789141124448897500,8.6008974609375,0.0558050572872161,0.0372932590544223,0.0269788242876529
1789141124458870500,8.61087060546875,0.0471891984343528,0.0538975372910499,0.0284491553902626
1789141124468842800,8.6208427734375,0.0458447523415088,0.0467011965811252,0.0443782247602939
1789141124478814700,8.630814697265626,0.0226725880056619,0.0622380748391151,0.0479362085461616
1789141124488787700,8.64078759765625,0.0480160787701606,0.0613438449800014,0.0105934776365756
1789141124498759700,8.650759765625,0.0819167867302894,0.0684281215071678,0.0056607699953019
1789141124508731600,8.660731689453126,0.096888467669487,0.0406846813857555,0.0483358204364776
1789141124518704600,8.67070458984375,0.0576907321810722,0.0807727128267288,-0.0104723684489727
1789141124528676900,8.6806767578125,0.0664270967245101,0.0863522961735725,-0.0099268909543752
1789141124538649600,8.690649658203125,0.1032207980751991,0.0863605514168739,0.0441605783998966
1789141124548621600,8.70062158203125,0.0511553771793842,0.0984178483486175,0.0519922189414501
1789141124558593800,8.71059375,0.0341766588389873,0.0816788077354431,0.0091092027723789
1789141124568566500,8.72056640625,0.091453842818737,0.0673854202032089,0.0044698249548673
1789141124578538800,8.730538818359374,0.0616256408393383,0.0779829397797584,0.014819667674601
1789141124588510700,8.7405107421875,0.0486811771988868,0.0557419806718826,0.0255025811493396
1789141124598483500,8.7504833984375,0.0605751201510429,0.0548743195831775,0.0109207099303603
1789141124608455700,8.76045556640625,0.0167619902640581,0.0444128848612308,0.0257194247096776
1789141124618428700,8.7704287109375,-0.0042833741754293,0.0296254195272922,0.0469525419175624
1789141124628400600,8.780400634765625,-0.0135706905275583,0.0197038743644952,0.0633411556482315
1789141124638372600,8.79037255859375,-0.0253887344151735,-0.0065394476987421,0.0284990165382623
1789141124648345600,8.800345703125,-0.0586289837956428,-0.0489974245429039,0.0499262772500515
1789141124658317600,8.810317626953125,-0.0761187598109245,-0.0256257895380258,0.0111051127314567
1789141124668289500,8.82028955078125,-0.0857051759958267,-0.041939340531826,-0.0223385263234376
1789141124678262800,8.8302626953125,-0.1033922955393791,-0.0423092506825923,-0.0374378524720668
1789141124688234500,8.840234375,-0.0743324682116508,-0.0329579003155231,-0.0207877624779939
1789141124698206700,8.850206787109375,-0.048191413283348,-0.012391373515129,-0.0858186930418014
1789141124708179700,8.8601796875,-0.0518608801066875,-0.0305111203342676,-0.0650323405861854
1789141124718151700,8.870151611328126,-0.0316070094704628,-0.0218135025352239,0.0008148434571921
1789141124728124700,8.880124755859375,-0.0359680354595184,-0.0050205430015921,0.0264950636774301
1789141124738096600,8.8900966796875,-0.0381536930799484,0.0011247009970247,0.0312368236482143
1789141124748068600,8.900068603515624,-0.0460885018110275,-0.0005800256039947,0.0435288846492767
1789141124758041600,8.91004150390625,-0.0081728100776672,0.0059577682986855,-0.0044146724976599
1789141124768013800,8.920013916015625,0.0095376642420887,-0.0016958527266979,4.24184836447e-05
1789141124777985500,8.929985595703124,0.0371189564466476,0.0035641565918922,-0.0195680353790521
1789141124787958500,8.93995849609375,0.0490050874650478,0.0415459349751472,-0.0571337565779686
1789141124797930800,8.9499306640625,0.0563785843551158,0.0531000606715679,-0.0720197558403015
1789141124807903500,8.959903564453125,0.0230920817703008,0.0493231527507305,-0.0370985269546508
1789141124817875700,8.969875732421874,0.0099057052284479,0.0407741405069828,-0.0396279990673065
1789141124827847700,8.97984765625,0.0374739319086074,0.0351522862911224,-0.0353365950286388
1789141124837820400,8.9898203125,0.0476557277143001,0.0472030900418758,-0.032677162438631
1789141124847792600,8.999792724609375,0.0198972523212432,0.0447586439549922,-0.002739449031651
1789141124857764600,9.0097646484375,-0.0047524329274892,0.0335770957171916,-0.023015959188342
1789141124867737600,9.019737548828124,-0.0125548541545867,0.0153222922235727,-0.0124196968972682
1789141124877709600,9.02970947265625,-0.0100352372974157,0.0192840117961168,-0.0104228593409061
1789141124887681800,9.039681884765624,-0.0234697945415973,0.0118334284052252,-0.0278049409389495
1789141124897654500,9.049654541015624,-0.0235725939273834,-0.0028664218261837,-0.027773518115282
1789141124907626800,9.059626708984377,-0.0205109287053346,-0.0056436811573803,-0.0252030398696661
1789141124917599700,9.069599853515625,-0.0314898118376731,-0.0099763777107,-0.0360034927725791
1789141124927571500,9.079571533203126,-0.0167360436171293,-0.0015015979297459,-0.0387715399265289
1789141124937543700,9.089543701171875,-0.0255010388791561,-0.0176113247871398,-0.0035957088693976
1789141124947516700,9.0995166015625,-0.0377570167183876,-0.0179853495210409,-0.0065317992120981
1789141124957488600,9.109488525390624,-0.0410505458712577,-0.0250533800572156,-0.016584699973464
1789141124967460600,9.119460693359375,-0.0603364668786525,-0.0213823169469833,-0.0247241966426372
1789141124977433600,9.12943359375,-0.0563411898910999,-0.0234502591192722,0.0205396860837936
1789141124987405600,9.139405517578124,-0.0552542805671691,-0.0207743365317583,0.0335783809423446
1789141124997378600,9.149378662109376,-0.0531826093792915,-0.0302730333060026,-0.0077951559796929
1789141125007350800,9.159350830078123,-0.0091849714517593,-0.0298648402094841,-0.0057536326348781
1789141125017322500,9.169322509765625,0.0020783361978828,-0.006189870648086,0.0332518257200717
1789141125027295500,9.17929541015625,0.0014410419389605,-0.0001998892985284,0.027975833043456
1789141125037267700,9.189267822265624,-0.0055196620523929,-0.0016377298161387,0.0536492392420768
1789141125047239400,9.199239501953125,-0.0306589975953102,0.0124680595472455,0.0461829975247383
1789141125057212700,9.209212646484374,-0.0261081866919994,0.0020865253172814,0.0215474292635917
1789141125067184600,9.2191845703125,-0.0220154412090778,-0.0004929997958242,0.0322518832981586
1789141125077157600,9.22915771484375,-0.0089518371969461,-0.0026150066405534,0.0255220755934715
1789141125087129600,9.239129638671876,-0.0002802116796374,-0.0029182366561144,-0.0226472411304712
1789141125097101600,9.2491015625,-0.0064797839149832,0.0044259629212319,0.0063963942229747
1789141125107074800,9.25907470703125,-0.0180689860135316,0.0063971695490181,0.0409343466162681
1789141125117046500,9.269046630859377,0.0059524606913328,0.0259309224784374,0.0360426530241966
1789141125127018800,9.279018798828124,0.0008561750873923,0.0491906926035881,0.0148894973099231
1789141125136991700,9.28899169921875,0.0248102433979511,-0.0020842121448367,0.0346176624298095
1789141125146963700,9.298963623046877,-0.011556701734662,-0.0003765227738767,0.0608786046504974
1789141125156934700,9.3089345703125,-0.0500396490097045,0.0069458382204174,0.0848284140229225
1789141125166907600,9.31890771484375,-0.0320063717663288,-0.0247396826744079,0.0861330106854438
1789141125176879600,9.328879638671877,-0.0241300724446773,-0.0432819426059722,0.0844072848558425
1789141125186852600,9.3388525390625,-0.0454282648861408,-0.0023594708181917,0.0697988346219062
1789141125196824600,9.348824462890626,-0.0334245972335338,-0.0308915134519338,-0.0009488332434557
1789141125206796500,9.358796630859375,-0.088563896715641,-0.0207477305084466,0.0115744555369019
1789141125216769800,9.368769775390623,-0.0709356293082237,-0.0337149277329444,0.0179942734539508
1789141125226741500,9.378741455078124,-0.0567769967019557,-0.0205831751227378,-0.0462899878621101
1789141125236713700,9.388713623046876,-0.0345465280115604,-0.0432514697313308,-0.0199001915752887
1789141125246686700,9.398686767578123,-0.055700808763504,-0.0137223694473505,-0.0092076323926448
1789141125256658400,9.408658447265625,-0.0601232498884201,-0.0422805100679397,0.0346517004072666
1789141125266631700,9.418631591796874,-0.0796144232153892,-0.0392310805618763,0.0425834096968174
1789141125276603600,9.428603759765624,-0.0809286907315254,-0.0372907035052776,0.0642133355140686
1789141125286575600,9.43857568359375,-0.073045864701271,-0.0473505221307277,0.047406867146492
1789141125296548600,9.448548583984374,-0.0924462005496025,-0.0566494800150394,0.0114443385973572
1789141125306520600,9.4585205078125,-0.1141179949045181,-0.054821528494358,0.0084043769165873
1789141125316492500,9.468492431640623,-0.1060198545455932,-0.0306075364351272,-0.0571067221462726
1789141125326465500,9.478465576171876,-0.0766329616308212,-0.0426017716526985,-0.0788183882832527
1789141125336437800,9.488437744140626,-0.0626207441091537,-0.0264568887650966,-0.0556558147072792
1789141125346409500,9.498409423828123,-0.0684782862663269,-0.0334791615605354,-0.0395268127322196
1789141125356382700,9.5083828125,-0.0712218731641769,-0.0486980602145195,-0.0122651010751724
1789141125366354700,9.518354736328124,-0.0591363161802291,-0.0381964445114135,0.0044919503852725
1789141125376327700,9.52832763671875,-0.1011442169547081,-0.0377210676670074,-0.0006088019581511
1789141125386299600,9.538299560546877,-0.110888585448265,-0.0419762432575225,-0.0146771259605884
1789141125396271600,9.548271728515624,-0.1093064099550247,-0.0461214520037174,-0.0089846197515726
1789141125406244600,9.55824462890625,-0.0867774710059166,-0.0376365892589092,-0.0333176366984844
1789141125416216600,9.568216552734375,-0.0878432691097259,-0.0384637676179409,-0.0206268727779388
1789141125426188800,9.578188720703125,-0.0670654773712158,-0.0331358797848224,-0.0331586636602878
1789141125436161500,9.58816162109375,-0.0575601272284984,-0.0283999815583229,-0.0494723878800869
1789141125446133500,9.598133544921875,-0.0432498678565025,-0.0317003093659877,-0.0583546124398708
1789141125456105700,9.608105712890625,-0.0712327659130096,-0.0330726355314254,-0.0485038459300994
1789141125466078500,9.618078369140624,-0.0801835432648658,-0.0376038886606693,-0.0400896333158016
1789141125476050700,9.62805078125,-0.0782157331705093,-0.0369077399373054,-0.0395801700651645
1789141125486023700,9.638023681640624,-0.0573479980230331,-0.0531666055321693,-0.031224500387907
1789141125495995600,9.64799560546875,-0.0368501842021942,-0.0546004511415958,-0.0104430560022592
1789141125505967600,9.657967529296876,-0.0563013777136802,-0.0716561302542686,3.54166841134e-05
1789141125515940600,9.667940673828124,-0.0754489749670028,-0.0641734525561332,-0.0270984657108783
1789141125525912600,9.67791259765625,-0.0678545460104942,-0.0574192553758621,-0.0133791472762823
1789141125535884500,9.687884521484374,-0.080698974430561,-0.0738991647958755,0.0109195346012711
1789141125545857800,9.69785791015625,-0.0782726928591728,-0.0680362060666084,-0.0064195697195827
1789141125555829500,9.70782958984375,-0.054837942123413,-0.0662617459893226,0.0037033716216683
1789141125565802500,9.717802490234376,-0.0422834008932113,-0.0483780764043331,-0.0015854603843763
1789141125575774700,9.727774658203124,-0.0540915876626968,-0.0523685589432716,-0.0235469527542591
1789141125585746400,9.737746337890623,-0.0446711406111717,-0.0631844103336334,-0.0121364062651991
1789141125595719700,9.7477197265625,-0.0272101275622844,-0.0468166209757328,-0.0348478406667709
1789141125605691600,9.757691650390624,-0.0100716426968574,-0.0421969778835773,-0.0572725608944892
1789141125615663600,9.76766357421875,0.0062221083790063,-0.0385393910109996,-0.0481096878647804
1789141125625636600,9.77763671875,0.0198117941617965,-0.0161993615329265,-0.0368481688201427
1789141125635608600,9.787608642578125,0.0160492789000272,-0.0348657220602035,-0.0236639250069856
1789141125645581800,9.797581787109374,0.0367021486163139,-0.0226763915270566,-0.043634470552206
1789141125655553500,9.807553466796875,0.0669130459427833,-0.0324480645358562,-0.0295540727674961
1789141125665525800,9.81752587890625,0.0520590506494045,-0.0273182354867458,0.0058845784515142
1789141125675498800,9.827498779296874,0.0441292226314544,-0.0255898423492908,0.0149704841896891
1789141125685470500,9.837470458984376,0.0197399370372295,-0.0073134256526827,0.0235215183347463
1789141125695442700,9.847442626953123,0.0058361059054732,-0.0092551372945308,0.0671097412705421
1789141125705415700,9.857415771484376,0.0283296480774879,-0.0331613011658191,0.0507876761257648
1789141125715387600,9.8673876953125,0.0594058111310005,-0.0322582237422466,0.0340702123939991
1789141125725359600,9.877359619140623,0.0495673716068267,-0.0491672158241272,0.0294699613004922
1789141125735332600,9.88733251953125,0.0256218258291482,-0.0437535420060157,0.0066298944875597
1789141125745304600,9.8973046875,0.0326904915273189,-0.0523474738001823,0.0025029906537383
1789141125755277600,9.907277587890626,0.0272933319211006,-0.0344315916299819,-0.0050449408590793
1789141125765249800,9.917249755859377,0.0087213777005672,-0.014350801706314,0.0010505903046578
1789141125775221500,9.927221435546874,0.0519649870693683,-0.0460765063762664,-0.0102097876369953
1789141125785194800,9.93719482421875,0.0293016340583562,-0.0317461788654327,-0.0166016183793544
1789141125795166700,9.947166748046875,0.0215297304093837,-0.0358088314533233,-0.0094156097620725
1789141125805138700,9.957138671875,0.0403735265135765,-0.0305359568446874,-0.0479069426655769
1789141125815111700,9.967111572265624,0.0552185177803039,-0.0426645278930664,0.066344529390335
1789141125825083600,9.977083740234375,0.0850909054279327,-0.0646458938717842,0.0824631825089454
1789141125835055600,9.9870556640625,0.056058719754219,-0.019772695377469,-0.0270878132432699
1789141125845028600,9.997028564453124,0.0130154062062501,-0.0438134148716926,0.043567843735218
1789141125855000800,10.007000732421876,0.0550384894013404,-0.0573340132832527,0.0728692710399627
1789141125864973600,10.0169736328125,0.1013925150036811,-0.0310623608529567,-0.0275653768330812
1789141125874945500,10.026945556640625,0.1083979606628418,-0.0123211629688739,-0.0332522913813591
1789141125884917800,10.036917724609374,0.1172159388661384,-0.0214049629867076,0.0093247089534997
1789141125894890500,10.046890380859375,0.1198037341237068,0.0011858344078063,-0.0399810560047626
1789141125904862700,10.05686279296875,0.1100991889834404,-0.0039881323464214,-0.0389722287654876
1789141125914834700,10.066834716796874,0.1290411949157714,0.0112041365355253,-0.0449177362024784
1789141125924807400,10.076807373046876,0.1473012119531631,0.0264859329909086,-0.0364851355552673
1789141125934779600,10.086779541015623,0.1638069450855255,0.0140316598117351,0.0025525423698127
1789141125944751600,10.096751708984376,0.1814143806695938,0.0111362123861908,0.0089839650318026
1789141125954724600,10.106724609375,0.1730381995439529,0.0073846178129315,0.0028413841500878
1789141125964696600,10.116696533203124,0.1452306360006332,0.010150147601962,0.0362103395164012
1789141125974669600,10.126669677734377,0.1630477160215377,0.0377993546426296,0.0117998039349913
1789141125984641500,10.1366416015625,0.1463973969221115,0.0364439710974693,0.0055372412316501
1789141125994613800,10.14661376953125,0.1332176923751831,0.0174037031829357,-0.0099580958485603
1789141126004586800,10.156586669921875,0.1268802881240844,0.0207339935004711,-0.0313904769718647
1789141126014558500,10.166558349609376,0.1644407212734222,0.0452835410833358,-0.0395506657660007
1789141126024530700,10.17653076171875,0.1605888307094574,0.0359545946121215,-0.022397169843316
1789141126034503700,10.186503662109375,0.1632400006055832,0.0435813553631305,0.0075857620686292
1789141126044475600,10.1964755859375,0.1502057760953903,0.0461914539337158,0.0066988789476454
1789141126054448600,10.20644873046875,0.1184723526239395,0.0258654095232486,0.0345912314951419
1789141126064420600,10.216420654296876,0.1354399919509887,0.0307958349585533,0.0272722858935594
1789141126074392600,10.226392578125,0.1132878139615058,0.0411699153482914,0.0380346551537513
1789141126084365600,10.236365478515625,0.10038573294878,0.0291572008281946,0.0287007465958595
1789141126094337800,10.246337890625,0.1495282500982284,0.0484379529953002,-0.0564469024538993
1789141126104309500,10.2563095703125,0.170381486415863,0.0728126987814903,-0.0667744576930999
1789141126114282500,10.266282470703125,0.1440761089324951,0.06032220646739,-0.0528778098523616
1789141126124254700,10.276254638671874,0.1655905693769455,0.068212978541851,-0.060651384294033
1789141126134226700,10.286226806640624,0.1498715281486511,0.0979114845395088,-0.0697988048195838
1789141126144199700,10.29619970703125,0.145154595375061,0.0623956248164176,-0.0500255264341831
1789141126154171600,10.306171630859374,0.1292762905359268,0.0684908032417297,-0.0092261638492345
1789141126164144600,10.31614453125,0.1322183907032013,0.0685604140162468,-0.0103059988468885
1789141126174116600,10.32611669921875,0.1563642024993896,0.0263213496655225,-0.0299689155071973
1789141126184088800,10.3360888671875,0.1519865244626999,0.0327064469456672,-0.0518320091068744
1789141126194061800,10.346061767578124,0.0974444597959518,0.0618283748626709,0.0066645923070609
1789141126204033500,10.356033447265624,0.1060959175229072,0.0610569044947624,-0.0288672782480716
1789141126214005800,10.366005859375,0.1082458868622779,0.080774150788784,-0.0250887833535671
1789141126223978800,10.375978759765625,0.0943346843123436,0.077473372220993,0.020837789401412
1789141126233950700,10.38595068359375,0.1030986085534095,0.0656995400786399,0.0104567874222993
1789141126243922700,10.395922607421875,0.1282432973384857,0.089279219508171,-0.0041893608868122
1789141126253895700,10.405895751953125,0.1455554366111755,0.0839142799377441,0.0082824882119894
1789141126263867600,10.41586767578125,0.1399518102407455,0.0922005027532577,0.0093986708670854
1789141126273840600,10.425840576171876,0.1404207944869995,0.1326371431350708,-0.0030438844114542
1789141126283812900,10.435812744140623,0.1365658044815063,0.1404164880514145,-0.0005416559870354
1789141126293784600,10.44578466796875,0.1338283419609069,0.1756668835878372,-0.030798627063632
1789141126303757600,10.455757568359376,0.1394561529159546,0.1557884812355041,-0.0013109295396134
1789141126313729800,10.465729736328123,0.1247925087809562,0.1715568006038665,-0.0177492909133434
1789141126323701500,10.475701416015625,0.1332732141017913,0.1621675640344619,-0.0045969453640282
1789141126333674800,10.4856748046875,0.1115956157445907,0.1470850110054016,0.0448321253061294
1789141126343646700,10.495646728515624,0.1160602644085884,0.143061488866806,0.0484821684658527
1789141126353619700,10.50561962890625,0.0866115614771843,0.1387583464384079,0.0288472138345241
1789141126363591700,10.515591796875,0.0614471621811389,0.1361588239669799,0.0241771005094051
1789141126373563600,10.525563720703126,0.0544134899973869,0.1222696453332901,0.0120349507778882
1789141126383537000,10.535536865234375,0.0492123998701572,0.1197122260928154,-0.0375848673284053
1789141126393508600,10.545508544921876,0.0247483327984809,0.1187167391180992,-0.0103907976299524
1789141126403480800,10.555480712890626,0.0326915569603443,0.1360964775085449,-0.0333721823990345
1789141126413453800,10.565453857421875,0.0435133129358291,0.1294529438018798,-0.0524228401482105
1789141126423425800,10.57542578125,0.0434509962797164,0.1115549206733703,-0.0343837738037109
1789141126433397800,10.585397705078124,0.0309192277491092,0.1211558878421783,0.020389724522829
1789141126443370800,10.595370849609376,0.0125130778178572,0.0973010286688804,0.0337200164794921
1789141126453342700,10.6053427734375,-0.0255533475428819,0.0816448405385017,0.0430975407361984
1789141126463315700,10.615315673828125,-0.0844717398285865,0.0817290395498275,0.0333151817321777
1789141126473288000,10.625287841796874,-0.1038385182619094,0.046516191214323,0.032300516963005
1789141126483259600,10.635259765625,-0.0957982614636421,0.0506195127964019,0.0061386357992887
1789141126493232600,10.645232666015623,-0.1222389265894889,0.0315267778933048,-0.0301165729761123
1789141126503204900,10.655204833984374,-0.1382711231708526,0.0139692304655909,-0.0633119717240333
1789141126513176600,10.665176513671875,-0.141177698969841,0.0052958484739065,-0.0382409766316413
1789141126523149800,10.67514990234375,-0.190199926495552,0.0099713755771517,0.0188933499157428
1789141126533121800,10.685121826171876,-0.216875746846199,-0.004009953700006,0.0452229604125022
1789141126543093800,10.69509375,-0.1821298003196716,-0.0178611427545547,0.0131458435207605
1789141126553066800,10.705066650390624,-0.2149183750152588,0.0278861075639724,0.0215848665684461
1789141126563038700,10.715038818359377,-0.2184521257877349,0.0105236396193504,0.0474152751266956
1789141126573011700,10.72501171875,-0.183783620595932,-0.0054787625558674,0.0251539126038551
1789141126582983700,10.734983642578126,-0.1971677839756012,0.0066516180522739,0.0341411121189594
1789141126592956000,10.744955810546877,-0.1916670352220535,-0.0035360378678888,0.0085057895630598
1789141126602928600,10.7549287109375,-0.166549265384674,-0.0075710816308856,0.0214994251728057
1789141126612900600,10.764900634765626,-0.2020894140005111,0.0234339721500873,-0.0004135968047194
1789141126622872800,10.774872802734375,-0.2150386422872543,-0.0152801554650068,-0.0100908149033784
1789141126632845600,10.784845458984377,-0.241235613822937,-0.0019204088021069,-0.0471106171607971
1789141126642817800,10.79481787109375,-0.2371187210083007,0.0176826529204845,-0.0469398573040962
1789141126652789800,10.804789794921875,-0.2376185953617096,-0.0018324584234505,-0.0332466810941696
1789141126662762800,10.8147626953125,-0.2159197628498077,-0.0581614598631858,-0.0473849661648273
1789141126672734700,10.824734619140624,-0.2071379870176315,-0.038513459265232,-0.0481820479035377
1789141126682707700,10.834707763671876,-0.2459261268377304,-0.0322643481194973,-0.0267507936805486
1789141126692679700,10.8446796875,-0.2560474872589111,-0.0710279941558837,-0.0003937550936825
1789141126702651600,10.854651611328125,-0.2793852984905243,-0.0623880289494991,-0.0184018202126026
1789141126712625000,10.864625,-0.2777114808559418,-0.0630708634853363,-0.0400804840028286
1789141126722596600,10.8745966796875,-0.2591524422168731,-0.0673803836107254,-0.0222632642835378
1789141126732568800,10.88456884765625,-0.219825267791748,-0.0784894898533821,0.0084736095741391
1789141126742541800,10.894541748046874,-0.2358325272798538,-0.0708981975913047,-0.0066714882850646
1789141126752513500,10.904513427734376,-0.2388128638267517,-0.0920538157224655,0.0400118604302406
1789141126762486800,10.91448681640625,-0.2503647804260254,-0.0848326906561851,0.0645792335271835
1789141126772458800,10.924458740234376,-0.2483040392398834,-0.0936996862292289,0.0645456761121749
1789141126782430700,10.9344306640625,-0.275375634431839,-0.0974349528551101,0.0709646865725517
1789141126792403700,10.94440380859375,-0.2086613029241562,-0.1101693883538246,0.0276933759450912
1789141126802375700,10.954375732421877,-0.1967602670192718,-0.1027983948588371,-0.0091560622677207
1789141126812347600,10.96434765625,-0.1792923212051391,-0.1151589229702949,-0.0070833237841725
1789141126822320600,10.974320556640626,-0.1560430973768234,-0.105342648923397,-0.009405493736267
1789141126832292900,10.98429296875,-0.14333076775074,-0.1048172041773796,-0.0019049670081585
1789141126842264600,10.9942646484375,-0.1541021764278412,-0.0951745808124542,-0.0343480482697486
1789141126852237800,11.00423779296875,-0.1473449319601059,-0.0703099817037582,-0.0148478467017412
1789141126862209800,11.014209716796875,-0.1906593739986419,-0.0835778340697288,0.03113229945302
1789141126872182500,11.0241826171875,-0.1621302515268325,-0.1097130328416824,0.006569699384272
1789141126882154800,11.03415478515625,-0.1370641440153122,-0.1006539762020111,0.0390556417405605
1789141126892126700,11.044126708984376,-0.1343184262514114,-0.1028867661952972,0.0609668008983135
1789141126902099700,11.054099609375,-0.113955058157444,-0.1108715534210205,0.0673843473196029
1789141126912071700,11.06407177734375,-0.0975475907325744,-0.1016101464629173,0.0382999666035175
1789141126922044000,11.0740439453125,-0.0948540419340133,-0.1123164221644401,0.071047656238079
1789141126932016600,11.0840166015625,-0.0933104753494262,-0.1190811172127723,0.0559864118695259
1789141126941988600,11.093988525390625,-0.1074732765555381,-0.0927649512887001,0.0304247625172138
1789141126951960800,11.1039609375,-0.1216426268219947,-0.102200262248516,0.0349441468715667
1789141126961933600,11.11393359375,-0.0867339149117469,-0.1309663951396942,0.0394653938710689
1789141126971905800,11.12390576171875,-0.0823924243450164,-0.0875076055526733,-0.0039912690408527
1789141126981878800,11.133878662109376,-0.085467092692852,-0.0946419909596443,0.021945821121335
1789141126991850500,11.1438505859375,-0.0701105073094368,-0.0830234214663505,0.0125959943979978
1789141127001822700,11.15382275390625,-0.0556660890579223,-0.0737595111131668,-0.0006530902464874
1789141127011795700,11.163795654296877,-0.0305652674287557,-0.0860393494367599,0.021839702501893
1789141127021767700,11.173767578125,0.0012972047552466,-0.0696057677268982,0.0220184810459613
1789141127031739600,11.18373974609375,0.0126012582331895,-0.0635460093617439,0.0122084598988294
1789141127041712600,11.193712646484377,0.0555073656141757,-0.0923581644892692,0.0485610477626323
1789141127051684600,11.2036845703125,0.0347003564238548,-0.0802687406539917,0.0668433755636215
1789141127061656800,11.21365673828125,0.0362478382885456,-0.0913807228207588,0.0845848843455314
1789141127071629800,11.2236298828125,0.053973838686943,-0.0606875196099281,0.0422571301460266
1789141127081601500,11.2336015625,0.0605420470237731,-0.0837701559066772,0.0339104831218719
1789141127091574800,11.24357470703125,0.0109627749770879,-0.0732104554772377,0.002911286894232
1789141127101546800,11.253546630859375,0.0265141651034355,-0.0830617323517799,-0.0013920229393988
1789141127111518700,11.263518798828123,0.0908641293644905,-0.0439068712294101,-0.0553378127515316
1789141127121491700,11.27349169921875,0.1370617002248764,-0.0578257888555526,0.0083552794530987
1789141127131463700,11.283463623046876,0.1295901983976364,-0.047337993979454,0.0543725714087486
1789141127141435600,11.293435546875,0.1252256482839584,-0.0358508937060833,0.0307087190449237
1789141127151409000,11.303408935546877,0.0867437720298767,-0.0183411426842212,0.0255056992173194
1789141127161380900,11.313380859375,0.0692908465862274,-0.0344829596579074,0.0523882880806922
1789141127171352800,11.323352783203124,0.0947876796126365,-0.0319417715072631,0.0286728385835886
1789141127181325800,11.333325927734377,0.1268636584281921,-0.0301297269761562,0.0075069149024784
1789141127191297800,11.3432978515625,0.1346177160739898,-0.0178911723196506,-0.0444697327911853
1789141127201270800,11.353270751953126,0.1582203358411789,-0.010673901066184,-0.0442105308175087
1789141127211243000,11.363242919921875,0.1617879122495651,0.0151020353659987,-0.0284781735390424
1789141127221214700,11.373214599609376,0.1475437134504318,-0.0065336250700056,-0.0150186577811837
1789141127231187700,11.383187744140624,0.1413587778806686,0.0328135155141353,-0.0600303374230861
1789141127241160000,11.393159912109375,0.1328047066926956,0.0112272351980209,-0.0575981028378009
1789141127251131600,11.403131591796877,0.1101137772202491,-0.0122043211013078,-0.0777273401618003
1789141127261105000,11.41310498046875,0.1334296464920044,-0.0128132253885269,-0.0638017505407333
1789141127271076900,11.423076904296876,0.0926547870039939,0.0186024885624647,-0.0220737420022487
1789141127281048800,11.433048828125,0.0883009433746337,0.0179235562682151,-0.0404404290020465
1789141127291021800,11.443021728515625,0.1174308657646179,0.0150569314137101,0.011046196334064
1789141127300993800,11.452993896484376,0.1526530981063842,0.0224629621952772,0.0561758242547512
1789141127310967000,11.462967041015624,0.1853865385055542,0.0136036910116672,0.0394687503576278
1789141127320938800,11.472938720703125,0.1614717692136764,-0.0015087728388607,0.0117066968232393
1789141127330911000,11.482910888671874,0.0838725864887237,-0.0263358261436224,0.0580616816878318
1789141127340884000,11.492884033203126,0.0470185652375221,0.0010789991356432,-0.0082705607637763
1789141127350856000,11.50285595703125,0.0773250684142112,0.0010065613314509,-0.0078702876344323
1789141127360828000,11.512827880859374,0.1035729199647903,0.0081427972763776,0.0122784208506345
1789141127370801000,11.52280078125,0.0795810297131538,0.0137016139924526,-0.0006067519425414
1789141127380772900,11.53277294921875,0.1098000630736351,0.0354323238134384,-0.0509571284055709
1789141127390745900,11.542745849609377,0.062312439084053,0.0197132807224988,0.0188302062451839
1789141127400718000,11.552718017578124,0.0150261195376515,-0.0037712987978011,0.0007918664487078
1789141127410689800,11.562689697265624,0.015936654061079,-0.0107695534825325,-0.0559545047581195
1789141127420662800,11.572662841796877,0.0016660527326166,-0.0376643426716327,-0.0063516423106193
1789141127430635000,11.582635009765625,0.0120835397392511,-0.0273017175495624,-0.0281829051673412
1789141127440606700,11.592606689453126,0.0282978750765323,-0.0340909585356712,-0.0334783010184764
1789141127450580000,11.602580078125,0.0148332007229328,-0.0305023491382598,-0.0148119376972317
1789141127460552000,11.612552001953125,-0.0270221605896949,-0.0123101007193326,0.0028813153039664
1789141127470524000,11.62252392578125,-0.0045943511649966,-0.0111500285565853,-0.0353449024260044
1789141127480497000,11.632496826171876,-0.0097141498699784,-0.0088682360947132,0.022988511249423
1789141127490468900,11.64246875,-0.0089056147262454,0.0117156021296978,-0.025137472897768
1789141127500440800,11.65244091796875,0.0252484492957592,-0.0182923916727304,-0.0157401263713836
1789141127510413800,11.662413818359376,0.0138242878019809,0.0047860289923846,0.0066461395472288
1789141127520386000,11.672385986328123,-0.0073614530265331,0.0033498983830213,0.0263223908841609
1789141127530358800,11.68235888671875,-0.0057233422994613,0.0127125065773725,0.0309909116476774
1789141127540331000,11.6923310546875,-0.0039498349651694,0.0072267507202923,0.0395960509777069
1789141127550303000,11.702302978515624,0.0027629286050796,-0.0120369587093591,0.0777695327997207
1789141127560275700,11.712275634765623,-0.008931147865951,0.0015395926311612,0.0676570683717727
1789141127570248000,11.722248046875,-0.0372488051652908,-0.0112414499744772,0.0884305238723754
1789141127580220000,11.732219970703126,-0.0508542284369468,-0.0200802236795425,0.0611635409295558
1789141127590193000,11.74219287109375,-0.0413936153054237,-0.0308444537222385,0.0740266069769859
1789141127600164900,11.752164794921876,-0.0364375486969947,-0.0102888084948062,0.00761937815696
1789141127610137900,11.762137939453124,-0.0447705835103988,0.0099794454872608,-0.0241729076951742
1789141127620109800,11.77210986328125,-0.0492292791604995,0.0257198922336101,-0.0198635067790746
1789141127630081800,11.782081787109377,-0.0701292306184768,0.0067920070141553,0.0060178926214575
1789141127640055000,11.792054931640624,-0.0516065768897533,-0.0050120837986469,-0.0086099738255143
1789141127650026800,11.80202685546875,-0.0357860662043094,0.0101000238209962,-0.0253916159272193
1789141127659999000,11.8119990234375,-0.0156986620277166,-0.0157772582024335,-0.0053413165733218
1789141127669972000,11.821971923828125,-0.0484832376241683,-0.0028366916812956,-0.0016347288619726
1789141127679943700,11.831943603515626,-0.0935841724276542,-0.0295749977231025,0.0223809964954853
1789141127689916000,11.841916015625,-0.1128627955913543,-0.033955629914999,-0.0179150253534317
1789141127699889000,11.851888916015625,-0.1007718294858932,-0.0163969080895185,-0.0036291163414716
1789141127709860900,11.86186083984375,-0.0616190955042839,-0.0204443801194429,0.0201808754354715
1789141127719833900,11.871833740234376,-0.0776862427592277,-0.0184831172227859,0.0074243522249162
1789141127729805800,11.881805908203123,-0.0871130377054214,-0.0128505323082208,-0.0255386568605899
1789141127739777800,11.89177783203125,-0.1120681017637252,-0.0113597624003887,-0.0384699553251266
1789141127749750800,11.901750732421876,-0.0728184357285499,-0.0197894647717475,-0.0257935766130685
1789141127759723000,11.911722900390624,-0.07570780813694,0.0107773803174495,-0.0123120807111263
1789141127769694700,11.92169482421875,-0.0521052740514278,-0.0148976221680641,-0.0310508795082569
1789141127779668000,11.93166796875,-0.0878801792860031,0.0178278405219316,-0.0335079729557037
1789141127789640000,11.941639892578126,-0.0676287040114402,0.0147215295583009,-0.0175348669290542
1789141127799612000,11.95161181640625,-0.0626833215355873,0.0050019528716802,-0.0075667304918169
1789141127809585000,11.9615849609375,-0.0758542492985725,0.0036274949088692,-0.0317554250359535
1789141127819556900,11.971556884765626,-0.0595162734389305,0.0153668532148003,-0.0393509194254875
1789141127829530000,11.981530029296875,-0.0478827841579914,-0.0106698079034686,-0.0203338209539651
1789141127839501800,11.991501708984377,-0.0804734826087951,-0.0052950158715248,-0.0286924187093973
1789141127849474000,12.00147412109375,-0.1202621683478355,0.0025410689413547,0.0219617038965225
1789141127859447000,12.011447021484376,-0.0531180016696453,-0.0209033787250518,0.0182979796081781
1789141127869418800,12.021418701171877,-0.0604459531605243,-0.0378397516906261,0.0248086079955101
1789141127879391000,12.031390869140624,-0.0574954599142074,-0.053574651479721,0.0069773066788911
1789141127889363700,12.04136376953125,-0.0694671645760536,-0.041255135089159,0.0226103290915489
1789141127899336000,12.0513359375,-0.062511496245861,-0.0444686152040958,0.0129992300644516
1789141127909308000,12.061307861328125,-0.0555409342050552,-0.0115578044205904,-0.0130691220983862
1789141127919280600,12.07128076171875,-0.0094899591058492,-0.0340506024658679,-0.0023064282722771
1789141127929252900,12.0812529296875,-0.0436159744858741,-0.0165658853948116,0.0644254609942436
1789141127939225900,12.091225830078123,-0.0119748450815677,-0.0070175370201468,0.0050150896422564
1789141127949197800,12.10119775390625,-0.0156590621918439,-0.0376569367945194,0.032370813190937
1789141127959169800,12.111169677734376,-0.0324436165392398,-0.0184002742171287,0.0369060188531875
1789141127969143000,12.12114306640625,-0.0406038090586662,-0.0388879738748073,0.0701670348644256
1789141127979114800,12.13111474609375,-0.0258928202092647,-0.0503806248307228,0.0615346953272819
1789141127989087000,12.1410869140625,-0.0145261827856302,-0.0423045866191387,0.0497739128768444
1789141127999060000,12.15106005859375,-0.0002960888668894,-0.0350523777306079,0.0251037012785673
1789141128009031700,12.16103173828125,0.0280607156455516,-0.0222178064286708,0.0084738600999116
1789141128019005000,12.1710048828125,0.009110146202147,0.0185085386037826,0.0157187562435865
1789141128028977000,12.180976806640626,0.0420156307518482,0.0192204006016254,0.0166359487920999
1789141128038948900,12.190948974609377,0.0659798681735992,0.0149652753025293,-0.0060858819633722
1789141128048921900,12.200921875,0.0547120384871959,0.0203035809099674,0.0562949404120445
1789141128058893800,12.210893798828126,0.0290925111621618,0.0397549755871295,0.0180644076317548
1789141128068865800,12.22086572265625,0.0173823256045579,0.0258085336536169,0.0130925513803958
1789141128078838800,12.2308388671875,0.0314107649028301,0.0321781150996685,0.0234334766864776
1789141128088811000,12.24081103515625,0.0578285232186317,0.0255441814661026,0.0207122601568698
1789141128098782700,12.25078271484375,0.055003710091114,0.0208458304405212,-0.0181986540555953
1789141128108755700,12.260755615234377,0.0747361332178115,0.0070176338776946,-0.0258283428847789
1789141128118728000,12.27072802734375,0.0347274653613567,0.0297359973192214,0.0468985885381698
1789141128128701000,12.280700927734374,0.0174952149391174,-0.0049854991957545,0.0093493508175015
1789141128138673000,12.2906728515625,-0.0219706911593675,0.018961526453495,-0.0176304914057254
1789141128148644900,12.300644775390625,-0.0318211913108825,0.0279470328241586,-0.0174336824566125
1789141128158617900,12.310617919921874,-0.0185666754841804,-0.011574582196772,0.01045857463032
1789141128168590000,12.320590087890626,-0.0132936164736747,-0.0150191150605678,0.0305923372507095
1789141128178562000,12.33056201171875,-0.0096067665144801,-0.0132927550002932,-0.0181423053145408
1789141128188535000,12.34053515625,0.0124117163941264,-0.0360356159508228,0.0158779788762331
1789141128198507000,12.350507080078126,-0.0154967680573463,-0.036629918962717,0.0711361318826675
1789141128208479200,12.360479248046875,-0.0527485348284244,-0.0560249239206314,0.0217131879180669
1789141128218452000,12.370451904296877,-0.0707373842597007,-0.0590545199811458,-0.0405745394527912
1789141128228424200,12.380424072265624,-0.075380340218544,-0.0498578250408172,-0.0037536758463829
1789141128238397200,12.390397216796876,-0.029571708291769,-0.0690962448716163,0.007483591325581
1789141128248369000,12.400368896484377,-0.0116584887728095,-0.0739644989371299,-0.0489621087908744
1789141128258341000,12.410341064453124,-0.0247518941760063,-0.0729880332946777,-0.0123801454901695
1789141128268314000,12.420314208984376,-0.0599253252148628,-0.0394921228289604,-0.0271204747259616
1789141128278286000,12.4302861328125,-0.053255096077919,-0.0796915292739868,-0.0059096347540616
1789141128288258000,12.440258056640625,-0.0323538035154342,-0.0612206384539604,-0.0206366498023271
1789141128298231000,12.45023095703125,-0.0062727769836783,-0.0405018851161003,-0.0219451375305652
1789141128308203000,12.460203125,0.0060677784495055,-0.0447248592972755,-0.0789333209395408
1789141128318175000,12.470175048828125,0.0307371690869331,-0.0432894267141819,-0.0683950707316398
1789141128328148200,12.480148193359376,0.0107030076906085,-0.0125309824943542,-0.0120308669283986
1789141128338120000,12.490119873046876,0.0375149399042129,-0.0029266669880598,-0.019946064800024
1789141128348093000,12.500093017578124,0.0553509257733821,-0.0105483680963516,0.0052093565464019
1789141128358065200,12.510065185546877,0.0585144460201263,-0.0060767005197703,-0.0195516161620616
1789141128368036900,12.520036865234376,0.0525771975517272,0.0135476002469658,-0.0246800649911165
1789141128378010000,12.530010009765626,0.0489799603819847,-0.003540129167959,0.0058611342683434
1789141128387982000,12.539982177734377,0.0267974250018596,-0.0156684312969446,0.0020056762732565
1789141128397954000,12.5499541015625,0.0198391675949096,0.0006232219748198,0.0003729781601577
1789141128407927000,12.559927001953126,0.0320263244211673,-0.0131988506764173,-0.0241134576499462
1789141128417899000,12.56989892578125,0.0595215186476707,-0.0551039017736911,-0.0720483139157295
1789141128427871000,12.57987109375,0.0421009846031665,-0.0557521171867847,-0.0464177913963794
1789141128437844000,12.589843994140624,0.0405447930097579,-0.0318673960864543,-0.0516629628837108
1789141128447816200,12.599816162109375,0.0300700478255748,-0.0292092952877283,-0.0694006830453872
1789141128457789200,12.6097890625,0.0075144856236875,-0.0347639024257659,-0.0130808567628264
1789141128467761200,12.61976123046875,0.023782406002283,-0.0370662026107311,-0.0065156323835253
1789141128477733000,12.629733154296876,0.0441154018044471,-0.0322523713111877,-0.0053487732075154
1789141128487706000,12.6397060546875,0.0182483848184347,-0.0524620339274406,0.0480231046676635
1789141128497678000,12.649677978515625,0.0392266362905502,-0.045715969055891,0.0276538003236055
1789141128507650000,12.659650146484376,0.0482571460306644,-0.0509631931781768,-0.0031536470633
1789141128517623300,12.669623291015624,0.0367088317871093,-0.0631333664059639,0.0417314209043979
1789141128527595000,12.679594970703125,0.0741358324885368,-0.0628095269203186,0.0099926684051752
1789141128537568000,12.689568115234374,0.0627335235476493,-0.0333875901997089,-0.0215913951396942
1789141128547540200,12.699540283203126,0.0718788206577301,-0.0392444133758544,-0.0356286503374576
1789141128557512000,12.709511962890623,0.0518138036131858,-0.0207634940743446,-0.0356017500162124
1789141128567485200,12.719485107421876,0.0354377590119838,-0.013189198449254,-0.0120594073086977
1789141128577457200,12.72945703125,0.0163241699337959,-0.0385317727923393,0.0325392745435237
1789141128587429000,12.73942919921875,0.0474645122885704,-0.0239160787314176,-0.0060382122173905
1789141128597402000,12.749402099609377,0.0480124577879905,-0.0046814181841909,0.0098487874493002
1789141128607374000,12.7593740234375,0.047302458435297,-0.0168185085058212,-0.0172057338058948
1789141128617346000,12.769345947265624,0.0505483895540237,0.0015239506028592,-0.0088919242843985
1789141128627319000,12.779319091796877,0.0796820446848869,0.0209455862641334,-0.0641048401594162
1789141128637291300,12.789291259765625,0.0846586972475051,0.0120370704680681,-0.0329184085130691
1789141128647264000,12.799263916015626,0.0980464071035385,0.0539746657013893,-0.0091582182794809
1789141128657236200,12.809236328125,0.0988815203309059,0.044871911406517,0.0321234501898288
1789141128667208200,12.819208251953125,0.0958713516592979,0.0339327119290828,0.0691227465867996
1789141128677181000,12.829180908203124,0.1243598461151123,0.0417735837399959,0.0347211621701717
1789141128687153200,12.839153076171876,0.0965359359979629,0.0429504327476024,0.0736696198582649
1789141128697125000,12.849125,0.0505236312747001,0.0352297276258468,0.0839630588889122
1789141128707098000,12.85909814453125,0.0665476024150848,0.0403171628713607,0.0362682379782199
1789141128717070000,12.869070068359376,0.0581608042120933,0.055600669234991,0.0322748124599456
1789141128727042300,12.879042236328123,0.0527031868696212,0.0449821129441261,0.0177009291946887
1789141128737015000,12.88901513671875,0.0511369854211807,0.0598300471901893,0.0030046871397644
1789141128746987000,12.898987060546874,0.0704014971852302,0.0385985262691974,0.0485593862831592
1789141128756959200,12.908959228515624,0.0540712773799896,0.0440996997058391,-0.0068100215867161
1789141128766932000,12.918931884765623,0.0486072711646556,0.0459644421935081,-0.0019928959663957
1789141128776904200,12.928904296875,0.0179538913071155,0.034384224563837,0.0505035407841205
1789141128786877200,12.938877197265626,0.0012513436377048,0.005865498445928,0.0268818326294422
1789141128796849000,12.948848876953123,-0.0138372462242841,0.0341303870081901,-0.0081086661666631
1789141128806821000,12.958821044921876,-0.0089072026312351,0.03779037296772,0.0126301683485507
1789141128816794000,12.968794189453124,-0.0298525430262088,0.0433405339717865,0.0086414506658911
1789141128826766000,12.97876611328125,-0.0300173945724964,0.0462724082171916,0.0420020706951618
1789141128836738000,12.988738037109377,-0.0036337487399578,0.0530776940286159,0.0115688135847449
1789141128846711000,12.9987109375,0.0031117717735469,0.0541168600320816,-0.030137887224555
1789141128856683000,13.00868310546875,-0.0084908222779631,0.0694481432437896,-0.0187488794326782
1789141128866656000,13.018656005859375,-0.0100477067753672,0.0774898305535316,-0.0174471251666545
1789141128876628200,13.028628173828125,-0.0234579425305128,0.0787850394845008,-0.0240313038229942
1789141128886600000,13.038599853515626,-0.0252350699156522,0.074363924562931,-0.0088129360228776
1789141128896573200,13.0485732421875,-0.0010496834293007,0.0597371980547905,-0.0015525814378634
1789141128906545200,13.058545166015625,-0.015910655260086,0.0704220607876777,0.0382845774292945
1789141128916517000,13.06851708984375,-0.0219047870486974,0.0548703856766223,0.0265053734183311
1789141128926490000,13.078489990234376,-0.0437400415539741,0.05672287940979,0.0147698875516653
1789141128936462000,13.088462158203123,-0.0649517253041267,0.0298174992203712,0.0342907980084419
1789141128946434000,13.09843408203125,-0.1002370119094848,0.0626976862549781,0.0063015082851052
1789141128956407000,13.108406982421876,-0.0857697054743766,0.0676218122243881,-0.0089673046022653
1789141128966379300,13.118379150390624,-0.0933725014328956,0.0930560678243637,-0.0171879492700099
1789141128976351000,13.12835107421875,-0.0652251839637756,0.0742198973894119,-0.0330675020813941
1789141128986324000,13.138323974609374,-0.0597928576171398,0.0923712030053138,-0.0135755613446235
1789141128996296200,13.148296142578126,-0.0512391589581966,0.0817075371742248,-0.0003881976590491
1789141129006269000,13.15826904296875,-0.0730866715312004,0.0492689050734043,0.0464307069778442
1789141129016241200,13.1682412109375,-0.0984490141272544,0.0839965268969535,0.0219823569059371
1789141129026213000,13.178213134765626,-0.1243842169642448,0.0427620038390159,0.0428551472723484
1789141129036185900,13.188185791015623,-0.1656704545021057,0.0315191447734832,0.0112140178680419
1789141129046158000,13.198157958984376,-0.1476235389709472,0.0353575609624385,-0.0242576878517866
1789141129056130000,13.208130126953124,-0.1540388613939285,0.0288736708462238,-0.0123474840074777
1789141129066103000,13.21810302734375,-0.1667629033327102,0.000979721546173,-0.0125911626964807
1789141129076075000,13.228074951171877,-0.1611222475767135,-0.0114250797778368,-0.0066108172759413
1789141129086047200,13.238047119140624,-0.1639071106910705,-0.0024955011904239,-0.0475731641054153
1789141129096020000,13.24802001953125,-0.1639925837516784,-0.0155711881816387,-0.0597958825528621
1789141129105992200,13.2579921875,-0.1757150143384933,-0.0016942548099905,-0.0572341866791248
1789141129115965200,13.267965087890625,-0.2129129022359848,-0.0244824532419443,0.0118007585406303
1789141129125937000,13.27793701171875,-0.1970686912536621,-0.0383314229547977,0.0166844651103019
1789141129135909000,13.2879091796875,-0.1974794119596481,-0.0326902233064174,0.0047742826864123
1789141129145882000,13.297882080078123,-0.1892230808734893,-0.0479597225785255,0.0249123070389032
1789141129155854000,13.30785400390625,-0.2103557884693145,-0.0607106648385524,0.0636505186557769
1789141129165826000,13.317825927734376,-0.1982229650020599,-0.0611149333417415,0.0021807644516229
1789141129175798800,13.327798828125,-0.1990330964326858,-0.1089510470628738,0.0110268760472536
1789141129185771000,13.33777099609375,-0.2416159808635711,-0.1031227186322212,0.0739395320415496
1789141129195743000,13.347742919921876,-0.2474566847085952,-0.0911978855729103,0.0858252793550491
1789141129205716000,13.357716064453124,-0.2453152388334274,-0.1035272553563118,0.075408324599266
1789141129215688000,13.36768798828125,-0.2657276690006256,-0.1074933409690857,0.0660227388143539
1789141129225661000,13.377660888671874,-0.2580039799213409,-0.1091897711157798,0.0393146872520446
1789141129235633000,13.3876328125,-0.2486959099769592,-0.0807350277900695,0.0360300317406654
1789141129245604900,13.39760498046875,-0.2257016450166702,-0.1028200909495353,0.0395645797252655
1789141129255578000,13.407578125,-0.198726937174797,-0.1172119975090026,-0.0054143462330102
1789141129265549800,13.4175498046875,-0.2339866459369659,-0.1272888630628585,0.02275151014328
1789141129275522000,13.42752197265625,-0.2366512864828109,-0.1395467221736908,0.0433718636631965
1789141129285495000,13.4374951171875,-0.2650565505027771,-0.1596573293209076,0.0518337897956371
1789141129295467000,13.447467041015624,-0.2633531391620636,-0.1695452034473419,0.0312430243939161
1789141129305439000,13.45743896484375,-0.2725972533226013,-0.1710429638624191,0.0633735284209251
1789141129315412000,13.467411865234377,-0.2809046506881714,-0.199686661362648,0.0787271410226821
1789141129325384000,13.477384033203125,-0.2889055907726288,-0.1994602978229522,0.0453739762306213
1789141129335357000,13.48735693359375,-0.2715860605239868,-0.2037901580333709,-0.0014776194002479
1789141129345329200,13.4973291015625,-0.2783182859420776,-0.208396628499031,-0.0269171986728906
1789141129355300900,13.50730078125,-0.2645760476589203,-0.2081439644098281,-0.0207684133201837
1789141129365273900,13.51727392578125,-0.2798828184604645,-0.1811248511075973,-0.0047276625409722
1789141129375246000,13.52724609375,-0.2468271106481552,-0.213075041770935,-0.0217372570186853
1789141129385217800,13.5372177734375,-0.2018186300992965,-0.2285831570625305,-0.0018378507811576
1789141129395191000,13.54719091796875,-0.1995500177145004,-0.2234780192375183,0.03554018586874
1789141129405163000,13.5571630859375,-0.1971265375614166,-0.2172853797674179,0.0040696104988455
1789141129415135000,13.567135009765623,-0.1695879995822906,-0.2464995980262756,-0.0180925969034433
1789141129425108000,13.57710791015625,-0.1769748032093048,-0.2413298636674881,-0.01015664357692
1789141129435080000,13.587079833984374,-0.1756222248077392,-0.2495482712984085,-0.003640811657533
1789141129445052000,13.597052001953124,-0.1361264735460281,-0.2288757562637329,-0.0427530594170093
1789141129455025000,13.60702490234375,-0.1205220520496368,-0.245630070567131,-0.0024845460429787
1789141129464997000,13.6169970703125,-0.1296556293964386,-0.2600606977939605,0.039078876376152
1789141129474970000,13.62697021484375,-0.091028518974781,-0.2590356767177582,-0.0321657732129097
1789141129484942000,13.636942138671875,-0.0865727886557579,-0.2728747725486755,0.0227251704782247
1789141129494914000,13.6469140625,-0.0905449762940406,-0.2687404751777649,0.0091606583446264
1789141129504887000,13.656886962890624,-0.0969418883323669,-0.2742622494697571,-0.0370188206434249
1789141129514859000,13.66685888671875,-0.0945281311869621,-0.2510898113250732,-0.0302291549742221
1789141129524831000,13.6768310546875,-0.0918724238872528,-0.233169674873352,0.0002941328566521
1789141129534804200,13.68680419921875,0.0462482422590255,-0.1868277937173843,-0.0653633475303649
1789141129544776000,13.69677587890625,0.0533093474805355,-0.1877609640359878,-0.0067666126415133
1789141129554749000,13.7067490234375,0.0575330890715122,-0.1783548444509506,-0.0387861877679824
1789141129564721200,13.71672119140625,0.0595267303287982,-0.1584533154964447,-0.0451016090810298
1789141129574692900,13.72669287109375,0.0716084688901901,-0.1481373906135559,-0.0523046590387821
1789141129584666000,13.736666015625,0.101065956056118,-0.1424320936203003,-0.0049640410579741
1789141129594638000,13.74663818359375,0.1532984524965286,-0.1373123824596405,-0.0601646825671196
1789141129604610000,13.756610107421874,0.1495590955018997,-0.1605303585529327,-0.00906927511096
1789141129614583000,13.7665830078125,0.1539619415998459,-0.1370105445384979,0.0017067519947886
1789141129624555000,13.776554931640623,0.1557310819625854,-0.1437486112117767,0.0173560194671154
1789141129634527000,13.78652685546875,0.1807449907064438,-0.1469588875770568,0.0090362252667546
1789141129644500000,13.7965,0.1884979754686355,-0.1390311866998672,-0.0087409075349569
1789141129654472200,13.80647216796875,0.169484943151474,-0.1240146234631538,-0.0420594625174999
1789141129664444000,13.81644384765625,0.1799905747175216,-0.126217320561409,-0.0350305810570716
1789141129674417000,13.8264169921875,0.2102110385894775,-0.1274306923151016,-0.0542425103485584
1789141129684389000,13.83638916015625,0.2640873193740845,-0.121357075870037,-0.0834603235125541
1789141129694361900,13.84636181640625,0.2701990902423858,-0.1051326021552085,-0.0244269892573356
1789141129704334000,13.856333984375,0.2792842090129852,-0.1273388415575027,0.0061543565243482
1789141129714306000,13.86630615234375,0.3512026071548462,-0.1413920819759369,-0.008770671673119
1789141129724279000,13.876279052734375,0.282618761062622,-0.1131583154201507,-0.0281486306339502
1789141129734251000,13.8862509765625,0.2059673517942428,-0.1306197643280029,0.0049996129237115
1789141129744223200,13.89622314453125,0.2046698480844497,-0.0975582227110862,0.019097588956356
1789141129754196000,13.906196044921876,0.2689975202083587,-0.0911266282200813,-0.0149667970836162
1789141129764168000,13.91616796875,0.3575817048549652,-0.1147129163146019,-0.0235629491508007
1789141129774140200,13.92614013671875,0.4346937537193298,-0.1026199236512184,-0.004104683175683
1789141129784113000,13.93611279296875,0.455336719751358,-0.0532020479440689,-0.0146087231114506
1789141129794085000,13.946085205078123,0.4588437378406524,-0.0281154345721006,-0.0034460262395441
1789141129804058000,13.95605810546875,0.4809460937976837,0.0370297469198703,-0.0195091478526592
1789141129814029800,13.96602978515625,0.4378255903720855,0.063632383942604,0.0061031132936477
1789141129824002000,13.976001953125,0.4403518736362457,0.0577710345387458,0.0169040951877832
1789141129833975000,13.98597509765625,0.4666540920734405,0.0712188482284545,-0.0176173895597457
1789141129843947000,13.995947021484374,0.452537477016449,0.0714619904756546,0.023335637524724
1789141129853919000,14.0059189453125,0.4453751444816589,0.0788093656301498,0.0457431860268116
1789141129863892000,14.01589208984375,0.4380506575107574,0.0852052122354507,0.0289716627448797
1789141129873864000,14.025864013671876,0.4234809875488281,0.0821165442466735,-0.0021808827295899
1789141129883836000,14.0358359375,0.4073461890220642,0.1314097791910171,-0.0035588021855801
1789141129893809200,14.04580908203125,0.3848585784435272,0.1317917853593826,0.0185452476143836
