time,seconds_elapsed,z,y,x,vertical,horizontal
1789998446959095600,1.566095458984375,2.3809148930817843,2.056034704184532,-4.333218296895921,-2.2319249121655833,4.867373668408669
1789998446969166600,1.57616650390625,2.6558950327783823,0.7653466588705777,-3.7116742520213126,-1.0968527265724097,4.495884093558227
1789998446979236400,1.586236328125,-2.1939647728852925,0.0021639000356197,-4.0013992486462,0.8320673629136441,4.486908284973661
1789998446989306400,1.596306396484375,-3.3597926589518785,-1.0503297216653824,-4.109323909053206,2.1394978348144615,4.969958877063387
1789998446999376600,1.606376708984375,6.197522514739632,-2.382740939465165,-4.136749968378245,1.1282886455285492,7.7412146810792395
1789998447009446400,1.6164462890625,7.576764457297324,0.7642062566637993,-4.9862417681396005,-2.183894123532059,8.836548210224974
1789998447019516400,1.626516357421875,-4.670001981815696,3.2764544505298137,-5.770487773269415,-1.6043108858749324,7.954167963996872
1789998447029587500,1.63658740234375,-6.377824721354246,-2.316889287894964,-4.793182079021633,4.144248833996358,7.20030695132185
1789998447039657500,1.646657470703125,-0.9053472502350808,-5.214133408924937,-2.7290605144932862,5.4714119332735045,2.34909846489543
1789998447049727500,1.6567275390625,-2.015672298657894,-2.004280551549792,-5.621898801779746,2.854192126244224,5.61599579672524
1789998447059797500,1.666797607421875,-0.7920695383623242,0.8650900586485862,-6.150784728962183,-0.17641633491810796,6.2591361242572905
1789998447069867300,1.6768671875,5.46310583166182,0.7333774031579494,-4.820427813343703,-1.6575268236471148,7.132495837779924
1789998447079937500,1.6869375,1.4860434441536663,1.6493892552703615,-3.1771742843493818,-1.711189966993374,3.477797487391356
1789998447090008600,1.697008544921875,-7.08804804341793,0.4697603689968586,-3.835058055105805,1.5459839055080904,7.923301327099878
1789998447100078300,1.707078369140625,-7.213684009343385,-2.900585832673311,-4.350852153263986,4.8765813046753035,7.456507520133991
1789998447110148400,1.7171484375,1.7323448941156268,-2.8089602728992698,-4.310277566291392,2.629635182970098,4.749188156922769
1789998447120218600,1.727218505859375,5.165905092328787,-0.29646131914258,-3.356524597066641,-0.7013275352623194,6.127712607139185
1789998447130288400,1.737288330078125,-1.3011676460132002,1.4503040222525596,-3.292757935076952,-0.8382701540666357,3.7330921456356814
1789998447140358400,1.7473583984375,-10.227232204329969,-0.2795551925271749,-5.621964268231392,3.1637152644721294,11.2370733567762
1789998447150428400,1.757428466796875,-3.1864398330837487,-3.015921353858709,-3.56719739202559,3.958113210687094,4.038244354615284
1789998447160499500,1.76749951171875,3.1810876584008336,-3.671486034017801,-0.5276110849410295,2.826238160508205,3.986211196795487
1789998447170569500,1.777569580078125,0.9284221286132932,-1.6759259645402431,-3.917667364731431,1.6970698740509098,4.017308416189816
1789998447180639500,1.787639404296875,-3.9971827999949454,-0.3169862207770347,-5.61933742685914,1.6988436326800085,6.69095165348999
1789998447190709200,1.797709228515625,2.309170676341653,-3.1398931859642265,-1.810074030484259,2.61990593141462,3.4064144401573873
1789998447200779500,1.807779541015625,-6.012157179516554,-1.5223890152543782,-2.6538486216425894,3.124053022694308,5.978871756691932
1789998447210849500,1.817849609375,-10.53140804337263,-0.7302092945158482,-5.5514528081566095,3.6676338616141866,11.349486822237472
1789998447220920300,1.82792041015625,-5.511272188937664,-3.5804110938638445,-3.431543889954686,5.053994973278682,5.424582289944563
1789998447230990300,1.837990234375,0.0988330069348216,-2.758396791353821,-1.794301876334846,2.7820837628915136,1.7601278310068773
1789998447241060600,1.848060546875,-4.854196519693732,-1.0771470014423132,-4.061539244571328,2.5218131603068583,5.904238217943029
1789998447251130400,1.85813037109375,-4.763242867831885,-1.3460492825299502,-3.8937688950106497,2.74726081658456,5.666950282326669
1789998447261200400,1.868200439453125,-2.137327085992694,-3.000482377186417,-1.3839023355841635,3.5236813210946103,1.7521179155891635
1789998447271270400,1.8782705078125,-2.1334826855242253,-0.4023620725065469,-0.5058239082857966,0.9419124462881099,2.0204708304116865
1789998447281341400,1.888341552734375,-0.6129053958669305,-0.0372375515043735,-2.131213279287517,0.34645791367673173,2.1906794871425297
1789998447291411500,1.898411376953125,0.1107823879256844,-1.6598592113584278,-2.843150127270817,1.7964356803463601,2.76110971016809
1789998447301481500,1.9084814453125,-2.554292268869281,-1.4736410586982964,-2.7545176118329167,2.251538836472482,3.348726191619833
1789998447311551200,1.91855126953125,-2.972731615951657,-1.4538590843856334,-2.519999246384203,2.3152940644344135,3.4555244312116953
1789998447321621500,1.92862158203125,-0.2388482113465666,-2.56531635170877,-2.752877443410456,2.7498344941011084,2.5796590716405996
1789998447331691500,1.93869140625,0.965875368694961,-2.8883009361177683,-2.171387468765676,2.727691207195373,2.5592619528160974
1789998447341761300,1.94876123046875,-0.6207233761414885,-1.239667467650771,-3.658196052072942,1.62836213966645,3.557092638313363
1789998447351832300,1.958832275390625,3.596302198217809,-1.4262199668318032,-3.4013182630389927,0.7733118534505751,5.09298022757711
1789998447361902600,1.968902587890625,0.6581462210848927,-0.603799421608448,-3.591156067501008,0.699922123068108,3.6337640419614696
1789998447371972400,1.978972412109375,-4.477070595252513,-1.4462082773715257,-3.730924019153416,2.7627889221844457,5.331272915970763
1789998447382042400,1.98904248046875,-6.164611009740829,-2.8077041353583336,-1.599324955418706,4.32383095226848,5.4541688296528035
1789998447392112400,1.9991123046875,-3.949407780124247,-1.6526035411417483,-0.2573907069921493,2.57006967761603,3.4336441437843748
1789998447402182400,2.009182373046875,-3.372465970303118,-0.0973971289128065,1.334769763624668,0.8047548378934514,3.5379362479200704
1789998447412253400,2.01925341796875,1.7883996665537356,-1.6623352460831402,1.2640499214962124,1.0809834244954604,2.5280484326255412
1789998447422323500,2.029323486328125,-0.7927975603759289,-1.3168763795375824,0.7059557277470827,1.4112026566415923,0.932508403259006
1789998447432393200,2.039393310546875,-3.155751557092368,0.3480471294730901,0.0424795438110828,0.420261970607101,3.147235148845602
1789998447442463500,2.04946337890625,4.157922228005528,-0.0299736979812383,-0.8837769312009215,-0.9051888243793321,4.153421545311144
1789998447452533500,2.059533447265625,4.754443767565489,-1.5967553971916435,-2.7483596737250684,0.6094319340597898,5.686513602490481
1789998447462603300,2.069603271484375,-4.737682017856836,-1.9006068265855312,-4.3018344398558135,3.308824518833914,5.797878669227275
1789998447472674300,2.07967431640625,-7.89585729496479,-2.966594136109948,-3.705798053464293,5.0555231354228365,7.701939251325916
1789998447482744600,2.08974462890625,1.159597321113944,-1.9342595053404568,-2.618086403387785,1.7920677888145642,2.9544703818166473
1789998447492814300,2.099814453125,4.9725510964393616,1.0237217007249593,-2.6225518583640453,-1.9881308181447241,5.357180660290205
1789998447502884400,2.10988427734375,4.748042083829641,-0.3009405103832483,-4.815591186967492,-0.484888290117344,6.75198271966932
1789998447512954400,2.119954345703125,4.350188720919191,-0.2247539272814989,-5.019920750379562,-0.4471485612661349,6.631313500332339
1789998447523024400,2.1300244140625,-2.4602660776942966,-0.3078215020686388,-4.492838073226809,1.233678868287647,4.981093620116567
1789998447533094400,2.140094482421875,-4.649497830708325,-0.5953513267368078,-3.460096322961151,1.9604078570276142,5.486468889757998
1789998447543165400,2.15016552734375,3.765523915630579,-1.470651813754439,-1.6956047707393764,0.6452583603987513,4.335977894705497
1789998447553235500,2.1602353515625,8.329428744727373,0.9484873037815094,-1.962998985351622,-2.774421225631325,8.150764581202381
1789998447563305500,2.170305419921875,2.208905883038044,1.11329675770998,-2.006123841328918,-1.4560860482786717,2.8324973358511976
1789998447573375500,2.18037548828125,-1.857450698687136,0.3748001118421554,-1.1358508270844816,0.17159879103378733,2.202568768096575
1789998447583445200,2.1904453125,-0.0353629898041486,-1.7547107474416492,-2.1791393980667,1.8727016100843603,2.078917397115399
1789998447593515500,2.200515625,-4.75130839214921,-2.5761872898131606,-2.3028493643656374,3.813082106549074,4.469361524107988
1789998447603586600,2.210586669921875,-5.297863831534982,-2.148555751493573,-1.425513864389062,3.4639963763277626,4.766180008887222
1789998447613656600,2.220656494140625,-2.950690464535356,-2.0408663611471654,-1.92522747310102,2.8325093077594827,2.924910522768309
1789998447623726300,2.230726318359375,3.192109987674653,-0.7261059508502483,-0.3104378220468759,-0.04276947518920837,3.288059980995125
1789998447633796400,2.24079638671875,4.4468022982388735,1.3648720564216374,-0.8612316296547651,-2.3260705514875397,4.119228340289405
1789998447643866600,2.25086669921875,3.8983047848746177,1.0860942780077456,-2.904797312888503,-1.7681241697751182,4.657033962268132
1789998447653936400,2.260936279296875,-6.912311537283658,-0.7572118677318096,-5.074548997145891,2.785455983008975,8.145287170643682
1789998447664007400,2.27100732421875,-7.461596109372377,-4.418701408392191,-3.1262597974091766,6.311610153135037,6.718438526299671
1789998447674077400,2.281077392578125,-3.621191140280664,-4.987885443693399,-1.5976777727335691,5.820374498944027,2.582216379660048
1789998447684147500,2.2911474609375,-4.018821508090197,-1.3072726848900318,-3.961498030890524,2.535576656198685,5.208090423162577
1789998447694217500,2.301217529296875,-1.5786539233118295,0.793459239155054,-4.781138005484641,-0.022222236370981197,5.097108256010331
1789998447704287500,2.31128759765625,8.183104211038351,0.1770575256049633,-1.8286501361384984,-2.0030439113438474,8.1440972676973
1789998447714357800,2.321357666015625,-0.1225280630379915,1.277131813648343,-0.4562470996901392,-1.1713081169497634,0.6944620269012631
1789998447724428000,2.331427978515625,-9.589441665792464,0.8622153799951076,-1.0069038369148968,1.5528788741874004,9.555272333221753
1789998447734499000,2.3414990234375,-4.011811044806242,-1.970169607633352,-1.4041007817432285,2.9799415052692892,3.614919608032363
1789998447744569000,2.351569091796875,4.536430546715855,-2.127429376834631,1.0550178794816136,0.8849137856159739,5.043327093957756
1789998447754638800,2.361638916015625,3.511269168576598,0.5883382331043482,2.568878135843575,-1.611343016192913,4.083853769628686
1789998447764709000,2.371709228515625,0.4567535879075527,1.975510968661308,0.8497010585978627,-2.0863144704336722,0.6932180369904958
1789998447774779000,2.38177880859375,-1.9013409860789767,0.2675987972736358,-0.4782216156110167,0.23566662061193844,1.9646536130353949
1789998447784849000,2.391848876953125,-0.3608841069534421,-2.2803940791904926,1.4553203891098498,2.1821559158192976,1.6390812942231774
1789998447794920000,2.401919921875,-0.8840151238709688,-1.4609253695100546,1.5254863967478274,1.5099582591286507,1.7213135905065464
1789998447804990000,2.411989990234375,-3.406045583821833,-0.898020852869749,-0.666834846714139,1.7403525284158885,3.134235115764262
1789998447815060000,2.42206005859375,0.5912561663776635,-1.7598434341549871,0.1422057001933455,1.5494131806234352,1.032557031788501
1789998447825130000,2.4321298828125,2.892947008357942,1.6366466780751945,1.2885966259926558,-2.378877284642395,2.6550289774602867
1789998447835200000,2.442199951171875,1.583456939679384,4.081871253982186,1.32261550771147,-4.431851300706409,1.1300507261051085
1789998447845270000,2.45227001953125,-0.5516100924268365,2.742618791985512,-0.0100251349300146,-2.51993169906768,1.215021097587796
1789998447855340000,2.462340087890625,0.5995581307768821,0.0442938997566699,0.8698626798778771,-0.25373275419776525,1.0265050769615613
1789998447865411000,2.4724111328125,1.0963438693434,-0.6882733560621738,1.5443538865640758,0.2838574061929134,1.9950298224354803
1789998447875480800,2.482480712890625,-3.9465848316580057,-1.5664508598208426,0.9062707948207854,2.3971578226484094,3.6199808364916986
1789998447885550800,2.49255078125,-3.089395463131368,-2.2767121758073565,-1.360122816067934,3.050954059686032,2.6961817556611485
1789998447895621000,2.50262109375,1.467841724769771,-0.5209627329677343,1.492224763137102,0.0364616452550498,2.1567027589033176
1789998447905691000,2.51269091796875,-0.2874187655091285,2.873568646410108,1.4772370373636483,-2.8238683220755862,1.5962466214639113
1789998447915761000,2.522760986328125,1.7105585942432284,3.568846912798285,1.082641507205367,-3.947772977476517,1.117980385677371
1789998447925832000,2.53283203125,5.209031701871752,2.5784634180516,2.139011824209243,-3.9130416294846624,4.800620966017025
1789998447935902000,2.54290185546875,3.1763539078772065,3.0163048002183435,1.378885530335456,-3.7889198495946337,2.5947505612338335
1789998447945972000,2.552971923828125,-2.7304928853839634,1.716425732710957,0.4151163401395082,-1.0346054868169383,3.0827944718297213
1789998447956042000,2.5630419921875,-4.930805712121725,-0.3579389934122562,0.6605022826917469,1.4837577627763738,4.761899984306586
1789998447966112000,2.573112060546875,-1.7491136580869555,-1.6915028883785008,-0.0599431581787765,2.062551115399848,1.2923067317299062
1789998447976182000,2.58318212890625,0.9135486768692732,-0.683105013513565,1.6956906954571604,0.31133569603126754,2.019812036684028
1789998447986252000,2.593251953125,-0.3072320117428899,2.0128589948028326,1.1435318831063803,-1.9608392391742802,1.2683719832105669
1789998447996322800,2.60332275390625,-0.0969913245908915,3.1112545359790325,0.1985561676423996,-3.0020538053758465,0.8464098333746104
1789998448006392800,2.613392822265625,6.294553148427605,2.821580685019493,3.171545046290756,-4.488641426056183,6.12319467511843
1789998448016463000,2.623463134765625,-1.142877656981349,3.914595117679238,3.114368284085393,-3.7500485555831506,3.5023777514527223
1789998448026532900,2.633532958984375,-7.04233726260066,2.229154305818677,1.2658514179602265,-0.556894930695446,7.473679875930018
1789998448036603000,2.643602783203125,-3.2447146196588874,-0.910706731441617,0.6219457575432956,1.615328266644175,3.0224312779660716
1789998448046673200,2.653673095703125,2.841245170432329,-1.613217287170887,3.624902269758284,0.5995054786548651,4.84310373422804
1789998448056744000,2.663743896484375,0.9969023751214146,0.9491682717829942,2.947057953251898,-1.3836050316798134,2.9437259467922283
1789998448066814000,2.67381396484375,-2.2942042856171727,2.2244734545260667,3.5430686206802724,-1.870167894846924,4.389471807628837
1789998448076884000,2.683884033203125,-0.7146747485145926,0.9370850352793932,3.2935935091182587,-0.986043437996516,3.356242676148272
1789998448086954000,2.6939541015625,-3.718230541796982,1.537818639576435,5.134266091483831,-0.984269532427516,6.44841269739121
1789998448097024000,2.70402392578125,-4.311420598846674,1.123347611603141,5.065911517181992,-0.4351266971624208,6.732338501144129
1789998448107094000,2.714093994140625,1.003610348327458,-0.6004682313591242,3.080258801473677,0.10393687694521853,3.293172822341464
1789998448117163800,2.724163818359375,6.477374644386768,0.3883674494236707,2.9391274525135755,-2.1607091664034064,6.788005424265341
1789998448127234800,2.73423486328125,-0.8505693658649921,3.6867239351600407,2.690330970865488,-3.567608639253942,2.9707660544291574
1789998448137305000,2.74430517578125,-3.6215050285354256,2.889867454782128,3.717382108274102,-2.207513609482376,5.514748043272949
1789998448147374800,2.754374755859375,3.279037160499393,0.2851549122303724,1.275699442757666,-1.1632867442712442,3.3328022807781537
1789998448157444900,2.76444482421875,5.964235736912489,-0.1114426054000854,1.691360849559307,-1.4582040298319638,6.026513910260742
1789998448167515100,2.77451513671875,-0.8439192603260278,0.3214063753068447,0.2942508034862577,-0.13013703189539558,0.9408239284366013
1789998448177585000,2.7845849609375,-1.814445669697225,-0.8415197979688643,0.1203217851653695,1.2421319565719005,1.5722449532769418
1789998448187656000,2.794656005859375,1.194590308561921,-1.825976240754128,-2.229476669640839,1.6491890223291048,2.6480137889011495
1789998448197726000,2.804725830078125,1.9672297547891733,0.0749894822716712,-0.7574369086593389,-0.488632239849708,2.0519662607748006
1789998448207796000,2.8147958984375,0.194040809109807,1.7982769174456594,-0.0567857170611619,-1.7823096673344472,0.31312709050188303
1789998448217866000,2.824865966796875,-6.004551380687952,-0.6449982779592275,1.3351385969370604,1.9686493771112508,5.8632478000612
1789998448227936000,2.83493603515625,-5.636858470502496,-3.2495851483047007,0.5933255199976265,4.456760096226083,4.77737393030162
1789998448238005800,2.845005859375,-4.311121615900099,-2.4693951405674217,-0.8834582206405699,3.495303460640181,3.6396475231804044
1789998448248076000,2.855075927734375,2.506975221899152,-1.2146341486811638,0.5353942861631512,0.5303549861081951,2.786688269025627
1789998448258147000,2.86514697265625,14.494236153823136,0.4265677084803581,-0.6138961604699492,-3.8576530132950513,13.99143393000043
1789998448268216800,2.875216796875,7.698485295605659,3.891135331636667,-0.0905912482902407,-5.612549151448199,6.550962434071244
1789998448278286800,2.885286865234375,-3.990700452238321,3.9751170986592768,3.845751298555732,-3.178394354520653,6.034472505948041
1789998448288357000,2.895357177734375,-1.947157565358281,-1.5378887822031977,1.8120923845693468,1.8186560372531158,2.476427571954294
1789998448298427000,2.905427001953125,3.8843352962329982,-5.356948473188281,1.134255666847527,4.160639315194438,5.268830424732782
1789998448308497000,2.915496826171875,-3.155205905908346,-2.479269468849897,6.319193668687343,2.6762746432598865,6.990841441777414
1789998448318568000,2.92556787109375,-5.1870355586409564,0.1100134493798017,5.458246116670966,0.7262922590703338,7.495491382839308
1789998448328638000,2.935637939453125,0.8990855594918131,-1.3545961616009472,-1.1836813765347003,1.1844278014747471,1.6252747424849456
1789998448338708000,2.9457080078125,0.6945853156879543,-2.9688129812031985,-0.1158978312432765,2.7139562408810223,1.394336081437973
1789998448348778000,2.955778076171875,-3.129484312413633,-0.337096111869812,3.309561185839772,0.8273089268773559,4.491777046181942
1789998448358847700,2.96584765625,0.6436614763975143,-0.7931120331525802,0.2120432065293192,0.5961054659870083,0.85612346550325
1789998448368918000,2.97591796875,-2.316292491045594,-2.952466826558113,-1.5656006727322935,3.534216595686812,2.0106441224722165
1789998448378988000,2.985988037109375,-10.125158315777778,-1.884343674048781,0.6352686188444495,4.213914892130717,9.418920824673018
1789998448389059000,2.99605908203125,-4.109209927284717,-0.5565963564068078,-1.0618477255016563,1.6095810359039135,3.9663806185831603
1789998448399128800,3.00612890625,8.533214118260144,-2.7958815956175327,-3.992593426378071,0.9543139721144125,9.780735360685908
1789998448409199000,3.01619921875,2.761827934846282,0.7328419811069965,-3.226001735882461,-1.1280173614383386,4.159256537312943
1789998448419268900,3.026268798828125,-5.220215943709015,2.1778291922509667,-2.2387091928884386,-0.678540492985098,6.045245746806084
1789998448429339000,3.0363388671875,1.4212836794734,-1.7140268548756836,-3.5550229701071974,1.5875008462772358,3.882777966589299
1789998448439409000,3.046408935546875,2.2847411684840915,-1.2445324433386324,-4.013563733692467,0.9602526227259169,4.685670918283517
1789998448449480000,3.05647998046875,-3.036232028220594,-0.6501806490331887,-0.0860816619113087,1.3671101202351037,2.789239999935096
1789998448459550000,3.066550048828125,0.0461778138071298,-3.3874984120011327,-2.1599705872163177,3.431376645023791,2.090072998587149
1789998448469620000,3.076619873046875,-3.0292633582517503,-1.7274217584997416,-1.4907166966617107,2.5149827941234273,2.8385771506785105
1789998448479690000,3.08668994140625,-7.835932110834121,-0.2260837145805359,1.895504535010457,1.961734960650252,7.822881775791296
1789998448489760000,3.096760009765625,5.860272673612832,-3.500457851704955,0.4858201079159975,1.9379152328501603,6.563269513603641
1789998448499830000,3.106830078125,8.809853131079674,-0.445201097279787,-1.5684733055591582,-1.5718473459591518,8.820494353462639
1789998448509899800,3.116899658203125,0.6891416633293033,6.257728269377351,1.856506403574348,-6.362400501323042,1.6126237046433334
1789998448519970800,3.126970703125,0.8042068431407213,3.223347129720449,2.3531959882900115,-3.4921788749274727,2.092590124712892
1789998448530041000,3.137041015625,-0.3710241004347801,-2.380127542096376,-0.3667909929096699,2.4202602221648957,0.2820320712882977
1789998448540111000,3.147111083984375,-7.905941466605663,-1.9480811099439856,1.8159680569589136,3.6507725523647117,7.501235247551637
1789998448550180900,3.157180908203125,0.8583414611712098,-2.778720617458224,1.7153882063567638,2.350717786017304,2.423782358806731
1789998448560251000,3.1672509765625,10.274083971875903,-0.8847019370913505,-0.7816571576803922,-1.5594569257285718,10.223432935545707
1789998448570321000,3.17732080078125,5.149111778438091,2.4467864183962345,1.1440417323246597,-3.6952119874232867,4.489360281532527
1789998448580392000,3.187391845703125,-0.9919698871552944,2.121095497637987,2.816898664683104,-2.0284063685395326,3.05016984089161
1789998448590462000,3.1974619140625,-1.1212588226303457,-1.5059931762486696,0.8107967429250478,1.665302796564045,1.1871793244189282
1789998448600532000,3.207531982421875,-4.025993883937597,-3.204159029647708,0.8187053240925073,4.007520147716041,3.3294627966270016
1789998448610602000,3.21760205078125,-4.53444492585659,-0.2925993830174208,2.733989203067124,1.1666869262489987,5.173040089074898
1789998448620672000,3.227672119140625,-2.003832807782292,0.3637573243021965,1.986580351947248,-0.020930716448808284,2.8449479278854906
1789998448630742000,3.237741943359375,5.304155040633678,-1.0384078132033348,-3.39295930775553,-0.013989732483834727,6.3815616139837825
1789998448640812000,3.24781201171875,-3.184598004609346,0.89040979334414,-0.1029651383034884,-0.08643628446852081,3.307207982494919
1789998448650883000,3.257883056640625,-1.5597335342645644,1.151432134836912,2.640887725521624,-0.9399973166425136,3.1383527020652355
1789998448660953000,3.267953125,8.01214207969904,0.2563783150792121,-0.0942804581969976,-2.171067351214724,7.7172213851239375
1789998448671022800,3.27802294921875,3.882560395514965,0.882095553985238,-0.6077452366247773,-1.7423944731820247,3.631223425189737
1789998448681092900,3.2880927734375,-7.287373514932393,2.269729477313161,0.4615653721034526,-0.4756928512445875,7.631791634362286
1789998448691163100,3.2981630859375,-4.967659232744574,-1.7270669537127017,-0.3285977481156587,2.892862217764381,4.404511685122077
1789998448701233000,3.30823291015625,4.291743546213209,-4.444900848531723,-2.358451278469712,3.4468090812901564,5.644289663880822
1789998448711302400,3.318302490234375,4.944545483660698,-0.0570832387030124,-1.013455596645921,-1.0585611203344933,4.935415801836696
1789998448721373400,3.32837353515625,-2.105999050793052,2.120001272660493,0.4282914635330438,-1.5765335648157666,2.574415058759546
1789998448731443500,3.338443359375,-7.850849109458923,1.638693089210987,0.8884054677844047,0.23800553446967654,8.06559138692699
1789998448741513200,3.34851318359375,-4.54043159905076,0.1567880600363016,-0.1333098615542054,0.9523229104303885,4.444204562673233
1789998448751583200,3.358583251953125,3.436822414879501,-1.3187971184670924,0.0231549578770995,0.4462490155789499,3.6540897798582317
1789998448761653200,3.3686533203125,5.735635655596852,0.2153062999784946,1.8521905862018464,-1.7315570979276915,5.777213269457458
1789998448771723300,3.37872314453125,-4.055626513396203,2.17198631144166,2.2174365416266024,-1.2937922718068564,4.940521969064199
1789998448781794300,3.388794189453125,-9.39981808860302,0.0836123491883277,2.313529602203518,2.006922550747571,9.470388176803427
1789998448791864300,3.3988642578125,-4.342285984970629,-1.5268606077104807,2.984035684776306,2.2954900885115608,4.982162694273838
1789998448801934300,3.408934326171875,4.31129668020606,-0.9834300223469734,3.920915260611474,-0.38659701168325367,5.897332694113728
1789998448812004400,3.41900439453125,14.562844995146987,0.6266665024548769,3.817562730425596,-4.406241892848737,14.409301955348706
1789998448822074400,3.429074462890625,6.322882001811266,3.345874608236551,2.63709973141551,-4.961921332847955,5.788552961054348
1789998448832144400,3.439144287109375,-14.419177697968482,5.160820920932292,3.7008921612441537,-1.8022093597395927,15.652328972914846
1789998448842214400,3.44921435546875,-10.448405935037137,-2.984088876268268,2.9015283742204305,5.182745493566428,9.981582492776903
1789998448852285400,3.459285400390625,6.329968745201826,-8.181656934839486,1.6840793142490087,6.262477271998172,8.403898861185013
1789998448862355200,3.469355224609375,5.4939983980536455,-1.3728227231651544,0.9180671772070228,-0.06542517999140651,5.736482155009512
1789998448872425200,3.47942529296875,-2.494866850954294,5.335868275758624,0.9244844969034196,-4.632219934683401,3.7540725781442186
1789998448882495500,3.48949560546875,3.498212118604779,2.735474765449762,0.9731614340499044,-3.563757851604721,2.8225845197289554
1789998448892565200,3.499565185546875,1.9789555561572312,-0.8643459622830152,1.2349674732662737,0.2652131497052765,2.4734926078340354
1789998448902635300,3.50963525390625,-4.691243507286906,-1.6162117928117512,2.100550137737393,2.5334854893353786,4.755383092912807
1789998448912706300,3.519706298828125,-1.0771525544002651,-2.0726883173435926,0.8866593547694385,2.1971817777058167,1.1894753185422946
1789998448922776300,3.5297763671875,-0.8832482311516999,-0.1360515614777803,-0.5811795935213565,0.3888073017393214,0.9925905839030443
1789998448932846300,3.539846435546875,2.634659644787013,-1.016381274834275,-1.1154419530451296,0.433861644574427,3.005068578865262
1789998448942916400,3.549916259765625,1.6667144840806722,-1.3811591743558644,0.2815929819650948,0.9132864971233253,1.9826094466676676
1789998448952986400,3.559986328125,-3.071243135847152,0.4527291546970605,2.0863646682575343,0.142515383109165,3.737660361982022
1789998448963056400,3.570056396484375,-0.3550277821406722,-1.209150164312124,0.6418851143747568,1.2064034528413576,0.738035266756343
1789998448973126400,3.58012646484375,3.5464456958979365,-1.1469944446504114,-1.7367310002453624,0.38802714176103636,4.093719926238472
1789998448983197200,3.590197265625,-5.2899803848087785,2.378708907470107,0.0697490974001586,-1.0324029723865351,5.707990677754725
1789998448993267200,3.60026708984375,-1.696191046194732,0.7762824789047241,-0.6253944366924464,-0.29468625556503397,1.9452395133948326
1789998449003337500,3.61033740234375,6.496104479297995,-1.8223557121694087,-3.3458260929197072,0.4537557031115165,7.517247618216928
1789998449013407200,3.6204072265625,1.0037588168874385,0.0710392833411693,-2.1704652393542228,-0.1447781261578865,2.387998532597558
1789998449023477200,3.630477294921875,-1.90364867849946,-0.1817944909989833,0.3364195277824998,0.6088083373649867,1.8437619247447867
1789998449033547500,3.640547607421875,-3.3432387067750096,-1.1264917548477649,0.1454025965385139,1.884240346812712,2.9861361246168747
1789998449043617300,3.6506171875,-2.5959236714184284,-0.5787339539349079,-1.0049341442771256,1.2620859749847413,2.5477017728432187
1789998449053688300,3.660688232421875,3.751584237605333,-0.9622656537652016,-1.721896857598424,0.15874203925502117,4.2355718897742065
1789998449063758300,3.67075830078125,5.919312891602516,0.8569073367148637,-2.1330045466184613,-2.092206609890054,5.995409509769528
1789998449073828000,3.680828125,2.7264678676515817,2.0054548560261725,-0.7615648022443056,-2.5390231799044747,2.3640681996974404
1789998449083898400,3.6908984375,-1.939673785474152,2.3198276794344186,0.4836588382288813,-1.8141714003167142,2.4671122508705414
1789998449093968400,3.700968505859375,-0.7476653100989759,0.6342220324009656,-1.019082350486517,-0.3556793499277041,1.3686716331598092
1789998449104038100,3.7110380859375,-0.0877346898153424,-1.9149205986201765,-2.2113636514537034,2.0427887085561967,2.0956530643173767
1789998449114109200,3.721109130859375,-1.039041434931755,-2.984078354874253,-2.3057652518123386,3.313629031383459,2.0786406063511795
1789998449124179500,3.731179443359375,-3.255188959661126,-2.74885037985146,-0.1460504659879952,3.4549808826914177,2.497372902223723
1789998449134249200,3.741249267578125,-2.0135978304713964,-1.3901543817162514,-1.9376754512637853,1.9781160066780945,2.4142801507775005
1789998449144319200,3.7513193359375,-0.521032291072607,0.2761854238331317,-1.6515376654759049,-0.0155594872960311,1.7535927690085125
1789998449154389500,3.761389404296875,2.808109793549776,1.0502566564291715,-0.9096477239079772,-1.6231916383696756,2.679781249233168
1789998449164459300,3.771459228515625,3.307743907284737,1.6585709251135587,0.6466822124581784,-2.4509920476404505,2.8465528514546183
1789998449174529300,3.781529296875,3.3984652116954326,1.6978239080935715,0.4481587049763649,-2.4956640944029727,2.899082401511225
1789998449184600300,3.791600341796875,-1.952411101972312,2.11029061050713,0.877094896153733,-1.6384169696551685,2.5199446149279146
1789998449194670000,3.801670166015625,-2.5570114647001025,0.998732805418968,-0.0103784784123301,-0.34950670095943825,2.7228161204948105
1789998449204740400,3.811740234375,2.6502064657479525,-1.558967810589075,0.5976645721152425,0.8242487572085124,3.0218854830299353
1789998449214810400,3.821810302734375,6.662423753267526,-0.3792886554330587,0.718440749984607,-1.29294630864825,6.586060818610384
1789998449224880000,3.831880126953125,1.7171385571554303,0.5718342575490475,0.2248505195237696,-0.9841216491816078,1.535454844115803
1789998449234950400,3.841950439453125,-1.4567378546923395,0.3044944034725427,1.6069421524241565,-0.0663975166870851,2.189213664779002
1789998449245020400,3.8520205078125,2.2585576565660537,-0.4318751672387123,1.5549688040807843,-0.24501814853602838,2.7650484510516287
1789998449255091200,3.86209130859375,3.9785254457980392,-0.895564691889286,1.82577545748502,-0.23142334262813036,4.462129547409252
1789998449265161200,3.8721611328125,-1.455805980669707,1.3240975629627705,2.060215058609098,-1.0877453923914426,2.6332302327461816
1789998449275231500,3.8822314453125,-1.0315068016432225,1.6830992171704768,1.3742552401863035,-1.4849203460132203,1.8921993256133443
1789998449285301200,3.89230126953125,0.3508044653572142,0.8891992485105991,0.2904636496303603,-0.9670306181871162,0.25091829688487743
1789998449295371300,3.902371337890625,-3.494083932758868,-0.0141582892119884,0.6599974749747664,0.8050536635900243,3.4635687162275897
1789998449305441300,3.912441162109375,-0.4523623672112822,-3.2445757957100865,-0.0620738135319203,3.2529684347083285,0.3923688653478756
1789998449315511300,3.92251123046875,-1.1600864198051393,-0.6747960348516703,-0.3312868045365437,0.9576702579382058,0.9968795383537807
1789998449325582300,3.932582275390625,1.5881167481839655,1.7930343406170606,-0.9843138194441796,-2.0422444882423734,1.592230541688893
1789998449335652400,3.94265234375,7.000909273669123,1.7418693860471248,-0.5210807333242148,-3.3321211989864095,6.419916904610338
1789998449345722000,3.95272216796875,1.9253116442531344,2.8250685271352527,0.0320875117974355,-3.1996387888805584,1.2046486374089163
1789998449355792400,3.96279248046875,-4.347694858276844,2.028015647402406,-0.1464609099524095,-0.9035877369015877,4.713838992441412
1789998449365862400,3.9728623046875,-0.4826607671022415,-0.5955407118290662,-0.4651069537004456,0.7280091824392807,0.5234092702753683
1789998449375932200,3.98293212890625,0.3190520672656595,-2.3082769423723217,-0.5336729057306423,2.1972409721736583,0.9417406993576036
1789998449386003200,3.993003173828125,-1.883281013253331,-2.476998601308465,0.8253602519370615,2.7872540301912445,1.610808480988618
1789998449396073200,4.0030732421875,-4.062147731858492,0.0554652821123599,1.137478428286314,0.8380749307606913,4.1346835644593245
1789998449406143200,4.013143310546875,-1.0513818610668182,1.7906249413877724,0.7478346753165125,-1.5363238780077428,1.5845211080857504
1789998449416213200,4.023213134765625,2.3723862803198394,1.5378396823644638,1.7059474471859633,-2.189744651782333,2.47152637134537
1789998449426283300,4.033283203125,-0.4024526733994483,0.7316840432435273,2.4637334615439177,-0.7991465942514256,2.475616485623547
1789998449436353300,4.043353271484375,-4.702304415005445,0.9597387656360864,2.4108343766577542,0.02012338501353672,5.370705982521735
1789998449446423300,4.05342333984375,-2.8082167610555886,-0.6135480776846408,1.0789528818205,1.1877546682324738,2.8312366185087368
1789998449456494300,4.063494384765625,2.8621470886856315,-3.084409783673286,0.8447393445372581,2.2302415297235845,3.6667529164366353
1789998449466564000,4.073564208984375,9.698166828927397,-2.7270067968338725,1.0881265144877137,0.2189800331470364,10.130502108400153
1789998449476634400,4.08363427734375,2.3677502910822628,1.0904898826181888,1.4616281109519302,-1.7371399878341165,2.4318945335695306
1789998449486704400,4.093704345703125,-8.287875668111443,3.2582962780267,1.3687258092403412,-1.2604216206871564,8.921329800229412
1789998449496774100,4.103774169921875,-8.352788577526807,-1.6227964318990706,0.5759495108481496,3.5384054876536926,7.7597647982548486
1789998449506844200,4.11384423828125,-0.670299892476201,-4.415618055424094,2.7967066482648253,4.2201568815127235,3.155761196464387
1789998449516914400,4.12391455078125,-6.287450622946023,-1.408698338666558,3.883273512220384,2.581094866483447,7.0664155557306065
1789998449526985500,4.1339853515625,-3.7766958825081582,-0.1701373709529638,1.994419375009835,0.9221357306030544,4.173697743213883
1789998449537055200,4.14405517578125,2.385793897294998,0.3716179746747016,0.5921899400964379,-0.9795472011383546,2.2850139267332312
1789998449547125200,4.154125244140625,5.706897636890411,1.5884084246069192,0.7461245103977621,-2.968684539338288,5.180283375667562
1789998449557195300,4.1641953125,4.54981317538023,1.6221178019851443,0.6685537794612347,-2.7166207988445676,4.049568086314595
1789998449567265300,4.174265380859375,2.6085586965858933,-0.445807246479392,0.545756690223515,-0.23877780825075057,2.691497370936506
1789998449577335300,4.184335205078125,-5.810512325143813,0.1738566837370395,0.8770898546524345,1.1646143839477068,5.762398769346368
1789998449587406300,4.19440625,-8.855629378348588,0.1330716688841581,-0.3946159153591841,2.0348051827617435,8.628740889874429
1789998449597476400,4.204476318359375,3.2312875673308965,-2.5240853466540574,-1.7050466989539563,1.7939192149698977,4.062174820924934
1789998449607546400,4.21454638671875,12.570837649714946,-1.2687322340935467,-1.6577251219391822,-1.6742957019107354,12.63251468155847
1789998449617616100,4.2246162109375,0.3658247782260179,3.774765791228413,-0.2198807682871818,-3.7235646691217497,0.7523950120270455
1789998449627686100,4.23468603515625,-12.623602440696954,3.4271167211622,0.7243968819100409,-0.3300265164187861,13.096423211786535
1789998449637756400,4.24475634765625,-8.928021829864383,-1.0537719710737463,-1.1697856837816536,3.2597653137094618,8.459452571359023
1789998449647826200,4.254826171875,3.299879165259004,-5.398435498830676,-1.4949097644373774,4.542386618989938,4.65121353495806
1789998449657897200,4.264897216796875,9.817096575212478,-2.4875217488884926,-0.5947711887612939,0.08715084501895198,10.144422463375372
1789998449667967200,4.27496728515625,2.157758756385744,5.084533800065517,-0.1004041287090629,-5.431635822202737,1.0078790099976602
1789998449678037500,4.28503759765625,-3.782664435523748,5.884762971746921,-0.9960002386499196,-4.706372606004558,5.270774026104744
1789998449688107300,4.295107177734375,0.4907242465704679,-2.6381577160358427,-2.508796592107415,2.6259073439463867,2.568921443413523
1789998449698177300,4.30517724609375,6.1297290814518925,-5.3968958681732415,-2.2909235103808343,3.9199515879970495,7.522125610628788
1789998449708247300,4.315247314453125,-3.0043221014797687,0.517921465575695,1.933039608156681,0.07502773370519178,3.6090451507041976
1789998449718317800,4.32531787109375,-3.921499490240216,2.028395586630702,2.1676281162321565,-1.1833713693789587,4.773970125611546
1789998449728388900,4.335388916015625,-0.2170662953883409,-0.8381663958877325,0.972063044353947,0.7890086750564369,1.035380392258516
1789998449738458600,4.345458740234375,1.098238304787874,-1.376295952233672,0.8393674422405659,1.0029326730099457,1.6730157437217164
1789998449748528600,4.355528564453125,3.1277555889248845,-1.908472737655044,0.4730271887730807,1.0568803572873966,3.5400398085504654
1789998449758598700,4.3655986328125,3.1743565965801475,0.906961699694395,0.1362864662121981,-1.6526655517849391,2.8611867995257554
1789998449768668700,4.375668701171875,-1.1352937777236105,1.553807066825032,0.2977478518217802,-1.252602588746334,1.4909221644954584
1789998449778738700,4.38573876953125,2.087727627173811,0.382341028741002,-0.083763886488229,-0.8664880752531428,1.9393313568462809
1789998449788808700,4.39580859375,0.077144029957056,-1.529946298766136,0.5725742622613906,1.417964491613017,0.8148035743631884
1789998449798879700,4.405879638671875,-2.3448165747404097,-1.4095049788743257,0.6172207748480141,1.8814998401682175,2.079853093610175
1789998449808949800,4.41594970703125,-3.487979478403925,-0.7842121028602123,-0.5974891424831003,1.6446807265078127,3.2300167255415686
1789998449819019500,4.42601953125,-1.9948501676425336,-0.9428548508524894,-0.9499816339924932,1.4653843393553767,1.903553598933996
1789998449829089500,4.436089599609375,3.2496786718070507,-1.3709031532794236,-1.092933622508496,0.6269909280120725,3.638842289117407
1789998449839159800,4.446159912109375,8.55655115470588,-0.5922574523746967,-1.379301417659968,-1.3829898056391947,8.576429802152452
1789998449849229600,4.4562294921875,5.146950801011919,1.2915671662360428,0.115119248086214,-2.4983885410838993,4.683007092883464
1789998449859300600,4.466300537109375,-3.433284303881228,1.0918448043584823,0.8081168561913072,-0.29100576436970327,3.6807519186228714
1789998449869370600,4.47637060546875,-1.2338029595315456,-1.3844658146858215,-0.1807097645021975,1.6505609604663025,0.8644766450017449
1789998449879441000,4.48644091796875,-1.984705936377496,-1.953881905177236,0.1974723544610664,2.3535090086618085,1.5022326152081793
1789998449889510700,4.4965107421875,-0.306385039524734,0.0671557199060916,-0.9030186611570418,0.07780480143769274,0.9527700658772691
1789998449899580700,4.50658056640625,1.4779327645428475,-0.2161865899443626,0.3191368960049003,-0.17125593310635517,1.5177422910193121
1789998449909650700,4.516650634765625,-0.4542909971863031,1.01391050080657,1.2664040834069252,-0.9682755784433641,1.378628492535338
1789998449919720700,4.526720703125,-2.4481699817091225,1.570687474477291,1.4690695129990576,-1.0421096889468,3.0875181023028815
1789998449929791700,4.536791748046875,2.643381003642082,-2.569150230783224,0.5831449387775733,1.8043913162696397,3.266837313999877
1789998449939861800,4.54686181640625,-2.495394674220681,-2.5324931095153094,0.023505196086876,3.0496544047042713,1.827751743531484
1789998449949931500,4.556931640625,-5.615279091379046,1.0679922196060418,0.5453558178050443,0.2778075142629777,5.735172413123301
1789998449960001800,4.567001708984375,6.698030488699675,1.4712404272973536,0.2520034609958529,-3.0563558456519315,6.144131794775211
1789998449970071600,4.577071533203125,9.294452757290005,1.8107108670830725,-0.6302943375632166,-3.942926273781385,8.632272542798749
1789998449980141600,4.5871416015625,-3.195522134205699,2.4155928232312203,-0.1553436699142679,-1.5554757117538212,3.6947364403663623
1789998449990211800,4.5972119140625,-9.92727778237462,0.9683844289064408,0.6538052692711352,1.4047064053591942,9.896609207978598
1789998450000283000,4.607282958984375,-3.385259985424578,-1.6800445057749749,0.590001380543597,2.3959900390600093,2.9815881794892563
1789998450010352600,4.6173525390625,3.8450036950588222,-1.960354316061735,-0.8836372304692864,1.037901453759475,4.281427073637161
1789998450020422700,4.627422607421875,1.202041939742118,0.7318634914636611,-0.6002751930050552,-0.9518437020889491,1.1978534422738178
1789998450030492700,4.63749267578125,-2.469728610305488,1.73863347286582,0.3776660226672887,-1.1160529609507073,2.8318656702890106
1789998450040562700,4.647562744140625,0.4766327389843761,2.0932184796750546,0.6438413630090654,-2.1892672507022635,0.4799822676399797
1789998450050632700,4.6576328125,5.539073219054937,0.6141629947125912,0.0982851637937128,-1.9361555173515836,5.226804960602313
1789998450060702500,4.667702392578125,1.4272922722384334,-1.7767419619858265,0.1952627155875787,1.3603006286158483,1.8389358220880787
1789998450070773500,4.6777734375,-9.080777857905623,-1.1291647734493016,0.597053381414339,3.2345671296107854,8.58076848624455
1789998450080843800,4.68784375,-7.062541846239567,-0.9031137920945882,0.0259057544225826,2.5732612406439275,6.638833447742783
1789998450090913800,4.697913818359375,-0.5702636472314596,-2.763242477819323,0.1741030597135424,2.7976259007499777,0.4053527025113931
1789998450100983600,4.707983642578125,-1.0553513492196798,-1.6284645406633615,-0.3442209953136741,1.8561362506594323,0.6625024853541402
1789998450111053800,4.7180537109375,-2.683144858753681,1.4749199925929306,-0.2910913896072655,-0.758408970338251,2.9806384128942245
1789998450121123600,4.72812353515625,5.796231286334991,1.0624123736470936,0.4783508314812555,-2.4608336480808086,5.375698508177253
1789998450131193600,4.738193603515625,5.944208847928047,2.259612572446465,0.9131449183739722,-3.688026875577215,5.260395347530125
1789998450141264600,4.7482646484375,-2.674974704040587,2.3500188195586205,1.1788146472811698,-1.7193336719911665,3.3334027384249145
1789998450151334700,4.758334716796875,-2.0715216116517783,-0.525637154519558,0.091269585943222,1.0006549756132892,1.890639035577763
1789998450161404700,4.76840478515625,-1.2806108879357576,-0.6850076322644949,-1.055260236870125,1.0518802300012267,1.4547583482530622
1789998450171474700,4.778474609375,-4.375865890750289,1.1798346379786728,-0.9335958049241452,-0.016035943108428485,4.627262262105604
1789998450181544700,4.788544677734375,1.6111442802891134,-0.5400023644804954,-0.0056324163964018,0.13476042042347047,1.6938889570318956
1789998450191614700,4.79861474609375,0.5186943496443331,0.5235784684240817,-0.3039614291070029,-0.6083255214507817,0.5152774507842072
1789998450201684700,4.808684814453125,1.3637792927488683,0.9240846839308738,-0.442983055904135,-1.1888025377760327,1.2234414478844737
1789998450211755800,4.818755859375,0.3882107975572347,0.3882365165203809,0.977451824720204,-0.5438114521062913,0.9803654371237326
1789998450221825500,4.828825439453125,-2.3722458489358424,1.9718828412920235,0.3688790512301028,-1.3645439976131453,2.7910506517420277
1789998450231895800,4.838895751953125,-0.6401239499211311,0.7201373978346586,0.6712254098232835,-0.5938125467595134,1.0130581193229338
1789998450241965800,4.8489658203125,2.781055197885632,-1.8542928191781043,0.8381726794980466,1.0600948098550784,3.278933105099498
1789998450252035600,4.85903564453125,-3.5763676636919377,-0.5478121614485979,0.5452900956250727,1.3499676893759058,3.4007987820746157
1789998450262105600,4.869105712890625,-6.581050707438588,0.6107505559206009,1.7066798531137406,0.8641735471125761,6.771204092104333
1789998450272175900,4.87917578125,0.015569032792747,-0.5661755011349916,2.480933018147945,0.3545614364430077,2.5199428408580427
1789998450282246700,4.88924658203125,5.552248926970362,-0.4325163877516985,1.050727050419897,-0.9993719545971942,5.578514282814556
1789998450292316700,4.899316650390625,-0.6751745127752423,2.190809669855237,1.280580200536549,-2.0548390129482716,1.6349403393104278
1789998450302386700,4.90938671875,-5.133696182641387,3.46861251463294,1.377706841944903,-2.224472659184302,5.944401298971858
1789998450312456700,4.919456787109375,-2.639545663262904,1.3603332439482212,1.418904090860486,-0.7886481758027244,3.1951573853105186
1789998450322526700,4.929526611328125,5.940054066336154,-2.038508984366059,1.0317455057699232,0.462509199686141,6.347467622542075
1789998450332596700,4.9395966796875,2.3968577276229857,-1.9432301627814768,0.6187617206797004,1.255460117814517,2.8857852296325537
1789998450342666800,4.949666748046875,-8.86297448041439,0.8792734823018312,0.3538403259217739,1.2574324220037858,8.824369959237771
1789998450352737800,4.95973779296875,-8.595843885174393,1.001655414867401,0.7224214171186089,1.046517890564566,8.620820069869405
1789998450362807800,4.969807861328125,7.673098340892791,-2.3519763833671807,-0.9570453618336467,0.5001872768745002,8.066844461720384
1789998450372877600,4.979877685546875,10.758149929600954,-0.8061293356359005,-2.278052338369936,-1.637806923145825,10.903886708527109
1789998450382947600,4.989947509765625,-6.330823900726437,4.473808378586173,-0.8167728216599672,-2.741030497870686,7.297133842973015
1789998450393017900,5.000017822265625,-9.47452583132386,2.3397750734418628,0.4896801443450153,-0.018703006691853208,9.77141872831317
1789998450403087600,5.010087646484375,-0.1550290875397622,-1.982926213353872,0.6678279494047165,1.9048974448385316,0.8794261084611251
1789998450413158700,5.02015869140625,6.014118834978341,-4.426574333724379,-0.8343971795473247,2.8977372937413888,6.9327860866267565
1789998450423228700,5.030228759765625,5.461729282611608,-2.6782763759344816,-1.4219880283504724,1.3841481466686718,6.091784218377371
1789998450433298700,5.040298583984375,-3.5787510516971346,1.5279630159944295,-0.385216511112079,-0.58677986695219,3.8660330076763536
1789998450443368700,5.05036865234375,-4.290323742543161,1.1577116534978151,2.257987163201719,-0.2589995698407286,4.9778106975336325
1789998450453438700,5.060438720703125,0.2176519863218069,-2.503876671361923,2.6848297431007024,2.16510299096491,2.9727782561928966
1789998450463508500,5.070508544921875,0.3603381635084748,-3.7942420605927705,2.445934770002961,3.3974509622988673,2.9943346947754303
1789998450473578800,5.080578857421875,-2.4242735578149555,0.0826186619758606,2.1995804208099843,0.33610212551581453,3.2571640295296524
1789998450483649800,5.09064990234375,-0.3317588424950838,2.3187790471643206,1.057016359822452,-2.2443118405768008,1.2518578778443796
1789998450493719600,5.100719482421875,3.417509519383311,1.3070511510938403,0.2622026373185217,-2.1079622319041293,3.0021657979754934
1789998450503789600,5.11078955078125,4.9964521965086455,-1.2532383123636246,0.349573023866117,-0.0178439375145667,5.163044035496983
1789998450513859800,5.12085986328125,0.5900481057621538,0.0307341609597206,-0.8107828605301678,-0.10996111359889385,0.9971854171561959
1789998450523929600,5.1309296875,1.9488480026632544,2.2449627003252504,-1.5467884202346205,-2.523446607848102,2.2051389293303076
1789998450533999600,5.14099951171875,2.790261417648196,1.532072789400816,-1.9552426721364256,-2.0052085208687536,3.151970574992262
1789998450544070000,5.15106982421875,0.1178754149265587,-0.1041243913412094,-0.5499428168017417,0.11434921259224495,0.5604443430418878
1789998450554140700,5.161140625,-1.9001304412454365,-2.596025962749124,0.9071209088440984,2.900232112395036,1.6617366008215215
1789998450564210700,5.171210693359375,-1.9322113406389951,-1.587526965597272,-0.8260540063548832,2.0645732489897757,1.6351101040490148
1789998450574280700,5.18128076171875,1.2617469052508472,0.2952402529150247,-2.3560855722516774,-0.40967615587403283,2.6575320752405243
1789998450584350500,5.1913505859375,3.211612268263101,-1.0316308664143086,-1.0958888921175152,0.30812862345729175,3.5333758392604753
1789998450594420700,5.201420654296875,0.6673328593641519,-0.7334995682328939,1.0217296501249074,0.47088485374821615,1.3437089321128528
1789998450604490800,5.21149072265625,2.150878056961298,0.9515589663118124,0.835171524920687,-1.5026259796004635,1.9928290252186982
1789998450614560500,5.221560546875,2.7132483205944298,2.794688586440682,-0.3652550155140459,-3.329720167472763,2.0538684420073334
1789998450624631600,5.231631591796875,2.9796330659031867,3.45410234324336,0.0333760537706315,-4.062348491666653,2.0754457107430833
1789998450634701800,5.241701904296875,-0.7006481228582561,0.7193623218089342,1.3176008944198487,-0.627849284490793,1.5330581642728116
1789998450644771600,5.251771484375,-8.297593344527483,-1.0033873532265425,2.166608125534653,2.8043187258440265,8.1662003860593
1789998450654841600,5.261841552734375,-4.501913067825138,-1.070888525569439,-0.3625398382712155,2.1483740685965014,4.114601742595128
1789998450664912000,5.271911865234375,3.37127851408422,-1.703116169282794,-1.7847135253868995,0.9719601138528766,4.062833913708071
1789998450674981600,5.281981689453125,-2.432516923894733,-2.922132478570938,1.4511787592604757,3.302457108258954,2.3781702308270756
1789998450685051600,5.2920517578125,-4.659599245744944,-1.7075018370211124,2.2350307966366407,2.6039174763558064,4.779372771883394
1789998450695122700,5.302122802734375,4.053312098973989,0.8949895223498344,-0.9094382458757608,-1.7729637083264982,3.8618677901792084
1789998450705192400,5.3121923828125,4.496083046497405,2.3186545440018174,-0.9456409013744445,-3.2543162119814637,3.986801269465102
1789998450715263000,5.322262939453125,0.0386778134405612,0.4353939890146255,1.5966604123845696,-0.5525244459116895,1.560482331866867
1789998450725332700,5.332332763671875,-1.7089561274826526,-0.99276132979393,1.9907231508404013,1.220196401607729,2.5259068685108326
1789998450735402800,5.34240283203125,1.1818141213580966,1.122962996199727,-1.5411267412111165,-1.2535155037099293,1.8605109574281242
1789998450745473000,5.35247314453125,1.975132198476792,-0.1453793617933988,-1.9880390263229608,-0.1833324331389607,2.8001733427482156
1789998450755542800,5.362542724609375,-2.527230074420572,-2.712096812471747,0.156316862327978,3.2209535746967806,1.8418072647188994
1789998450765613800,5.37261376953125,-5.161099153351784,-4.074660591951012,0.975265347526595,5.111264793196026,4.250402113006254
1789998450775683800,5.382683837890625,1.563220937988907,-0.3081383129328489,-1.004334351753071,-0.0017545873750821062,1.883425956176251
1789998450785753600,5.392753662109375,4.4686073028117415,1.2237801626890896,-1.1757389661628752,-2.170791111638221,4.258652037854232
1789998450795823900,5.402823974609375,2.034476367849112,-1.0069418308377265,1.410386437883973,0.3764066144719322,2.645852208037359
1789998450805894000,5.412893798828125,-0.5775409447580575,-0.791609227374196,1.3082412376612425,0.8051291994634604,1.422484031483218
1789998450815963600,5.422963623046875,-0.2405310498669743,1.2489321396023034,-0.3424588810119777,-1.124286360774132,0.6862542819122736
1789998450826034000,5.433033935546875,-1.1183669005811214,-0.1115016421109438,0.3371886124588549,0.35155568265651765,1.1195007382189164
1789998450836105000,5.44310498046875,-5.810046461197733,-2.600609198886156,1.2613104135297235,3.8195564396427937,5.246112908646685
1789998450846174700,5.4531748046875,-6.3993935790836805,-1.2078957803368569,0.7901588824354112,2.650018944860898,6.001083322829548
1789998450856244700,5.46324462890625,2.7366598835811016,2.7279022843688723,-1.0337802995331584,-3.2196827227271747,2.3734159062713878
1789998450866315000,5.47331494140625,7.466576235872506,3.787768480664492,-1.0418746125310658,-5.384013194808215,6.495756720781594
1789998450876384800,5.483384765625,1.4226212116874757,2.416960019931197,-0.024458587821573,-2.6793561624119793,0.8289726336569448
1789998450886454800,5.493454833984375,-5.168916549104452,1.021695163333416,-0.1294550858221948,0.26660740898831403,5.263766560848092
1789998450896524800,5.50352490234375,-6.200057586175203,0.2251128237217664,-0.8451002137389033,1.340401880745757,6.1162821243503345
1789998450906595600,5.513595703125,-0.6786988875091076,-2.876881131958961,-0.7405581084422767,3.0035569623580156,0.5139543882270758
1789998450916665900,5.523665771484375,-1.216323124681413,-3.097373894664645,0.7748419977728277,3.230671278242441,1.1118948693274593
1789998450926736000,5.53373583984375,-4.351924750931561,0.0755073686659336,2.1742754452921447,0.8093074805345186,4.797649999160506
1789998450936805600,5.5438056640625,-1.2364789007425308,3.7595197067797184,1.6596001220308243,-3.4663483310206935,2.5301324690065727
1789998450946876000,5.5538759765625,5.076953135678171,1.8580489568412304,2.100214914433658,-3.1812313678462885,4.849584388267886
1789998450956946000,5.56394580078125,5.520321756833791,0.5227700746506452,2.4754116243779656,-2.0247674743626094,5.724964649217633
1789998450967015700,5.574015625,-1.0471855784207582,1.6489403424590825,1.9668403170801696,-1.493352458074571,2.3353717386095414
1789998450977086700,5.584086669921875,-1.6840272918008268,2.181232863214612,1.2573176906317471,-1.8007527467756557,2.435541427127225
1789998450987157000,5.594156982421875,3.5014416020452974,-0.8709580738991498,1.0836069181714203,-0.08361257987241222,3.766413964053832
1789998450997226800,5.604226806640625,-2.3605402135729787,-1.7432494422286748,1.724564761633426,2.1236235625789757,2.659965281587879
1789998451007296800,5.614296875,-8.390051847994327,-0.1062397760599851,2.227527289138734,1.9539163855368045,8.458625507979345
1789998451017366800,5.62436669921875,-0.8206126190185546,-0.0562210689157247,1.532003523556888,0.1350821953690458,1.7335955340757883
1789998451027436800,5.634436767578125,6.38613545358181,-0.9176414991408586,0.6626602644432336,-0.7012486349606563,6.447647705208297
1789998451037506800,5.6445068359375,-0.5058452433347702,-0.2931996869981289,1.816804800044,0.26678498736231626,1.8898282775536037
1789998451047577900,5.654577880859375,-5.401067600899935,0.7534621598094702,0.9830646961659192,0.4970907636608408,5.518926836377395
1789998451057647600,5.664647705078125,-1.3557087990179657,0.0662988108158111,0.0919560338374227,0.25543523660674144,1.3362449745870302
1789998451067718000,5.6747177734375,3.5546816093236204,-1.2456506337136029,0.539251546113193,0.30766608535306994,3.792563862988157
1789998451077788000,5.684787841796875,0.8001200122185051,-1.1824760923981663,1.841191930064559,0.8107092931615376,2.184303071545282
1789998451087857700,5.694857666015625,-2.754522580268979,0.4204518559485674,2.2086662290632724,0.08810253064543816,3.5545209049716826
1789998451097928000,5.704927978515625,2.885096587118506,-0.25375264275074,0.6578029606051743,-0.4997764668210394,2.9276442644041722
1789998451107998700,5.714998779296875,2.6567560335218903,-0.1380114633738994,1.3428326585710049,-0.6090704966885562,2.9171274337378548
1789998451118068700,5.72506884765625,-1.265384384970367,0.1360018771171569,1.6159806144043802,0.049835843380203415,2.056356945462428
1789998451128138800,5.735138671875,0.0497980501309037,-0.3170423348784446,-0.0722261550381779,0.30026977069345134,0.13435166609058802
1789998451138208800,5.745208740234375,2.226683531790972,-1.060541319078207,0.0426896063651889,0.4864205603253735,2.4182813899969595
1789998451148278800,5.75527880859375,-0.8400742753356695,-1.788520078063011,1.0738494212016465,1.8508267982707345,1.2775451459472118
1789998451158348800,5.765348876953125,-5.323120437866449,-1.283018533599377,1.066027568469569,2.442347315494872,5.0152868433244295
1789998451168418800,5.775418701171875,0.3344529038846492,-2.118949717780948,0.7555691420260816,1.9118823943322145,1.2318267288971212
1789998451178488800,5.78548876953125,2.1759832721233368,-2.128226664692164,0.2846237279631197,1.513182351401722,2.656226981037821
1789998451188560000,5.795559814453125,-1.4026345085829497,2.1109528738081456,-0.6800793090168387,-1.6525741501641618,2.038384690108474
1789998451198630000,5.8056298828125,2.130420667605102,1.8652754009634256,-0.5218696917448192,-2.278106993625305,1.760829646262109
1789998451208699600,5.81569970703125,9.148200119793415,2.061797505494952,-2.129349823503196,-4.036136239868838,8.72836234980675
1789998451218769700,5.825769775390625,5.175291929355264,3.1981600814938544,-2.806417602679133,-4.126780836158694,5.278023697545432
1789998451228840000,5.83583984375,-3.307970701777935,-0.3648486266702413,0.0724025345183908,1.1444011366213376,3.1259195206704926
1789998451238909700,5.84590966796875,-6.952489818415045,-3.519731291973591,-0.4946425159927457,5.118181220195419,5.896992051777712
1789998451248980700,5.855980712890625,-4.695266186931729,-3.75235580649972,-1.4387489012762904,4.871571409481907,3.803089410986649
1789998451259050800,5.86605078125,2.932846764808893,-2.7119804926156994,-1.455768863529712,2.028573596111021,3.736386019586557
1789998451269120800,5.876120849609375,2.0607081028230487,0.7828273705035448,-1.053637604104355,-1.173389198915166,2.143046095095029
1789998451279190800,5.886190673828125,1.06784667365551,3.732239485666156,-0.7317455641724169,-3.8124494215092826,1.0346927446939294
1789998451289260800,5.8962607421875,2.9850808099150656,2.5079963816404343,-0.586895779211074,-3.100894110474893,2.435088430288024
1789998451299330800,5.906330810546875,1.4215321012765167,0.4213128566920757,-0.7511862507667392,-0.6927259367997226,1.5108506206768435
1789998451309400800,5.91640087890625,-1.2586541999325156,-1.319331371474266,-1.5573688509598371,1.6986716271337479,1.6925596308179744
1789998451319470800,5.926470947265625,-4.979842422491312,-3.113584440231323,-1.6675135255038738,4.339565872199502,4.29441591114257
1789998451329541600,5.936541748046875,-4.504323928359151,-2.2910247787982225,-0.8023989900011569,3.3630770285528557,3.856330591097089
1789998451339611600,5.946611572265625,5.51900015284121,-1.5489315697431565,-1.7687103389605878,0.30414889400334033,5.99119198559276
1789998451349682000,5.956681884765625,3.925352074015141,0.9397568848371504,-0.5056394916296005,-1.8162913806703131,3.639819888891751
1789998451359751700,5.966751708984375,-7.955070531433821,2.9169243885338303,1.1812717581097036,-0.9959909448896405,8.496764093036576
1789998451369821700,5.97682177734375,-5.917595566290617,1.006122331148386,-0.5009678465567529,0.49041432232504023,6.003389210034612
1789998451379892000,5.98689208984375,3.991878556106984,-0.0333440511971712,-2.4197420518651604,-0.7446152454539883,4.608351762426468
1789998451389961700,5.996961669921875,6.031283904790878,0.1404588565260171,-2.848755692192912,-1.3713247213830009,6.5292412830964865
1789998451400032800,6.00703271484375,0.79186290987432,-0.2616810976624488,-2.1021045275725423,0.22296820685818108,2.250478279939595
1789998451410102800,6.017102783203125,-5.95352846493721,-0.2590875740379095,-0.4341340886140242,1.7181043638382658,5.722605818654217
1789998451420172800,6.0271728515625,-9.490106262293455,-0.3532727551668882,0.1717486786071211,2.614957340828098,9.131178139945424
1789998451430242800,6.037242919921875,-1.5203683230817318,-1.966227007487416,-2.499218616423011,2.4595518792769586,2.5247310210443814
1789998451440312800,6.047312744140625,4.594577030736208,-0.0106207627356052,-2.707689809684456,-0.8898052164412129,5.258334496229096
1789998451450382600,6.057382568359375,7.874755470225215,4.099866344878078,-2.184293712089956,-5.697060963290694,7.150895969242659
1789998451460452900,6.067452880859375,0.935329277653247,6.4097133130460975,-0.544756134878844,-6.385362125172348,1.2178568840296233
1789998451470524000,6.07752392578125,-6.671751553583145,1.7457272305190563,0.158895005720295,-0.0938943706022708,6.897554916499534
1789998451480593700,6.08759375,-3.701522860363125,-3.690345048266649,-0.7539540349796414,4.519868157430125,2.731145654733244
1789998451490663700,6.09766357421875,-3.7004987780123946,-4.589415117928385,-2.821457350900769,5.547413042648005,3.455901105059521
1789998451500734000,6.10773388671875,-5.451470338925719,-1.4445774612993,-2.2687596093676983,2.8842802857838423,5.351030769488975
1789998451510803700,6.1178037109375,-4.770636777475476,1.895726068806648,0.0264701833723112,-0.6869090835334868,5.087397092042418
1789998451520873700,6.127873779296875,6.349816185966134,2.893180524852872,0.2404832652024924,-4.347367585619827,5.4634134404500205
1789998451530943700,6.13794384765625,10.46671549870968,4.510194281697273,1.6786987902544437,-7.013540054394313,9.139051992597075
1789998451541014800,6.148014892578125,2.1658996850043533,3.1855373312860724,1.873689301304519,-3.747020341550232,2.0758900964046596
1789998451551084800,6.158084716796875,-5.816242393228412,-0.0220814834266901,0.8236503062140196,1.3596538260165887,5.7147969753108985
1789998451561154800,6.16815478515625,-5.656911662971973,-2.2461545404583214,-1.6696549214467404,3.6635719205550563,5.139245870934929
1789998451571224600,6.178224609375,-0.5915899283766746,-3.201676565182209,-1.7623294057518242,3.3748620190365806,1.5221112831312886
1789998451581294800,6.188294921875,-0.4717445285513997,-1.5952186891436575,-0.4419102390408516,1.6908335061347746,0.32191967990869913
1789998451591364900,6.19836474609375,-1.965149733644724,1.5809809049546717,1.4187604446060955,-1.164591413166011,2.6491361114586205
1789998451601434600,6.2084345703125,5.104453137022256,3.505605151465535,1.486951352778822,-4.735090036027878,4.258480478090551
1789998451611505700,6.218505615234375,8.30576846767664,3.755853585487604,0.5243037870239466,-5.674923383838157,7.152787221980405
1789998451621576000,6.228575927734375,-0.147156308338046,1.0918424662709236,0.5210059875875711,-1.0607392303792196,0.6000453936768917
1789998451631645700,6.238645751953125,-9.835580326408149,-3.298436565235257,0.1345951155917719,5.550579610656367,8.765130116719032
1789998451641715700,6.2487158203125,-7.814572511941194,-3.5981191845119,-0.6745658793576061,5.415451402314188,6.7187744749400755
1789998451651785700,6.25878564453125,1.754557164315134,-3.0988153256446123,-1.8626032591447232,2.7177859889671954,2.9604150865123016
1789998451661855700,6.268855712890625,9.357381214889884,-1.839444209614396,-0.4599297702582552,-0.43943661770471754,9.537429897705568
1789998451671925800,6.27892578125,3.609263678860664,2.111087313842773,0.8201598337497562,-2.974707516145122,3.050778801633585
1789998451681996800,6.288996826171875,-1.9427156373880805,5.192907665544748,0.5710963717285543,-4.599929074162064,3.147576472320511
1789998451692066800,6.29906689453125,-2.624158416777849,1.3548217870503665,-0.5267508148498833,-0.638421212986977,2.9311489635918595
1789998451702136800,6.30913671875,-0.916038740119338,-3.955926075977087,-2.169816273926198,4.2139121209369,1.8545957488387983
1789998451712206600,6.31920654296875,-2.1627863752894103,-3.039519087067246,-2.850786905759573,3.679619024012994,2.9161123102438133
1789998451722276600,6.329276611328125,1.3604936952069402,-1.061753617477417,-3.0109611011028288,0.9294937806576132,3.3436793959644806
1789998451732346600,6.3393466796875,0.6803367178440094,-0.174868491128087,-0.2394566255684941,0.023580006817149002,0.7417684932937811
1789998451742416600,6.349416748046875,-2.0954805793881417,-0.7512602658510208,0.8490859223742038,1.1668467569293761,2.077220834446077
1789998451752487700,6.35948779296875,-2.5402789410859343,0.3238970230787992,-0.2279546960841864,0.31600871958666,2.551475693142307
1789998451762557400,6.369557373046875,5.07719980391562,1.268604808321595,-0.9986126861706376,-2.374305411718182,4.769404272804326
1789998451772627700,6.379627685546875,5.20855180940032,2.8887118550062176,0.0365706120282411,-4.052526894357333,4.364863263910502
1789998451782697700,6.38969775390625,0.1744670707203447,0.7351894210159778,-0.179519824065268,-0.7396432782805163,0.23684896382805168
1789998451792767500,6.399767578125,-2.734151992413401,-1.091226380199194,-0.0954078547917306,1.7217762817246998,2.3897596583981064
1789998451802837500,6.40983740234375,-2.302858424454928,-0.7694967642873525,-0.4066010252505541,1.330355209747725,2.0714153622495965
1789998451812907800,6.41990771484375,-0.575022239935398,-2.6009792012423274,-0.8885054210275412,2.722934314366883,0.686158862475868
1789998451822978600,6.429978515625,-0.9831170108750462,-2.1782605694055555,-0.0296761032741516,2.346658746676886,0.4532235243776594
1789998451833048600,6.440048583984375,-2.8188503832727667,0.5250456183671951,0.1132530158229172,0.16244074438656497,2.864965904648734
1789998451843118600,6.45011865234375,0.8770569752961397,2.558551095357537,0.5364423339113593,-2.7277578229962884,0.40313804356036953
1789998451853188600,6.460188720703125,5.29523640564084,2.051310598272085,0.5645962691195309,-3.303521618017448,4.6532695632858605
1789998451863258600,6.470258544921875,1.065058504241705,0.3732283324807882,1.0289377548728138,-0.6962827657503747,1.3592469308943402
1789998451873328600,6.48032861328125,-8.945055966773628,-1.4005273071706297,1.1327462121326477,3.4235095599597223,8.458025730677837
1789998451883398700,6.490398681640625,-8.02715260182619,-1.1214642820745706,0.4151714313276112,2.9871782074327067,7.545991962850461
1789998451893469700,6.5004697265625,3.313123846757412,-1.9508330390006303,0.2323160696314647,1.0715928533643977,3.6997565707538684
1789998451903539700,6.510539794921875,8.301741696378588,0.0312917948424816,0.9770210320875048,-2.1048771767672076,8.089743910512938
1789998451913609500,6.520609375,-0.6581184562951325,2.847943791288137,-0.1350908266868442,-2.58662652820525,1.368033799250854
1789998451923679500,6.530679443359375,-5.194101259243488,3.22090207465589,-0.0432754434291273,-1.8617223287478997,5.821405397362641
1789998451933749800,6.540749755859375,-1.6331518216967582,0.5711123730152845,0.2563578933456912,-0.1787080743987398,1.739866951507478
1789998451943819500,6.550819580078125,-5.239914915913343,-3.380256770309806,0.150861482998915,4.521355384258554,4.296853364443011
1789998451953889500,6.5608896484375,-5.471363372397422,-4.353810710808634,-1.1138066799934954,5.615654019928332,4.312363633464249
1789998451963959800,6.570959716796875,2.274626601704955,-0.2998328414022922,-2.482755557399988,-0.06825990619357658,3.379828642545976
1789998451974030600,6.581030517578125,12.530683333981036,3.4598470243752,-1.106369150403887,-6.281809775576232,11.434661555508686
1789998451984100600,6.5911005859375,9.573470189678668,4.470745483884215,-0.5435384661847725,-6.590453682145624,8.276487840989855
1789998451994170600,6.601170654296875,-3.605221417732537,1.4316770631939173,0.2057924755714833,-0.5323815198295953,3.8478878809677823
1789998452004240600,6.61124072265625,-7.723792755341529,-0.8524749072253703,-0.0192381132269278,2.687016698093399,7.2913647120469145
1789998452014310700,6.621310546875,-1.86450207850337,-3.462106201478839,-0.3505690126335248,3.8256712292557706,0.9745181523835799
1789998452024380700,6.631380615234375,3.804685128673911,-3.6848388520658015,-0.81166461180076,2.710620949952473,4.622228878125191
1789998452034450400,6.641450439453125,4.792700140723586,-0.3767454006910324,-0.7550191799931227,-0.7324331650408393,4.81097779632576
1789998452044521500,6.651521484375,2.4485179183639585,2.9043554143399,0.2399778729636222,-3.4182757604992737,1.6743657229082654
1789998452054591700,6.661591796875,-1.5410139284864066,3.381471991318464,1.3933002785265445,-3.006868289490897,2.5901941069457712
1789998452064661500,6.67166162109375,0.120229430706799,1.8116612996757029,1.2260723652794956,-1.8754571852588577,1.1324687951169856
1789998452074731500,6.6817314453125,3.6424785507202144,-1.5646312431782483,0.1801846994484774,0.6225646117873374,3.9192602298969335
1789998452084801800,6.6918017578125,-1.352923844474554,-2.4046388830184937,-0.2460688467824831,2.671305953535771,0.7330521581943821
1789998452094871600,6.70187158203125,-7.572839392808079,-1.1749205624520778,-0.1227823757257778,2.9705369165226942,7.065360623259314
1789998452104941600,6.711941650390625,-5.582806562319398,0.0041226328879594,0.6233373580321669,1.293362228566141,5.466581172544263
1789998452115012600,6.7220126953125,1.122707560133934,-1.289433661338687,-0.6904732772592455,1.0298383918042475,1.5294762717840205
1789998452125082400,6.732082275390625,4.27776324391663,-1.0818290217787028,-0.9557803103338928,0.08914886990917159,4.513887557746944
1789998452135152600,6.742152587890625,1.8924463164836167,2.186350936880708,-0.2555395079012029,-2.5517702048518265,1.383926566585242
1789998452145222700,6.75222265625,0.8857003004789352,4.915152215915918,1.4218556341424584,-5.077564174543085,1.087750810448281
1789998452155292400,6.76229248046875,0.9070248280584812,1.2201233937472105,1.7694959363803269,-1.5341742652188657,1.7575040049713604
1789998452165362700,6.77236279296875,-0.5163201678588986,-3.053208589723706,0.9185081989727912,3.008328685743959,1.1757061870257932
1789998452175432700,6.7824326171875,-5.976888297736644,-1.0491846432834864,-0.5461859484862536,2.496738546941455,5.5577511511279125
1789998452185503500,6.79250341796875,-4.7422114779800175,0.3433335449546575,0.0403569804328493,0.8071801695435235,4.6857802428989235
1789998452195573500,6.802573486328125,-1.208243424730748,-1.960424458688497,0.4422661763390526,2.1540844992714585,0.9266259074519606
1789998452205643800,6.812643798828125,-5.536999919912219,0.0432025973886251,0.8651087633490562,1.226050043111005,5.468587481401379
1789998452215713500,6.822713623046875,-1.4018515415117143,1.0165560468792916,1.2372159828454254,-0.7403282912428475,1.9952922969528146
1789998452225783600,6.832783447265625,9.11801248680055,-0.6695727472454309,1.373572957010567,-1.6537001189641383,9.096068269206937
1789998452235853600,6.842853515625,2.617994633451104,3.2300995265901085,2.5038237721309065,-3.9471777045669554,2.8242451208975834
1789998452245923600,6.852923583984375,-6.82165160767138,1.8639900373280047,3.20368848952651,-0.4047547079707299,7.753011226614067
1789998452255994600,6.86299462890625,-3.237532306939363,-4.044169007575512,1.017109369913116,4.615158909140036,2.5635401526133386
1789998452266064600,6.873064697265625,-4.514157340109348,-1.3682996927827595,0.3736399089563638,2.3828537978436324,4.087967110948863
1789998452276134400,6.883134521484375,-2.480890348049998,3.059752312278748,1.912827571863681,-2.508845401025887,3.5890813873435565
1789998452286204700,6.89320458984375,3.005309358951449,1.7694313467115164,2.008018130642921,-2.5893672867901163,3.080598237488683
1789998452296274700,6.903274658203125,2.205160266768932,0.2398597264766693,1.0839200757738203,-0.846105944182781,2.319321442233909
1789998452306344400,6.913344482421875,-2.556509068135917,0.7129045239716768,0.6416300436351448,-0.12287599549676242,2.72773937141846
1789998452316414700,6.923414794921875,-3.464965098041296,1.3704986641317605,0.91947390219979,-0.5614865559042663,3.7966320368711717
1789998452326484700,6.933484619140625,0.670629855082929,-2.787558588430285,-0.2118761063341051,2.5516874064479174,1.3243904827015316
1789998452336555500,6.943555419921875,1.5099329999156297,-4.414517400705814,-1.450669494564086,4.018247733105192,2.7795662760982043
1789998452346625500,6.95362548828125,-3.211892838770151,0.6644973436772823,-0.5824325161918997,0.17533789473431172,3.326604362722581
1789998452356695600,6.963695556640625,3.461553828293085,2.8358839356601235,-1.493066182397306,-3.463715447850948,3.202579354839289
1789998452366765600,6.973765625,9.607768765121698,-0.6528875699043274,-1.1706132206469773,-1.5935164728912885,9.569039836157089
1789998452376835600,6.983835693359375,-0.9690659814298151,0.7781909428745508,0.240844572795555,-0.5378650208602439,1.1460267656196323
1789998452386905600,6.993905517578125,-7.328311674520373,1.372808694639802,-0.3885092690471559,0.4668993239768571,7.451288491556057
1789998452396975600,7.0039755859375,0.8199002329654991,-0.1407078628510236,-2.378209141254425,0.12025535120485034,2.5166351473222512
1789998452407046700,7.014046630859375,2.2890461722016333,-1.9897680420726536,-1.942139444935321,1.5220516760579275,3.2640731546194734
1789998452417116700,7.02411669921875,-1.524853797932714,-3.262857886853814,-0.0812063840251415,3.530493206967229,0.7166818591527513
1789998452427186400,7.0341865234375,-2.6598694893673063,-1.5621242287933823,-0.013921777042374,2.153268516542748,2.208792955030468
1789998452437256400,7.04425634765625,0.774900669157505,0.7804828532040119,0.2883447212476283,-0.963851009689686,0.6031239015308295
1789998452447326700,7.05432666015625,1.22558867341578,-0.4944318689167499,1.7742571594327687,0.047612935052313676,2.2118435626462607
1789998452457396500,7.064396484375,-1.7766297337830066,0.0454974303275346,1.874881872089952,0.24079302003956948,2.5720971954652168
1789998452467466500,7.074466552734375,0.8424132396772503,1.4200579370707274,1.4083134310021996,-1.6844670954160323,1.3682623781362087
1789998452477537500,7.08453759765625,5.149953489959239,2.1301585095375777,0.6930184316974133,-3.3546180545794364,4.504043569844848
1789998452487607600,7.094607666015625,1.3617162227392197,0.0133124860376119,-0.0172541363354772,-0.3396148318672982,1.3188660905308391
1789998452497677600,7.104677490234375,-4.716629292955995,-1.4788503177791834,0.1530201588701456,2.5554434253839355,4.233995065921643
1789998452507747600,7.11474755859375,-1.986600517952442,-1.2523615295290946,-0.9158672560099512,1.760250677436625,1.8042509253949308
1789998452517817600,7.124817626953125,3.0399700457051395,-0.9576812485843896,-2.147214858278632,0.35822618040291676,3.826326816146411
1789998452527887600,7.1348876953125,1.9197648237809537,1.1168319460988043,-0.6464780681882053,-1.4936935697502358,1.7662457322775644
1789998452537957600,7.14495751953125,1.775321573793888,2.5778181058853864,-0.2518172907739877,-2.902596993067383,1.1980215028026278
1789998452548028400,7.1550283203125,6.738109985631704,2.2163924394011496,-1.1040427532829344,-3.6834044666581454,6.16165266466584
1789998452558098400,7.165098388671875,3.1723142770975827,0.1156166762143373,-0.844863409308344,-0.8115813006575522,3.1830920598228265
1789998452568168700,7.175168701171875,-9.822365455526112,-3.070280720555782,1.3889265934869646,5.230845843829181,8.970666401395132
1789998452578238500,7.185238525390625,-11.447252137702703,-3.761889943042397,0.9611192602090536,6.3241308016618065,10.301481315010955
1789998452588308500,7.19530859375,2.69769360858798,-2.88031519806087,-2.6770363127455115,2.3413702302824086,4.15430804232212
1789998452598378800,7.205378662109375,9.238912656375764,0.0540875640183687,-2.017059076841176,-2.124031730923675,9.215066416592908
1789998452608448500,7.215448486328125,1.2055625150837004,5.251338227203488,1.5507254674226043,-5.489737580854838,1.1390631777591345
1789998452618519600,7.22551953125,1.1300737049877645,3.88049937133193,2.634858089968562,-4.228015365709275,2.324156873193227
1789998452628589600,7.235589599609375,2.092562938375771,-0.5190794034391641,1.047835347566381,-0.08192201302421631,2.3957276092098234
1789998452638659600,7.24565966796875,-8.227165471082925,-5.326781298461556,0.9767907304629684,7.061270764189956,6.8668352256431415
1789998452648729600,7.2557294921875,-13.428912276643514,-4.451491332837939,1.3067704344563185,7.4423500450555915,12.102501179316134
1789998452658799600,7.265799560546875,-2.3311767564445733,-3.283582694974541,-1.1453713734932245,3.8260739249896107,1.6998041911514572
1789998452668869400,7.275869384765625,9.87580361572504,1.1923182719767094,-2.3973148237407207,-3.349704083573988,9.668491135367091
1789998452678939600,7.285939697265625,2.4621277799129486,5.338568182367086,0.7718471268057823,-5.817368489868103,1.1473252732548564
1789998452689009700,7.296009765625,-1.2512047607094048,5.487828769508004,1.4575769358649848,-5.119574651842076,2.756132047787852
1789998452699080400,7.30608056640625,4.98518086090982,0.7132020456135273,-1.5906629255354403,-1.7695456541967132,4.975902138731768
1789998452709150500,7.316150390625,0.6747260383553803,-2.398496142479777,-2.271772819709033,2.3315948336190138,2.435704466583533
1789998452719220200,7.32622021484375,-9.267898512363434,-2.8647002802997825,-0.5019250742163509,5.0427776618923925,8.301974028161265
1789998452729290200,7.336290283203125,-4.910763625568151,-3.0467513764083383,-0.5442240738287568,4.172468169038991,4.0354655935518196
1789998452739360000,7.346360107421875,3.7922970640048383,-1.8160452138483525,-1.637842025339603,0.9685777625857884,4.407257748100746
1789998452749430300,7.35643017578125,1.506857684123516,3.393380455777049,-1.3423989433288577,-3.543713905680557,1.740625656362798
1789998452759500300,7.366500244140625,-2.476554656933248,4.953584530162811,1.1547378983840346,-4.284343556781201,3.694474599679615
1789998452769571000,7.376571044921875,5.121127208447456,1.3935580526798963,-0.3198851205563172,-2.5576234511224576,4.661420030839486
1789998452779641000,7.38664111328125,0.0172265907414257,0.4434071996003389,-0.617557970913127,-0.3859965058433274,0.655203208936791
1789998452789711400,7.39671142578125,-5.513084791317582,-1.1149795962303877,0.9345800667211412,2.3355672817190207,5.201523698873574
1789998452799781000,7.406781005859375,-6.161843298593163,-1.989976716387272,1.2307763051867484,3.315830444087476,5.696349615995557
1789998452809851100,7.41685107421875,-3.9136467309132215,-4.054973310184479,1.2474541760042308,4.770903003441476,3.2487021614299634
1789998452819921200,7.426921142578125,0.3898848682492971,-1.1190566364109515,2.472743866473436,0.7999432992568251,2.6227563579450663
1789998452829991200,7.4369912109375,3.183953276965022,2.892693033596873,2.4124404966801403,-3.7500904271649027,3.203423542809265
1789998452840062200,7.447062255859375,7.3254919409245245,5.074235108891129,1.8457374645397069,-6.815273350180836,6.030712235480471
1789998452850132200,7.45713232421875,7.743659485328197,4.245191930657625,0.937587870234996,-6.044523339362529,6.506052979122399
1789998452860202000,7.467201904296875,-1.2757364137671887,0.9417255545616148,0.5761367039833217,-0.6478188978832379,1.557759479107112
1789998452870272300,7.477272216796875,-9.88285528780222,-3.245664759990573,1.3540963953852652,5.417769315437559,8.982567621041524
1789998452880342300,7.48734228515625,-12.583309008753298,-5.551644531336426,0.9503810816388576,8.330293957841343,10.984982903417675
1789998452890412000,7.497412109375,-0.654794280308485,-6.979902141475677,0.3846899299547076,6.8816824212169525,1.392200721815492
1789998452900482300,7.507482421875,7.164766541439295,-1.4210942943811415,-0.0556741756226867,-0.3468564282041533,7.296312686480436
1789998452910553300,7.51755322265625,4.601484325906634,5.970320025262236,1.0085443706635384,-6.9620843733164035,3.0602160270203718
1789998452920623000,7.527623046875,5.249566541355848,6.288903159841895,1.0057833084523675,-7.426244675921677,3.6014916219392323
1789998452930693000,7.537693115234375,5.854423363062739,1.6305641432911158,0.1449638032624498,-2.9990980701243988,5.2876684473777225
1789998452940763100,7.54776318359375,-1.8676649264484644,-0.6358370663821696,-0.7085768700309097,1.1192553000975807,1.772515107528708
1789998452950833200,7.557833251953125,-9.919532867336272,-1.0949158823668956,-0.7662446306236088,3.5076185621387905,9.374418166058241
1789998452960903200,7.567903076171875,-4.390883427140117,-5.658721342742442,0.6658169018432497,6.4819838863555574,3.1190032942191013
1789998452970973200,7.57797314453125,1.859853375914693,-4.226967122659087,0.7236867608793079,3.58641750770241,2.9979388960183533
1789998452981043200,7.588043212890625,0.1559143459416926,1.8584049306720487,-0.3454236491017043,-1.8092556716090373,0.5691129779981096
1789998452991114200,7.5981142578125,3.402065866535902,3.94090737054348,0.3184611887004226,-4.6568929071729235,2.349376309424186
1789998453001184300,7.608184326171875,8.111749285876751,2.989280015170574,-0.3598004033699631,-4.818969081211463,7.1863248472785655
1789998453011254000,7.61825390625,-3.5306402240008112,2.426642040511965,-0.4761538694262504,-1.460930429797341,4.055418199245834
1789998453021324000,7.628323974609375,-12.978199137943982,-0.7241746905267238,-0.8901343374036252,3.895240894156872,12.432920789647232
1789998453031394300,7.638394287109375,-11.065018076467512,-4.048506159996986,-1.960957542651892,6.732534950137181,9.866273601991333
1789998453041464000,7.648464111328125,0.268872178210318,-6.282125628530979,-2.808827586430311,6.227944366061153,2.9393223784403744
1789998453051534000,7.6585341796875,4.581580186519027,-1.4869383471667763,-2.095543123230338,0.49496502452240865,5.229548093248238
1789998453061605000,7.668605224609375,1.4499962714776395,5.5137225046992295,-0.7773858370367437,-5.624679069657103,1.2128228020252732
1789998453071675100,7.678675048828125,3.215358469054103,5.730768341821432,-0.5813928709458559,-6.274943227118541,2.035519844896265
1789998453081745200,7.6887451171875,3.726875036023557,2.710780469176173,-0.3616564065001905,-3.493004515742776,3.0278116017291747
1789998453091815200,7.698815185546875,1.1929817043215036,1.5562334171891212,0.1355007957272231,-1.8034653739262994,0.7816270890351441
1789998453101885200,7.70888525390625,3.69789648655951,-0.5248053798705339,-0.2535444068275392,-0.36373009016653013,3.7258347118184405
1789998453111955200,7.718955078125,0.0830436093896627,-3.113983668681979,-1.3194976679518815,3.0936675505610034,1.3689725023589312
1789998453122025200,7.729025146484375,-5.116515330737829,-3.8066660733580586,-0.0667369099721312,4.920813327218392,4.0570291763250825
1789998453132095000,7.739094970703125,-6.868677562740444,-1.434327285441756,-0.8771469916671514,3.1094977181921832,6.351097307411142
1789998453142166000,7.749166015625,3.2116452937498687,0.902334624415636,-1.3726011893689631,-1.5419291040526026,3.261190262836196
1789998453152236300,7.759236328125,13.264804248982667,2.1180939777344463,0.1917274906661361,-5.259614711468575,12.361818894480052
1789998453162306000,7.76930615234375,8.279180905002356,4.51764284413755,4.134487868665159,-6.681309244538933,7.836327586307301
1789998453172376000,7.7793759765625,-2.566170045928657,3.939501595398784,2.6671540934175253,-3.3971033878475434,4.204557177049642
1789998453182446300,7.7894462890625,-5.80317131473124,-0.2998807721972465,0.2754502048937604,1.6671554057155333,5.573436233978335
1789998453192516000,7.79951611328125,-0.2502291447997093,-6.565004412522912,0.9350648545634,6.340753744022615,1.957315968681437
1789998453202586000,7.809586181640625,-1.6404104145228862,-5.098374693891405,2.20439615052864,5.159698003996263,2.6308268174491993
1789998453212657200,7.8196572265625,-2.9049039881333707,1.0970026255130767,-0.2724253041146323,-0.3407612269075534,3.098383332193445
1789998453222727200,7.82972705078125,2.841761303260922,2.1482114681005475,-4.4007846434295175,-2.426971862584885,5.115381986954272
1789998453232797200,7.839797119140625,-1.7154180169731377,-0.3166121267676353,-0.5797469303697347,0.7638757691073965,1.6719756351143669
1789998453242867200,7.8498671875,-8.54842337782979,-0.8431284022092819,1.7941104454159735,2.7381397799402953,8.337135634322982
1789998453252937000,7.85993701171875,-1.7772125021070242,-1.480689808166027,-0.1954322269355878,1.8756990086495247,1.3677988046231246
1789998453263007200,7.87000732421875,4.951020817154646,-2.1759709971636534,-0.9461711357936262,0.9848431482596738,5.401183268870907
1789998453273077200,7.8800771484375,2.4851696328043937,-1.2334873177111148,0.9090323684886096,0.5253123472630014,2.87192371965906
1789998453283148300,7.890148193359375,-3.6675855194479214,1.5347984149724243,0.2820167603351176,-0.6229527995484924,3.9367820589550746
1789998453293218000,7.900218017578125,-1.0809595454677938,4.91246283070147,-3.4589959605038163,-4.228392245452371,4.402966803797345
1789998453303288300,7.910288330078125,5.718576384246349,2.0208745434761046,-3.729750006937981,-3.048075742952721,6.434774212232073
1789998453313358000,7.920358154296875,2.1459034834191204,-0.2267775420635938,-0.2193591920984909,-0.2808020422167268,2.15072045649353
1789998453323428000,7.930427978515625,-7.261424834683537,-0.0126280109047889,0.1923329640123061,1.7468849729426716,7.0508038518151315
1789998453333498000,7.940498046875,-1.6002103599511086,-1.944270611745119,-3.454601232676208,2.5305113852249908,3.44552509987161
1789998453343568100,7.950568115234375,0.6105858668781816,-3.209616710531712,-1.7681009748905896,3.0933679411599067,2.0571121426332013
1789998453353638100,7.96063818359375,-2.9212007506787776,-1.846687604871392,0.9911872854102404,2.41478555185087,2.663631338808564
1789998453363709200,7.970709228515625,-1.9896001381598407,2.2063129439353943,0.9793376384668052,-1.7301718179611025,2.6061337660974804
1789998453373779000,7.980779052734375,0.3367787164837121,4.458870921695232,0.2128536826619878,-4.411514994439318,0.760783769724053
1789998453383849200,7.99084912109375,0.1272393094688653,2.3065397433161734,1.0653294301375746,-2.343682441862812,0.989138431056224
1789998453393919200,8.000919189453125,-2.758991250115633,0.470360088455677,2.289881307851523,0.03468811568707664,3.6160232949615434
1789998453403989000,8.010989013671875,-2.122471462166309,0.313050634893775,1.53565561632365,0.0911510860851863,2.63681919349235
1789998453414059300,8.021059326171875,3.058365534095466,0.4059136275082826,-0.1415800608419813,-1.1187169467020552,2.878694655556512
1789998453424129300,8.03112939453125,0.1723136920787394,-0.2836439231455326,-0.9171844030231237,0.3029747501544076,0.9271350567921339
1789998453434200300,8.041200439453124,-3.4564141273170708,-1.0629349362164735,-0.9739921857856212,1.9355068600250303,3.2061040642677283
1789998453444270000,8.05127001953125,-2.3118363884195685,1.690849977427721,-0.8649861598826944,-1.0129497740788866,2.815261079361966
1789998453454340000,8.061340087890626,1.2177258310861885,2.7559055590599773,-0.6932833662439137,-2.906854941367218,1.0529519580264408
1789998453464410000,8.07141015625,2.005750331841409,0.7287298696130514,0.504727162557654,-1.2268296145434876,1.8176138814530316
1789998453474480000,8.081480224609376,-1.5754615570113062,0.3893213891476392,1.318270464244485,-0.09782136763819171,2.0885205908970828
1789998453484550100,8.091550048828125,-0.5239408719956875,2.03309864975512,0.5357607083227485,-1.8817951885348176,1.0741929817185536
1789998453494620200,8.1016201171875,6.43557782214284,0.7190367431163788,-0.3724427715936675,-2.217650213073072,6.095442304983087
1789998453504691200,8.111691162109375,2.2257661246851086,0.3233610165059566,1.0819728872288017,-0.9317120234212357,2.3154211761366583
1789998453514761200,8.12176123046875,-7.543129314199089,-0.1371428638458252,1.927215870439261,1.8027199843469266,7.575088757575229
1789998453524831000,8.1318310546875,-3.599956336811185,0.6376286259740591,0.0034681116478721,0.25007435990531157,3.6474279614441905
1789998453534901200,8.1419013671875,6.775241738674044,-1.3539450042158363,-0.281613495030161,-0.30072875430384505,6.908396056164547
1789998453544971300,8.15197119140625,3.9397809968620536,-1.2039736384570598,1.0853910251092165,0.1328554265862466,4.258150999946938
1789998453555041000,8.162041015625,-4.239043052639067,-0.5928080719947815,1.6102626751489937,1.4718102856447124,4.329853089701559
1789998453565111000,8.172111083984374,-4.411080996516347,-2.586730311137438,0.8872776327982544,3.4976691766866854,3.8343684210707756
1789998453575181300,8.182181396484374,-7.516709509307145,-3.0217069515228268,1.2360161055363714,4.640069908111239,6.754933146166266
1789998453585252400,8.19225244140625,-2.778289240303635,-3.461225326991081,-0.0918588479401078,4.02520100198632,1.8722090718038615
1789998453595322000,8.202322021484376,3.1209912093564864,0.1888730510830879,0.8379099369086325,-0.9986188267869758,3.0791415458635107
1789998453605392100,8.21239208984375,6.147322021287679,4.6256461227387184,2.4754975490957496,-6.145511297237037,5.2485187526889145
1789998453615462100,8.222462158203125,5.226214891862869,4.695761276972293,4.000935722787678,-6.107952463464153,5.2975371096559964
1789998453625532200,8.2325322265625,0.0990842052169144,1.0833154609441755,3.952929232248664,-1.3739277000552244,3.8628179167326966
1789998453635602200,8.242602294921875,-4.282195673406124,-1.336716806039214,2.584512635087967,2.127556416024571,4.719875089708184
1789998453645672200,8.252672119140625,-2.3414953213632104,-1.834110447371006,0.623531127038598,2.291039428150909,1.9966198632101342
1789998453655743200,8.2627431640625,3.737774615700543,-2.0085539910852908,0.559306930539757,1.0001627663720647,4.161459707385472
1789998453665813200,8.272813232421875,5.034764683768153,-0.5890343986749649,0.6281660933628678,-0.6909937958550144,5.060922560036071
1789998453675883000,8.282883056640625,-1.672258528073877,2.618500244885683,0.3772885676570236,-2.1594473970529395,2.2654195460947544
1789998453685953000,8.292953125,-2.5410171922326086,2.123306743946672,-0.2803764092495664,-1.4208058803766517,3.0041839959066947
1789998453696023300,8.303023193359374,4.668401853142679,1.7856664421975612,1.6343164815619586,-2.977190644658455,4.334732602188944
1789998453706093000,8.313093017578124,6.952849299377203,1.4284896653294563,3.5169583201289174,-3.3257457752910353,7.189652770993949
1789998453716163300,8.323163330078126,1.2338684259831905,0.5462409666091204,2.339554416428506,-1.0044467985742518,2.5070723927530225
1789998453726233300,8.3332333984375,-6.294560747212171,-1.119001691353321,1.1163809874609112,2.5138396687587248,5.9833582889991686
1789998453736304400,8.343304443359376,-2.7013819417119023,-1.6311036569952964,-0.4227667087621987,2.2612354452670207,2.241318693532064
1789998453746374400,8.35337451171875,1.3454431333303452,-1.647242306369543,0.0684329002350568,1.264409975410863,1.7116001042403302
1789998453756444200,8.363444091796875,-0.3604237959653139,0.6987409740626812,1.179894259211421,-0.6793436295407488,1.2445026948362068
1789998453766514200,8.37351416015625,-1.0548625427894294,2.366923777130246,1.0943131672333926,-2.1195386728633983,1.84936212601576
1789998453776584400,8.38358447265625,0.290519361872971,-0.8371049041360616,1.916320528545976,0.5935800867899894,2.026102951195926
1789998453786654200,8.393654296875,-4.382086372700333,-4.142210279610753,1.703502976643294,4.933329066669019,3.86325946445616
1789998453796724200,8.40372412109375,-4.640954751029611,-3.334522024095058,1.2171930393837391,4.251367102907396,4.008108628982044
1789998453806795300,8.413795166015625,6.278886208218336,-1.923766168376804,-1.642703932287544,0.47412667407158726,6.7527008220735185
1789998453816865300,8.423865234375,6.773568837025762,1.2696446727633477,-1.0609180434361098,-2.779226706084122,6.394894713447593
1789998453826935300,8.433935302734374,-2.398499649611116,3.963605524563789,-0.3927345585919916,-3.227116353574029,3.3470777997448384
1789998453837005300,8.44400537109375,1.0962895088076592,2.2045032641649245,-1.501829919089377,-2.2823436914933004,1.7629763777794316
1789998453847075300,8.454075439453124,10.247849460422993,-1.0893711077213286,-2.1031329938374457,-1.254182602187742,10.442956591117625
1789998453857145300,8.464145263671876,-0.7757078938871622,-2.242455101418495,0.5817059554830193,2.3121073085363273,0.7892206478381081
1789998453867215400,8.47421533203125,-12.48968263055086,-1.9650918659776448,1.4134502093687653,4.802247100100009,11.78091772900401
1789998453877285000,8.48428515625,-5.081830386325716,-4.6923377322644,-2.422138153221458,5.9492739774725365,4.279710953239103
1789998453887356200,8.494356201171875,3.086625706157088,-0.9362994378596544,-1.238285657903552,0.2568782260066649,3.445472367443882
1789998453897426400,8.504426513671875,3.901283800685405,2.916900423136353,2.1923279654636976,-3.929513418308975,3.618501012224164
1789998453907496200,8.51449609375,4.259008859086037,4.19559174118638,2.9032711262345314,-5.307173981239318,4.000629211232683
1789998453917566200,8.524566162109375,-0.9104258686736224,1.9808277797698968,1.3143820785038172,-1.7975807122900664,1.8024588168812652
1789998453927636500,8.534636474609375,-7.513727863147855,-0.5181260482370853,-1.2060349549010396,2.4035575632807324,7.238922043767659
1789998453937706200,8.544706298828125,-2.156210065639019,-3.5488106714636087,-1.626269222576171,4.07726959099467,1.8066331381068113
1789998453947776300,8.5547763671875,4.083925263902545,-2.7650159172326325,0.4593756069742143,1.6563088626716018,4.66812869182178
1789998453957847300,8.564847412109375,-1.8155284964978693,-0.1433586696207523,1.5008767100177705,0.4614545235343888,2.314386754873667
1789998453967917300,8.574917236328124,-6.298052680981159,2.5204858608573675,-1.737960103648901,-0.7886562215106951,6.958221269357827
1789998453977987300,8.5849873046875,-4.182189823299646,1.2670786216676235,-2.019216985527426,-0.06419101522545878,4.813451640954238
1789998453988057300,8.595057373046876,-1.719985909410566,-1.7787953873842954,0.358238707011193,2.1080536143517543,1.3442133346199536
1789998453998127000,8.605127197265626,-3.9749218683481216,-1.674689700743556,2.1128698133453727,2.416554420967962,4.150791856007112
1789998454008197400,8.615197265625,-0.7498281872212886,-0.7928694565683603,0.2164811889767646,0.9312386833699405,0.6087223548439668
1789998454018267400,8.625267333984375,4.4932887396037575,0.2431324645370244,-1.5269710823476317,-1.2010980976058798,4.597582097039183
1789998454028337200,8.635337158203125,8.104349238753318,0.9167664698719976,-0.4728182221975177,-2.803320097359447,7.673714279730885
1789998454038408200,8.645408203125,-1.9989684166163204,2.8871757314801214,1.4360077858746052,-2.4215537612906046,2.9205914088330025
1789998454048478500,8.655478515625,-9.4815570451349,2.7106828540205954,2.2177372781388462,-0.5078583886103791,10.0949573563831
1789998454058548200,8.66554833984375,1.1139749492324889,-2.485979195621609,-1.7164777551591397,2.2680068745145334,2.285491949163673
1789998454068618200,8.6756181640625,6.16701397922933,-1.6745710427999496,-1.3131105972632764,0.2347992828861014,6.519614891601757
1789998454078688300,8.685688232421874,0.8886647032424807,0.0423842667430639,1.6028070984460412,-0.37751342022628886,1.793877251440148
1789998454088758300,8.69575830078125,-2.70548031694144,-0.8519657886594534,0.1788787496827542,1.4624264706801449,2.436960376236298
1789998454098828300,8.705828369140624,-2.71207343159616,1.1819219656467437,-3.5972684129014607,-0.21544056808236234,4.652548465876629
1789998454108899300,8.7158994140625,-1.9737033347174524,-0.5815244614362717,-4.056650888007879,1.3479642013027804,4.344316343442868
1789998454118969000,8.725968994140626,0.1724018087536096,-1.4797195018291474,-0.6545359946984798,1.4401413451857006,0.7574314899696637
1789998454129039400,8.736039306640626,2.733947409752011,1.5271014307290314,0.1085937187749892,-2.1444594952789915,2.2846429234980117
1789998454139109400,8.746109375,0.5303596529968082,2.392474397972226,-2.231261799491942,-2.2721630096302876,2.412678922281063
1789998454149179100,8.75617919921875,-0.4969029352053999,-0.5108493352323771,-2.3934699848808347,0.796778894607098,2.3667956253038107
1789998454159249400,8.76624951171875,3.5671325100958344,-3.2289778290838003,-1.005323874247074,2.3415783012662015,4.3218536898497355
1789998454169319400,8.7763193359375,-2.342993743227422,-2.691337517559528,-0.000667158671841,3.1684734512850614,1.641247619291115
1789998454179389200,8.78638916015625,-11.599504892396926,0.1277776541292667,-0.663651248241961,2.7215047582548553,11.295958821973649
1789998454189460200,8.796460205078125,-2.89607449272871,0.9532844749301672,-2.91142403755188,-0.0022794423088597915,4.215730480967016
1789998454199530200,8.8065302734375,16.754030512577295,1.238787177684903,-2.609178874310851,-5.03552311429448,16.238332840889903
1789998454209600300,8.816600341796875,17.936461012268065,3.2023809140592814,1.0362922823540863,-7.498660500667599,16.637784394369877
1789998454219670300,8.826670166015624,-5.796073465424776,3.9762569163441657,1.6213924103200434,-2.574675421283357,6.7383266843229555
1789998454229740300,8.836740234375,-15.410409918498992,0.1852846712023019,-1.2154904732495546,3.626100481760849,15.028102895984203
1789998454239810300,8.846810302734376,-9.320369288834929,-3.896409472647309,-2.4992624555647374,6.206184360629482,8.353495014810656
1789998454249880300,8.85688037109375,5.924915533915161,-5.803392848527431,-2.174947791595757,4.3537366781595255,7.386431308269524
1789998454259951400,8.866951416015626,12.63784139392972,-2.593639944395423,-0.2210584337644278,-0.5182667491703059,12.892721577197337
1789998454270021000,8.877021240234376,6.208995510390401,3.677620006728172,1.8378116399765008,-5.194414472895523,5.3359276672142135
1789998454280091400,8.88709130859375,-6.589353840881586,5.527141373720765,-1.8115294899895784,-3.621911331723811,8.008262808104472
1789998454290161400,8.897161376953125,-6.355706413048505,-0.4691840304136276,-3.0824767697840927,2.2205394765230824,6.7220536395302775
1789998454300231200,8.907231201171875,-2.479415307061374,-3.7630087179392575,1.618576037725061,4.11454951876544,2.449082588174998
1789998454310301200,8.91730126953125,1.611239849618077,-0.6681418376594781,4.011061687743664,-0.048061978531052596,4.3736498805154715
1789998454320371500,8.927371337890625,3.729727502845228,2.4532652590215203,-0.4408490395501255,-3.238487689463848,3.10417831921193
1789998454330441200,8.937441162109375,0.3027899376422167,1.9557097051262853,-1.9004127653181555,-1.8200217347444076,2.053185758937723
1789998454340512300,8.94751220703125,-7.316256495067477,-0.4454518571704626,-0.8709685952931642,2.260078521335017,7.026853337736652
1789998454350582300,8.957582275390624,-7.728748331922292,-1.026198904493451,-0.3526545867359265,2.881760039573863,7.253031042373685
1789998454360652300,8.96765234375,5.635559662863612,-1.4341776478379964,-0.7616285881955176,0.08812282757180467,5.864188836733603
1789998454370722300,8.977722412109374,8.845950864899159,-0.1100339076459407,1.328306851220876,-2.126075016449518,8.689485501482324
1789998454380792300,8.987792236328126,1.3256266722261905,1.83100722065866,1.4247222756199538,-2.199740533549963,1.5168548592158244
1789998454390862300,8.9978623046875,-0.5242462846830487,2.208328959932923,-0.6229156985539943,-1.9627683988279854,1.2988899654511321
1789998454400932400,9.007932373046875,2.1253174992471933,2.226781731468439,0.9640630585759876,-2.7401381113942027,1.7019377378752203
1789998454411003400,9.01800341796875,-2.999313333407044,1.3782377339512109,0.1691626989682205,-0.6238492063651425,3.2457430443089663
1789998454421073200,9.0280732421875,-1.6814774611875414,-1.7864064469099044,-1.1085915756937117,2.218171152369222,1.525551200890692
1789998454431143200,9.03814306640625,3.2525565653309223,-0.3923006972193718,-1.713149049127847,-0.27316728451407546,3.6869070163098696
1789998454441213400,9.04821337890625,0.6161451084405184,-0.1522410642564296,-0.1644772080331109,0.01142495500027818,0.6555412715205027
1789998454451283200,9.058283203125,-5.910722757911682,-0.9676941085547208,1.2663264881260692,2.2635209194291237,5.687981296599262
1789998454461353200,9.068353271484376,-0.5504191290766001,-1.7198346643716096,-0.0632777276952751,1.8014392496668523,0.14004710282492566
1789998454471423500,9.078423583984376,3.3438539160639045,0.4846089785605669,0.2112007460894994,-1.290578904802103,3.1297310938331413
1789998454481493200,9.0884931640625,-1.3831132310330867,2.8274071992158887,0.289969692100957,-2.42456188074642,2.028007837461465
1789998454491564300,9.098564208984374,-2.6364047348886728,2.768276380333304,1.1025539029646665,-2.127480942154505,3.362057999762448
1789998454501634300,9.10863427734375,3.666202540656924,1.9013982692241669,2.5608164099410176,-2.9184871365308975,3.8854304737898513
1789998454511704300,9.118704345703126,0.5574632023692131,1.5870961729645727,2.0298240119986235,-1.8249037662500964,1.9025118259414135
1789998454521774300,9.1287744140625,-7.120482578554749,-3.367138930061459,0.3040698213849216,4.950011222873214,6.134227259854611
1789998454531844400,9.13884423828125,-4.160503476670384,-4.726840890368819,-0.9771277073323726,5.650335215003366,2.9464053517427846
1789998454541914000,9.1489140625,-0.9733926124572754,-2.647006792923808,-2.396407061246037,2.9786070290559343,2.1965439010909003
1789998454551984400,9.158984375,0.6480921523213387,-1.1367483604460955,-2.733594650791585,1.1524951642569825,2.8029475350205955
1789998454562054400,9.169054443359377,3.13729557068646,-0.4406026635736226,-1.636959251155704,-0.20448476670191218,3.560137044430756
1789998454572125200,9.179125244140623,0.4611737424373626,4.121768964606523,-0.5019182426167652,-4.060732926326871,0.9818506208296228
1789998454582195200,9.1891953125,-2.078036108112335,2.192532255864143,0.2476290453039109,-1.639648305949875,2.5491773842746213
1789998454592265500,9.199265380859377,-6.076448742163181,-1.2774848648697137,-0.7993718972649425,2.76095008440576,5.618838577291972
1789998454602335200,9.209335205078125,-3.647497547926009,-1.846148675689101,-2.7848917073085904,2.8776388304834786,4.023346850273377
1789998454612405200,9.2194052734375,2.902534920914471,-0.1824298662930727,-3.405082584008574,-0.2626779788053007,4.470299464981396
1789998454622475300,9.229475341796874,3.526694116723537,-0.784214440947771,-2.471942194701731,0.09793479374840486,4.376467830619083
1789998454632545300,9.239545166015626,0.2991214782625436,-1.4971376696199177,-2.433121757920086,1.5623072237421511,2.4104299384259544
1789998454642616300,9.2496162109375,-1.2722498868256806,0.9459674299150704,-3.656340195073187,-0.3295032735240032,3.971614957146888
1789998454652686300,9.259686279296876,2.207271852095425,1.0736609128922223,-3.8620781639784574,-1.275592825614807,4.394690827901841
1789998454662756000,9.269756103515626,0.9877017083168028,0.1487017842143774,-1.457740894255042,-0.2704862168207605,1.746285373738769
1789998454672826400,9.279826416015624,-6.176368083029985,0.3202291482210159,0.2575438517272472,1.1584506537840615,6.080657063406194
1789998454682896400,9.289896484375,-2.5384862124502656,0.8038730811417102,0.5303991812895983,-0.20673800953402,2.707158449058893
1789998454692966100,9.299966064453123,1.4296505258023735,-0.0559118568360805,0.218772514784336,-0.3070305822456037,1.4144328886351765
1789998454703036400,9.310036376953123,3.051591217654943,-0.404029128935933,-0.0399104239754378,-0.34120014814285676,3.059513653760463
1789998454713106400,9.3201064453125,0.6724411422885954,1.933632313352823,1.1343252249523996,-2.1194952527093576,0.9927459910724342
1789998454723177200,9.33017724609375,-4.056541874675452,2.0083084918916225,2.0046878171764315,-1.1189584374426262,4.822399842320316
1789998454733247200,9.340247314453125,-1.6978424666635692,-1.634097578114271,2.03162565459311,1.8349118393167176,2.5126769149139294
1789998454743317200,9.350317138671874,3.774184191948175,-1.6150585311233996,0.0786426710169762,0.6473809481698574,4.054622417853153
1789998454753387300,9.36038720703125,7.658676432308554,1.396342714962363,-0.7881962771255523,-3.135873288011898,7.1688667001998985
1789998454763457300,9.370457275390624,0.9031297203160822,3.962272230133414,0.4232302711533382,-4.083545051358018,0.13794271765696514
1789998454773527300,9.38052734375,-8.053050428670645,1.616413452863693,1.150481848374754,0.28825807070743714,8.28884367239623
1789998454783597300,9.390597412109376,-7.092875609704851,-2.008604259967804,0.692596187697351,3.5992531938458563,6.470582772340531
1789998454793668400,9.40066845703125,-0.8365998772233724,-3.6621886288404464,-0.1454967776279896,3.755962997602458,0.15948724312532944
1789998454803738400,9.41073828125,5.823496894401312,-2.8492303239673373,-0.1059675715224817,1.361886313956439,6.3393788585467306
1789998454813808000,9.42080810546875,6.903700360804796,2.6770868738889693,0.127570514184609,-4.263101813775385,6.055585022406939
1789998454823878400,9.43087841796875,3.483032377390564,3.806974700915813,1.213748013496399,-4.615192200194709,2.6072506804855524
1789998454833948400,9.440948486328123,-4.819449908222258,2.955648379203677,1.1805366487681863,-1.7888069539698996,5.491519937127298
1789998454844018200,9.45101806640625,2.3311435848273336,-0.5997837562263012,0.9319524946965276,-0.05246354442556078,2.5806499174029693
1789998454854088200,9.461088134765625,4.952876674154401,-2.051160960668325,2.8485359119623896,0.573813052058326,6.04343809920971
1789998454864158500,9.471158447265625,-5.568130971235036,-0.9685229605942964,1.8924350644372403,2.133969081713637,5.565034201999752
1789998454874229200,9.481229248046876,-7.352346630102396,-2.1269436391443013,0.2735305436764844,3.808266937663916,6.644758242637147
1789998454884299300,9.49129931640625,0.1802642126917839,-2.310488773202896,0.9360769542153924,2.1205628662135383,1.3229915918566533
1789998454894369300,9.501369384765624,4.1099101845085615,0.1529448286116123,0.3817445241525769,-1.1672582075516178,3.9620690306896593
1789998454904439300,9.511439208984376,4.29613535143137,1.3210346682608127,0.6689454091273248,-2.364227758057229,3.880699243820565
1789998454914509300,9.52150927734375,5.275889900135994,1.723449932259321,0.8691798852454871,-3.0049062594493927,4.746715280296351
1789998454924579300,9.531579345703124,2.7769775731831787,0.8539905724853277,0.3831401797620579,-1.524534763377178,2.5026974432517304
1789998454934649300,9.5416494140625,-4.848312137830257,-1.8739573045909403,0.1613716432332061,2.9688101966572114,4.269666660141737
1789998454944720400,9.551720458984375,-2.971910362696648,-3.1297008777737614,-0.6724936031281947,3.79543071024828,2.1619972613752663
1789998454954790400,9.561790283203123,2.5904586840108035,-2.124599706366658,-0.6496864357754588,1.4811803730431738,3.0745076472831507
1789998454964860200,9.571860107421877,-3.32347806751132,-0.0867249282509088,0.2515810891316272,0.8653570036406768,3.2198568258647136
1789998454974930200,9.58193017578125,-7.045254026830196,1.0384387928634882,0.6258017023190856,0.6447539987356257,7.119682540733875
1789998454985000400,9.59200048828125,0.7977526985652744,-0.4527010976463556,0.204397422750201,0.23020684898188015,0.9111151216982137
1789998454995070200,9.6020703125,9.78104092696905,1.367959501042962,-1.1701369814373552,-3.590541135729713,9.27455172606727
1789998455005140200,9.61214013671875,7.215580198353528,2.974547725462913,-0.5904532524969428,-4.571201775264818,6.353367700922726
1789998455015210500,9.62221044921875,0.1075377069160342,4.464484085401892,-0.0075779975062236,-4.344883583738908,1.032098143113277
1789998455025281300,9.63228125,-6.185660812032222,1.736072682467103,-0.3754959851518273,-0.16084314427476887,6.433620656995919
1789998455035351300,9.642351318359376,-7.006970181143283,-1.1352286035329102,-0.3866077462747693,2.8159593217666146,6.52734354460877
1789998455045421300,9.65242138671875,-2.2563537167809904,-4.1127994762092825,-0.8267159773949533,4.586008860839689,1.2877242182698476
1789998455055491300,9.6624912109375,-1.0428937264457343,-2.392226560690999,-2.511320557627082,2.757617836628942,2.347903331187566
1789998455065561300,9.672561279296875,0.1612077761746942,1.0601035121828315,-2.4482160128079355,-0.8775415213055107,2.524577177943974
1789998455075631400,9.68263134765625,-0.9857418064206838,3.1093010638237,0.0480570516824722,-2.774559529652064,1.7156832199022154
1789998455085701000,9.692701171875,-5.780812767928839,1.7713322118967771,0.941776846357435,-0.3930984280636398,6.1063762836023345
1789998455095771400,9.702771484375,-3.144448949572444,-2.439093525806069,-0.1429189264966175,3.1283618874232375,2.4638413392434573
1789998455105842400,9.712842529296877,2.390477086675167,-1.299120358094573,-1.1698442821010946,0.7704035616189203,2.8595643730023412
1789998455115912200,9.722912109375,4.642172894647717,-0.1897691231399774,-0.2304792461257427,-0.9171383230147574,4.560456060883785
1789998455125982200,9.732982177734376,-3.839863409560919,3.423428388038277,0.2950101339535788,-2.409761702921978,4.554612216904644
1789998455136052500,9.743052490234374,-3.067451926870644,4.282881317582726,1.2714859167158603,-3.5019762549101943,4.135839993352441
1789998455146122200,9.753122314453124,5.350719223409891,1.24129185398221,0.9653995678767562,-2.5637763602703965,4.952781922789055
1789998455156192300,9.763192138671876,-0.5412476883664726,-3.6994226732134816,0.601200125830248,3.663805023685464,0.9574191950047243
1789998455166262300,9.77326220703125,-10.691800849902627,-4.671590712311864,0.7104127071559428,7.041451829720414,9.330648827469217
1789998455176333300,9.783333251953126,0.2438870822966098,-5.040695827382803,1.2411676430806518,4.723511262107891,2.1672641297441912
1789998455186403300,9.7934033203125,0.877265065088868,-1.6856325350403785,1.5944124873273071,1.2977949188176887,2.1139608714562974
1789998455196473300,9.803473388671875,-4.234429129102826,2.275887415421009,1.4930354949980973,-1.2959181053588038,4.864134540757862
1789998455206543000,9.813543212890623,2.653497323986888,2.3448954851955173,1.2083034112896769,-3.0003159790776204,2.235550054085497
1789998455216613400,9.82361328125,5.84867692836523,2.397369768798351,-0.1212668839957565,-3.719293177178486,5.112334842328661
1789998455226683400,9.833683349609377,-3.8567338803410527,-1.0915239018410443,-0.1398556664684787,1.9959011256672903,3.4787582491550397
1789998455236753200,9.843753173828125,-7.433206465712189,-2.688520122051239,0.4934379625085741,4.354297555347024,6.6154570991673305
1789998455246823400,9.853823486328125,5.911814060279727,-2.870017091408372,-0.1333531892392784,1.3628133239508655,6.430168466334262
1789998455256894500,9.86389453125,8.853328115668893,1.558990022420883,-1.1518411540292204,-3.5532715279766576,8.337437742273519
1789998455266964200,9.873964111328124,1.9588918422937391,3.385239819419384,-0.3301180164854973,-3.722051487922882,1.245960075944217
1789998455277034200,9.8840341796875,-6.197616038241982,4.269039839234948,0.7996125010877847,-2.6984535824425646,7.070563918228032
1789998455287104300,9.894104248046874,-2.6185855850815773,2.1726298700422046,-0.8689030410654842,-1.4048914553735694,3.2184753396581764
1789998455297174300,9.90417431640625,-2.170021002718061,-1.844656975826621,-2.7523689093664285,2.5177713616839394,3.057468314510301
1789998455307244300,9.914244384765626,-2.9837399167001246,-3.218468710029125,-2.630902630341053,4.033742263991846,3.1483037855276303
1789998455317314300,9.924314208984375,2.715231018844247,-0.3379828315764665,-2.9259041060641406,-0.10364885608805474,4.0046078001034076
1789998455327384300,9.93438427734375,3.428371689659357,2.7746149357050656,-1.996561647735536,-3.3579864793640803,3.487464078884806
1789998455337455400,9.944455322265624,-0.5577256526976824,2.570284203249216,0.1742391802486032,-2.365791607794195,1.1622427240356354
1789998455347525400,9.954525390625,-3.3250241279095407,1.4657020823925733,0.7003275856669992,-0.670575208511273,3.6393482469374594
1789998455357595100,9.96459521484375,2.2639720828302203,-1.555961614510417,-0.2239646035347133,0.9771409962490311,2.5771964912963816
1789998455367665400,9.97466552734375,-2.4830907807037232,-2.855584076908231,-0.4115559807768091,3.392521100165947,1.7263485035616803
1789998455377735400,9.9847353515625,-7.646969043380022,-2.2908348091840742,2.23179210697636,3.88825130733683,7.320277143191863
1789998455387805200,9.99480517578125,1.4671902751237154,-0.8072323284417391,1.382690621706843,0.3219609103130966,2.147660555834067
1789998455397875200,10.004875244140624,5.302420179665089,0.1925853496044874,0.2966673265760764,-1.4864027149053176,5.102094408219211
1789998455407946200,10.0149462890625,-3.815993873673677,0.5223404510617256,0.8435163786135613,0.3495062399374066,3.927341856773428
1789998455418016300,10.025016357421874,-3.9410459022313353,0.9620546413630248,1.5880182562455534,-0.10266937850282676,4.355301702218751
1789998455428086300,10.035086181640626,6.6058870425313705,-0.5310550879150628,0.4988169521331786,-1.1157123057085137,6.5516232742512255
1789998455438156300,10.04515625,4.219852322217822,-2.079904240071773,-0.7188640168979764,1.0506806278885852,4.64176593142804
1789998455448226300,10.055226318359376,-3.804926536214352,-2.6483377492666245,0.9017617929637431,3.410141207324731,3.2673031780864425
1789998455458296300,10.06529638671875,1.791737286543846,-1.107822710213065,0.1831100305769592,0.6262256211924309,2.0196446261447516
1789998455468366300,10.075366455078123,2.585778709501028,-0.8860387386530637,-0.5374868745282292,0.27538440760336935,2.772069939457116
1789998455478436400,10.085436279296877,-2.603539407119155,0.2040525000363588,-0.4767957109937444,0.4662084018726463,2.613434281408054
1789998455488506400,10.09550634765625,1.687864239615202,-1.3924217421263456,-0.6006320436187088,0.9864690818085076,2.0433701577970247
1789998455498577400,10.105577392578123,6.901985373580455,1.1251216355383395,-2.1606841423131526,-2.586336449790859,6.847095772895377
1789998455508647200,10.115647216796877,-1.073478834323585,1.8293278892695903,-1.7382988340839742,-1.3785660433277998,2.370661476246977
1789998455518717200,10.12571728515625,-8.313367252242564,-0.0723801765561103,0.2773874565666541,2.0516257187027716,8.061332995977478
1789998455528787500,10.135787353515624,-0.5990133563756942,-0.910648863774538,0.0815210759975016,1.0191694424118496,0.39501606004824896
1789998455538857200,10.145857177734374,0.9888941329717637,0.0373830974549055,-1.0257465576160698,-0.19606249950841736,1.411745231601307
1789998455548927200,10.15592724609375,-3.479006482875347,0.5933212822139263,-0.4484435863323509,0.29832044881047537,3.545084316594008
1789998455558997500,10.16599755859375,1.136075575751066,1.1219307305425406,-0.0721945177908986,-1.3536890297611248,0.8497848769290263
1789998455569068300,10.176068359375,6.276264043021202,2.254739997974038,-0.9612104456238448,-3.6201523969712097,5.682760327487409
1789998455579138300,10.18613818359375,2.9493869807213544,0.3794008836358785,-1.1579713273473082,-0.9891828322791487,3.034014421823832
1789998455589208300,10.196208251953124,-8.491517833781241,-1.6950678873836993,1.0448179725065827,3.6059419098433114,7.941533718544085
1789998455599278300,10.2062783203125,-5.864689321011305,-1.2951175521939993,1.5952293566681444,2.5441050993153134,5.66958519205759
1789998455609348400,10.216348388671875,0.1326519821673631,-1.5765741944283247,0.0053260355946607,1.4930304149476037,0.5235181807796101
1789998455619418400,10.22641845703125,2.3121038071841,-0.271673499366641,-0.6062223379064351,-0.2478559294532821,2.392844221144561
1789998455629488000,10.236488037109376,3.827711783996224,2.7744980313271284,-0.6186206317085773,-3.559320409366596,3.1722462919236873
1789998455639558400,10.246558349609376,2.58720231256336,4.729187745755911,-0.2041170897051692,-5.1833616807877565,1.4944089176634028
1789998455649629400,10.25662939453125,-3.995188411307335,0.1565209335327148,0.4557021060932427,0.7762399384081856,3.9485624234645518
1789998455659699200,10.26669921875,-8.392957506307958,-3.4756396367907523,0.6997831765919923,5.3313198077463735,7.388405253455876
1789998455669769200,10.276769287109374,-2.032172620951384,-2.798898313090205,0.3111517424698919,3.1738468557885193,1.4096343040686101
1789998455679839500,10.286839599609374,6.255429929307103,-1.1452210052371024,-1.7386710283972322,-0.2661644353661594,6.587417414255866
1789998455689909200,10.2969091796875,3.685064185254276,1.0445423704355954,-1.331392834537476,-1.7967195279196226,3.635267889843745
1789998455699979300,10.306979248046876,-0.2520208505220711,3.5748850239187475,0.4117799987910315,-3.4295705273325674,1.1184481252130414
1789998455710049300,10.31704931640625,0.9618848377540709,3.1910207311332224,1.027483975867927,-3.3976356185467993,0.7871666099820614
1789998455720120300,10.327120361328124,0.0648769613191485,0.9840455238968132,0.7740289278242737,-1.026847671183654,0.7192073793453878
1789998455730190600,10.337190673828124,-6.495165737143158,-1.6824790394455194,0.6445178009659052,3.143392045237696,5.962583610888005
1789998455740260600,10.347260498046875,-2.89221431016922,-1.9185306058108809,-0.0154434793174732,2.5541956439609037,2.34989072401362
1789998455750330400,10.357330322265623,3.970444430673122,-0.9052250851601362,-2.101047565865517,0.07978536735203146,4.58169145633491
1789998455760400600,10.367400634765623,1.414700940082222,1.2771902658373118,-2.0209984621167183,-1.4221904414795794,2.3862947967636696
1789998455770470700,10.377470703125,1.13619890986979,1.2879068901628254,-1.193156549431756,-1.4286922668848143,1.527125757268734
1789998455780540400,10.38754052734375,3.637425651244819,2.260112338662148,-1.1322919655591248,-2.9765588313262348,3.280420060088376
1789998455790610400,10.3976103515625,-3.633592064431309,0.7328191847532988,-1.1311743597060442,0.25273662354166904,3.867259349903728
1789998455800681500,10.407681396484374,-10.639638116467,-2.8302427149027585,-0.5694835297044366,5.345065572298012,9.641927120294818
1789998455810751500,10.41775146484375,-1.4065075506240128,-3.4159921005576845,-1.1496343646999447,3.7317476605098574,1.0212659261001094
1789998455820821500,10.427821533203126,5.821270450523495,-1.98611887191534,-2.5615000082910058,0.7148738670119799,6.624356231231413
1789998455830891500,10.4378916015625,1.5618817983396351,0.3310837197124958,-1.5008707186684012,-0.5819797302082483,2.112582232535873
1789998455840961500,10.44796142578125,0.852130623832345,1.4408750996500252,-1.1601627729769797,-1.5107795131967887,1.3659321268536297
1789998455851031600,10.458031494140624,2.455840954728425,2.187860756921768,-0.9593682518232614,-2.635203293829938,2.1895160491291175
1789998455861101600,10.4681015625,1.2706098645336923,2.224846379491687,0.291813109744247,-2.481013409195696,0.7029354128206601
1789998455871171600,10.478171630859377,0.952753144532442,-0.0284206233203411,2.013341956014186,-0.355801664231193,2.1989764195697314
1789998455881242600,10.48824267578125,-0.4795815057873726,1.4467816933453082,1.6427875189177692,-1.4097485585173568,1.7419918263191234
1789998455891312600,10.498312744140623,-0.6745116649523377,1.024239002597332,2.0726982542157173,-0.9867967665722291,2.1968936512971737
1789998455901382400,10.50838232421875,-2.5369278770923613,-0.3054875061631202,2.2179897915951905,0.7373429819350583,3.3022915850363233
1789998455911452400,10.518452392578125,-2.34966459929347,-2.351498244461417,1.3939862149640916,2.7347552506210784,2.348356661495103
1789998455921522700,10.528522705078124,1.590648604749143,-2.262671960017085,0.9388798097416758,1.7343072405647189,2.3502172399383228
1789998455931592400,10.538592529296874,-1.1055427825823425,0.0455167195498943,1.8551662410117684,0.08060798464134167,2.1585737769370517
1789998455941662500,10.548662353515626,-1.5951847868740558,1.417577810692787,3.187882433107496,-1.2307398984490987,3.633457728297366
1789998455951732700,10.558732666015626,-1.224788462948799,1.3017454459011557,2.7965684088379144,-1.178013263522904,3.1028579730904897
1789998455961803500,10.568803466796876,-2.98346811402142,0.2176864731132984,2.17326743729338,0.3421447209187095,3.6816433466464713
1789998455971873500,10.57887353515625,2.431677842722088,0.3222515939593315,0.6000413477165624,-0.9434369838738061,2.3424089090130025
1789998455981943600,10.588943603515624,6.908868118831515,0.5660732098042964,-0.081290756106656,-2.2059101049698002,6.5721736402871445
1789998455992013600,10.599013671875,-0.744202748554945,0.9186006995618344,0.7534200011681765,-0.7670371917669873,1.1734396536672413
1789998456002083600,10.60908349609375,-6.051033145877718,0.819330762514472,0.187509324981831,0.6507055759005491,6.0743762668573975
1789998456012153600,10.619153564453123,-0.866065917943418,-0.8181862686544656,1.21619109579958,0.9073827208129187,1.4405819393252925
1789998456022223400,10.629223388671877,0.7961872028142213,-0.6123012924939394,0.1458778493674472,0.3894726446993809,0.9372397455730439
1789998456032293600,10.639293701171876,0.0986865842014551,-0.6406289768338203,-1.3021285999998449,0.6955092229833363,1.2774781170506093
1789998456042364700,10.64936474609375,4.434166688549518,0.9500058916509152,-0.8538903269812465,-1.9221886615301993,4.195076263431993
1789998456052434400,10.659434326171874,9.915953255283831,3.773735279136896,-1.259647594884038,-5.943884581185179,8.878296856200668
1789998456062504400,10.66950439453125,2.7746301332741976,0.9306447730988264,0.1074340638784691,-1.5770777101386937,2.4675980313727144
1789998456072574700,10.67957470703125,-4.6483740873754025,-2.010771082612872,1.2744373138673604,2.9680038594400786,4.297176463700495
1789998456082644500,10.68964453125,-1.7434756521999837,-3.249060247647762,-0.3233979875154793,3.5883094973492944,0.9081415375485316
1789998456092714500,10.699714599609376,-3.6124580909878015,-3.265933641037345,-0.5209594084994867,4.069982367576077,2.7244849494402876
1789998456102784500,10.709784423828124,-6.326225467020273,-3.444459485629201,-0.5485196886634454,4.898593935817107,5.309433219143466
