time,seconds_elapsed,z,y,x,vertical,horizontal
1789998446959095600,1.566095458984375,-2.161246744631976,-9.402941773581505,1.7561594849452375,9.484237363467138,2.493920459542259
1789998446969166600,1.57616650390625,-2.189774043197185,-9.371752854591607,1.8829530964732168,9.451249463978774,2.6161532563986145
1789998446979236400,1.586236328125,-2.212114177560061,-9.340447615745664,2.008226220435649,9.416774594056433,2.7376522047604266
1789998446989306400,1.596306396484375,-2.2400950942888853,-9.305938612422349,2.133508989009261,9.380558151604307,2.8592846763104243
1789998446999376600,1.606376708984375,-2.2849480892330405,-9.26505013719499,2.260144779627025,9.342130660872154,2.9824471420788567
1789998447009446400,1.6164462890625,-2.3328645634010434,-9.221723621165753,2.3849415182493625,9.302222759530958,3.1046805622918057
1789998447019516400,1.626516357421875,-2.3746372741170227,-9.17681480438113,2.513475689834356,9.259018373070232,3.231249131229403
1789998447029587500,1.63658740234375,-2.421913989076763,-9.129788264790175,2.6366043491140005,9.2155038368108,3.353337540105141
1789998447039657500,1.646657470703125,-2.467035425698757,-9.083141079905628,2.753301514041424,9.17232832227684,3.469694229280549
1789998447049727500,1.6567275390625,-2.506824999773502,-9.034934390619396,2.873355295920372,9.126103059952202,3.5895159308758027
1789998447059797500,1.666797607421875,-2.557867497007549,-8.979487813207507,2.999416501520574,9.075125063987333,3.716516102800131
1789998447069867300,1.6768671875,-2.620140997830033,-8.920948530477284,3.11800079536885,9.024431488090253,3.8379717050312507
1789998447079937500,1.6869375,-2.6749142060250044,-8.867607985433935,3.221915927873552,8.978081355144672,3.9451786803153763
1789998447090008600,1.697008544921875,-2.720396731044352,-8.816545322194695,3.3223993323639034,8.931959032762183,4.048515154144807
1789998447100078300,1.707078369140625,-2.767294091297686,-8.76291719238162,3.423996835575997,8.883610284333983,4.153535476480057
1789998447110148400,1.7171484375,-2.822903458055854,-8.706400939911603,3.5213878270089625,8.83488726331678,4.256188498256061
1789998447120218600,1.727218505859375,-2.881238742646574,-8.651569279527664,3.6082153388515112,8.789257648053585,4.34963856179445
1789998447130288400,1.737288330078125,-2.9269927780836817,-8.601486274975537,3.690195995184779,8.745561758181928,4.4368399653638795
1789998447140358400,1.7473583984375,-2.9646695977881548,-8.551906543770432,3.7743890668705102,8.700237939159416,4.525068395898085
1789998447150428400,1.757428466796875,-3.009754063400626,-8.503929571586847,3.846421160641313,8.659178239314354,4.603153880273816
1789998447160499500,1.76749951171875,-3.059282648940384,-8.459334058535099,3.905230492484569,8.623470766609342,4.669702364912022
1789998447170569500,1.777569580078125,-3.0999627421140667,-8.417129240012168,3.9639047997713086,8.587954994503692,4.734702094070153
1789998447180639500,1.787639404296875,-3.1466663333609697,-8.371421966326237,4.023452675022185,8.5504348728223,4.8021297010351836
1789998447190709200,1.797709228515625,-3.1954742034107446,-8.32833276618421,4.074090975369513,8.516635256836764,4.861823035297908
1789998447200779500,1.807779541015625,-3.230209124444425,-8.292791497203707,4.118950984576344,8.487189542397662,4.913045154331104
1789998447210849500,1.817849609375,-3.254405992589891,-8.26091576499343,4.163713670888543,8.458759073033772,4.961833745545588
1789998447220920300,1.82792041015625,-3.279937324209511,-8.228689319649337,4.207265227845311,8.430403263654936,5.009860105795986
1789998447230990300,1.837990234375,-3.302274535962939,-8.200911085885762,4.243869157621265,8.406112399133333,5.050510816701523
1789998447241060600,1.848060546875,-3.3142209943443537,-8.177040965476632,4.280459058871865,8.383100605975446,5.088616092338682
1789998447251130400,1.85813037109375,-3.327811712801456,-8.153094857221841,4.31544766240567,8.360533712685754,5.125607389639135
1789998447261200400,1.868200439453125,-3.3350697211056946,-8.13524881940782,4.343434862744808,8.34287798602007,5.154296917679565
1789998447271270400,1.8782705078125,-3.341458253099024,-8.124138227328658,4.359291480307281,8.332456074347046,5.171127843449924
1789998447281341400,1.888341552734375,-3.3462060321480034,-8.114120691183208,4.374280667385459,8.322762710766394,5.186713951820532
1789998447291411500,1.898411376953125,-3.351483972550928,-8.10249747340679,4.391749396319687,8.311454134265462,5.204815372220716
1789998447301481500,1.9084814453125,-3.3507071429595348,-8.094636238512397,4.406816032548249,8.30251021900528,5.2190732702037606
1789998447311551200,1.91855126953125,-3.3466146129488945,-8.092271847468615,4.414261672379077,8.298667978727295,5.225180275551968
1789998447321621500,1.92862158203125,-3.34482276109606,-8.093070304369926,4.414153828090429,8.29901707568869,5.224623991264207
1789998447331691500,1.93869140625,-3.338977834460139,-8.098091347402335,4.40936747059673,8.30283257893304,5.218558144435433
1789998447341761300,1.94876123046875,-3.333899216021597,-8.104003201794624,4.4023438555702565,8.30786546032769,5.210542658213085
1789998447351832300,1.958832275390625,-3.3321918275818225,-8.108089009803534,4.39610876057297,8.311883515634378,5.2041305156588695
1789998447361902600,1.968902587890625,-3.325136648373306,-8.11303932568729,4.392315505769848,8.315263175427058,5.19872817678677
1789998447371972400,1.978972412109375,-3.3141105197072025,-8.11997409338653,4.387833099658787,8.319658856135575,5.191691789974484
1789998447382042400,1.98904248046875,-3.299668445117772,-8.131103974688052,4.378095257237553,8.327691916817113,5.178796106714249
1789998447392112400,1.9991123046875,-3.2753950046047566,-8.150454571846128,4.360304164481163,8.341925419411318,5.1558369706274
1789998447402182400,2.009182373046875,-3.2489974115446207,-8.17337133705318,4.337093384763598,8.359511525568797,5.127273083777452
1789998447412253400,2.01925341796875,-3.227763777118921,-8.194144075968861,4.313691758649051,8.37628183619465,5.099832872544835
1789998447422323500,2.029323486328125,-3.203274940289557,-8.216086443185805,4.290144586583971,8.393410708373207,5.071591864429783
1789998447432393200,2.039393310546875,-3.1751161827757954,-8.242477021983266,4.2603494600400325,8.41443646158067,5.0366285139696405
1789998447442463500,2.04946337890625,-3.1534047017052766,-8.268029980912804,4.226830636797845,8.436489406656166,4.999602454351853
1789998447452533500,2.059533447265625,-3.1296783736810085,-8.291297459253668,4.198796966968477,8.455426730953944,4.967509944409382
1789998447462603300,2.069603271484375,-3.0985397235736247,-8.314553831678628,4.175839577490091,8.472179894452552,4.938882247170106
1789998447472674300,2.07967431640625,-3.064946958312392,-8.338526243418455,4.1527652836337685,8.489043558328163,4.909838972431546
1789998447482744600,2.08974462890625,-3.029019904884696,-8.368888063934445,4.117904105871916,8.512427093973548,4.8691855793134415
1789998447492814300,2.099814453125,-2.9909000175878404,-8.401453531974553,4.079273638704419,8.53770234673039,4.824729673587713
1789998447502884400,2.10988427734375,-2.9618177154883742,-8.428019467338919,4.045556078019738,8.558974851909387,4.786893542414505
1789998447512954400,2.119954345703125,-2.9347669192165133,-8.451085870149731,4.017049822242558,8.576952821645117,4.7546060640630206
1789998447523024400,2.1300244140625,-2.899752888980508,-8.476205113837123,3.9894571741789577,8.594928783989316,4.722032157000765
1789998447533094400,2.140094482421875,-2.8659008882611987,-8.501267658901215,3.960484177672863,8.613235259412834,4.688555534193947
1789998447543165400,2.15016552734375,-2.8464494610771536,-8.52109990209639,3.931789121325314,8.629929249564732,4.65775749884563
1789998447553235500,2.1602353515625,-2.830994994574785,-8.5393036673069,3.903349793304503,8.64599100630796,4.627874124208729
1789998447563305500,2.170305419921875,-2.819277376513183,-8.55731921646893,3.872254397816956,8.662973764435504,4.596006611873222
1789998447573375500,2.18037548828125,-2.810942678888142,-8.573593474921584,3.842196236422658,8.679007521323896,4.565654846919166
1789998447583445200,2.1904453125,-2.8065540885403752,-8.586444773188234,3.816623696009815,8.69233750264264,4.540227403116516
1789998447593515500,2.200515625,-2.7964117569714784,-8.599048234173654,3.795634099473059,8.703691526026212,4.518422433221081
1789998447603586600,2.210586669921875,-2.786906262001395,-8.611285784456133,3.774824243417382,8.714831210144627,4.496899423173659
1789998447613656600,2.220656494140625,-2.781028017617762,-8.621261819547414,3.756342830309272,8.724478800785633,4.478152890357685
1789998447623726300,2.230726318359375,-2.783150124338269,-8.630732827726005,3.73294880297929,8.735940336851439,4.455752119993654
1789998447633796400,2.24079638671875,-2.795252357803285,-8.637858149561286,3.707339145426452,8.747705876154633,4.432610359511446
1789998447643866600,2.25086669921875,-2.81148686876744,-8.640100960052013,3.689796766734123,8.75512676721132,4.417935998065716
1789998447653936400,2.260936279296875,-2.8258041479334235,-8.638682325425744,3.682170509639382,8.757785837181695,4.412660002109675
1789998447664007400,2.27100732421875,-2.8430475436791776,-8.638375451433658,3.669593644399941,8.762603618331624,4.403083592049306
1789998447674077400,2.281077392578125,-2.8570693470299244,-8.642006501412391,3.650107438163459,8.770983079409854,4.386372277296385
1789998447684147500,2.2911474609375,-2.860467757296562,-8.647817233517765,3.633641748791933,8.77868147803855,4.370940695155527
1789998447694217500,2.301217529296875,-2.874112251767516,-8.64853561092019,3.6211473011389375,8.78361791892491,4.361015189150553
1789998447704287500,2.31128759765625,-2.8968568752780555,-8.648193081092835,3.603801321801543,8.790090753507197,4.347954902690866
1789998447714357800,2.321357666015625,-2.911374060930312,-8.65291894057095,3.580680266194045,8.79992644206218,4.328010039008192
1789998447724428000,2.331427978515625,-2.913677953958511,-8.663122354677318,3.554035128113627,8.812388709465543,4.302578189486346
1789998447734499000,2.3414990234375,-2.9165593546137214,-8.673253872591257,3.5268598286792634,8.82496103412031,4.27673405822875
1789998447744569000,2.351569091796875,-2.92139218159765,-8.685234233242273,3.4932167945355177,8.840286283025918,4.244965014314272
1789998447754638800,2.361638916015625,-2.924241141287982,-8.70124019614756,3.4507433882042764,8.859702946086212,4.204290765611018
1789998447764709000,2.371709228515625,-2.9230802808150647,-8.719827407717704,3.4044960162922737,8.880939294797052,4.1592425651258065
1789998447774779000,2.38177880859375,-2.920880432683229,-8.740528834962845,3.352909621439874,8.904378696109958,4.108823406117123
1789998447784849000,2.391848876953125,-2.916927603404224,-8.765555724191666,3.2904365063920613,8.932412315752412,4.0475197864127885
1789998447794920000,2.401919921875,-2.90271407687366,-8.795235992184281,3.2231133209645746,8.962846768488193,3.9796686362905076
1789998447804990000,2.411989990234375,-2.884270657688379,-8.82573108369112,3.155607472446561,8.993064517209039,3.910907247418443
1789998447815060000,2.42206005859375,-2.867693032374978,-8.856346002185344,3.084130674470961,9.024150978452605,3.8386311327948555
1789998447825130000,2.4321298828125,-2.850898549440503,-8.889431110185384,3.0034584703877565,9.0582775055953,3.7573899740250445
1789998447835200000,2.442199951171875,-2.827394339734316,-8.92534121247828,2.9179642529755827,9.093889160136136,3.6703637198957155
1789998447845270000,2.45227001953125,-2.8049107052475213,-8.960658609575033,2.8300951231256124,9.129354604301756,3.5812357778589483
1789998447855340000,2.462340087890625,-2.7841175080657004,-8.99471753104329,2.7411919740527866,9.164088645298149,3.4913989319045804
1789998447865411000,2.4724111328125,-2.761810399189592,-9.030090457719565,2.645798293916881,9.20022503855846,3.3950314000970856
1789998447875480800,2.482480712890625,-2.732339974555373,-9.065600162518024,2.5533503118440506,9.234543068095943,3.3005454369960314
1789998447885550800,2.49255078125,-2.7078645817294715,-9.098141080638763,2.462054130154848,9.267104073242564,3.207989144572535
1789998447895621000,2.50262109375,-2.679756969881057,-9.132459529826043,2.3637867942787705,9.301042293977325,3.1082172922735527
1789998447905691000,2.51269091796875,-2.648920225329697,-9.168224086168408,2.2577175524801016,9.33631807813429,3.0005940320274713
1789998447915761000,2.522760986328125,-2.6224507360771296,-9.20240458818972,2.146837403268367,9.371480787927235,2.8889023426674525
1789998447925832000,2.53283203125,-2.601896023826301,-9.234194395682216,2.032286018197984,9.40603574007907,2.774326435762411
1789998447935902000,2.54290185546875,-2.5824422585546967,-9.263974032396078,1.9183789223805068,9.438861798708304,2.6605053141079695
1789998447945972000,2.552971923828125,-2.5588977168381213,-9.29317616148293,1.8053560620516536,9.470076050008004,2.547165250125212
1789998447956042000,2.5630419921875,-2.532669342865049,-9.322117009285092,1.6894065006211398,9.500614467178787,2.43078148040193
1789998447966112000,2.573112060546875,-2.508375444085896,-9.349656173595786,1.5691880296997724,9.530588781651446,2.3104645594692816
1789998447976182000,2.58318212890625,-2.485191844636202,-9.37598362402916,1.4440053604997694,9.560037346559561,2.185425550378631
1789998447986252000,2.593251953125,-2.4583695964232084,-9.401513786605,1.318455611553043,9.58786595151627,2.0599015140857184
1789998447996322800,2.60332275390625,-2.4426575018979606,-9.422219890025255,1.193971299880743,9.613622282259616,1.936139821021781
1789998448006392800,2.613392822265625,-2.4321071740500626,-9.440949724936484,1.0600566043011843,9.639430280435288,1.8032694994908114
1789998448016463000,2.623463134765625,-2.417898908216506,-9.459266887393593,0.9200110047511756,9.664426019418771,1.6641079115670774
1789998448026532900,2.633532958984375,-2.400992489340156,-9.476103455904124,0.780442667324096,9.687302762466022,1.5253057353081816
1789998448036603000,2.643602783203125,-2.391685147290677,-9.488958261302113,0.6402474301703274,9.708205581441993,1.3860547928573006
1789998448046673200,2.653673095703125,-2.385748450718075,-9.499170443236828,0.4943217230731621,9.727801259150056,1.2410767132407574
1789998448056744000,2.663743896484375,-2.380900718425959,-9.506943999847769,0.3460167561566457,9.74548153741725,1.093613115614208
1789998448066814000,2.67381396484375,-2.3830185873627663,-9.510626487752797,0.1989190461380407,9.76078943759186,0.9472867143442579
1789998448076884000,2.683884033203125,-2.3868635723531244,-9.511617836877702,0.0487120632587932,9.774147115331285,0.7977547372497471
1789998448086954000,2.6939541015625,-2.385786883032322,-9.511409162563083,-0.107340604308201,9.785604510555617,0.6421445921791019
1789998448097024000,2.70402392578125,-2.381869709588587,-9.509188563904166,-0.2691285823904909,9.794869030268888,0.4805635557137941
1789998448107094000,2.714093994140625,-2.394193038458377,-9.500370466676356,-0.4256877107754349,9.801263378927747,0.32503155768933345
1789998448117163800,2.724163818359375,-2.408728198158741,-9.488578322073815,-0.5790430564166977,9.805068387525214,0.1761104309014891
1789998448127234800,2.73423486328125,-2.4199098096475,-9.475155361399054,-0.7320236504614352,9.806458992154532,0.061263933140387423
1789998448137305000,2.74430517578125,-2.433879736680537,-9.45865781558454,-0.883395530667901,9.805423689150352,0.15502317502794447
1789998448147374800,2.754374755859375,-2.460369538068772,-9.436690313926338,-1.0323885529138148,9.801930485982671,0.30418286762881214
1789998448157444900,2.76444482421875,-2.486208620463312,-9.413140511512756,-1.1755601024646312,9.796304961421042,0.4503312683934606
1789998448167515100,2.77451513671875,-2.5152953064769505,-9.386751686280965,-1.316275637165457,9.788527378616582,0.5959286951913488
1789998448177585000,2.7845849609375,-2.5504826474532485,-9.357180139359832,-1.4520961663663383,9.778766246876112,0.738982990820841
1789998448187656000,2.794656005859375,-2.588464295323193,-9.325317266631126,-1.5838881707035004,9.767153668051463,0.8792613339928687
1789998448197726000,2.804725830078125,-2.6280294129922983,-9.292068492501974,-1.7091896439775824,9.754085932014268,1.0140080546337524
1789998448207796000,2.8147958984375,-2.663809166903793,-9.258310015285014,-1.832538814140111,9.739463994572548,1.1459595196002752
1789998448217866000,2.824865966796875,-2.700916077765822,-9.22210414491594,-1.956583273090422,9.722846942697974,1.2793036981950758
1789998448227936000,2.83493603515625,-2.728781405290961,-9.18679610016942,-2.0801247509546577,9.704833756674496,1.409464890940935
1789998448238005800,2.845005859375,-2.745338864599168,-9.15550021367371,-2.1932401118725537,9.687181989606046,1.5260658349615706
1789998448248076000,2.855075927734375,-2.7712355223998424,-9.123229344666004,-2.292888088452071,9.669808220158993,1.6325454871140883
1789998448258147000,2.86514697265625,-2.815769368392229,-9.08849120876193,-2.3751154130227863,9.653206659758442,1.7280057861281835
1789998448268216800,2.875216796875,-2.859504172961414,-9.05438084936738,-2.4519015694528816,9.636604424044457,1.8183105239058517
1789998448278286800,2.885286865234375,-2.8977172914996743,-9.021944560664892,-2.5254987205833195,9.620048116360731,1.9039609196985507
1789998448288357000,2.895357177734375,-2.93626563334167,-8.99121156874895,-2.5897593035697937,9.60450748107202,1.9808661337925397
1789998448298427000,2.905427001953125,-2.96990048417896,-8.963072100457548,-2.6482895262107253,9.589854801158074,2.0506322613452075
1789998448308497000,2.915496826171875,-2.994300765942037,-8.934488395529986,-2.716518720567226,9.573288366020693,2.1266273267749813
1789998448318568000,2.92556787109375,-3.019539544355869,-8.905711213856934,-2.7822765563741325,9.55654798536328,2.2006282566903757
1789998448328638000,2.935637939453125,-3.0415961856022475,-8.884505928742884,-2.82570857860446,9.544661929495152,2.251623986588859
1789998448338708000,2.9457080078125,-3.051826195454597,-8.870513059225678,-2.8584482341676947,9.536088350467288,2.2876604513464533
1789998448348778000,2.955778076171875,-3.0587787910714743,-8.8558894905895,-2.8961124866515395,9.526491102688295,2.327303411242707
1789998448358847700,2.96584765625,-3.0707831171199675,-8.84040725929737,-2.930509554032981,9.51703054909387,2.365697621531395
1789998448368918000,2.97591796875,-3.077993486890197,-8.828052804636954,-2.960039307639003,9.50906957392592,2.397496354074633
1789998448378988000,2.985988037109375,-3.066893123944104,-8.821777962151168,-2.990115296950936,9.502621314826484,2.4229274614104748
1789998448389059000,2.99605908203125,-3.0609754243329164,-8.817600968727469,-3.008444734367728,9.498554208470663,2.438824524348324
1789998448399128800,3.00612890625,-3.057674921482801,-8.817192972448467,-3.012989976581931,9.497711477145772,2.442100148383792
1789998448409199000,3.01619921875,-3.052274231483042,-8.81880917547345,-3.0137367032960056,9.498031160855087,2.440857685693569
1789998448419268900,3.026268798828125,-3.0469626810714603,-8.8223373495996,-3.008782003498077,9.499786770560249,2.4340169162199015
1789998448429339000,3.0363388671875,-3.042307548741996,-8.83048616926372,-2.9895272679299114,9.505078986132093,2.4132691436673612
1789998448439409000,3.046408935546875,-3.0267937532678246,-8.842089513295889,-2.9709207671374083,9.51114712233223,2.3892421409136975
1789998448449480000,3.05647998046875,-3.015262013167143,-8.851357107856868,-2.955003067037463,9.516120014059425,2.3693523720788225
1789998448459550000,3.066550048828125,-3.007207009266317,-8.860339455735684,-2.93623728403002,9.521436977425921,2.3479004536992876
1789998448469620000,3.076619873046875,-2.9822777351930734,-8.875299708980322,-2.916409717009961,9.528391497083696,2.3195099762294085
1789998448479690000,3.08668994140625,-2.9539868757322427,-8.891484535583853,-2.895831623883545,9.535663672453124,2.2894311145494095
1789998448489760000,3.096760009765625,-2.9374010671123862,-8.906744064036012,-2.86565655811131,9.544127483224035,2.253892842245991
1789998448499830000,3.106830078125,-2.9166756744697686,-8.92271144849658,-2.8370073867321013,9.55239544191301,2.2185871217663933
1789998448509899800,3.116899658203125,-2.895099217955768,-8.938036443400382,-2.810745110489428,9.560019135647778,2.1855015780250415
1789998448519970800,3.126970703125,-2.881176783326268,-8.951175326436758,-2.783105116152764,9.567266397193666,2.1535568611190863
1789998448530041000,3.137041015625,-2.8574069084212184,-8.966293400591612,-2.7588392744243144,9.574313948646658,2.122003331911172
1789998448540111000,3.147111083984375,-2.8263670425131915,-8.980850918254255,-2.743421925061941,9.579743533144194,2.097358236688628
1789998448550180900,3.157180908203125,-2.803031467372179,-8.995214374649525,-2.720204423342645,9.586245659279628,2.0674315750939503
1789998448560251000,3.1672509765625,-2.787115520837903,-9.01023366460502,-2.6866429300025105,9.594379765549524,2.029347374163286
1789998448570321000,3.17732080078125,-2.7755603998616336,-9.023807431927322,-2.6528371065124867,9.602147184125958,1.9922726394392678
1789998448580392000,3.187391845703125,-2.767525269705057,-9.035998804980515,-2.6195269575849176,9.609462946408131,1.9566844112397406
1789998448590462000,3.1974619140625,-2.759144102589786,-9.04809782357514,-2.586396841399372,9.616619738399727,1.9212037455883284
1789998448600532000,3.207531982421875,-2.7403192828714844,-9.062233900955318,-2.556746091762185,9.623497211193515,1.8864477335969236
1789998448610602000,3.21760205078125,-2.713701617319882,-9.076809538796544,-2.533325176425278,9.629398403477058,1.8560901670059293
1789998448620672000,3.227672119140625,-2.6994273005127907,-9.088527449119091,-2.5064216796696184,9.635242299264025,1.8255120966282612
1789998448630742000,3.237741943359375,-2.683701031331718,-9.105375708067417,-2.46176157694906,9.644344029184323,1.7767994594535912
1789998448640812000,3.24781201171875,-2.654710206907988,-9.125266403451562,-2.419176673067361,9.653352349404354,1.7271877171824623
1789998448650883000,3.257883056640625,-2.629970025666058,-9.142229813212156,-2.3818651795439423,9.660955199731575,1.684142112706179
1789998448660953000,3.267953125,-2.618006031627953,-9.15607596773505,-2.34152060193494,9.668388257114088,1.640935692694824
1789998448671022800,3.27802294921875,-2.5997172184824944,-9.171869164672492,-2.2997134044274685,9.676069723797932,1.595014116755349
1789998448681092900,3.2880927734375,-2.574193777908385,-9.189570825579764,-2.257366400954872,9.683813571791774,1.5473019548589755
1789998448691163100,3.2981630859375,-2.5519293391302225,-9.20785057863593,-2.207609998008609,9.692335974238407,1.4929905881120664
1789998448701233000,3.30823291015625,-2.5372429343909024,-9.223747235947847,-2.15761189526096,9.700359813480887,1.4399386654815405
1789998448711302400,3.318302490234375,-2.525354343676567,-9.23720702150166,-2.113521555252373,9.707151123493542,1.3934125553403545
1789998448721373400,3.32837353515625,-2.5175033379152416,-9.248736715775728,-2.0720603947035965,9.713248502557263,1.3502561612600261
1789998448731443500,3.338443359375,-2.504072778455913,-9.260784880965948,-2.034180892033875,9.718776898993937,1.3098796053183328
1789998448741513200,3.34851318359375,-2.4887951298251747,-9.272710881081222,-1.998277657873184,9.723893051725021,1.2713322928851445
1789998448751583200,3.358583251953125,-2.484678342156112,-9.280035524880883,-1.9691924331642685,9.72776672579088,1.2413537668441073
1789998448761653200,3.3686533203125,-2.48445914644748,-9.284542188650368,-1.948108144081384,9.730463950844362,1.2200235840137024
1789998448771723300,3.37872314453125,-2.483387717823684,-9.288303002488613,-1.931479519233108,9.732574531875633,1.2030766134287973
1789998448781794300,3.388794189453125,-2.4733272193193434,-9.29395649820566,-1.917139735974372,9.734525600952901,1.187186175799564
1789998448791864300,3.3988642578125,-2.4579952101528644,-9.29972046855986,-1.908889794023335,9.735778711739629,1.1768663340624335
1789998448801934300,3.408934326171875,-2.4571368397578595,-9.29951647042036,-1.9109829669103024,9.735534413322618,1.178878119123039
1789998448812004400,3.41900439453125,-2.483648999108374,-9.292029329535364,-1.9131245089836413,9.734840955568457,1.184583626587145
1789998448822074400,3.429074462890625,-2.49604992325902,-9.288731457033752,-1.913003220691532,9.734628395071297,1.1863341150525328
1789998448832144400,3.439144287109375,-2.4831369579330085,-9.291416166073084,-1.916762573225051,9.73440220153944,1.1881818311173848
1789998448842214400,3.44921435546875,-2.476241937722265,-9.291431948164105,-1.9255919224992395,9.73343073620685,1.1961237966687213
1789998448852285400,3.459285400390625,-2.483983345629275,-9.286437793138624,-1.939660195340216,9.73153817278141,1.2114233827537406
1789998448862355200,3.469355224609375,-2.4841876360297204,-9.283469006460903,-1.9535592490941285,9.729776530812865,1.2254906793148168
1789998448872425200,3.47942529296875,-2.4877660790383813,-9.281063698884845,-1.9604254816018043,9.728835807261433,1.2329417468126636
1789998448882495500,3.48949560546875,-2.4957898110181094,-9.278678265053031,-1.961517806883156,9.728544242896655,1.2352393079364814
1789998448892565200,3.499565185546875,-2.49685130276978,-9.27704335732758,-1.9678924564816056,9.72770500383352,1.2418357220455536
1789998448902635300,3.50963525390625,-2.499441903784871,-9.272916632786393,-1.9839822982780635,9.725565225620736,1.2584750736822952
1789998448912706300,3.519706298828125,-2.4996350882694123,-9.270140738332271,-1.9966709533289075,9.72389509312212,1.2713158525001327
1789998448922776300,3.5297763671875,-2.4988611812874675,-9.270617123672366,-1.99543045174852,9.724074826543351,1.2699450825228158
1789998448932846300,3.539846435546875,-2.5005840595573186,-9.273148687976596,-1.9814576021060344,9.725872079248736,1.256102605390119
1789998448942916400,3.549916259765625,-2.500196229283512,-9.276180603018403,-1.967709501130133,9.727662112683854,1.2421667629715702
1789998448952986400,3.559986328125,-2.491385146318376,-9.279850231441856,-1.961566614460945,9.728620760127164,1.2346262405594095
1789998448963056400,3.570056396484375,-2.494071608923376,-9.281343100348115,-1.9510643635384737,9.729910244685156,1.224427097812619
1789998448973126400,3.58012646484375,-2.488208269847929,-9.286637115103003,-1.933280869566649,9.732261627099655,1.2055985418306494
1789998448983197200,3.590197265625,-2.4735174811944365,-9.294359233787656,-1.914930097100884,9.734792335433923,1.184980067017198
1789998448993267200,3.60026708984375,-2.4673256408169864,-9.301285233658552,-1.8891154184952377,9.738030195027235,1.1580707235924048
1789998449003337500,3.61033740234375,-2.46127583925873,-9.310233094745874,-1.8525842616945505,9.74244001772873,1.1203793924632335
1789998449013407200,3.6204072265625,-2.451053574321419,-9.32073695310354,-1.812887480469793,9.747108356214756,1.0789998527322606
1789998449023477200,3.630477294921875,-2.4403305202551184,-9.331116892820596,-1.7735390742912889,9.751562760711073,1.037988481401185
1789998449033547500,3.640547607421875,-2.426337942998856,-9.342752970078587,-1.7309624998465178,9.756198306787562,0.9934659773029877
1789998449043617300,3.6506171875,-2.4088556239306924,-9.355706559675932,-1.6848017833046611,9.76099413592265,0.9451884337083196
1789998449053688300,3.660688232421875,-2.3954186347305773,-9.368414650079607,-1.632529305884242,9.766060207568165,0.8913155715935971
1789998449063758300,3.67075830078125,-2.386069499365985,-9.380714159682393,-1.5745662156067788,9.771281144266547,0.8321354267796084
1789998449073828000,3.680828125,-2.377063770611584,-9.392315165627002,-1.5180144534319635,9.776016774572188,0.7745193633038828
1789998449083898400,3.6908984375,-2.368542172112316,-9.403371981692311,-1.4618395617455244,9.780371296945718,0.7174321189598264
1789998449093968400,3.700968505859375,-2.358062863674015,-9.414656761294603,-1.405046538160741,9.78442753841492,0.6598150664647513
1789998449104038100,3.7110380859375,-2.345521946530789,-9.42701004691124,-1.3417811036914586,9.788526598392952,0.5959154210122278
1789998449114109200,3.721109130859375,-2.329450371043384,-9.439882972487808,-1.2777560830265282,9.79221984115524,0.531808946536567
1789998449124179500,3.731179443359375,-2.313275189051032,-9.452150333386658,-1.214903540207073,9.795391766692777,0.4697645944892529
1789998449134249200,3.741249267578125,-2.2955165372595188,-9.464707032620906,-1.1490489660274237,9.798232879522367,0.40622820083185596
1789998449144319200,3.7513193359375,-2.2755448855936526,-9.47740167902112,-1.0821915714807808,9.80059773413455,0.3444847789446793
1789998449154389500,3.761389404296875,-2.2566952236950395,-9.488919098335504,-1.0188816402826455,9.802364818221884,0.2898667880168314
1789998449164459300,3.771459228515625,-2.244868007779121,-9.498084401565787,-0.9577786445442588,9.803716482871616,0.2398389606255484
1789998449174529300,3.781529296875,-2.239971175648272,-9.505165884259345,-0.897071589320898,9.804751818687313,0.19294705319694636
1789998449184600300,3.791600341796875,-2.2277152129262685,-9.513311196792126,-0.8393860008105635,9.805274322358539,0.16422338008522352
1789998449194670000,3.801670166015625,-2.2116389612637457,-9.521939324405787,-0.7821020519036799,9.8053742939978,0.15809480334338052
1789998449204740400,3.811740234375,-2.2024910475596786,-9.52813116478324,-0.7308421855919063,9.805246274316247,0.16590993985371189
1789998449214810400,3.821810302734375,-2.2002304091513154,-9.532406357884406,-0.6801332311611622,9.804965122973863,0.18172774852812773
1789998449224880000,3.831880126953125,-2.2003180874347685,-9.536023379337786,-0.6270763253647834,9.80443357389322,0.20844325395140392
1789998449234950400,3.841950439453125,-2.199208518757671,-9.539379119506478,-0.5780340985698625,9.803667420734415,0.2418690087476482
1789998449245020400,3.8520205078125,-2.2036400714643296,-9.540871988412738,-0.5348891496526077,9.80288419720015,0.27172722083325823
1789998449255091200,3.86209130859375,-2.208761067739874,-9.541807223436235,-0.4956465419361368,9.802025581797789,0.30111547934016947
1789998449265161200,3.8721611328125,-2.2140558131471275,-9.542343814530968,-0.4604393637482076,9.801131331591336,0.32893410743718654
1789998449275231500,3.8822314453125,-2.2193698477767407,-9.542514494922756,-0.4303411260718479,9.800277896618777,0.3534572687973263
1789998449285301200,3.89230126953125,-2.215887266357988,-9.544536940661072,-0.4025421417811885,9.799272520857727,0.3803156935017937
1789998449295371300,3.902371337890625,-2.214141299473494,-9.545887770748138,-0.3794268217947333,9.798393420871857,0.4023010174799027
1789998449305441300,3.912441162109375,-2.21313270695284,-9.546896655529736,-0.3594554623898118,9.797601240743147,0.42120100519759185
1789998449315511300,3.92251123046875,-2.206010892248899,-9.549192657512426,-0.3417830641096457,9.796757238182654,0.4403722811871769
1789998449325582300,3.932582275390625,-2.204923097012192,-9.54994844431579,-0.3274094881791621,9.796128631915435,0.4541607124617875
1789998449335652400,3.94265234375,-2.2151994302242994,-9.547864623779056,-0.3186854259103536,9.795921829316947,0.4585883821870924
1789998449345722000,3.95272216796875,-2.2242872843042014,-9.545891862401366,-0.3144537066247314,9.795879270286907,0.45949518751693763
1789998449355792400,3.96279248046875,-2.231571596093476,-9.544162846651671,-0.3153207717828452,9.796027476102005,0.45632127768674335
1789998449365862400,3.9728623046875,-2.2359552180051803,-9.543005493310094,-0.3192934748061001,9.796267175077611,0.4511622100995667
1789998449375932200,3.98293212890625,-2.2420449131824074,-9.541374677237869,-0.3252469398504123,9.796611075547634,0.4436137176673302
1789998449386003200,3.993003173828125,-2.249260251388699,-9.539349893411991,-0.3346986588066443,9.797112159885422,0.4324171437959713
1789998449396073200,4.0030732421875,-2.2518109587848185,-9.538299507576228,-0.3472422793636098,9.79766839737283,0.4196203832414411
1789998449406143200,4.013143310546875,-2.2490249813281,-9.538411151257156,-0.3619192221548408,9.798226210897008,0.4063856549150604
1789998449416213200,4.023213134765625,-2.2477377179965377,-9.538063945254684,-0.3786618653042242,9.79885889675661,0.3908168399150683
1789998449426283300,4.033283203125,-2.245833491810412,-9.537707386901976,-0.3984352544516324,9.7995653770962,0.3726920217944248
1789998449436353300,4.043353271484375,-2.241778225070238,-9.537714401164653,-0.4205046090491116,9.800280775088506,0.35339279031250465
1789998449446423300,4.05342333984375,-2.2339714968420563,-9.538465511792898,-0.4443397312100976,9.800947208414415,0.33440182859969697
1789998449456494300,4.063494384765625,-2.2366616127088665,-9.536624267840384,-0.4695977623136714,9.801742922186214,0.3101859788418177
1789998449466564000,4.073564208984375,-2.2566889400847256,-9.530707152751088,-0.4933170760752633,9.802654280611153,0.2799189099806754
1789998449476634400,4.08363427734375,-2.2739275135248898,-9.525411968952415,-0.5159185282554477,9.803410161733623,0.25207269515480274
1789998449486704400,4.093704345703125,-2.278933066727221,-9.523173834636808,-0.5347953704219311,9.803892313554801,0.23254547894916758
1789998449496774100,4.103774169921875,-2.2834522977173326,-9.520865557694435,-0.5561974202170967,9.804382304738061,0.2108993988566148
1789998449506844200,4.11384423828125,-2.280553799796849,-9.5196830699116,-0.5874572855513542,9.80492742787592,0.18383574669583538
1789998449516914400,4.12391455078125,-2.2700249531283974,-9.519784776720403,-0.6253637492932379,9.805384463725508,0.15757798184915295
1789998449526985500,4.1339853515625,-2.2650721530266105,-9.51859761276245,-0.6603999913610518,9.805718583288245,0.1351428357289096
1789998449537055200,4.14405517578125,-2.264886713457108,-9.516570490849018,-0.6896040932092815,9.805943085656244,0.11772738990708422
1789998449547125200,4.154125244140625,-2.257751454749703,-9.51635947844684,-0.7154490208227187,9.805993894240775,0.11353590603096424
1789998449557195300,4.1641953125,-2.258861023426801,-9.514304299482705,-0.7388835262935608,9.80606257318111,0.10735503060642779
1789998449567265300,4.174265380859375,-2.2652897413000463,-9.510929270091651,-0.7622823028638959,9.806132959749535,0.10071681934335523
1789998449577335300,4.184335205078125,-2.2594434994898736,-9.510046057516336,-0.7901506260637193,9.805998466668102,0.11310626437470517
1789998449587406300,4.19440625,-2.2456856077723204,-9.51100993411243,-0.8172991105563938,9.805690120191917,0.13723308139062113
1789998449597476400,4.204476318359375,-2.247570252475142,-9.508574815919994,-0.8401395225916057,9.805532543501863,0.14809802667641855
1789998449607546400,4.21454638671875,-2.26080704292804,-9.50382849817574,-0.8581318370085209,9.805503372250659,0.1499949151102149
1789998449617616100,4.2246162109375,-2.2659229246370494,-9.501097611907124,-0.8747184493459761,9.805360428828074,0.15906526264940818
1789998449627686100,4.23468603515625,-2.251722695979476,-9.503301843953132,-0.8873524516001343,9.805037050464323,0.17788718125476213
1789998449637756400,4.24475634765625,-2.23180116706565,-9.507051551875472,-0.8974577390942722,9.804637520953356,0.19869357188196365
1789998449647826200,4.254826171875,-2.225929936944693,-9.507415124490857,-0.9081205874059348,9.804389233532524,0.2105734841952622
1789998449657897200,4.264897216796875,-2.2315173816882075,-9.505034366834163,-0.9192622322104872,9.804282792374194,0.21547649105876707
1789998449667967200,4.27496728515625,-2.226741253327578,-9.505575634104012,-0.9252120074603706,9.80411028738745,0.22312211104044502
1789998449678037500,4.28503759765625,-2.210471378789097,-9.509883560431003,-0.9199597129553556,9.803957627485168,0.2298037452651154
1789998449688107300,4.295107177734375,-2.2019801754280923,-9.513313534879684,-0.9047365709908306,9.804067949473422,0.22505779457634242
1789998449698177300,4.30517724609375,-2.195906116211414,-9.515987722525,-0.8912698442395776,9.804163483877241,0.22083098315258573
1789998449708247300,4.315247314453125,-2.182566157644987,-9.519670210430023,-0.8846784100852906,9.80400925949762,0.22753961589572097
1789998449718317800,4.32531787109375,-2.171743880987912,-9.523144608542324,-0.8738613210599869,9.803937498820327,0.23064658568142987
1789998449728388900,4.335388916015625,-2.153193640427291,-9.528726792588827,-0.8587875244382769,9.803718238613282,0.23979543571304104
1789998449738458600,4.345458740234375,-2.1361247244656085,-9.53378173789084,-0.8452032357219607,9.803459485153885,0.25014735024641105
1789998449748528600,4.355528564453125,-2.128775092355162,-9.53655880138874,-0.8323071484655141,9.803390839529303,0.25278529030879343
1789998449758598700,4.3655986328125,-2.12285344722122,-9.539255785387754,-0.8163893022350966,9.803357941724611,0.25411071732934315
1789998449768668700,4.375668701171875,-2.114984905803204,-9.542810262998938,-0.7949937552459537,9.803267307511433,0.25759277111518497
1789998449778738700,4.38573876953125,-2.106880802063644,-9.546596211278436,-0.7706666848495602,9.803119982203043,0.2630811452167084
1789998449788808700,4.39580859375,-2.097551248182356,-9.550269346833227,-0.750343662462756,9.802874095294829,0.27210461115040974
1789998449798879700,4.405879638671875,-2.089843304153532,-9.553394785377384,-0.731843325458467,9.802628164015394,0.2808428248351722
1789998449808949800,4.41594970703125,-2.074948078969121,-9.558140518599748,-0.7119894549533724,9.802115056440591,0.2982098388406087
1789998449819019500,4.42601953125,-2.058234260055422,-9.563352115768192,-0.6901962869487702,9.801466454749908,0.3188388470120534
1789998449829089500,4.436089599609375,-2.0480892981380223,-9.567156768748164,-0.6672535105176269,9.800951288784248,0.3342745774476804
1789998449839159800,4.446159912109375,-2.052702052630484,-9.567986205309628,-0.6406564493626355,9.800833684933307,0.33770624550825734
1789998449849229600,4.4562294921875,-2.057831962864846,-9.568621580603718,-0.6141607296902686,9.800660648070899,0.3426887850974427
1789998449859300600,4.466300537109375,-2.063952491571754,-9.568965863996745,-0.5877008850488812,9.80044735970364,0.348757041169655
1789998449869370600,4.47637060546875,-2.067950329036265,-9.5694556933403,-0.5652337633054703,9.80016846127454,0.3564942748272247
1789998449879441000,4.48644091796875,-2.065235663250089,-9.571056114274263,-0.5477739483300597,9.799729424590474,0.3683381471305367
1789998449889510700,4.4965107421875,-2.0685130774855613,-9.571386953663826,-0.5293124089661986,9.799429070051344,0.3762394128917203
1789998449899580700,4.50658056640625,-2.0769318001322445,-9.5705610242337,-0.5109722674923017,9.799257367627643,0.3806989914924447
1789998449909650700,4.516650634765625,-2.0739859559386966,-9.571984335035085,-0.4960697357842698,9.798786591980495,0.39264279335336993
1789998449919720700,4.526720703125,-2.0720824604049324,-9.573007248342035,-0.4841549877153709,9.798407724975677,0.4020019984945002
1789998449929791700,4.536791748046875,-2.076104701658338,-9.572744213491678,-0.4719642722493037,9.79819115242644,0.40723816616117936
1789998449939861800,4.54686181640625,-2.0716947762615976,-9.574086860272288,-0.4640383746208623,9.797822465717722,0.41601081407330814
1789998449949931500,4.556931640625,-2.0674149069853125,-9.575189268556237,-0.4603615858042612,9.797577201235583,0.42174364466165715
1789998449960001800,4.567001708984375,-2.076472658187896,-9.573368482869864,-0.457455854425393,9.797775705938692,0.41710895923432884
1789998449970071600,4.577071533203125,-2.0892520602621136,-9.570766775938868,-0.4536803544746711,9.798048796994063,0.41062937849621095
1789998449980141600,4.5871416015625,-2.0935686082869767,-9.569916296589374,-0.4517361250717193,9.798117337455707,0.40901052489666556
1789998449990211800,4.5972119140625,-2.088921951524913,-9.570752162891626,-0.4555354808220639,9.798096818691977,0.4095157980876087
1789998450000283000,4.607282958984375,-2.0868374003358183,-9.57090881475806,-0.4617620637193322,9.798221755710227,0.40652245358779443
1789998450010352600,4.6173525390625,-2.085564603921026,-9.571018120351432,-0.4651960932886227,9.798283159917943,0.4049964203584512
1789998450020422700,4.627422607421875,-2.084604380586743,-9.571105798634886,-0.4676883484957739,9.798327012184808,0.4039328976847497
1789998450030492700,4.63749267578125,-2.0846419361181554,-9.570816460299492,-0.4734342717366293,9.798494964807507,0.39987017000381736
1789998450040562700,4.647562744140625,-2.086733355439454,-9.570010404613614,-0.4804369535729288,9.798753758496547,0.39344591473877377
1789998450050632700,4.6576328125,-2.0936673924863336,-9.568177343967555,-0.4867443466214463,9.799132422563739,0.38390709814038443
1789998450060702500,4.667702392578125,-2.09692025680244,-9.567133972394466,-0.4931911481406539,9.799398953109042,0.37702078927083194
1789998450070773500,4.6777734375,-2.0925125233627853,-9.567680500361323,-0.5012854611385613,9.799484079659921,0.37485691065400567
1789998450080843800,4.68784375,-2.085553644135594,-9.568676525661347,-0.5111806130133569,9.799527053725818,0.37373733788086916
1789998450090913800,4.697913818359375,-2.076825563278794,-9.570038461664318,-0.5211126262998208,9.799500655422618,0.3744140110672073
1789998450100983600,4.707983642578125,-2.061300808019191,-9.572957563981412,-0.529064060228318,9.799192211935095,0.38238503671736185
1789998450111053800,4.7180537109375,-2.054531313884258,-9.574204349172115,-0.5328131836287677,9.799054021318764,0.3858989704086036
1789998450121123600,4.72812353515625,-2.0621740837223825,-9.572451368024945,-0.5347639889029786,9.799348167929786,0.3783320661765906
1789998450131193600,4.738193603515625,-2.05901795777902,-9.57300198764503,-0.5371058027887716,9.799299426233079,0.379651688169054
1789998450141264600,4.7482646484375,-2.0525265499331056,-9.574224222916364,-0.5401615370975807,9.799151518375673,0.38345627512679376
1789998450151334700,4.758334716796875,-2.054585674419999,-9.573703998434542,-0.5415290991237387,9.799248696245636,0.38093214290660515
1789998450161404700,4.76840478515625,-2.0524170982092618,-9.574296119108796,-0.5392781418591738,9.799127242303612,0.3840420873208569
1789998450171474700,4.778474609375,-2.048226076260209,-9.575251812398433,-0.538239556059055,9.798962925313667,0.38820708178323365
1789998450181544700,4.788544677734375,-2.0437471772804856,-9.576249006742238,-0.5375522679146378,9.798796240142911,0.39243120247369867
1789998450191614700,4.79861474609375,-2.042304431126267,-9.576652911368011,-0.5358047301275656,9.79870598969508,0.3946340210273742
1789998450201684700,4.808684814453125,-2.0482218384765085,-9.575531213861703,-0.5332525248941034,9.798851346160975,0.3910003560063113
1789998450211755800,4.818755859375,-2.054275877818465,-9.574339373728632,-0.5313820913797244,9.799013824160683,0.38693517088021856
1789998450221825500,4.828825439453125,-2.0504430216573177,-9.575268763533234,-0.5294403096621856,9.798841361104616,0.3912844238646551
1789998450231895800,4.838895751953125,-2.0527548057310283,-9.574942600318789,-0.5263762459164485,9.798848699024914,0.3911064020623859
1789998450241965800,4.8489658203125,-2.063991654538363,-9.572782791936396,-0.5216891475461423,9.799108101272589,0.384541178339705
1789998450252035600,4.85903564453125,-2.0673643458418547,-9.572177811780572,-0.5194026440441608,9.799160644464326,0.38316206678632836
1789998450262105600,4.869105712890625,-2.061119313972444,-9.573294833111763,-0.5236449212564155,9.799060916271335,0.38574078197128353
1789998450272175900,4.87917578125,-2.062910289042443,-9.572519172564148,-0.5307058360859751,9.799281185697344,0.38007775236011315
1789998450282246700,4.88924658203125,-2.0718281933829186,-9.570308510777354,-0.5358240558825433,9.799681617508012,0.3696277434010077
1789998450292316700,4.899316650390625,-2.078456671611965,-9.568540916582942,-0.5416696401055902,9.80001473924055,0.360658450296508
1789998450302386700,4.90938671875,-2.075993057977408,-9.568588847377896,-0.550210820088163,9.800119943986413,0.35779985600457115
1789998450312456700,4.919456787109375,-2.0741892234258352,-9.568405892026425,-0.5601339559484273,9.800266254023441,0.3538130127590377
1789998450322526700,4.929526611328125,-2.085688376431167,-9.565288636788726,-0.5705624840475618,9.800816953957092,0.33818824918873575
1789998450332596700,4.9395966796875,-2.0993784636095163,-9.561507364684342,-0.5835969568613917,9.801452044382986,0.3192745653803966
1789998450342666800,4.949666748046875,-2.0955855010673403,-9.561097614839673,-0.6035854500642046,9.801668471545733,0.31253281781606296
1789998450352737800,4.95973779296875,-2.0893284864991903,-9.560776127800343,-0.6297955942608415,9.801851864177602,0.3067184599634614
1789998450362807800,4.969807861328125,-2.104185279369354,-9.555884848627448,-0.6541026447825133,9.802555008002319,0.2833663973417434
1789998450372877600,4.979877685546875,-2.118373233067244,-9.551186461678146,-0.6765420748014003,9.803141010188808,0.2623042005965956
1789998450382947600,4.989947509765625,-2.124748467187583,-9.547719662350415,-0.7048919709730893,9.803487867899843,0.24900826157305075
1789998450393017900,5.000017822265625,-2.1264294060118494,-9.544826863518356,-0.7382283503204584,9.803640033308673,0.24299190895568323
1789998450403087600,5.010087646484375,-2.1239510331995786,-9.542610356512665,-0.7731727493863553,9.803567326916678,0.2458539701891451
1789998450413158700,5.02015869140625,-2.133716202019155,-9.53760626461506,-0.8072768251705914,9.803682950180153,0.24119405960346474
1789998450423228700,5.030228759765625,-2.154289034448564,-9.530357608661054,-0.8376895721562206,9.80394862892278,0.23020098533968716
1789998450433298700,5.040298583984375,-2.169877064202726,-9.524297285708784,-0.8659035669885575,9.803995238966873,0.2281920286756914
1789998450443368700,5.05036865234375,-2.174469944950938,-9.520509583863616,-0.8955367809690534,9.803700237807035,0.24056194882934537
1789998450453438700,5.060438720703125,-2.1777549579709765,-9.51696036694944,-0.9247922476783396,9.80329204929009,0.2566261497691057
1789998450463508500,5.070508544921875,-2.1800816473528744,-9.513480123618244,-0.954646483998373,9.802765456306577,0.2760423330888861
1789998450473578800,5.080578857421875,-2.18471456785053,-9.509787698841096,-0.9804828629791736,9.802282298141371,0.2926571580329201
1789998450483649800,5.09064990234375,-2.1836492767065763,-9.50826735740602,-0.9974605204608292,9.801851356569959,0.3067731689043656
1789998450493719600,5.100719482421875,-2.1797071149520573,-9.507790387544036,-1.010540147590637,9.801439130439572,0.3196615751507258
1789998450503789600,5.11078955078125,-2.180122856146097,-9.506303948378562,-1.023540718134865,9.801094033371939,0.33006329321734185
1789998450513859800,5.12085986328125,-2.185484237048775,-9.504140632864832,-1.032153648179397,9.800950381204325,0.33428026905849934
1789998450523929600,5.1309296875,-2.195001568587124,-9.502087207466364,-1.0308690151963382,9.801158329247874,0.32814557120691284
1789998450533999600,5.14099951171875,-2.1988933153286574,-9.502070840853452,-1.0226952802866696,9.801455780879541,0.3191430534699959
1789998450544070000,5.15106982421875,-2.198735786679387,-9.502759407639504,-1.0166130377635358,9.801619507154378,0.31405815484919614
1789998450554140700,5.161140625,-2.198593017207831,-9.502772851642966,-1.0168052724000065,9.80161280212252,0.31429693680661325
1789998450564210700,5.171210693359375,-2.1946442795820533,-9.504061137887836,-1.013291492125392,9.801639604694317,0.3134682349355067
1789998450574280700,5.18128076171875,-2.1906977339133618,-9.506333758994936,-1.00043580994457,9.801905818846386,0.30504463126686115
1789998450584350500,5.1913505859375,-2.186744466242939,-9.50884194242358,-0.9851211172390728,9.802210519515741,0.2950576102445686
1789998450594420700,5.201420654296875,-2.1857054785840213,-9.51024187234938,-0.9738456169217824,9.802453522777672,0.28686081830918725
1789998450604490800,5.21149072265625,-2.191430432102084,-9.510380988559126,-0.9595203736450524,9.802873221659176,0.27215773699709334
1789998450614560500,5.221560546875,-2.198944022602588,-9.510873155990245,-0.9371906145457176,9.803454059922295,0.25035524132945963
1789998450624631600,5.231631591796875,-2.2075031766332684,-9.511132683709263,-0.9141428433701396,9.804006859327476,0.22764411328472847
1789998450634701800,5.241701904296875,-2.212047688195109,-9.511768059003352,-0.8963709667708725,9.804359085945306,0.2119207565038869
1789998450644771600,5.251771484375,-2.2080136103734374,-9.514190902236104,-0.8804729942847043,9.804517200146968,0.20451844286884593
1789998450654841600,5.261841552734375,-2.2017015046171844,-9.517916060239076,-0.855659747806564,9.804705637658047,0.1952347512186268
1789998450664912000,5.271911865234375,-2.195725206686556,-9.521799039152263,-0.8273605589088052,9.804861430167394,0.18730711394232166
1789998450674981600,5.281981689453125,-2.184850469189882,-9.525919918474557,-0.8084850319165736,9.804787054435828,0.191103976699408
1789998450685051600,5.2920517578125,-2.1804849674567577,-9.52818727888465,-0.7934220489498227,9.804778662727736,0.19157619236947906
1789998450695122700,5.302122802734375,-2.179400533220917,-9.530276360118387,-0.7709921904768794,9.80482557160183,0.18915245881076503
1789998450705192400,5.3121923828125,-2.17819627199769,-9.532233339405058,-0.7499027868274599,9.80481817787535,0.1894891150083592
1789998450715263000,5.322262939453125,-2.180291198450327,-9.532612109589577,-0.7389375945683568,9.804851865111031,0.18780844983385064
1789998450725332700,5.332332763671875,-2.1852124343700705,-9.531999530649184,-0.7322709032207727,9.804935576186207,0.18337791078447008
1789998450735402800,5.34240283203125,-2.189623382680118,-9.531996608039735,-0.718999406780675,9.804981769984789,0.18083841095699957
1789998450745473000,5.35247314453125,-2.188664766781032,-9.533330486992002,-0.7040912490494549,9.804902780978654,0.18512044215832282
1789998450755542800,5.362542724609375,-2.1845587927669285,-9.53499286724627,-0.6942639747790992,9.804771453992338,0.19195129368043165
1789998450765613800,5.37261376953125,-2.180420670048892,-9.536375846037268,-0.6882604965806007,9.804654096989946,0.19788664631837516
1789998450775683800,5.382683837890625,-2.178082144098729,-9.53756651712656,-0.6790886905442923,9.804542233332842,0.20329766224219664
1789998450785753600,5.392753662109375,-2.175112042246759,-9.538842528411744,-0.670639499694109,9.804415976448789,0.209317647294958
1789998450795823900,5.402823974609375,-2.1764823076866566,-9.538618656527996,-0.6693810240656137,9.804433366573035,0.2085148103743337
1789998450805894000,5.412893798828125,-2.178185604473203,-9.538173835369944,-0.6701867144253104,9.804474863679637,0.20658054346057542
1789998450815963600,5.422963623046875,-2.182550813945382,-9.53721054329574,-0.6696900900147855,9.804556538991863,0.20265461500055668
1789998450826034000,5.433033935546875,-2.180244728960097,-9.537579961130024,-0.671928078199923,9.804529332143435,0.20393751621445408
1789998450836105000,5.44310498046875,-2.169229121688008,-9.539639231747389,-0.6783222362164407,9.80435633377029,0.21210749839954307
1789998450846174700,5.4531748046875,-2.155089244915545,-9.542368364450336,-0.6849635008618236,9.804097654408059,0.2237137384170758
1789998450856244700,5.46324462890625,-2.1518761280879377,-9.542998479047418,-0.6863039556853473,9.804035617529292,0.2264720105055947
1789998450866315000,5.47331494140625,-2.153094125575572,-9.542682252705095,-0.6868889159664511,9.804067762545683,0.22510126603567646
1789998450876384800,5.483384765625,-2.154498439415544,-9.542253213638066,-0.6884149564899503,9.804107518637876,0.22327300315382798
1789998450886454800,5.493454833984375,-2.1444719893112776,-9.544454523074627,-0.6892122443474828,9.803882780230676,0.23295537176741046
1789998450896524800,5.50352490234375,-2.133709626147896,-9.546935818496346,-0.6882360927917063,9.80361620100251,0.2438823365210501
1789998450906595600,5.513595703125,-2.126856545382738,-9.548426933836936,-0.6887804288014769,9.803449503108359,0.2505433985648602
1789998450916665900,5.523665771484375,-2.118949571650475,-9.549847906550765,-0.6934392874579877,9.803275296139878,0.25728163349445865
1789998450926736000,5.53373583984375,-2.10089748987034,-9.553252746558188,-0.7013924384195357,9.802828092624312,0.2737170833045533
1789998450936805600,5.5438056640625,-2.085775177931785,-9.556031563621758,-0.7086531501375138,9.80242811628324,0.28773190666186754
1789998450946876000,5.5538759765625,-2.083153597256541,-9.556005844658612,-0.7166657031361013,9.802383631723256,0.28924294198469275
1789998450956946000,5.56394580078125,-2.084493029166758,-9.554895837590095,-0.7274949209906161,9.802459434693018,0.28667672927243104
1789998450967015700,5.574015625,-2.0761996864654124,-9.555940962728858,-0.7374177645899355,9.802230542852028,0.29440476482223843
1789998450977086700,5.584086669921875,-2.0736719215534625,-9.55582230478525,-0.746005998584628,9.80216270581684,0.2966250115688945
1789998450987157000,5.594156982421875,-2.077041397986561,-9.554442833125592,-0.754254406165704,9.802269739588697,0.2930639554415639
1789998450997226800,5.604226806640625,-2.07097742177248,-9.554838554444908,-0.7658366343446076,9.802076341178193,0.2994869533339667
1789998451007296800,5.614296875,-2.057346371304989,-9.5564600181669,-0.7821778205536305,9.801609373857675,0.3144169136922016
1789998451017366800,5.62436669921875,-2.053327637182921,-9.55590004619658,-0.7993776694186031,9.801413079100472,0.3204471714999308
1789998451027436800,5.634436767578125,-2.0533790751092136,-9.55414706504941,-0.8199291667990386,9.801299037798577,0.3239024188008703
1789998451037506800,5.6445068359375,-2.050563725427538,-9.55265536518693,-0.8440108110669999,9.801016774046458,0.33235607732039024
1789998451047577900,5.654577880859375,-2.0437024613559247,-9.55185340115428,-0.8693400442432612,9.800522436433853,0.34660529882902885
1789998451057647600,5.664647705078125,-2.040615747386962,-9.550179330462218,-0.894611994274333,9.800089258279218,0.3586349432657394
1789998451067718000,5.6747177734375,-2.043791016422212,-9.546661677730082,-0.9244185189951212,9.799727258382575,0.36841032480504754
1789998451077788000,5.684787841796875,-2.0428597269214688,-9.543696398183704,-0.9565344897020608,9.799086771709426,0.38506294950456266
1789998451087857700,5.694857666015625,-2.047198194517195,-9.539367429068683,-0.9898680195052176,9.798489398707751,0.3999944922894355
1789998451097928000,5.704927978515625,-2.0565525905787942,-9.53404301917553,-1.021272700137645,9.797989973628338,0.4120379279034519
1789998451107998700,5.714998779296875,-2.064490105579793,-9.528726792588827,-1.0543312123917044,9.797283437163193,0.4284918215650795
1789998451118068700,5.72506884765625,-2.072731571963429,-9.523368480426072,-1.0861142248172313,9.796511988935423,0.4458254629130497
1789998451128138800,5.735138671875,-2.087263809054345,-9.517291790860892,-1.1112577992282806,9.796053905197912,0.45577957806221603
1789998451138208800,5.745208740234375,-2.103681713761389,-9.511205748945477,-1.132201072405279,9.795720248338425,0.46287756073912784
1789998451148278800,5.75527880859375,-2.113023834863305,-9.506724804139136,-1.1522594525065273,9.795167364834658,0.47443057353361995
1789998451158348800,5.765348876953125,-2.11686136719957,-9.50360754890144,-1.1707738180361686,9.79448986077643,0.48819892628434625
1789998451168418800,5.775418701171875,-2.127709801211208,-9.499213113334774,-1.1866751515232026,9.794066066749725,0.49665537962026196
1789998451178488800,5.78548876953125,-2.1360297396585346,-9.49592167057395,-1.198011661312729,9.793751674267483,0.5028036453784192
1789998451188560000,5.795559814453125,-2.138389746788144,-9.49467079373002,-1.203708630845323,9.793545067473618,0.5068270610506004
1789998451198630000,5.8056298828125,-2.1462823997341096,-9.492903784057498,-1.2036017364047469,9.79372868161627,0.5032753158509592
1789998451208699600,5.81569970703125,-2.16371503444165,-9.490107431337236,-1.1944004850782453,9.794520062842034,0.48761774570979793
1789998451218769700,5.825769775390625,-2.185831443051249,-9.486829432579874,-1.1800776529543102,9.79558263982598,0.46576366715034845
1789998451228840000,5.83583984375,-2.2042295617900787,-9.48444809040129,-1.1649066795684395,9.796552211308871,0.4449223345578179
1789998451238909700,5.84590966796875,-2.2057801522329448,-9.486320314013955,-1.146582648979127,9.797337695330352,0.4272762977951617
1789998451248980700,5.855980712890625,-2.20212908237949,-9.48982393822074,-1.124393613524735,9.798153290003594,0.40814700490860345
1789998451259050800,5.86605078125,-2.2026151123307645,-9.492911382842063,-1.0970488758075982,9.799169115855248,0.38298920394659947
1789998451269120800,5.876120849609375,-2.2015167957000434,-9.496972640931606,-1.063584924557805,9.800278095099596,0.3534511208222343
1789998451279190800,5.886190673828125,-2.1994065255478024,-9.50181657383144,-1.023952367675677,9.801429417301202,0.3199485838245883
1789998451289260800,5.8962607421875,-2.197089626907557,-9.506696747088432,-0.9828028303593396,9.80245016341733,0.28698095206549074
1789998451299330800,5.906330810546875,-2.195757063129544,-9.511049097079038,-0.9428610613975672,9.803289602334837,0.2567176682362971
1789998451309400800,5.91640087890625,-2.1946827118963004,-9.515479773002864,-0.8996808950364589,9.804019694839752,0.22718066029257838
1789998451319470800,5.926470947265625,-2.18405800363794,-9.522112927407026,-0.854179226925224,9.804402675314904,0.20989115640129458
1789998451329541600,5.936541748046875,-2.174301748777181,-9.528400629374383,-0.8077017725843936,9.804586110872464,0.2011964127921052
1789998451339611600,5.946611572265625,-2.1750487677522004,-9.532331539082527,-0.7577711821150034,9.804755878312964,0.19277200061009872
1789998451349682000,5.956681884765625,-2.169803560575098,-9.537334461936354,-0.708220677004382,9.804548295273102,0.20299109171846577
1789998451359751700,5.966751708984375,-2.1550446751214563,-9.543924946242573,-0.6630768824201076,9.803921355362744,0.23133945003596607
1789998451369821700,5.97682177734375,-2.141287660186737,-9.550130230623482,-0.6166754889901727,9.803067031268121,0.26507679023605074
1789998451379892000,5.98689208984375,-2.13188328750357,-9.55543476677239,-0.564929702324979,9.80198161512373,0.30259200076160825
1789998451389961700,5.996961669921875,-2.128735637127608,-9.559249356624484,-0.5095613047158345,9.800685252315622,0.34203067583106117
1789998451400032800,6.00703271484375,-2.131418592601269,-9.561429038751124,-0.4544539326630532,9.799231647830528,0.38138952401594933
1789998451410102800,6.017102783203125,-2.1236101108074186,-9.565518353891372,-0.40189113052655,9.797292527053145,0.4282953437766078
1789998451420172800,6.0271728515625,-2.104713102635741,-9.571590367281436,-0.3538574597196653,9.794946310948628,0.4789585273011204
1789998451430242800,6.037242919921875,-2.089339592415094,-9.576668108937143,-0.3040923437439836,9.792354707985856,0.5293141105978207
1789998451440312800,6.047312744140625,-2.091289557439089,-9.577707973378896,-0.2537878601945936,9.789988527359487,0.5714148655147346
1789998451450382600,6.057382568359375,-2.097846285606176,-9.577499883586167,-0.2022763572093099,9.787432536529193,0.6136310990328258
1789998451460452900,6.067452880859375,-2.095170198264718,-9.579037176156044,-0.150609882858023,9.784329146263003,0.661269896698005
1789998451470524000,6.07752392578125,-2.087435366228968,-9.581350713795423,-0.1035289735981728,9.781108322518207,0.707323222063911
1789998451480593700,6.08759375,-2.083167479651421,-9.58266004282832,-0.0585780210051452,9.7779137920101,0.750195644654949
1789998451490663700,6.09766357421875,-2.0752130135156213,-9.584557985404134,-0.0113322720058262,9.774225362439363,0.7968110263259519
1789998451500734000,6.10773388671875,-2.056596429720521,-9.588502339115738,0.037812467598787,9.76980325428919,0.8493174536964458
1789998451510803700,6.1178037109375,-2.039371154153347,-9.591887305378911,0.0839624595339409,9.765403826108585,0.8984846081690329
1789998451520873700,6.127873779296875,-2.0344170388773084,-9.592456045177578,0.1277748502508271,9.761414386651989,0.9408407150832404
1789998451530943700,6.13794384765625,-2.0356834055513144,-9.591588030171394,0.1667817586484365,9.757900438810871,0.9766079302548231
1789998451541014800,6.148014892578125,-2.03556547826007,-9.5909245978266,0.2025323777969926,9.754499643229238,1.0100086790598701
1789998451551084800,6.158084716796875,-2.0292574641570447,-9.591386370119451,0.2404227306542918,9.750532841380947,1.0476119297321698
1789998451561154800,6.16815478515625,-2.0181503792092204,-9.592572949555516,0.2828135367359966,9.745767442286185,1.091048671271005
1789998451571224600,6.178224609375,-2.009261262571812,-9.593086744296553,0.3255090248527005,9.740862161214105,1.1340214223539788
1789998451581294800,6.188294921875,-2.001465347998589,-9.593333412533998,0.3639491205472498,9.736286799507182,1.1726413873685444
1789998451591364900,6.19836474609375,-1.9963561882913112,-9.593176760667562,0.3948473129622638,9.73254449965034,1.2033122432771295
1789998451601434600,6.2084345703125,-2.000221193156391,-9.591216274249554,0.4219754853192716,9.729506835746301,1.2276296201859558
1789998451611505700,6.218505615234375,-2.006175571516156,-9.588728549087048,0.4493881371734664,9.726440674110702,1.2517016907643634
1789998451621576000,6.228575927734375,-2.0095701823905108,-9.586619594109058,0.4782738572549074,9.723011803772879,1.278059038673677
1789998451631645700,6.238645751953125,-2.0053931889668104,-9.5859596688956,0.5080983925564214,9.719089138819708,1.307553021579896
1789998451641715700,6.2487158203125,-1.9932748811498284,-9.58674877344668,0.5398919263759627,9.714504930752524,1.34118382019584
1789998451651785700,6.25878564453125,-1.989338272353261,-9.585963760548829,0.5676393996750936,9.710677787795737,1.3686195125303822
1789998451661855700,6.268855712890625,-2.0023938610203564,-9.581795534953477,0.5916108980994671,9.707959259829932,1.3877742296709195
1789998451671925800,6.27892578125,-2.014575735592842,-9.577854103851315,0.6136677585415542,9.70539590918349,1.4055899092476072
1789998451681996800,6.288996826171875,-2.016994487172365,-9.576241407957673,0.6306431510008871,9.703121756333484,1.421198519010969
1789998451692066800,6.29906689453125,-2.016402951020002,-9.57546282480061,0.6442162607360631,9.701189280388032,1.4343327043269105
1789998451702136800,6.30913671875,-2.019252787493169,-9.57370750556588,0.6611699528202414,9.698882644566433,1.4498546049061944
1789998451712206600,6.31920654296875,-2.024672036062926,-9.57118938526511,0.680742449100688,9.696256955766458,1.4673017521917242
1789998451722276600,6.329276611328125,-2.028924432810396,-9.569099134987592,0.697264544834569,9.693997117327696,1.4821573276818278
1789998451732346600,6.3393466796875,-2.0315642797946927,-9.567886252066492,0.7061762386299669,9.692778935990836,1.4901080945483898
1789998451742416600,6.349416748046875,-2.0301777938723564,-9.567898527026175,0.709988198133558,9.692165650581616,1.4940924808648355
1789998451752487700,6.35948779296875,-2.031000070040673,-9.5674607201308,0.7135287202846259,9.691669740350221,1.4973065131768715
1789998451762557400,6.369557373046875,-2.034917681875825,-9.56645884961188,0.7157976150646805,9.691470899459258,1.4985936487236886
1789998451772627700,6.379627685546875,-2.039975695917755,-9.56539151264131,0.7156575490068644,9.69166743951139,1.4973188035320972
1789998451782697700,6.38969775390625,-2.0473311732470987,-9.56380745832026,0.715820995940268,9.691894339074816,1.495848204601682
1789998451792767500,6.399767578125,-2.0523063313111662,-9.562820785370468,0.7147578236881643,9.692219466851737,1.4937413442617886
1789998451802837500,6.40983740234375,-2.049500918501616,-9.56372796334326,0.7106645630251616,9.692733967855952,1.4904022682765585
1789998451812907800,6.41990771484375,-2.051417273516953,-9.56380979640782,0.7040022555917501,9.693783655778937,1.4835593222993722
1789998451822978600,6.429978515625,-2.051982652314752,-9.56425227947831,0.6963117010891438,9.694935354570521,1.476019283979365
1789998451833048600,6.440048583984375,-2.048561299563944,-9.565700140199064,0.6864101925387979,9.696268210557658,1.467230149508132
1789998451843118600,6.45011865234375,-2.047372528170794,-9.56682826744616,0.6741258805051445,9.698011554720598,1.4556630637575338
1789998451853188600,6.460188720703125,-2.053038737238944,-9.566409749773143,0.6627313569180667,9.699841943207693,1.443413553140477
1789998451863258600,6.470258544921875,-2.059549726568162,-9.56591524425447,0.6495472465004771,9.701939008919641,1.4292552707990063
1789998451873328600,6.48032861328125,-2.0525597215503453,-9.568507598835229,0.6332768605053425,9.704005907742918,1.4151494634986084
1789998451883398700,6.490398681640625,-2.040165957792848,-9.57253670822084,0.6120906819505617,9.706536544773012,1.3976907646146102
1789998451893469700,6.5004697265625,-2.0379120413862166,-9.574554477784035,0.587548324835673,9.709820266786663,1.3746935502858209
1789998451903539700,6.510539794921875,-2.04090406280905,-9.575327800244091,0.5640966125017032,9.71308044427087,1.3514677750788282
1789998451913609500,6.520609375,-2.040296452304721,-9.576548281949758,0.5452475351249799,9.715554543479081,1.3335596713476783
1789998451923679500,6.530679443359375,-2.037285726181417,-9.578404723471404,0.5234624773615971,9.718289259303743,1.3134827804082063
1789998451933749800,6.540749755859375,-2.025487590229511,-9.58228887142837,0.4975163543960079,9.721186679579851,1.2918637920943732
1789998451943819500,6.550819580078125,-2.00778212992996,-9.587336802467703,0.4713315638363361,9.723805193067822,1.2719992356732661
1789998451953889500,6.5608896484375,-1.9868745125882328,-9.59286404145658,0.4468718800362199,9.725984263543904,1.2552431752878896
1789998451963959800,6.570959716796875,-1.9744535685628648,-9.596450083249806,0.424340607015416,9.728182401043167,1.2380844953039658
1789998451974030600,6.581030517578125,-1.9746489450044928,-9.597384149229526,0.4017255647012964,9.730860460058366,1.216864454282711
1789998451984100600,6.5911005859375,-1.980109986889362,-9.597031682530044,0.382827606681548,9.733278410776032,1.197372552893686
1789998451994170600,6.601170654296875,-1.981050336479396,-9.597551907011866,0.3644763227591291,9.735409885931327,1.1799154148560038
1789998452004240600,6.61124072265625,-1.9731734656244515,-9.600012159645557,0.3417071127966046,9.737631669824589,1.1614388509740543
1789998452014310700,6.621310546875,-1.965172968389839,-9.602453707578778,0.3183968912925571,9.739846893584055,1.14270778058494
1789998452024380700,6.631380615234375,-1.9607004991509016,-9.604027825027703,0.2978090987560339,9.741864858078271,1.1253693871429298
1789998452034450400,6.641450439453125,-1.9642498621955515,-9.603782910355925,0.281865113437362,9.743700712422886,1.1093548031547666
1789998452044521500,6.651521484375,-1.971772074393928,-9.602732524520158,0.2646001999795436,9.745815233258892,1.0906217290358697
1789998452054591700,6.661591796875,-1.973823600096256,-9.60295581188202,0.2401436397182755,9.74839340180816,1.067349511891904
1789998452064661500,6.67166162109375,-1.9769329642884432,-9.602993221282958,0.2113464199041947,9.751378093619737,1.0397284923364163
1789998452074731500,6.6817314453125,-1.9855415104188023,-9.601775077664852,0.1841829022391699,9.754348028223271,1.0114729939232459
1789998452084801800,6.6918017578125,-1.9946186969742177,-9.600337153816223,0.1594285828740335,9.75703421285052,0.9852299506028793
1789998452094871600,6.70187158203125,-1.991696818178147,-9.601380525389311,0.1304139757159166,9.759555821585472,0.9599177981917258
1789998452104941600,6.711941650390625,-1.982570970175415,-9.603673020240665,0.0961202773774042,9.762194595870751,0.9326944363272228
1789998452115012600,6.7220126953125,-1.9792332040548324,-9.60463280518353,0.0636413688093191,9.764799729170358,0.9050258954633277
1789998452125082400,6.732082275390625,-1.9869611679583787,-9.60319371229112,0.0323665981668746,9.767657746352215,0.8736440382470755
1789998452135152600,6.742152587890625,-1.9961453220196068,-9.601343115988373,-0.0021364868723088,9.770714996504617,0.8387602751764015
1789998452145222700,6.75222265625,-2.0013979818508028,-9.60015595203042,-0.0424961296197026,9.773914302949409,0.8006205747388827
1789998452155292400,6.76229248046875,-2.012996065185964,-9.59743500263393,-0.0865218160273972,9.77743829423683,0.7563717441027115
1789998452165362700,6.77236279296875,-2.025424461865425,-9.594312486699224,-0.1312648295247461,9.780828573015798,0.7111956298399205
1789998452175432700,6.7824326171875,-2.0323148059010503,-9.592143325966596,-0.1756658155182376,9.783780958566055,0.6693322715304477
1789998452185503500,6.79250341796875,-2.0407108783245085,-9.589441081270577,-0.2202213618857786,9.786592116556012,0.6268918028386787
1789998452195573500,6.802573486328125,-2.0420351126655936,-9.588006664553284,-0.2656937856362201,9.788996289977934,0.58815306120204
1789998452205643800,6.812643798828125,-2.034363262863457,-9.588286066016554,-0.3107014414191246,9.79085589457637,0.5563630167388016
1789998452215713500,6.822713623046875,-2.0466968208663165,-9.584205518704652,-0.3527080704888328,9.793087400337143,0.5155632392430749
1789998452225783600,6.832783447265625,-2.0706799001306293,-9.577460136097669,-0.3935962899878621,9.795461655462994,0.4683021494627183
1789998452235853600,6.842853515625,-2.078401434293389,-9.573836100381612,-0.4385255650386214,9.79724698643752,0.42935574641129687
1789998452245923600,6.852923583984375,-2.0879211039192973,-9.569578442937136,-0.4838752574585377,9.798884564959547,0.3901828534121511
1789998452255994600,6.86299462890625,-2.103183554980904,-9.564323591148852,-0.5203125254306942,9.800260123895708,0.3539681486353498
1789998452266064600,6.873064697265625,-2.107456409994513,-9.56138052343428,-0.5558985468683764,9.80115989189914,0.3281127881893843
1789998452276134400,6.883134521484375,-2.107746625112742,-9.559261047062275,-0.5901807922311126,9.801797476671599,0.3084593901782732
1789998452286204700,6.89320458984375,-2.113170257596672,-9.55597369595468,-0.6231222539767622,9.802439391527521,0.28737629373274337
1789998452296274700,6.903274658203125,-2.1227096548363567,-9.551957446050643,-0.6516171115770936,9.803027988273186,0.26652289044364685
1789998452306344400,6.913344482421875,-2.125800898849964,-9.549602407357096,-0.6755976335581392,9.803325651501888,0.2552918589108642
1789998452316414700,6.923414794921875,-2.120557152977585,-9.54909153522551,-0.6989081473231316,9.803348452233388,0.2544474595035012
1789998452326484700,6.933484619140625,-2.1221146115526555,-9.547217558047176,-0.7194681933362036,9.80348081247357,0.24926284507435476
1789998452336555500,6.943555419921875,-2.1256914471261203,-9.54502443191707,-0.737780460422486,9.80361919772406,0.24377483068688816
1789998452346625500,6.95362548828125,-2.121191797619313,-9.544890576404333,-0.752335055475682,9.803517294854291,0.2478859475849323
1789998452356695600,6.963695556640625,-2.1272351694367826,-9.543089664462208,-0.7580820016298443,9.803669688313493,0.24174112950119453
1789998452366765600,6.973765625,-2.136064372580498,-9.540724688896535,-0.7630038220714778,9.803884446482938,0.23285872462337312
1789998452376835600,6.983835693359375,-2.1384582819797098,-9.539472643008828,-0.7719085016041993,9.803929868145183,0.23096321313374274
1789998452386905600,6.993905517578125,-2.137912630795688,-9.53913069770336,-0.7776165039874613,9.803903524446845,0.23205170845032763
1789998452396975600,7.0039755859375,-2.1379078084900973,-9.539348139846323,-0.7749545182365923,9.803909434231175,0.23179094356927893
1789998452407046700,7.014046630859375,-2.132824367745965,-9.540557515636086,-0.7740823385119437,9.80378828055162,0.2368888130030943
1789998452417116700,7.02411669921875,-2.1327381507672367,-9.540134906309843,-0.7795091128010302,9.803773095029683,0.23751549095064725
1789998452427186400,7.0341865234375,-2.132275209430605,-9.539790038394928,-0.7849936816919595,9.80374678434183,0.2386537538255022
1789998452437256400,7.04425634765625,-2.1285227250292897,-9.540417814904451,-0.7875356943249702,9.803644315941478,0.24279965044580007
1789998452447326700,7.05432666015625,-2.1217682823330164,-9.54131330243945,-0.7948790428251028,9.80344437036607,0.2507415982296212
1789998452457396500,7.064396484375,-2.116042744293064,-9.54164940252602,-0.8060205414991826,9.803241158468607,0.2585384277552719
1789998452467466500,7.074466552734375,-2.115679610069096,-9.540891862156986,-0.81589830384776,9.80317515099887,0.26108377754173523
1789998452477537500,7.08453759765625,-2.1163503489375115,-9.54006301011741,-0.8238018435139208,9.803138434865762,0.2624258765690315
1789998452487607600,7.094607666015625,-2.113196414951235,-9.53999052940309,-0.8326875260852277,9.802987142998827,0.26801115566525857
1789998452497677600,7.104677490234375,-2.106845146228373,-9.540462823089957,-0.8432984250139445,9.802724433053935,0.2774405741524757
1789998452507747600,7.11474755859375,-2.103743380820751,-9.54069955445528,-0.8483602384481579,9.802592831515504,0.2820869979828118
1789998452517817600,7.124817626953125,-2.100695099166036,-9.541343113055824,-0.8486797527261077,9.80250553743046,0.2851154363594275
1789998452527887600,7.1348876953125,-2.094541837233305,-9.542627307647466,-0.8494491296634078,9.802324417699559,0.2912752557919492
1789998452537957600,7.14495751953125,-2.0986884355187416,-9.54180254726112,-0.8484680096715688,9.802450457935832,0.2869703529087233
1789998452548028400,7.1550283203125,-2.1098186090812088,-9.54010451117158,-0.8398992110297083,9.802834474101735,0.2734878522942999
1789998452558098400,7.165098388671875,-2.1196141730390488,-9.538446222570538,-0.8340704318109899,9.803144697201905,0.26219861624676527
1789998452568168700,7.175168701171875,-2.110484379513561,-9.540128476569055,-0.8379608633782714,9.802870009607814,0.2722382208653033
1789998452578238500,7.185238525390625,-2.096595993284136,-9.543137010735272,-0.8385660627298056,9.802481237787463,0.285890519442952
1789998452588308500,7.19530859375,-2.0949537790350616,-9.544543954923748,-0.8265785416856407,9.80253132242983,0.2841872659391464
1789998452598378800,7.205378662109375,-2.09506352301985,-9.54590004570782,-0.8104930838033556,9.802641286262952,0.28039561315925815
1789998452608448500,7.215448486328125,-2.0921651712298392,-9.547582884228229,-0.7980480282500386,9.802620747078223,0.28107148425335476
1789998452618519600,7.22551953125,-2.098977189332247,-9.547425063318014,-0.7818956426113843,9.802875484054853,0.2720728230843281
1789998452628589600,7.235589599609375,-2.10453380054608,-9.547641920939087,-0.764122670033574,9.80306652131903,0.2651395888350149
1789998452638659600,7.24565966796875,-2.088850785984844,-9.55198491857946,-0.7527832376345992,9.80262426383558,0.28098689614379985
1789998452648729600,7.2557294921875,-2.0651643515795466,-9.557881575402616,-0.7432355109579861,9.801893961854784,0.30541413483905994
1789998452658799600,7.265799560546875,-2.0582924199834465,-9.5607106613487,-0.7256972969841211,9.801636186001936,0.3135612863468703
1789998452668869400,7.275869384765625,-2.055442729640752,-9.562895604172349,-0.7046727021992206,9.801457903527474,0.31906697374594384
1789998452678939600,7.285939697265625,-2.042244663763046,-9.566727729681132,-0.6908931831717491,9.800933645311595,0.3347772263325478
1789998452689009700,7.296009765625,-2.0397750587791204,-9.568296586433052,-0.6763189335700124,9.800743494922035,0.3403176501629792
1789998452699080400,7.30608056640625,-2.048692963119596,-9.567857025972009,-0.6552476500991732,9.800857283493464,0.3370117477644592
1789998452709150500,7.316150390625,-2.050493728931248,-9.568770633685588,-0.6359851696159691,9.800703865684236,0.34143351564190066
1789998452719220200,7.32622021484375,-2.03991563629359,-9.571979658859968,-0.6215540548119693,9.800158148454457,0.3567633685778181
1789998452729290200,7.336290283203125,-2.0400531450681387,-9.572934767627716,-0.6061897873437032,9.799941917681869,0.3626311739212973
1789998452739360000,7.346360107421875,-2.044529559829831,-9.573021276867388,-0.5895135239614173,9.799830369175089,0.36563426904587404
1789998452749430300,7.35643017578125,-2.0404650868698955,-9.574760229489208,-0.5752070584503933,9.799441024076451,0.37596542218909523
1789998452759500300,7.366500244140625,-2.0416030048586427,-9.575140753239392,-0.5647166806288063,9.799282118601418,0.38005021146234724
1789998452769571000,7.376571044921875,-2.0507139475531875,-9.574097381666302,-0.5492102282108738,9.799283222029878,0.3800639124330362
1789998452779641000,7.38664111328125,-2.0527466224245727,-9.574442834103106,-0.5353996199253946,9.79905235446169,0.3859403929609208
1789998452789711400,7.39671142578125,-2.046158037814498,-9.576477554801103,-0.5241240100102499,9.798572574671738,0.39795294958361616
1789998452799781000,7.406781005859375,-2.0348563070774075,-9.579553893506526,-0.5117677652515471,9.797882616316592,0.4146027875936597
1789998452809851100,7.41685107421875,-2.025769622041285,-9.58195160229802,-0.5028577884892002,9.797332899061882,0.4274027266768935
1789998452819921200,7.426921142578125,-2.016595258721709,-9.583922610110044,-0.5021662990937009,9.796976905346986,0.4354808171672624
1789998452829991200,7.4369912109375,-2.010046275469661,-9.58508463962674,-0.506207025851868,9.796832105428816,0.4387024383325122
1789998452840062200,7.447062255859375,-2.015152950958908,-9.583862988877296,-0.5090247501537204,9.797095573080837,0.4327767710025463
1789998452850132200,7.45713232421875,-2.023462952534109,-9.582017068749666,-0.5108213147142902,9.797448760870541,0.42472299180847173
1789998452860202000,7.467201904296875,-2.0275133969686925,-9.581052023109793,-0.5128397783972323,9.797645001626341,0.4201493839537112
1789998452870272300,7.477272216796875,-2.00719863095358,-9.5851606274724,-0.5159761767268181,9.796965726717668,0.4357115594266111
1789998452880342300,7.48734228515625,-1.9846603436701,-9.589586042699215,-0.5209210857830942,9.796195434471146,0.4527150730077605
1789998452890412000,7.497412109375,-1.980323775770515,-9.59006827325821,-0.5284917402330785,9.796195500474724,0.4527129097000394
1789998452900482300,7.507482421875,-1.981020671993494,-9.589390227866172,-0.5380878360960633,9.796440267712324,0.44737506150855294
1789998452910553300,7.51755322265625,-1.9793845952242608,-9.589005612462758,-0.550802794631943,9.796645107091345,0.4428548023121449
1789998452920623000,7.527623046875,-1.986868082847446,-9.58646820293963,-0.5677941518453881,9.797290654575358,0.4283729838010431
1789998452930693000,7.537693115234375,-2.002751003894955,-9.58230640708506,-0.5820553169099614,9.798179541532106,0.4075214432523847
1789998452940763100,7.54776318359375,-2.0039085033670068,-9.581717793542149,-0.5877339105356484,9.798322598552039,0.40406753055242633
1789998452950833200,7.557833251953125,-1.9950619106970728,-9.58337315953374,-0.5908186517432331,9.798028586560743,0.41111511596159944
1789998452960903200,7.567903076171875,-1.9965473269492384,-9.582616788208483,-0.5980311404053121,9.798205483181524,0.40688609296607714
1789998452970973200,7.57797314453125,-1.9993154764883216,-9.581590952292084,-0.6051736325711011,9.798425341131159,0.4015513807836751
1789998452981043200,7.588043212890625,-1.9978034644901752,-9.581350713795423,-0.6139028824716806,9.798495346564025,0.39983230978399625
1789998452991114200,7.5981142578125,-2.011783036134392,-9.57760626657009,-0.6265651609722525,9.799207379686168,0.3820097024541286
1789998453001184300,7.608184326171875,-2.0304764845579863,-9.572734861141443,-0.6405268316335976,9.800063905377048,0.3593181718535879
1789998453011254000,7.61825390625,-2.037076175083965,-9.570490881606936,-0.6530116346754133,9.80043624830974,0.34906818224263436
1789998453021324000,7.628323974609375,-2.0234202824361622,-9.572838906037807,-0.6610091362353414,9.800029013475916,0.3603314773122206
1789998453031394300,7.638394287109375,-2.008370158950984,-9.575997662329671,-0.6611422610957175,9.799469656821381,0.3752138840073991
1789998453041464000,7.648464111328125,-2.005416569842398,-9.57691536169648,-0.656779097450152,9.799312772348355,0.37925115192219366
1789998453051534000,7.6585341796875,-2.001827897700667,-9.577864625245333,-0.6538981351863592,9.799146633607563,0.3835540845778337
1789998453061605000,7.668605224609375,-1.9948269328974184,-9.57937736789584,-0.653149801037088,9.79886650506353,0.390672660045156
1789998453071675100,7.678675048828125,-1.996111565880477,-9.578998013189434,-0.6547632275830954,9.798932174404575,0.3889825776853964
1789998453081745200,7.6887451171875,-1.9973636117681857,-9.578549100378154,-0.6575255319032818,9.799010439801897,0.3870381011333684
1789998453091815200,7.698815185546875,-2.004166862042248,-9.576958616316318,-0.6599808161009103,9.799298089084468,0.3796745822811498
1789998453101885200,7.70888525390625,-2.013126413567364,-9.574984685894846,-0.6613397564291954,9.799650481804418,0.3704462174563097
1789998453111955200,7.718955078125,-2.024741009645909,-9.57229237807095,-0.66484659550637,9.800111494695065,0.3580408000761887
1789998453122025200,7.729025146484375,-2.021497936071456,-9.573030044695734,-0.6640930006600916,9.799986366339608,0.3614483023502761
1789998453132095000,7.739094970703125,-2.0103692238137123,-9.576306874409315,-0.650503378181532,9.799437872094023,0.3760449506527345
1789998453142166000,7.749166015625,-2.012000624407828,-9.577276596224308,-0.6308969796314835,9.799271677753712,0.38036705651963426
1789998453152236300,7.759236328125,-2.034053174000978,-9.5733380877316,-0.6198406750228256,9.799929286897552,0.36299158515918933
1789998453162306000,7.76930615234375,-2.056500860391557,-9.568659574526547,-0.6180041072454303,9.800670273373656,0.3423932113111323
1789998453172376000,7.7793759765625,-2.0613725580811497,-9.568118891778589,-0.6100856257384643,9.800716005653753,0.3410662658126789
1789998453182446300,7.7894462890625,-2.067317730221152,-9.567671732532975,-0.5968718508349731,9.800706403702753,0.34140148496498424
1789998453192516000,7.79951611328125,-2.0794787081360817,-9.565480359968545,-0.5897012650858611,9.800968220334244,0.33378996476425604
1789998453202586000,7.809586181640625,-2.087212078867108,-9.564165185716748,-0.5836711180761456,9.801098234867268,0.3299323057886392
1789998453212657200,7.8196572265625,-2.091944806477428,-9.564247603303194,-0.5650964737266302,9.800899485314197,0.33581035425514594
1789998453222727200,7.82972705078125,-2.097463716029376,-9.56455038564205,-0.5389021481536328,9.80052138579108,0.34666152293204355
1789998453232797200,7.839797119140625,-2.093008636316657,-9.566801963961124,-0.515749857157655,9.799858314855266,0.3649108017951875
1789998453242867200,7.8498671875,-2.0830290940940377,-9.570302081036568,-0.4906173521298915,9.798921107666096,0.38928478146706946
1789998453252937000,7.85993701171875,-2.0773025331407786,-9.573189619171618,-0.4574367478661238,9.79780111527414,0.4165176858663721
1789998453263007200,7.87000732421875,-2.078876504459232,-9.574022562864425,-0.4321407228397205,9.79705419661973,0.43371675995042136
1789998453273077200,7.8800771484375,-2.0796521650068462,-9.574686579731106,-0.4132828411020338,9.79644323292096,0.4473018202590603
1789998453283148300,7.890148193359375,-2.07326144105643,-9.577070844519138,-0.3894563771715387,9.79539073263061,0.469782533438448
1789998453293218000,7.900218017578125,-2.070408681973815,-9.57891267299354,-0.3581097103366628,9.79409137611536,0.49616205837304056
1789998453303288300,7.910288330078125,-2.08163471712619,-9.577423895740507,-0.331863252717629,9.793350802903166,0.5105534683327075
1789998453313358000,7.920358154296875,-2.087245542745292,-9.57688087490499,-0.3117046271122992,9.792637483495286,0.5240726469082357
1789998453323428000,7.930427978515625,-2.088680836245417,-9.57734673885107,-0.2867544015825726,9.791528403243404,0.5443875523785184
1789998453333498000,7.940498046875,-2.093594034989178,-9.577225742819904,-0.2529698218099773,9.790014646542355,0.5709604745577995
1789998453343568100,7.950568115234375,-2.0979835021197792,-9.577065583822131,-0.220582651212532,9.788443554093167,0.5972850796269655
1789998453353638100,7.96063818359375,-2.102133753667027,-9.576796703752876,-0.1907756698340177,9.786906704877666,0.6219758271342927
1789998453363709200,7.970709228515625,-2.105082666600496,-9.57671253260076,-0.1599222116098739,9.78517922712359,0.6485665518121336
1789998453373779000,7.980779052734375,-2.1068422236189246,-9.576776245486736,-0.1302536249218974,9.78339879965433,0.674908397540001
1789998453383849200,7.99084912109375,-2.106645678133517,-9.577131634795665,-0.104805788600957,9.78175169769806,0.6983726378574304
1789998453393919200,8.000919189453125,-2.1046796387575566,-9.577753566086292,-0.0857193496712483,9.780422052894787,0.7167510227664156
1789998453403989000,8.010989013671875,-2.108831059348584,-9.576965046057104,-0.070404099843325,9.77948953499277,0.7293621202903733
1789998453414059300,8.021059326171875,-2.111608415107429,-9.576455342969298,-0.0548943001242587,9.77848089674399,0.7427730278064222
1789998453424129300,8.03112939453125,-2.112814429896325,-9.576276479271051,-0.0363064492332981,9.77717871548631,0.7597042492414453
1789998453434200300,8.041200439453124,-2.1102540778890253,-9.5768972415179,-0.0157108912321389,9.775589502679356,0.7798908609856313
1789998453444270000,8.05127001953125,-2.1062135703265668,-9.577797989749907,0.0044203018019266,9.773950067500033,0.8001684531205215
1789998453454340000,8.061340087890626,-2.105076529120654,-9.578032967549564,0.0176695886935049,9.772891563870424,0.8129977958862392
1789998453464410000,8.07141015625,-2.105857888756692,-9.57785001219809,0.0234935102156596,9.772457977845686,0.8182086042472193
1789998453474480000,8.081480224609376,-2.100535816951096,-9.579016133368016,0.024427710909408,9.772232747960475,0.8208925839403499
1789998453484550100,8.091550048828125,-2.1032462449535725,-9.578425181737542,0.0228364208466839,9.772435488253574,0.8184741041073748
1789998453494620200,8.1016201171875,-2.112547011131793,-9.576385784864424,0.0191483697089075,9.772984630281684,0.8118852450536129
1789998453504691200,8.111691162109375,-2.1168299491479994,-9.575455226016045,0.0094836650182987,9.773854237995891,0.8013582802716026
1789998453514761200,8.12176123046875,-2.1083469290934502,-9.57732978771627,-0.0010805734088233,9.77443114889318,0.7942729501127433
1789998453524831000,8.1318310546875,-2.108568316759169,-9.577278349789976,-0.0081069270259526,9.774971360404912,0.787604952578361
1789998453534901200,8.1419013671875,-2.118220234462618,-9.575136661586164,-0.0170631118419813,9.775908487063296,0.7758888142561725
1789998453544971300,8.15197119140625,-2.126622005974501,-9.57322585952878,-0.0347853337633772,9.777437345862115,0.7563752250248517
1789998453555041000,8.162041015625,-2.136716114487499,-9.5708784196198,-0.0559770492930896,9.779216429780577,0.7330272345634787
1789998453565111000,8.172111083984374,-2.136461847465485,-9.57072585940659,-0.0843221505586523,9.781172452383911,0.7064264883132348
1789998453575181300,8.182181396484374,-2.128481223975122,-9.572242693710326,-0.110142811380513,9.782689506281825,0.685113107951972
1789998453585252400,8.19225244140625,-2.124586993015557,-9.572807926377653,-0.1336450209258589,9.784093232497435,0.6647571704207941
1789998453595322000,8.202322021484376,-2.12769723399058,-9.57175052627921,-0.1578070095541887,9.785664845882685,0.641225571213214
1789998453605392100,8.21239208984375,-2.136735111448913,-9.569074000546337,-0.193823531363625,9.788003329062443,0.6044605495838865
1789998453615462100,8.222462158203125,-2.1451766304492947,-9.566167173188925,-0.2388967449297197,9.790667031611628,0.5596855296274165
1789998453625532200,8.2325322265625,-2.1503167698167265,-9.563577156695724,-0.2906984995658509,9.79335582130976,0.5104484474414417
1789998453635602200,8.242602294921875,-2.149378466053307,-9.562138063803314,-0.3406967301776632,9.795556063339394,0.46633444382593636
1789998453645672200,8.252672119140625,-2.1531695288993418,-9.559446340501308,-0.3888994008759036,9.797546556925218,0.42246605306099333
1789998453655743200,8.2627431640625,-2.165532459127158,-9.554393733286856,-0.4409438416941091,9.79961128256842,0.3715112707444357
1789998453665813200,8.272813232421875,-2.177883406656236,-9.548912671527264,-0.4954374657627194,9.80144563451792,0.31942306978909313
1789998453675883000,8.282883056640625,-2.183902520815283,-9.544775425592064,-0.5460796020349488,9.802760609443629,0.27614400429579405
1789998453685953000,8.292953125,-2.19396521127671,-9.539645661488176,-0.5933576687015593,9.803832493348294,0.2350839433431995
1789998453696023300,8.303023193359374,-2.2103049361810085,-9.532555995488169,-0.6444638788215815,9.804812683348862,0.18987799654152512
1789998453706093000,8.313093017578124,-2.233578405871242,-9.522688096946478,-0.7070637620542198,9.805653085272548,0.13988503063478755
1789998453716163300,8.323163330078126,-2.2536485494755207,-9.512975096705556,-0.771202764487639,9.805989192665606,0.11382720400628145
1789998453726233300,8.3332333984375,-2.2687506954088805,-9.504371519011258,-0.8307230941444634,9.805849107146408,0.12542661731716345
1789998453736304400,8.343304443359376,-2.278856640490144,-9.497295297014713,-0.8823723251000046,9.805381992870661,0.15770364800468728
1789998453746374400,8.35337451171875,-2.289806342919171,-9.489536353451014,-0.9358822353608904,9.804599701577734,0.2005331439615638
1789998453756444200,8.363444091796875,-2.2966911339968443,-9.482767589968445,-0.986263126881048,9.803557183027724,0.24627798295090908
1789998453766514200,8.37351416015625,-2.3064466582052408,-9.475457559216022,-1.032662474484369,9.802378464625017,0.2894138319328329
1789998453776584400,8.38358447265625,-2.311524692121893,-9.468734972962736,-1.0817915393125266,9.800849747204222,0.33720254707214864
1789998453786654200,8.393654296875,-2.302524224064499,-9.464785358554124,-1.1342814588759094,9.79886900763718,0.39056406007407246
1789998453796724200,8.40372412109375,-2.298488977199048,-9.46009164777994,-1.180681317935884,9.796899368417998,0.43721470962805786
1789998453806795300,8.413795166015625,-2.309748914621025,-9.452432657459378,-1.2194144417602568,9.795159932488948,0.47459105568281085
1789998453816865300,8.423865234375,-2.317660418397933,-9.44569370459318,-1.256070759310573,9.7933453747902,0.5106657404508202
1789998453826935300,8.433935302734374,-2.31448675679788,-9.441987835812569,-1.2893417452715337,9.791536343876118,0.5442438806989242
1789998453837005300,8.44400537109375,-2.3294530013918875,-9.43454336502552,-1.3165943477258086,9.790020516956542,0.5708579037503572
1789998453847075300,8.454075439453124,-2.358954405686259,-9.423118884691595,-1.3455648600138723,9.788286767711327,0.5998519389728366
1789998453857145300,8.464145263671876,-2.371171351572126,-9.414912781882286,-1.3810700347676872,9.786001995869446,0.6360468903620756
1789998453867215400,8.47421533203125,-2.37292214076221,-9.410807684651015,-1.4058185454465448,9.784342137716726,0.66108658920632
1789998453877285000,8.48428515625,-2.3756588722497223,-9.409210770848391,-1.411876676441729,9.783919068307423,0.6673273723134452
1789998453887356200,8.494356201171875,-2.381683247105777,-9.407699197241664,-1.411796304681897,9.783901763504897,0.6675734890819178
1789998453897426400,8.504426513671875,-2.391141103541851,-9.403989236807822,-1.4204970591403543,9.783255267884941,0.6769768101439262
1789998453907496200,8.51449609375,-2.4100864808999,-9.397743035894631,-1.4297894958816468,9.782485702446476,0.6880134432453333
1789998453917566200,8.524566162109375,-2.412277122811973,-9.39686859114766,-1.4318478897161782,9.782324605927403,0.690314363237035
1789998453927636500,8.534636474609375,-2.404850918333977,-9.400302657249568,-1.421750858593732,9.783086968545936,0.6793988939376918
1789998453937706200,8.544706298828125,-2.406839023411274,-9.401426108321546,-1.410925367066264,9.783826097746346,0.668688444145675
1789998453947776300,8.5547763671875,-2.421750761339068,-9.397977429172396,-1.40837743614912,9.783887171324295,0.6677838952310972
1789998453957847300,8.564847412109375,-2.4225074249252674,-9.399031322139502,-1.400020818953216,9.78445089555072,0.6594778119365733
1789998453967917300,8.574917236328124,-2.408611293780804,-9.406060197862985,-1.3765969810068606,9.786114846508568,0.6343124383239607
1789998453977987300,8.5849873046875,-2.391689092813432,-9.414396649053693,-1.3488261998973785,9.787982910164867,0.6047839698985379
1789998453988057300,8.595057373046876,-2.374697333741188,-9.42217721992731,-1.324298784623295,9.78954409688749,0.5789685972871613
1789998453998127000,8.605127197265626,-2.355048045897484,-9.43081469989121,-1.2976442941926418,9.791131689977258,0.5514872128558436
1789998454008197400,8.615197265625,-2.3325571048870684,-9.44129517737329,-1.2615502136349677,9.793096908508225,0.5154019362985869
1789998454018267400,8.625267333984375,-2.3253388440713283,-9.448387181460856,-1.221123145374283,9.79513207133728,0.47513209928336525
1789998454028337200,8.635337158203125,-2.3232500550985336,-9.453442711284756,-1.185465775733441,9.796796905508511,0.4395104227573656
1789998454038408200,8.645408203125,-2.30879877428934,-9.460606027042866,-1.156185686039552,9.798009913413198,0.4115644012049849
1789998454048478500,8.655478515625,-2.294174328870326,-9.4680171800822,-1.1241854506667703,9.799213242012504,0.38183496256490423
1789998454058548200,8.66554833984375,-2.28473985330984,-9.475750989204643,-1.0772560147747396,9.80083883993122,0.33753749684891887
1789998454068618200,8.6756181640625,-2.2783815703243016,-9.481810143113137,-1.0366488407067953,9.802068103860945,0.2997463531842123
1789998454078688300,8.685688232421874,-2.278947679774463,-9.484667870631814,-1.0088957413844764,9.802849772814424,0.27300932577613646
1789998454088758300,8.69575830078125,-2.277451888258755,-9.48859235059917,-0.9748013832766562,9.803682510102828,0.24128588256352457
1789998454098828300,8.705828369140624,-2.2627781968705354,-9.49713396897316,-0.9244807705763728,9.804568504805236,0.2020394085400915
1789998454108899300,8.7158994140625,-2.2450300664730367,-9.506295765072108,-0.8721126507617533,9.805157498285617,0.17113176744213368
1789998454118969000,8.725968994140626,-2.234557333905995,-9.512359595155717,-0.8319641071815043,9.805435099133266,0.15439669163491446
1789998454129039400,8.736039306640626,-2.2286212218552826,-9.517001283481717,-0.7939340901251882,9.805591450672374,0.14413057364817944
1789998454139109400,8.746109375,-2.2152792174622413,-9.523902733433246,-0.7471249926771968,9.805479534569004,0.15149963382357512
1789998454149179100,8.75617919921875,-2.2043553801268336,-9.529984683695435,-0.7004373296517878,9.805166559386334,0.17062212290714954
1789998454159249400,8.76624951171875,-2.202587639801949,-9.53316389825344,-0.6616389585714787,9.804853435287665,0.1876737754675512
1789998454169319400,8.7763193359375,-2.1880331908792257,-9.539293194788694,-0.6203291891921311,9.804122357535247,0.22270384364059623
1789998454179389200,8.78638916015625,-2.155781611093879,-9.549709374862909,-0.5710086569124833,9.802663737727013,0.27960334475087123
1789998454189460200,8.796460205078125,-2.1342926867328584,-9.55789560392797,-0.5116855668608099,9.800876442554832,0.3364769313554269
1789998454199530200,8.8065302734375,-2.148352630136907,-9.557291208294034,-0.461684030047059,9.799859942679317,0.36487191042938966
1789998454209600300,8.816600341796875,-2.164207932525128,-9.55539501928389,-0.4254716203393414,9.799079264618907,0.3852812157243331
1789998454219670300,8.826670166015624,-2.160457055559009,-9.557589898979664,-0.3940647842824459,9.797900536476833,0.4141636120078162
1789998454229740300,8.836740234375,-2.1341499172613023,-9.56516822527945,-0.3512151285173371,9.795622487639681,0.4649421398295582
1789998454239810300,8.846810302734376,-2.108352043659985,-9.572919570058584,-0.2905809193344786,9.792276214673413,0.5307553495146885
1789998454249880300,8.85688037109375,-2.1004775108925995,-9.57620984377563,-0.2336189506572671,9.789212088197818,0.58455560229868
1789998454259951400,8.866951416015626,-2.1187667624294755,-9.57294353545606,-0.1998719994813203,9.787880435288967,0.6064370761010425
1789998454270021000,8.877021240234376,-2.121943931160867,-9.572892682051656,-0.1657610920974984,9.785991392014202,0.6362150298019484
1789998454280091400,8.88709130859375,-2.112223039874434,-9.575736381044983,-0.1190949285178445,9.782836732476932,0.6830098660660703
1789998454290161400,8.897161376953125,-2.102559139472246,-9.578381342595817,-0.0650006150982808,9.778936184236297,0.7367335093255233
1789998454300231200,8.907231201171875,-2.099345584253222,-9.579277414652704,-0.0237382924566976,9.775877534955915,0.7762664472150633
1789998454310301200,8.91730126953125,-2.100555106173456,-9.579041267809272,0.0059596841517224,9.773672227835913,0.8035733103635314
1789998454320371500,8.927371337890625,-2.1037653003916144,-9.57826093108654,0.0386231834767619,9.7711958856303,0.8331468166259521
1789998454330441200,8.937441162109375,-2.100236980134994,-9.578847791063785,0.0712425873609259,9.768422343496983,0.8650553753470996
1789998454340512300,8.94751220703125,-2.082631326948106,-9.58236193666458,0.1066196878888178,9.764879054604382,0.9041672057854794
1789998454350582300,8.957582275390624,-2.07116812203899,-9.584305471947788,0.1475012858508154,9.760875512729209,0.9464220114144588
1789998454360652300,8.96765234375,-2.071641146378219,-9.583638532471657,0.180436153458897,9.757828746462556,0.9773228333702184
1789998454370722300,8.977722412109374,-2.0742507443547247,-9.582593407332896,0.2044310692914761,9.755613593272702,0.9992037037363892
1789998454380792300,8.987792236328126,-2.0762087465547023,-9.58163654499948,0.2280250944392755,9.753357479546546,1.020987247524319
1789998454390862300,8.9978623046875,-2.085284179544449,-9.579179214975236,0.2476244787266477,9.751669368760814,1.0369893668252634
1789998454400932400,9.007932373046875,-2.0858133179850875,-9.578776479393245,0.2584762372065335,9.750578368126495,1.0471902844685337
1789998454411003400,9.01800341796875,-2.0840259961768983,-9.578976970401406,0.2653849023501388,9.749814108991696,1.0542856058599457
1789998454421073200,9.0280732421875,-2.0878937775209545,-9.577820201581716,0.2764569159845821,9.748781046310404,1.063784178079505
1789998454431143200,9.03814306640625,-2.0954085370652376,-9.575807108193636,0.2890479193472303,9.747682040055249,1.0738073645682178
1789998454441213400,9.04821337890625,-2.0972581104546784,-9.575250643354654,0.2940632815575227,9.747206168528212,1.0781287430996231
1789998454451283200,9.058283203125,-2.0977323038376867,-9.575174070987105,0.293196618258208,9.747312512555128,1.077173313730068
1789998454461353200,9.068353271484376,-2.1038526864141223,-9.57376420418918,0.2953655232625082,9.747257228346081,1.0776708589978776
1789998454471423500,9.078423583984376,-2.108446151684225,-9.572548983180525,0.3019065058711916,9.746688498282381,1.082797333613187
1789998454481493200,9.0884931640625,-2.1067351099826395,-9.572621463894844,0.3114238008769229,9.74561952434417,1.092382435380672
1789998454491564300,9.098564208984374,-2.113990780199319,-9.57080184725225,0.3181054705979302,9.745096628013457,1.0970359243160246
1789998454501634300,9.10863427734375,-2.122391382667422,-9.568978723478317,0.3170137663710862,9.745439864445544,1.0939828920719163
1789998454511704300,9.118704345703126,-2.122522753962129,-9.56906523271799,0.313500862879306,9.745823515737179,1.0905590585701759
1789998454521774300,9.1287744140625,-2.123680107303709,-9.568882277366518,0.3112400783404708,9.74609798837234,1.088103682406482
1789998454531844400,9.13884423828125,-2.124275735109299,-9.568488309612867,0.3191712366659194,9.745254552769392,1.0956276329184693
1789998454541914000,9.1489140625,-2.119915494073182,-9.568808627608416,0.3379922204593196,9.743076570906666,1.1148264117544944
1789998454551984400,9.158984375,-2.125912542530894,-9.56667979888618,0.3598934884808957,9.740788872255816,1.1346461924737916
1789998454562054400,9.169054443359377,-2.1347239177569746,-9.563867664074897,0.3817990308187902,9.738517724995104,1.1539731023171456
1789998454572125200,9.179125244140623,-2.144148164184392,-9.561095861274003,0.3980696725422516,9.736863619108568,1.1678491963965418
1789998454582195200,9.1891953125,-2.1444376486502588,-9.560538227391245,0.4097290941432118,9.735503327220277,1.179133971450355
1789998454592265500,9.199265380859377,-2.140002296551317,-9.56076794449389,0.427223067116551,9.733320942334267,1.197028195282159
1789998454602335200,9.209335205078125,-2.135397140843421,-9.560724689874052,0.4505451982541009,9.730388408028551,1.220618674796899
1789998454612405200,9.2194052734375,-2.1368391563452778,-9.559278582718967,0.4738316004911437,9.727558119820692,1.2429875354380844
1789998454622475300,9.229475341796874,-2.1440426579833027,-9.55664180447459,0.4940323847377672,9.72519948493295,1.261302689172204
1789998454632545300,9.239545166015626,-2.149988853036612,-9.554347556057571,0.5122238019233569,9.723022829040522,1.2779708836036319
1789998454642616300,9.2496162109375,-2.1519079845309257,-9.55267348536551,0.5348996710466221,9.720133550124526,1.2997692555690707
1789998454652686300,9.259686279296876,-2.159088251423836,-9.549884146907925,0.5553864691603928,9.717599865419167,1.3185811626637023
1789998454662756000,9.269756103515626,-2.162356605570018,-9.548187864384056,0.5715868586592376,9.715508709553932,1.3338964108194074
1789998454672826400,9.279826416015624,-2.1584467386499044,-9.54852980968952,0.5805763669312,9.714211041934506,1.3433118032365066
1789998454682896400,9.289896484375,-2.1468170911327005,-9.55078898679316,0.5864958931732922,9.713143061371296,1.3510082142876765
1789998454692966100,9.299966064453123,-2.138334363339096,-9.55231868057847,0.5925626093337312,9.712116163951018,1.3583799500386424
1789998454703036400,9.310036376953123,-2.137904447489232,-9.551959199616311,0.5998543007118627,9.711107870885195,1.3655654798811554
1789998454713106400,9.3201064453125,-2.1321555285736915,-9.55302887467444,0.6032665203081443,9.71049723242881,1.369898489636399
1789998454723177200,9.33017724609375,-2.119750805030763,-9.55603039457798,0.5994553645221516,9.710703962779862,1.3684427861012922
1789998454733247200,9.340247314453125,-2.108937880723923,-9.558794598594307,0.5934668281644583,9.711230862610721,1.3646872066801943
1789998454743317200,9.350317138671874,-2.1129079533986745,-9.55808206641078,0.5908358951389789,9.711698835117389,1.361361670807199
1789998454753387300,9.36038720703125,-2.121037483840436,-9.556529576271773,0.5867839893996715,9.712464703913493,1.3558769765224654
1789998454763457300,9.370457275390624,-2.121778219205141,-9.5570720125854,0.575151821131818,9.714056401289655,1.3444240830746745
1789998454773527300,9.38052734375,-2.109437062417716,-9.56097194263339,0.5553867248887195,9.716366189461029,1.3276263384723879
1789998454783597300,9.390597412109376,-2.09651956704706,-9.565116202831268,0.5324868742838501,9.71901294999601,1.3081176620514203
1789998454793668400,9.40066845703125,-2.0918081744857133,-9.567571194767952,0.5062730768254027,9.72225532613435,1.2838005326253839
1789998454803738400,9.41073828125,-2.096922156498581,-9.567847089099883,0.4791637918319553,9.725824777614461,1.2564675822937623
1789998454813808000,9.42080810546875,-2.110957549983263,-9.5662536824286,0.4483846592193469,9.730015164236459,1.2236032856943022
1789998454823878400,9.43087841796875,-2.1138488875105974,-9.56712578908801,0.4149077023575082,9.734112351554478,1.1905704986487742
1789998454833948400,9.440948486328123,-2.117001652453095,-9.56783598318398,0.3810813840687275,9.738142545964783,1.1571448368089174
1789998454844018200,9.45101806640625,-2.129731370166689,-9.566295183482763,0.3472993067804724,9.742298633211217,1.1216030476147285
1789998454854088200,9.461088134765625,-2.139989290939272,-9.56535585680604,0.3079196286808699,9.746868707707442,1.0811807088127272
1789998454864158500,9.471158447265625,-2.136110842070728,-9.5674607201308,0.2666859384787269,9.751120146173735,1.0421379205867474
1789998454874229200,9.481229248046876,-2.131534912457317,-9.569478489694,0.2280547589251771,9.754920518035915,1.0059295738822434
1789998454884299300,9.49129931640625,-2.127498204287141,-9.571185878133774,0.19114315143954,9.758419154813593,0.97141084322845
1789998454894369300,9.501369384765624,-2.1233217953853307,-9.572781038370728,0.1541076983785256,9.76178501000754,0.9369817802071659
1789998454904439300,9.511439208984376,-2.1283352396331727,-9.572201777178048,0.1163527262707706,9.765315921094746,0.8994446472124298
1789998454914509300,9.52150927734375,-2.1393360877275467,-9.57014659821391,0.0769785645965021,9.768984924743622,0.8586757520146159
1789998454924579300,9.531579345703124,-2.146704424538463,-9.568734393328429,0.0367429112716694,9.7724667155388,0.8180844159464374
1789998454934649300,9.5416494140625,-2.1485930147640406,-9.568381342107058,-0.0030550162145344,9.775619714583014,0.7795139383329001
1789998454944720400,9.551720458984375,-2.15482343358621,-9.5668995791167,-0.0391827535882825,9.778446322171584,0.7432054893657183
1789998454954790400,9.561790283203123,-2.1653385439902544,-9.564342880371212,-0.0711179791671456,9.780944910827584,0.7095915456895818
1789998454964860200,9.571860107421877,-2.1622363401912152,-9.564750876650214,-0.1032902786046266,9.783049499904612,0.679953444946707
1789998454974930200,9.58193017578125,-2.1556629531502725,-9.565836918321253,-0.1351400269902777,9.7849492421532,0.6520351761084959
1789998454985000400,9.59200048828125,-2.1596046765133736,-9.564488426321743,-0.1644441460137255,9.786832261874602,0.6231270906882682
1789998454995070200,9.6020703125,-2.1719687757849693,-9.561218026348948,-0.189919381798245,9.788592371193397,0.594867441168185
1789998455005140200,9.61214013671875,-2.188953812855482,-9.556806639647483,-0.2151956244119443,9.790346569234845,0.5652390233010242
1789998455015210500,9.62221044921875,-2.206953287665546,-9.552014144673944,-0.2424664566426538,9.792128758710975,0.5334991934493852
1789998455025281300,9.63228125,-2.217088897232711,-9.548950080928206,-0.269142830111552,9.793643376661949,0.5048941473787937
1789998455035351300,9.642351318359376,-2.219535267471522,-9.547549566480518,-0.2972362307715229,9.795023345974338,0.4773955976474011
1789998455045421300,9.65242138671875,-2.22214983388409,-9.546120410460231,-0.3225006733495741,9.796200059229818,0.4525879573001535
1789998455055491300,9.6624912109375,-2.2319255240976807,-9.543169159439206,-0.3418198524560779,9.797175205986843,0.4310080573725156
1789998455065561300,9.672561279296875,-2.2407212633632123,-9.54051484553814,-0.3579380435641854,9.797957090908808,0.4128096241150935
1789998455075631400,9.68263134765625,-2.239846380224824,-9.539977085399627,-0.3772599991496652,9.798701753022856,0.39477038797439373
1789998455085701000,9.692701171875,-2.23557323295027,-9.540067686292527,-0.3996399175336584,9.799469254032868,0.37522465520992526
1789998455095771400,9.702771484375,-2.236219860290736,-9.538947742351889,-0.4221127018328756,9.800257827784352,0.3540182719565595
1789998455105842400,9.712842529296877,-2.245029481951147,-9.535988892546296,-0.4417528565220534,9.801017400808103,0.3323327081380007
1789998455115912200,9.722912109375,-2.248120872095228,-9.53458019479215,-0.4562076444625854,9.801503181846803,0.3176912614253018
1789998455125982200,9.732982177734376,-2.2426063464574515,-9.535226091480254,-0.4696371810086071,9.801825296167369,0.3075707821237091
1789998455136052500,9.743052490234374,-2.24019431687966,-9.53516237859428,-0.4822972675520926,9.802149494327667,0.2970994928970663
1789998455146122200,9.753122314453124,-2.243194960000366,-9.5339085791409,-0.4929937258724123,9.802476237059969,0.28607491957822523
1789998455156192300,9.763192138671876,-2.233931018701196,-9.535425997966527,-0.5055817335603758,9.80267403385366,0.27926946544944536
1789998455166262300,9.77326220703125,-2.225964862127602,-9.53649976467788,-0.5202231666468083,9.802912063600623,0.2707296540045594
1789998455176333300,9.783333251953126,-2.2228448304109274,-9.536400980478524,-0.5351774285420775,9.803206983490083,0.2598663491653265
1789998455186403300,9.7934033203125,-2.2121819820992648,-9.537935934960842,-0.5517377739271149,9.80338812605732,0.25291667085901015
1789998455196473300,9.803473388671875,-2.199539358147234,-9.539745030209422,-0.5706693054229021,9.803538662260243,0.24698539058946975
1789998455206543000,9.813543212890623,-2.2006937888793647,-9.53842342621684,-0.5880555071728304,9.803865964819586,0.23365794140763677
1789998455216613400,9.82361328125,-2.1946761360250413,-9.539122514396905,-0.5990885039711371,9.803935296891037,0.23069767375543007
1789998455226683400,9.833683349609377,-2.1771029238030315,-9.54262204695046,-0.6074344171099364,9.803725074472906,0.23950763457057864
1789998455236753200,9.843753173828125,-2.168888929948211,-9.54390507249832,-0.616589637337625,9.803686848162332,0.2410605470667927
1789998455246823400,9.853823486328125,-2.171173241493106,-9.543170328482985,-0.6199225080873817,9.80378082283834,0.23723123064698567
1789998455256894500,9.86389453125,-2.1775459913954136,-9.54185690779686,-0.6177730019032954,9.803881133499113,0.2330193030923194
1789998455266964200,9.873964111328124,-2.174818904519081,-9.54237830132246,-0.6193325063049793,9.80384772497372,0.23444285422443878
1789998455277034200,9.8840341796875,-2.1720644912444054,-9.542568270936608,-0.6260328076612204,9.803879701799346,0.2330948916769108
1789998455287104300,9.894104248046874,-2.1663756319530307,-9.54362800912261,-0.6295677768543362,9.803804516695884,0.2362023270338166
1789998455297174300,9.90417431640625,-2.156750309995562,-9.545756837844849,-0.630338468965888,9.803604255359371,0.24436795347490778
1789998455307244300,9.914244384765626,-2.149727571751922,-9.54726490432024,-0.6314962606988846,9.803459939289777,0.2501130385096219
1789998455317314300,9.924314208984375,-2.153491308199614,-9.54662777546048,-0.6282884045682847,9.803505215206046,0.2483113215857449
1789998455327384300,9.93438427734375,-2.158546838023513,-9.54571592131257,-0.624789894928038,9.803573692300017,0.24560573036645114
1789998455337455400,9.944455322265624,-2.1568502632386983,-9.546090015321967,-0.6249476427730173,9.803538967010537,0.2470241226604043
1789998455347525400,9.954525390625,-2.1575477439835664,-9.545983047816156,-0.6241621184185147,9.803543507450518,0.24681504078051766
1789998455357595100,9.96459521484375,-2.163116191765666,-9.545352348697184,-0.6144546711355447,9.803533366143492,0.24720679935870832
1789998455367665400,9.97466552734375,-2.1622589904144407,-9.546232054141162,-0.6037352337984367,9.803359296943079,0.25407302239638346
1789998455377735400,9.9847353515625,-2.1542942951455712,-9.548342762684822,-0.5987968275481834,9.803105528546702,0.26365329634054985
1789998455387805200,9.99480517578125,-2.154176660115272,-9.54873731496036,-0.5929032759975642,9.803008807058426,0.2672340107945717
1789998455397875200,10.004875244140624,-2.1500046351276336,-9.55017290072143,-0.5848694975478574,9.802779115588134,0.27552913620031144
1789998455407946200,10.0149462890625,-2.13943341062218,-9.55296983796358,-0.5779095588747412,9.802406961174006,0.2884532358885294
1789998455418016300,10.025016357421874,-2.129452407094836,-9.555592587682604,-0.5713803032364696,9.80204135834948,0.3006292001611864
1789998455428086300,10.035086181640626,-2.126934286794066,-9.556913022631406,-0.5585222829680889,9.801730241468986,0.31059200975902146
1789998455438156300,10.04515625,-2.12253181405142,-9.558758358237148,-0.5434788084194064,9.801306108231687,0.3236826235220401
1789998455448226300,10.055226318359376,-2.118179171799868,-9.560295066285132,-0.5333540855724365,9.80097104567479,0.33370331242558804
1789998455458296300,10.06529638671875,-2.127075156569481,-9.558944236198068,-0.5220393126906827,9.800943029578555,0.33452116134770377
1789998455468366300,10.075366455078123,-2.125343802732229,-9.560012742212416,-0.5093779109729454,9.80059271960388,0.3446420051453341
1789998455478436400,10.085436279296877,-2.123213804966212,-9.561040916216372,-0.4988415385851636,9.800269650507836,0.35369184485332866
1789998455488506400,10.09550634765625,-2.134233357761055,-9.55925520184338,-0.4858865607483312,9.80020718599458,0.35543902549635564
1789998455498577400,10.105577392578123,-2.1517392038352785,-9.556302781778571,-0.4663538119563832,9.80007612498819,0.35902406703904305
1789998455508647200,10.115647216796877,-2.15390500356704,-9.556914191675183,-0.4432680103253573,9.799426250091804,0.37636063745184906
1789998455518717200,10.12571728515625,-2.1503414658665654,-9.558595276629925,-0.423882780245319,9.798713700810326,0.39445976116399667
1789998455528787500,10.135787353515624,-2.150727688705176,-9.559345218214393,-0.4045887721126899,9.79805874309578,0.41042360230068325
1789998455538857200,10.145857177734374,-2.1437970126591623,-9.561816576763986,-0.3823434033611789,9.797081186679177,0.43311497189042797
1789998455548927200,10.15592724609375,-2.136144305948913,-9.564394902819394,-0.360048496379517,9.796029396722393,0.4562952237438418
1789998455558997500,10.16599755859375,-2.128472310016304,-9.566878536328671,-0.3388599797371774,9.794965842891402,0.4785702935103135
1789998455569068300,10.176068359375,-2.133697058927268,-9.566631868091225,-0.3119062140990048,9.793927259862976,0.4993823722959885
1789998455579138300,10.18613818359375,-2.132814869265258,-9.567748304900526,-0.2822907915035262,9.792533017010879,0.5260152984518396
1789998455589208300,10.196208251953124,-2.12437291187346,-9.570400280714034,-0.2547314246550202,9.790960268351919,0.5545330684944811
1789998455599278300,10.2062783203125,-2.1090496705353257,-9.574408347311616,-0.2302350986389443,9.789275754684942,0.5835015966030634
1789998455609348400,10.216348388671875,-2.0947005349263548,-9.578160977843403,-0.2035958240437321,9.787415099891934,0.6139177228898752
1789998455619418400,10.22641845703125,-2.0886951570317147,-9.580017419365047,-0.1760829632180743,9.785663192596958,0.6412349844902749
1789998455629488000,10.236488037109376,-2.084732975402474,-9.581362404233216,-0.1475237899435684,9.783828746966448,0.6686369856778815
1789998455639558400,10.246558349609376,-2.085318227944523,-9.58163712952137,-0.1186512216046452,9.782030375832829,0.6944652851599729
1789998455649629400,10.25662939453125,-2.0744123646572232,-9.584288520812988,-0.0928309626415837,9.779996305933228,0.7225392393411972
1789998455659699200,10.26669921875,-2.0593783155240115,-9.587723171436783,-0.0701081399708986,9.77796211354863,0.7495643507091816
1789998455669769200,10.276769287109374,-2.050539467769116,-9.58974795526266,-0.0489867839803686,9.776178627604054,0.7724694819380651
1789998455679839500,10.286839599609374,-2.052258985038101,-9.589481413280962,-0.0216657125498983,9.774248314055844,0.7965299841232784
1789998455689909200,10.2969091796875,-2.056707342749089,-9.588549100866912,0.0069503425818198,9.772232344466508,0.8208789597000977
1789998455699979300,10.306979248046876,-2.059430630233139,-9.5879207398355,0.0296509688328951,9.770546667870706,0.840699485561625
1789998455710049300,10.31704931640625,-2.0683055722147223,-9.585932196366786,0.0488594267070759,9.769293682543692,0.8551445498778768
1789998455720120300,10.327120361328124,-2.069122733816505,-9.58566273177564,0.064540171679412,9.768032195734092,0.8694316257252931
1789998455730190600,10.337190673828124,-2.0644044731229543,-9.58657926209867,0.0782318160606082,9.766736579284903,0.8838804133211295
1789998455740260600,10.347260498046875,-2.0676734117910263,-9.58575625527799,0.0914594733589794,9.765717536600064,0.8950542743530814
1789998455750330400,10.357330322265623,-2.0691490373015404,-9.585268764021992,0.1078746381196659,9.764347639921272,0.9098940165837504
1789998455760400600,10.367400634765623,-2.0734053795717657,-9.58417161643505,0.1225461740834172,9.763190954393453,0.9222122283664885
1789998455770470700,10.377470703125,-2.0820582032352686,-9.582169628962871,0.1320763468370307,9.762610639659094,0.9283419734594556
1789998455780540400,10.38754052734375,-2.091220729986578,-9.58008580842614,0.1383989831204526,9.762318920281981,0.9314138798443847
1789998455790610400,10.3976103515625,-2.085257583798468,-9.58133960787952,0.1414712484389543,9.761860783731134,0.9361923015582576
1789998455800681500,10.407681396484374,-2.0731239322818813,-9.583992168214916,0.1401731897187419,9.761603246505999,0.9388819414198024
1789998455810751500,10.41775146484375,-2.070022751396149,-9.584672551694512,0.139430865185149,9.761571130431092,0.9392082549703323
1789998455820821500,10.427821533203126,-2.069706232792884,-9.584758476412295,0.1382687443369068,9.761666771187288,0.9382212080194605
1789998455830891500,10.4378916015625,-2.071846313561499,-9.584373276486993,0.1327341805581003,9.762232352627423,0.9323068733304894
1789998455840961500,10.44796142578125,-2.076166076456756,-9.583554945841431,0.1240719771448988,9.763142849783844,0.9227277644131194
1789998455851031600,10.458031494140624,-2.083692088047415,-9.582052140063048,0.1134669417013879,9.764311897741296,0.9102658090717576
1789998455861101600,10.4681015625,-2.0933175561353563,-9.580132570177316,0.0972446874306071,9.766012513645153,0.8918377462052458
1789998455871171600,10.478171630859377,-2.1058602268442512,-9.577565350037812,0.0773945980514865,9.768066369271347,0.8690653937230857
1789998455881242600,10.48824267578125,-2.1197737475149334,-9.574647416764495,0.0554495867863064,9.770271151340655,0.8439136104862122
1789998455891312600,10.498312744140623,-2.129547245771438,-9.572585223537684,0.0318050461608218,9.77243632060114,0.8184492987483739
1789998455901382400,10.50838232421875,-2.136703255005926,-9.57104325479269,0.0053256565687479,9.774690759304246,0.7910870417694993
1789998455911452400,10.518452392578125,-2.146048006456345,-9.568932546249032,-0.0200138171570259,9.776835150638238,0.7641250622777711
1789998455921522700,10.528522705078124,-2.157924614471942,-9.566179448148608,-0.0440469027256593,9.77886818120919,0.7376348013067835
1789998455931592400,10.538592529296874,-2.163590239018202,-9.564714051771164,-0.0743291597659932,9.781128104477977,0.7070611305298481
1789998455941662500,10.548662353515626,-2.1713431912325323,-9.56265185854435,-0.1065448782200925,9.783461134583987,0.6740043479036748
1789998455951732700,10.558732666015626,-2.173332173092663,-9.561741173440218,-0.1418478175332304,9.785755478122269,0.6398261702998631
1789998455961803500,10.568803466796876,-2.172894073936343,-9.561208089476825,-0.1794960595971904,9.788009579461622,0.6043642069176
1789998455971873500,10.57887353515625,-2.1825306479401885,-9.558332826301456,-0.2126295915825292,9.790079817978201,0.5698376508995123
1789998455981943600,10.588943603515624,-2.191692297908664,-9.555402618068456,-0.2473135130813345,9.792100893290979,0.5340022391941092
1789998455992013600,10.599013671875,-2.1973729738935828,-9.55313934931159,-0.281911911721155,9.793922120959657,0.4994829609814306
1789998456002083600,10.60908349609375,-2.199834395571053,-9.551582767519356,-0.3136537518860772,9.795433368622394,0.4689014071863327
1789998456012153600,10.619153564453123,-2.197764019037783,-9.550950314834711,-0.3457491547290235,9.796773989806017,0.43997780679768606
1789998456022223400,10.629223388671877,-2.192156262158602,-9.551084754869342,-0.3763199052879586,9.797887967961021,0.4144600231859773
1789998456032293600,10.639293701171876,-2.188974271121621,-9.550739302432536,-0.4026926561677828,9.798801399168843,0.3922780871271603
1789998456042364700,10.64936474609375,-2.1949894397579133,-9.548481294372678,-0.4229671997703612,9.799614300653234,0.3713953151937818
1789998456052434400,10.659434326171874,-2.211262967558205,-9.543910333195328,-0.4409834430521354,9.800488204214947,0.3475711666071422
1789998456062504400,10.66950439453125,-2.2251602677464484,-9.539595392605662,-0.4638708725668489,9.801409399912206,0.32057516046818035
1789998456072574700,10.67957470703125,-2.238247858987004,-9.535416061094402,-0.4862960183320566,9.802231427346353,0.2943735698497596
1789998456082644500,10.68964453125,-2.246760251266509,-9.532385315096375,-0.5060433597227558,9.80285801880504,0.27268290596482436
1789998456092714500,10.699714599609376,-2.246452500491589,-9.53152314530909,-0.5233614281399175,9.803272381901214,0.25737151599452385
1789998456102784500,10.709784423828124,-2.2421732157371936,-9.531663430562617,-0.5388966317282989,9.803563703729344,0.24596091051762056
1789998456112854500,10.7198544921875,-2.244509549730271,-9.530545824709534,-0.5488659813504666,9.803806645873978,0.23612698176988597
1789998456122925600,10.729925537109375,-2.245811279978603,-9.52977074868381,-0.5569568602822721,9.8039882809862,0.22850286267226994
1789998456132995600,10.73999560546875,-2.2424264598459005,-9.52995604212284,-0.5673194470057263,9.80414357232237,0.22171775042038933
