time,seconds_elapsed,z,y,x
1789998293454246400,1.555246337890625,-0.0845671743154525,-0.3153004944324493,0.0131031945347785
1789998293464317400,1.5653173828125,0.1154572144150734,-0.2123491764068603,0.092411883175373
1789998293474388500,1.575388427734375,0.1543100625276565,-0.2113257199525833,-0.0129371797665953
1789998293484459300,1.585459228515625,0.1796787977218628,-0.2303777933120727,-0.1791206747293472
1789998293494530300,1.5955302734375,0.2147915065288543,-0.2474923282861709,-0.1754628121852874
1789998293504601300,1.605601318359375,0.280285120010376,-0.2055391371250152,-0.0168770607560873
1789998293514672400,1.61567236328125,0.3494093120098114,-0.1320641189813614,0.0435876175761222
1789998293524743400,1.625743408203125,0.3762971758842468,-0.1181916519999504,-0.051998496055603
1789998293534814500,1.635814453125,0.2360452562570572,-0.1623210310935974,0.1192962899804115
1789998293544884200,1.64588427734375,0.2893657088279724,-0.1381947249174118,0.281689316034317
1789998293554955500,1.65595556640625,0.4318522810935974,0.0358638949692249,0.2871091067790985
1789998293565026600,1.666026611328125,0.6062570214271545,0.2451344430446624,-0.2305939346551895
1789998293575097600,1.67609765625,0.6600046753883362,0.2642420828342438,-0.3144249320030212
1789998293585168600,1.686168701171875,0.6434752941131592,0.1281588822603225,-0.1828438192605972
1789998293595239400,1.696239501953125,0.6680954098701477,0.1761985719203949,0.100872054696083
1789998293605310500,1.706310546875,0.6832584738731384,0.369015485048294,-0.004374929703772
1789998293615381500,1.716381591796875,0.7335565090179443,0.4252340197563171,-0.2789987623691559
1789998293625452500,1.72645263671875,0.6768826842308044,0.3305558860301971,-0.3098669350147247
1789998293635523600,1.736523681640625,0.5199732780456543,0.1879939287900924,-0.1804127991199493
1789998293645593300,1.74659326171875,0.3590804636478424,0.1940940916538238,0.0216197706758976
1789998293655664400,1.756664306640625,0.3599084317684173,0.2204820364713668,0.0408659018576145
1789998293665735400,1.7667353515625,0.3058100640773773,0.2639650106430053,-0.1996646374464035
1789998293675806500,1.776806396484375,0.3975413143634796,0.2442602813243866,-0.169235348701477
1789998293685877500,1.78687744140625,0.5552051067352295,0.2537823319435119,0.0178936310112476
1789998293695948500,1.796948486328125,0.4506104588508606,0.2539713978767395,-0.0286206062883138
1789998293706019300,1.807019287109375,0.4321865439414978,0.2950518727302551,-0.2215254753828048
1789998293716090400,1.81709033203125,0.5022119879722595,0.3015214800834656,-0.0851939991116523
1789998293726161400,1.827161376953125,0.4346954524517059,0.3639397323131561,0.0426369234919548
1789998293736232400,1.837232421875,0.3348125219345093,0.3213134706020355,0.1774916797876358
1789998293746302500,1.847302490234375,0.1691616773605346,0.2643273174762726,-0.0319048129022121
1789998293756373500,1.85737353515625,0.1488502770662307,0.2804796695709228,-0.0868996232748031
1789998293766444500,1.867444580078125,0.2282334119081497,0.255537748336792,0.160025879740715
1789998293776515600,1.877515625,0.2212996035814285,0.1535035073757171,0.2522189319133758
1789998293786586600,1.887586669921875,0.1866378635168075,0.0950870439410209,0.1157827898859977
1789998293796657700,1.89765771484375,0.2188889980316162,0.1521418243646621,0.0184935256838798
1789998293806728400,1.907728515625,0.2951711118221283,0.1337294429540634,0.1310634613037109
1789998293816799500,1.917799560546875,0.2653149366378784,0.0913763865828514,0.0972967073321342
1789998293826870500,1.92787060546875,0.1495790481567382,0.1160464137792587,-0.080542467534542
1789998293836941600,1.937941650390625,0.0819547399878501,0.0491573959589004,0.0858923122286796
1789998293847012600,1.9480126953125,0.0503365956246852,0.0291324239224195,0.2010673582553863
1789998293857082400,1.958082275390625,0.0707289576530456,0.0210430696606636,0.1669109910726547
1789998293867153400,1.9681533203125,0.069642387330532,0.0382788181304931,0.0486330315470695
1789998293877224400,1.978224365234375,0.0966857224702835,0.0430687814950943,-0.1385461837053299
1789998293887295500,1.98829541015625,0.0814833343029022,0.0453683845698833,-0.1795747876167297
1789998293897366500,1.998366455078125,0.1118199303746223,0.0362659655511379,-0.1122937500476837
1789998293907437600,2.0084375,0.1207529008388519,0.0940187200903892,-0.1550228744745254
1789998293917508400,2.01850830078125,0.1235076785087585,0.0489231497049331,0.172130212187767
1789998293927579400,2.028579345703125,0.0828796625137329,0.0553997419774532,0.1987220495939254
1789998293937650400,2.038650390625,-0.0669790729880333,0.0920546874403953,-0.1209278628230094
1789998293947721500,2.048721435546875,-0.170848473906517,0.0940247029066085,-0.1909776180982589
1789998293957792500,2.05879248046875,-0.1820745021104812,0.097870834171772,-0.1670909225940704
1789998293967862300,2.0688623046875,-0.0971877798438072,0.0669335201382637,-0.0733236968517303
1789998293977933300,2.078933349609375,0.0494517236948013,0.0296428743749856,0.0813636183738708
1789998293988004400,2.08900439453125,0.0476982295513153,0.0113277230411767,0.0276846718043088
1789998293998075400,2.099075439453125,0.0473173968493938,0.016003169119358,0.0202712304890155
1789998294008146400,2.109146484375,0.0989390909671783,0.0597037002444267,0.1323546022176742
1789998294018217500,2.119217529296875,-0.0292945113033056,0.020098503679037,0.124513179063797
1789998294028288300,2.129288330078125,-0.0943484753370285,0.0148467049002647,-0.0860878229141235
1789998294038359300,2.139359375,-0.0226399358361959,0.0042563783936202,0.0619176179170608
1789998294048430300,2.149430419921875,0.0588137581944465,-0.0257115215063095,0.0990698486566543
1789998294058501400,2.15950146484375,0.0820682197809219,0.0190777890384197,-0.1293904781341552
1789998294068571600,2.169571533203125,0.1050294041633606,0.0191050879657268,-0.1490869224071502
1789998294078642400,2.179642333984375,0.173585832118988,0.0304656010121107,-0.0117913801223039
1789998294088713500,2.18971337890625,0.1684122234582901,0.0407202914357185,-0.0351500064134597
1789998294098784500,2.199784423828125,0.138600006699562,0.0615376904606819,-0.1759100556373596
1789998294108855600,2.20985546875,0.1214557886123657,0.0569795668125152,0.0462790057063102
1789998294118926600,2.219926513671875,0.0994445011019706,0.07052493840456,0.217759683728218
1789998294128997600,2.22999755859375,0.0565530359745025,0.1198185458779335,0.0946941450238227
1789998294139068400,2.240068359375,0.0093136196956038,0.1133092418313026,-0.0035844901576638
1789998294149139500,2.250139404296875,0.1275844871997833,0.1322822570800781,0.0447598695755004
1789998294159209500,2.26020947265625,0.2019979953765869,0.1519062966108322,0.0327681824564933
1789998294169280500,2.270280517578125,0.1588541567325592,0.1336735486984253,0.0288013201206922
1789998294179351600,2.2803515625,0.125785693526268,0.1252566277980804,0.019744174554944
1789998294189422300,2.29042236328125,0.0618469677865505,0.1227038279175758,-0.1365396529436111
1789998294199493400,2.300493408203125,0.0683195143938064,0.0859181135892868,-0.2215477526187896
1789998294209564400,2.310564453125,0.0529310517013073,0.0883939117193222,-0.042175967246294
1789998294219635500,2.320635498046875,0.0177698694169521,0.0517685301601886,0.0699231401085853
1789998294229706500,2.33070654296875,-0.0011452380567789,0.0648251697421073,-0.0221553370356559
1789998294239777500,2.340777587890625,-0.0843948498368263,0.0455856993794441,-0.1587675213813781
1789998294249848300,2.350848388671875,-0.0629253014922142,-0.0179867222905159,-0.0109504032880067
1789998294259919400,2.36091943359375,-0.0059224627912044,-0.0461094342172145,0.1511586159467697
1789998294269989400,2.3709892578125,0.0496308580040931,-0.040148913860321,-0.035519078373909
1789998294280060400,2.381060302734375,0.1351601481437683,-0.0490798242390155,0.0223367623984813
1789998294290131500,2.39113134765625,0.0921888947486877,-0.0554837174713611,-0.0911961793899536
1789998294300202500,2.401202392578125,0.045911680907011,-0.0311658605933189,-0.066863939166069
1789998294310273500,2.4112734375,0.0072476835921406,-0.0450645722448825,-0.1781906634569168
1789998294320344600,2.421344482421875,0.0074194576591253,-0.008251161314547,-0.0697597861289978
1789998294330415400,2.431415283203125,-0.0187653172761201,-0.0023659043945372,0.0136748421937227
1789998294340486400,2.441486328125,0.0477042533457279,-0.0483019687235355,0.0760727077722549
1789998294350557400,2.451557373046875,-0.0145655227825045,-0.0730593204498291,0.0474264957010746
1789998294360628500,2.46162841796875,-0.0590008944272995,-0.0271128695458173,-0.2404265850782394
1789998294370698500,2.471698486328125,0.0061285807751119,-0.0038045439869165,-0.1337396502494812
1789998294380769500,2.48176953125,0.1395428329706192,-0.0351329036056995,-0.029006041586399
1789998294390840600,2.491840576171875,0.1473863273859024,-0.0472458638250827,0.0980962067842483
1789998294400911600,2.50191162109375,0.1309125423431396,0.0204500965774059,-0.0354810282588005
1789998294410982400,2.511982421875,0.2124309688806533,0.1046842038631439,0.0685404241085052
1789998294421053400,2.522053466796875,0.2002147883176803,0.1343638151884079,0.1588977575302124
1789998294431124500,2.53212451171875,0.145332470536232,0.1267794817686081,0.1703665107488632
1789998294441195500,2.542195556640625,0.1248431652784347,0.167632907629013,-0.0048356661573052
1789998294451266600,2.5522666015625,0.188007116317749,0.2265980988740921,-0.0961398109793663
1789998294461337600,2.562337646484375,0.2712274193763733,0.2162370681762695,-0.0154739990830421
1789998294471407400,2.572407470703125,0.266624242067337,0.2360926121473312,-0.0523253791034221
1789998294481478400,2.582478515625,0.2161107510328292,0.2307495176792144,0.0350031331181526
1789998294491549400,2.592549560546875,0.2176858931779861,0.2448552101850509,0.0984027236700058
1789998294501620500,2.602620361328125,0.1870677918195724,0.2590573132038116,-0.043169055134058
1789998294511691500,2.61269140625,0.1080057993531227,0.2458003759384155,0.0138266552239656
1789998294521762300,2.62276220703125,0.1154195070266723,0.2429374754428863,0.0776740759611129
1789998294531833300,2.632833251953125,0.2048923969268798,0.2723731100559234,-0.0650718361139297
1789998294541904400,2.642904296875,0.2230064123868942,0.2690734565258026,-0.1586055010557174
1789998294551975400,2.652975341796875,0.2458394467830658,0.2685313820838928,0.0398824773728847
1789998294562045700,2.663045654296875,0.3112698495388031,0.260109931230545,0.3266173303127289
1789998294572116000,2.673115966796875,0.2448334991931915,0.2407771497964859,-0.0007905908278189
1789998294582187000,2.68318701171875,0.0817798525094986,0.1867264360189438,-0.0074964305385947
1789998294592258000,2.693258056640625,0.0025910097174346,0.2178380787372589,-0.0563031658530235
1789998294602328800,2.703328857421875,0.087758369743824,0.2116792500019073,-0.123483270406723
1789998294612399900,2.71339990234375,0.0311133973300457,0.1692101657390594,-0.0891866758465766
1789998294622471000,2.723470947265625,-0.0090281628072261,0.1896715015172958,0.1463512778282165
1789998294632542000,2.7335419921875,0.0277388375252485,0.1653022170066833,0.1613131612539291
1789998294642613000,2.743613037109375,-0.0115965837612748,0.1466955095529556,0.0719643756747245
1789998294652684000,2.75368408203125,-0.1245816424489021,0.1162159889936447,0.0826185569167137
1789998294662753800,2.76375390625,-0.1073374152183532,0.1147110313177108,-0.0107452105730772
1789998294672824800,2.773824951171875,-0.0178527720272541,0.0755564346909523,-0.1203487664461135
1789998294682896000,2.783895751953125,-0.017451699823141,0.0402679517865181,-0.0458292551338672
1789998294692967000,2.793966796875,-0.0483050234615802,0.0515352375805377,-0.0235375668853521
1789998294703037700,2.80403759765625,-0.071842573583126,0.0405595526099205,0.1554183363914489
1789998294713108700,2.814108642578125,-0.0228452011942863,0.0614280812442302,0.1230955496430397
1789998294723179800,2.8241796875,-0.0116458097472786,0.0562453009188175,0.2603839039802551
1789998294733250800,2.834250732421875,-0.0733848065137863,-0.0021961699239909,0.1531357318162918
1789998294743321900,2.84432177734375,-0.0246335137635469,0.0363237932324409,0.0493773855268955
1789998294753393000,2.854392822265625,-0.0806317403912544,0.0428021810948848,0.0591224953532218
1789998294763462700,2.864462646484375,-0.1195154935121536,0.0180161390453577,-0.0189382173120975
1789998294773533700,2.87453369140625,-0.0651357099413871,0.0468711405992507,0.1012522652745246
1789998294783604700,2.884604736328125,-0.0901846066117286,0.1104045733809471,0.0473520196974277
1789998294793675800,2.89467578125,-0.1211301684379577,0.0988646522164344,-0.0603783354163169
1789998294803746800,2.904746826171875,-0.1849770545959472,0.0584533140063285,-0.0006577468011528
1789998294813817900,2.91481787109375,-0.1240774989128112,0.0397551357746124,-0.0090884622186422
1789998294823889000,2.924888916015625,-0.0712664797902107,0.0188455916941165,0.078245110809803
1789998294833960000,2.9349599609375,-0.0559644997119903,-0.0151897054165601,0.1689886003732681
1789998294844031000,2.945031005859375,0.0082965092733502,-0.0026057362556457,-0.0660646632313728
1789998294854102000,2.95510205078125,0.0167405046522617,0.0130662694573402,-0.09854257106781
1789998294864171800,2.965171875,0.1078925132751464,0.0230728313326835,-0.0431373678147792
1789998294874242800,2.975242919921875,0.0737362578511238,0.0563001073896884,-0.043844074010849
1789998294884313900,2.98531396484375,0.0614862479269504,0.0697748959064483,-0.2473463267087936
1789998294894385000,2.995385009765625,0.1306801289319992,0.1139074340462684,-0.0693833902478218
1789998294904456000,3.0054560546875,0.0520340539515018,0.1283114105463028,0.2698356807231903
1789998294914527000,3.01552685546875,-0.0001435135491192,0.1166953742504119,0.0040822369046509
1789998294924597800,3.02559765625,-0.0211489293724298,0.1843873411417007,-0.1128547638654708
1789998294934668800,3.035668701171875,0.0762937366962432,0.2743454873561859,-0.1156226322054863
1789998294944739800,3.04573974609375,0.1039722338318824,0.2755652368068695,0.0086572393774986
1789998294954809900,3.055809814453125,0.1857569962739944,0.2220298498868942,0.0168139953166246
1789998294964881000,3.065880859375,0.2374183237552642,0.2399947345256805,0.1410160958766937
1789998294974951700,3.07595166015625,0.1707518547773361,0.254215806722641,-0.0153308389708399
1789998294985022700,3.086022705078125,0.0864670574665069,0.2509851157665252,-0.1101183295249939
1789998294995093800,3.09609375,-0.0429789349436759,0.248843252658844,-0.1401529461145401
1789998295005164800,3.106164794921875,0.0018497894052416,0.2377386540174484,-0.1254432499408722
1789998295015235800,3.11623583984375,0.037012867629528,0.2380025684833526,0.1734282970428466
1789998295025307000,3.126306884765625,0.0801145285367965,0.2260497659444809,0.1946022808551788
1789998295035377700,3.136377685546875,0.0659222528338432,0.187704250216484,0.1344405263662338
1789998295045448700,3.14644873046875,-0.0034978380426764,0.2037940174341201,-0.0224353764206171
1789998295055519000,3.15651904296875,-0.0410020388662815,0.2342744171619415,-0.1488296389579773
1789998295065590000,3.166590087890625,-0.0801209509372711,0.2045535296201706,-0.0626454800367355
1789998295075661000,3.1766611328125,-0.0277794748544693,0.1950583159923553,0.0999400690197944
1789998295085731800,3.18673193359375,-0.0733024850487709,0.1762292236089706,0.0510361790657043
1789998295095803000,3.196802978515625,-0.0867331027984619,0.1214317306876182,-0.0066117979586124
1789998295105874000,3.2068740234375,-0.1026745215058326,0.0819857791066169,-0.0414376892149448
1789998295115945000,3.216945068359375,-0.1792131066322326,0.0781892538070678,-0.0110432971268892
1789998295126016000,3.22701611328125,-0.2418530434370041,0.0129774939268827,0.1371965110301971
1789998295136087000,3.237087158203125,-0.2004414647817611,-0.020689683035016,0.1691532433032989
1789998295146156800,3.24715673828125,-0.1970714926719665,-0.0586493164300918,0.1908598691225052
1789998295156227800,3.257227783203125,-0.276169866323471,-0.1145142018795013,-0.0638861507177352
1789998295166299000,3.267298828125,-0.3405496478080749,-0.1930486857891082,-0.0654089450836181
1789998295176370000,3.277369873046875,-0.3737260401248932,-0.2429548054933548,-0.0454293191432952
1789998295186441000,3.28744091796875,-0.3606890738010406,-0.2081507593393325,-0.1063762977719307
1789998295196511700,3.29751171875,-0.4164250195026397,-0.2569717764854431,-0.074638694524765
1789998295206582800,3.307582763671875,-0.467881828546524,-0.3108054399490356,-0.0170574281364679
1789998295216653800,3.31765380859375,-0.4645350575447082,-0.3598510324954986,0.0925420895218849
1789998295226724900,3.327724853515625,-0.4826426804065704,-0.375476062297821,-0.0651370212435722
1789998295236796000,3.3377958984375,-0.441224455833435,-0.4075692892074585,-0.0708272457122802
1789998295246865700,3.34786572265625,-0.3991749882698059,-0.4301720559597015,0.0460090935230255
1789998295256936700,3.357936767578125,-0.3338062465190887,-0.4073389172554016,0.0360066667199134
1789998295267007700,3.3680078125,-0.3841367959976196,-0.4351947605609894,-0.0615387968719005
1789998295277078800,3.378078857421875,-0.4375654458999634,-0.466788649559021,-0.1307481378316879
1789998295287149800,3.38814990234375,-0.4147152602672577,-0.4586939513683319,-0.0270126778632402
1789998295297220900,3.398220947265625,-0.4076263308525085,-0.3942991197109222,-0.0446664877235889
1789998295307291600,3.408291748046875,-0.412259966135025,-0.3468333184719085,-0.0786084756255149
1789998295317362700,3.41836279296875,-0.3814996480941772,-0.2942570447921753,-0.0849365517497062
1789998295327433700,3.428433837890625,-0.2419164627790451,-0.2440894842147827,-0.14142806828022
1789998295337504000,3.43850390625,-0.2111445516347885,-0.1770517230033874,-0.1071053072810173
1789998295347575000,3.448574951171875,-0.1602861732244491,-0.1709919571876526,0.0004589674063026
1789998295357645800,3.458645751953125,-0.1427821069955825,-0.1691783517599105,0.0864850059151649
1789998295367716900,3.468716796875,-0.1043670773506164,-0.101429671049118,-0.0568732246756553
1789998295377788000,3.478787841796875,0.0117766689509153,-0.0634368136525154,0.1023432910442352
1789998295387859000,3.48885888671875,0.0137199768796563,-0.0487678572535514,0.1688488125801086
1789998295397930000,3.498929931640625,0.0186407808214426,-0.0064911064691841,-0.0695571601390838
1789998295408001000,3.5090009765625,0.0534506924450397,0.0633353739976883,-0.1770503371953964
1789998295418071800,3.51907177734375,0.1758410036563873,0.0998522639274597,0.0266845971345901
1789998295428141800,3.529141845703125,0.200607344508171,0.0840693116188049,0.0729485005140304
1789998295438212900,3.539212890625,0.2692355215549469,0.0895262882113456,-0.0608803406357765
1789998295448284000,3.549283935546875,0.3344414234161377,0.1262384951114654,-0.0247202068567276
1789998295458355000,3.55935498046875,0.3573191463947296,0.1389191150665283,0.056871835142374
1789998295468425700,3.56942578125,0.312568724155426,0.1788281798362732,-0.1259573698043823
1789998295478496800,3.579496826171875,0.2364547103643417,0.1983494758605957,-0.1229262799024581
1789998295488567800,3.58956787109375,0.269400417804718,0.1691593527793884,-0.0107989450916647
1789998295498638800,3.599638916015625,0.2781001329421997,0.1722366213798523,0.0177582763135433
1789998295508710000,3.6097099609375,0.2870978713035583,0.1663177460432052,0.0220931060612201
1789998295518779600,3.619779541015625,0.297124981880188,0.1429070234298706,0.0484166853129863
1789998295528850700,3.6298505859375,0.2565008699893951,0.1622860431671142,0.0133764119818806
1789998295538921700,3.639921630859375,0.2820245325565338,0.1974431425333023,-0.1320664882659912
1789998295548992800,3.64999267578125,0.3336323201656341,0.2114785313606262,0.033912893384695
1789998295559063800,3.660063720703125,0.3816133439540863,0.1903489232063293,0.0911309570074081
1789998295569134800,3.670134765625,0.3560310304164886,0.1859214156866073,-0.0228816326707601
1789998295579205600,3.68020556640625,0.2489490807056427,0.1838937997817993,0.0830129161477088
1789998295589276700,3.690276611328125,0.1516640782356262,0.183168888092041,0.1809961944818496
1789998295599347700,3.70034765625,0.0820421576499939,0.1950653791427612,0.1132655292749404
1789998295609418800,3.710418701171875,-0.0321272909641265,0.1817317306995391,0.012874474748969
1789998295619489000,3.720489013671875,-0.1653357893228531,0.1630589812994003,-0.0679168924689292
1789998295629559800,3.730559814453125,-0.0831570252776146,0.1756466776132583,-0.0258301608264446
1789998295639630800,3.740630859375,0.0180938839912414,0.1995263546705246,0.0306755099445581
1789998295649702000,3.750701904296875,0.058595236390829,0.1435490995645523,0.0745675936341285
1789998295659773000,3.76077294921875,-0.0348281152546405,0.1410282105207443,-0.0408341214060783
1789998295669844000,3.770843994140625,-0.0590362511575222,0.1383040696382522,-0.1892451643943786
1789998295679915000,3.7809150390625,-0.1542587876319885,0.1022211536765098,-0.0366653837263584
1789998295689985800,3.79098583984375,-0.261132001876831,0.051423754543066,0.249610036611557
1789998295700056800,3.801056884765625,-0.2888206243515014,-0.0415801182389259,0.2984877228736877
1789998295710126800,3.811126953125,-0.3981444537639618,-0.1447147578001022,0.1695494353771209
1789998295720198000,3.821197998046875,-0.4459476768970489,-0.2157755345106125,-0.1015467643737793
1789998295730269000,3.83126904296875,-0.3880305588245392,-0.2430100739002227,0.0524419993162155
1789998295740339700,3.841339599609375,-0.2486415356397628,-0.1745739430189132,-0.0428432300686836
1789998295750410800,3.85141064453125,-0.2491488754749298,-0.2383177727460861,0.0846782401204109
1789998295760481800,3.861481689453125,-0.3481965065002441,-0.3537424802780151,0.2016731053590774
1789998295770552800,3.871552734375,-0.3359776437282562,-0.4041369557380676,0.1081231832504272
1789998295780624000,3.881623779296875,-0.4646870195865631,-0.4014648199081421,0.1765491664409637
1789998295790695000,3.89169482421875,-0.5595227479934692,-0.4398364424705505,0.0565527155995368
1789998295800764700,3.9017646484375,-0.5047290325164795,-0.4269838631153106,0.0671087205410003
1789998295810835700,3.911835693359375,-0.4160917997360229,-0.4154635369777679,-0.1590562462806701
1789998295820906800,3.92190673828125,-0.2752918004989624,-0.4210063219070434,0.1039367690682411
1789998295830977800,3.931977783203125,-0.2224365919828415,-0.4360955357551574,0.0905434638261795
1789998295841048800,3.942048828125,-0.268632024526596,-0.3798365592956543,-0.059129524976015
1789998295851119900,3.952119873046875,-0.3007665276527405,-0.3326938152313232,-0.1634716391563415
1789998295861191000,3.96219091796875,-0.2959156036376953,-0.2409353703260421,-0.0853921473026275
1789998295871262000,3.972261962890625,-0.1996819972991943,-0.1756503731012344,0.1832302510738372
1789998295881333000,3.9823330078125,-0.0698972940444946,-0.188382014632225,0.1567543596029281
1789998295891403000,3.992403076171875,-0.0813622027635574,-0.1594076305627823,0.005980038549751
1789998295901473800,4.002473876953125,-0.0371984019875526,-0.1189608052372932,-0.0103081446141004
1789998295911544800,4.012544921875,0.0307407025247812,-0.0854284092783927,-0.08841173350811
1789998295921616000,4.022615966796875,0.0875472128391265,-0.0931967422366142,0.0646246075630188
1789998295931687000,4.03268701171875,0.1327756643295288,-0.0927099138498306,0.1433561742305755
1789998295941758000,4.042758056640625,0.1568788886070251,-0.0554181560873985,-0.0508556552231311
1789998295951829000,4.0528291015625,0.1267918199300766,-0.0165282823145389,-0.190717414021492
1789998295961899800,4.062899658203125,0.1736031919717788,-0.0329097919166088,-0.056813109666109
1789998295971970800,4.072970703125,0.1471481472253799,-0.0737821236252784,0.2052267640829086
1789998295982040800,4.083040771484375,0.0866562351584434,-0.0338815450668334,0.0686713308095932
1789998295992111900,4.09311181640625,0.1420875489711761,0.0409679263830184,-0.0096852565184235
1789998296002183000,4.103182861328125,0.2024622708559036,0.0816969498991966,0.0488595217466354
1789998296012253700,4.113253662109375,0.2803623974323272,0.0852283015847206,0.0048883380368351
1789998296022324700,4.12332470703125,0.2265121787786483,0.1769212633371353,-0.1578205525875091
1789998296032395800,4.133395751953125,0.2582091391086578,0.2335152924060821,-0.2249705642461776
1789998296042466800,4.143466796875,0.240174189209938,0.1815878897905349,0.0071407249197363
1789998296052537900,4.153537841796875,0.1986512541770935,0.1592958867549896,0.2015325725078582
1789998296062608000,4.16360791015625,0.2802827060222626,0.1846955269575119,0.1667822003364563
1789998296072679000,4.173678955078125,0.2669788897037506,0.2213414311408996,0.0554000027477741
1789998296082750000,4.18375,0.2022036910057068,0.238126590847969,-0.3219012320041656
1789998296092821000,4.193821044921875,0.1448913961648941,0.2215193808078766,-0.3413923680782318
1789998296102892000,4.20389208984375,0.1264194697141647,0.1105875223875045,0.0294963289052248
1789998296112963000,4.213963134765625,0.1385501623153686,0.1283779591321945,0.0831611603498458
1789998296123033900,4.224033935546875,0.1605685502290725,0.1455050259828567,0.0928554758429527
1789998296133105000,4.23410498046875,0.1730433255434036,0.1016616746783256,0.0553350001573562
1789998296143176000,4.244176025390625,0.1268393099308014,0.0921348184347152,0.0966525375843048
1789998296153246000,4.254245849609375,0.0345908626914024,0.0658837705850601,-0.070239245891571
1789998296163317000,4.26431689453125,0.0450316369533538,0.0221324637532234,-0.0079454341903328
1789998296173387800,4.2743876953125,0.133093848824501,0.0083761718124151,-0.0006289316224865
1789998296183458800,4.284458740234375,0.1977511048316955,-0.0207650028169155,-0.0960927158594131
1789998296193529900,4.29452978515625,0.1794589161872863,-0.0303031150251626,-0.0668144598603248
1789998296203601000,4.304600830078125,0.0423559956252574,0.0016181608662009,-0.0621917806565761
1789998296213672000,4.314671875,-0.0409516766667366,0.0062368810176849,-0.2465765327215194
1789998296223743000,4.324742919921875,-0.0851022452116012,0.0153838507831096,-0.1557216495275497
1789998296233813800,4.334813720703125,-0.0162323713302612,-0.0279561672359704,0.0076385075226426
1789998296243883800,4.3448837890625,0.0372536852955818,-0.0586885213851928,0.1229787170886993
1789998296253954800,4.354954833984375,0.013149413280189,-0.0502239316701889,-0.0429175719618797
1789998296264025900,4.36502587890625,0.0046879071742296,-0.0198810137808322,-0.1267760843038559
1789998296274097000,4.375096923828125,-0.00661002099514,-0.0202226974070072,0.0968218669295311
1789998296284167700,4.385167724609375,-0.0080709597095847,0.0117139387875795,0.1740380525588989
1789998296294238700,4.39523876953125,-0.0459336526691913,0.0083037596195936,0.0509875044226646
1789998296304309800,4.405309814453125,-0.1595798283815384,-0.0523852705955505,0.0800989270210266
1789998296314380800,4.415380859375,-0.1969916522502899,-0.10632786154747,-0.0449894815683364
1789998296324451800,4.425451904296875,-0.2229458540678024,-0.1258972436189651,-0.0128220478072762
1789998296334521900,4.43552197265625,-0.2202738970518112,-0.0808434933423996,0.0068230265751481
1789998296344593000,4.445593017578125,-0.1081059426069259,-0.1187268942594528,-0.025171710178256
1789998296354664000,4.455663818359375,-0.0474508553743362,-0.1404668092727661,-0.1225142404437065
1789998296364735000,4.46573486328125,-0.0482812710106372,-0.1374519616365432,-0.1301613599061966
1789998296374806000,4.475805908203125,-0.1151963919401168,-0.1492383182048797,-0.0381752550601959
1789998296384877000,4.485876953125,-0.1955320686101913,-0.112433910369873,-0.2739199697971344
1789998296394947800,4.49594775390625,-0.232968121767044,-0.1138379275798797,-0.2193850725889206
1789998296405019000,4.506018798828125,-0.1943205446004867,-0.1045962125062942,-0.030745405703783
1789998296415089000,4.5160888671875,-0.1076788529753685,-0.1175319850444793,0.0402376912534236
1789998296425160000,4.526159912109375,-0.1129014268517494,-0.1443784534931183,0.0077973771840333
1789998296435231000,4.53623095703125,-0.118055447936058,-0.1374033689498901,-0.1677456796169281
1789998296445301800,4.5463017578125,-0.0339686796069145,-0.0986368581652641,0.029874000698328
1789998296455372800,4.556372802734375,0.0111593855544924,-0.0837718918919563,0.0953568667173385
1789998296465443800,4.56644384765625,0.0708580240607261,-0.0852904990315437,0.1587868928909301
1789998296475515000,4.576514892578125,0.0913121700286865,-0.0883422195911407,0.1671550720930099
1789998296485586000,4.5865859375,0.1021053865551948,-0.0365621782839298,0.0176491010934114
1789998296495657000,4.596656982421875,0.058969896286726,0.020581267774105,-0.1753097027540207
1789998296505726700,4.606726806640625,0.020459908992052,-0.0002623321488499,-0.063278704881668
1789998296515797800,4.6167978515625,0.0860690101981163,-0.0116324322298169,0.1946630775928497
1789998296525868800,4.626868896484375,0.1670417338609695,0.0001545310951769,0.1330834329128265
1789998296535939800,4.63693994140625,0.1360539942979812,0.0068744854070246,0.0266041290014982
1789998296546011000,4.647010986328125,0.1015834063291549,0.0033215880393981,-0.1187686622142791
1789998296556082200,4.657082275390625,0.082509845495224,0.0246718842536211,0.003275221446529
1789998296566153200,4.6671533203125,0.101215474307537,0.0152691816911101,-0.0191732868552207
1789998296576224300,4.677224365234375,0.0558085739612579,0.0019118301570415,-0.1138712987303733
1789998296586294300,4.687294189453125,0.0788472741842269,-0.0216679107397794,-0.042830791324377
1789998296596365300,4.697365234375,0.1233444362878799,-0.0191882420331239,0.0636176243424415
1789998296606436400,4.707436279296875,0.1240020543336868,0.0061303861439228,-0.0274950489401817
1789998296616507400,4.71750732421875,0.0252150241285562,-0.0307943411171436,0.0530195012688636
1789998296626578400,4.727578369140625,0.048115536570549,-0.0255943350493907,-0.0418683625757694
1789998296636649200,4.737649169921875,0.1072845831513404,0.0030077472329139,-0.0916771963238716
1789998296646720300,4.74772021484375,0.0456582903861999,-0.0021341354586184,-0.2040388286113739
1789998296656791300,4.757791259765625,0.0795968100428581,0.0074298088438808,-0.0182857420295476
1789998296666862300,4.7678623046875,0.0608592964708805,0.0192335881292819,0.0828253626823425
1789998296676932400,4.777932373046875,0.0290220063179731,-0.0027630566619336,-0.0929259583353996
1789998296687003100,4.788003173828125,-0.1009172722697258,-0.0305575747042894,0.1214760467410087
1789998296697074200,4.79807421875,-0.0831409394741058,-0.0458039045333862,0.2837874591350555
1789998296707145200,4.808145263671875,-0.0134758474305272,-0.0283301956951618,0.1347644180059433
1789998296717216300,4.81821630859375,-0.0020564785227179,0.0027358443476259,-0.050992127507925
1789998296727287300,4.828287353515625,0.0445967763662338,-0.076406642794609,-0.0601778998970985
1789998296737358300,4.8383583984375,0.1343823224306106,-0.099915437400341,0.0434867069125175
1789998296747429000,4.84842919921875,0.2013943344354629,-0.0501880683004856,0.1592880338430404
1789998296757499100,4.8584990234375,0.2166723608970642,-0.082609124481678,0.1713670641183853
1789998296767570200,4.868570068359375,0.1394610106945037,-0.0750872045755386,0.1275077015161514
1789998296777641200,4.87864111328125,0.0565823726356029,0.0006818622350692,-0.0743620544672012
1789998296787712300,4.888712158203125,-0.0697124451398849,-0.0307043343782424,-0.1458820402622223
1789998296797783000,4.898782958984375,-0.1284242421388626,-0.0207829922437667,-0.0910627245903015
1789998296807854000,4.90885400390625,0.0192940142005682,0.017834672704339,-0.2029486149549484
1789998296817925000,4.918925048828125,0.0831302478909492,0.0118761155754327,-0.0674919784069061
1789998296827996200,4.92899609375,0.1339102983474731,-0.0211767107248306,0.1185736581683158
1789998296838066400,4.93906640625,0.2048356086015701,0.0167214013636112,0.0117694493383169
1789998296848137200,4.94913720703125,0.1789204627275467,0.1078332960605621,-0.0543512888252735
1789998296858208300,4.959208251953125,0.0561892166733741,0.0869008526206016,-0.1869961619377136
1789998296868279300,4.969279296875,0.0162392109632492,0.0027811881154775,-0.0199842918664217
1789998296878350300,4.979350341796875,0.1392258405685424,0.0594516545534133,0.1586925089359283
1789998296888421400,4.98942138671875,0.244647741317749,0.0444468185305595,0.3133015930652618
1789998296898492400,4.999492431640625,0.1767288744449615,0.0048698456957936,0.1613666415214538
1789998296908563200,5.009563232421875,0.1781787425279617,0.1142064854502677,-0.1500656902790069
1789998296918634200,5.01963427734375,0.2119399011135101,0.2264174371957779,-0.0625733882188797
1789998296928704300,5.029704345703125,0.1862784773111343,0.1325675547122955,-0.0905243158340454
1789998296938775300,5.039775390625,0.1043170243501663,0.1002993658185005,-0.0566931143403053
1789998296948846300,5.049846435546875,0.1506583094596862,0.135411337018013,-0.1142606362700462
1789998296958917000,5.059917236328125,0.2443650960922241,0.1145718321204185,-0.1264757663011551
1789998296968988200,5.06998828125,0.2478968650102615,0.0556540228426456,0.0135209495201706
1789998296979059200,5.08005908203125,0.1014632284641265,0.0714556276798248,0.0558076836168766
1789998296989130200,5.090130126953125,-0.0034681437537074,0.0710564106702804,-0.0840350612998008
1789998296999201300,5.100201171875,0.0218225661665201,0.0170088857412338,-0.2140987962484359
1789998297009271000,5.11027099609375,0.0935833826661109,0.0804856047034263,-0.2440604716539383
1789998297019342000,5.120342041015625,0.1440340280532837,0.0981388986110687,0.0183096267282962
1789998297029413000,5.1304130859375,0.153715118765831,-0.0204936787486076,0.0641806125640869
1789998297039484200,5.140484130859375,0.1084808036684989,-0.0342220067977905,0.124916136264801
1789998297049555200,5.15055517578125,-0.0242950916290283,0.0312842540442943,-0.0164676271378994
1789998297059626200,5.160626220703125,-0.0537650994956493,0.0448626466095447,-0.1180938482284545
1789998297069697000,5.170697021484375,-0.0394198708236217,-0.0128003563731908,0.0131377167999744
1789998297079768000,5.18076806640625,-0.0370983928442001,-0.0030004568397998,-0.042676281183958
1789998297089839000,5.190839111328125,0.0309983398765325,-0.0084326183423399,0.0908169671893119
1789998297099909400,5.200909423828125,0.085365705192089,-0.0503768734633922,0.0509342700242996
1789998297109980400,5.21098046875,0.0722532421350479,-0.0769078060984611,0.2457428276538849
1789998297120051200,5.22105126953125,0.042308397591114,-0.0724339634180069,0.0732368379831314
1789998297130122200,5.231122314453125,0.0819438397884368,-0.0143685983493924,-0.4104364216327667
1789998297140193300,5.241193359375,0.0579511597752571,-0.011178663931787,-0.3662356734275818
1789998297150264300,5.251264404296875,0.0404572375118732,-0.0192113928496837,-0.1255673319101333
1789998297160335400,5.26133544921875,0.1161000654101371,-0.0541174449026584,0.1126918420195579
1789998297170406400,5.271406494140625,0.1484986394643783,-0.1695266366004943,0.2514123618602752
1789998297180476200,5.28147607421875,0.1288461089134216,-0.199570819735527,0.2580904960632324
1789998297190547200,5.291547119140625,0.0820018276572227,-0.1102520376443862,0.0933474004268646
1789998297200618200,5.3016181640625,0.1123871654272079,-0.018546350300312,-0.0930067598819732
1789998297210689300,5.311689208984375,0.1638920158147812,-0.0612134896218776,0.1182885095477104
1789998297220760300,5.32176025390625,0.1854724138975143,-0.082695871591568,-0.0693975016474723
1789998297230831000,5.3318310546875,0.2374047189950943,-0.037612184882164,0.0163751244544982
1789998297240902100,5.341902099609375,0.1700038462877273,0.0208750907331705,0.1634239703416824
1789998297250973200,5.35197314453125,0.1334197372198104,0.0221003200858831,0.0851581618189811
1789998297261043200,5.362043212890625,0.0428293906152248,0.0355181246995925,0.036104068160057
1789998297271114200,5.3721142578125,-0.01105298101902,0.029590219259262,0.0312798619270324
1789998297281185000,5.38218505859375,0.0880959704518318,0.0808121263980865,0.0533840991556644
1789998297291256000,5.392256103515625,0.1534122824668884,0.1150603964924812,-0.0120543502271175
1789998297301327000,5.4023271484375,0.2343766391277313,0.0787505879998207,-0.127890408039093
1789998297311398100,5.412398193359375,0.2506510317325592,0.0675046443939209,-0.1087399199604988
1789998297321469200,5.42246923828125,0.3202101290225982,0.1370461732149124,-0.1539436131715774
1789998297331540200,5.432540283203125,0.2368439882993698,0.1951348632574081,-0.1838135570287704
1789998297341610200,5.4426103515625,0.1690369695425033,0.1368193477392196,0.045063566416502
1789998297351681300,5.452681396484375,0.202178493142128,0.1243939399719238,0.1152641922235488
1789998297361752300,5.46275244140625,0.1407082080841064,0.1277511119842529,0.1229229122400283
1789998297371823400,5.4728232421875,0.2425809651613235,0.0723260641098022,0.0056804618798196
1789998297381894400,5.482894287109375,0.3990805745124817,0.1532544642686844,0.1055732369422912
1789998297391965200,5.492965087890625,0.3998624980449676,0.2697809636592865,-0.1102071329951286
1789998297402036200,5.5030361328125,0.4242908954620361,0.2824046015739441,-0.2104213386774063
1789998297412107300,5.513107177734375,0.4163770377635956,0.2368745505809784,0.1838364601135254
1789998297422177300,5.52317724609375,0.3464783728122711,0.3140204548835754,0.1568285375833511
1789998297432248000,5.533248046875,0.2978620231151581,0.3652586638927459,-0.1034503877162933
1789998297442319000,5.543319091796875,0.3154836297035217,0.3391176164150238,-0.0727494657039642
1789998297452390100,5.55339013671875,0.3865441679954529,0.4053719937801361,0.0101789953187108
1789998297462461200,5.563461181640625,0.3415724337100982,0.4170853793621063,-0.1303107440471649
1789998297472532200,5.5735322265625,0.4073743820190429,0.3582904636859894,-0.0599604360759258
1789998297482603300,5.583603271484375,0.4937614798545837,0.3598255217075348,-0.01739938929677
1789998297492674300,5.59367431640625,0.4879569113254547,0.3918175995349884,-0.1494403034448623
1789998297502744300,5.603744384765625,0.6091142296791077,0.369437962770462,0.0010799756273627
1789998297512815400,5.6138154296875,0.6214507222175598,0.4226062297821045,0.0739163756370544
1789998297522886400,5.623886474609375,0.5641282796859741,0.4813864529132843,-0.1139773577451706
1789998297532957400,5.63395751953125,0.5953070521354675,0.5093098282814026,-0.06475081294775
1789998297543028200,5.6440283203125,0.5132750272750854,0.5115069150924683,0.1601829677820205
1789998297553099300,5.654099365234375,0.4930839836597442,0.515033483505249,0.0721864178776741
1789998297563170300,5.66417041015625,0.521314263343811,0.596088171005249,0.0959924161434173
1789998297573241000,5.674240966796875,0.5437085032463074,0.5987382531166077,0.1400629580020904
1789998297583311000,5.68431103515625,0.5113587975502014,0.5924733877182007,0.1070882305502891
1789998297593382100,5.694382080078125,0.418968915939331,0.6717727184295654,-0.2007593214511871
1789998297603453200,5.704453125,0.4481880664825439,0.6513411998748779,-0.0361024662852287
1789998297613524200,5.714524169921875,0.4964810311794281,0.6192880272865295,0.1519475579261779
1789998297623595000,5.724594970703125,0.5799015760421753,0.6422021389007568,0.1396379023790359
1789998297633666000,5.734666015625,0.6271616220474243,0.610590398311615,0.3617657721042633
1789998297643737000,5.744737060546875,0.5025448799133301,0.5712493658065796,0.169633612036705
1789998297653808000,5.75480810546875,0.3570219278335571,0.7137235999107361,-0.1223260313272476
1789998297663878100,5.764878173828125,0.2462533414363861,0.7375890016555786,0.0418716929852962
1789998297673949000,5.774948974609375,0.1695562154054641,0.6310515999794006,0.2015202939510345
1789998297684020000,5.78502001953125,0.1159912496805191,0.594202995300293,0.052822969853878
1789998297694091000,5.795091064453125,0.0981564447283744,0.5847330093383789,0.0459848716855049
1789998297704162000,5.805162109375,0.157580092549324,0.5724209547042847,0.1784968376159668
1789998297714233000,5.815233154296875,0.2428066879510879,0.6137736439704895,0.0293656829744577
1789998297724304100,5.82530419921875,0.087933748960495,0.6242166757583618,-0.0189733523875474
1789998297734375000,5.835375,0.0108668552711606,0.5444303750991821,0.2010145038366317
1789998297744445200,5.845445068359375,0.1608584821224212,0.4735729992389679,0.3060016632080078
1789998297754516200,5.85551611328125,0.1301407366991043,0.5053446292877197,0.1227347552776336
1789998297764587300,5.865587158203125,0.004595867358148,0.4628661274909973,0.2571953535079956
1789998297774658300,5.875658203125,-0.0202745534479618,0.4612486660480499,0.3874759972095489
1789998297784729000,5.88572900390625,-0.0554482564330101,0.4854189753532409,0.2941026389598846
1789998297794800000,5.895800048828125,-0.0804427787661552,0.3895512223243713,0.2271561920642852
1789998297804871200,5.90587109375,-0.0191314909607172,0.3495779633522033,0.2715830206871032
1789998297814941200,5.915941162109375,-0.0509567223489284,0.4164080321788788,0.2696892619132995
1789998297825012200,5.92601220703125,-0.0961801260709762,0.3434216976165771,0.3742865025997162
1789998297835083000,5.9360830078125,-0.0411680825054645,0.2905943393707275,0.3645066022872925
1789998297845154000,5.946154052734375,-0.1805086731910705,0.2828013896942138,0.1373075395822525
1789998297855225000,5.95622509765625,-0.3461544513702392,0.1744399070739746,0.1054685711860656
1789998297865296100,5.966296142578125,-0.4608189761638641,0.1245035082101821,-0.1630491763353347
1789998297875367200,5.9763671875,-0.4822920560836792,0.1852275878190994,-0.0139675410464406
1789998297885438200,5.986438232421875,-0.3345971405506134,0.1736015528440475,0.15684175491333
1789998297895508000,5.996508056640625,-0.3826811015605926,0.0890073925256729,0.0922772139310836
1789998297905579000,6.0065791015625,-0.6242817044258118,-0.0516450591385364,0.1393986493349075
1789998297915650000,6.016650146484375,-0.54081791639328,-0.0652154833078384,0.0943204388022422
1789998297925721000,6.02672119140625,-0.5722930431365967,-0.0817936584353447,0.0036445998121052
1789998297935792000,6.036792236328125,-0.5923770666122437,-0.137220025062561,-0.0165660101920366
1789998297945863000,6.04686279296875,-0.5853928923606873,-0.2393383979797363,0.0427782721817493
1789998297955934000,6.056933837890625,-0.6103396415710449,-0.263123869895935,-0.0252442248165607
1789998297966005000,6.0670048828125,-0.597785234451294,-0.2928865551948547,0.1460036933422088
1789998297976075300,6.0770751953125,-0.6294884085655212,-0.2654828429222107,-0.0635481923818588
1789998297986146300,6.087146240234375,-0.6205694675445557,-0.2177621722221374,-0.1198647245764732
1789998297996217000,6.097217041015625,-0.4862440824508667,-0.2111595869064331,-0.0437482632696628
1789998298006288100,6.1072880859375,-0.5400159955024719,-0.2658926248550415,-0.1710976958274841
1789998298016359200,6.117359130859375,-0.6926842331886292,-0.2221996337175369,-0.2425149828195572
1789998298026430200,6.12743017578125,-0.5684658885002136,-0.1684743463993072,-0.1241294890642166
1789998298036501200,6.137501220703125,-0.4056056439876556,-0.2708221077919006,0.0862652361392974
1789998298046572300,6.147572265625,-0.4728376865386963,-0.3005824089050293,0.1560781449079513
1789998298056642000,6.15764208984375,-0.4169535636901855,-0.253696858882904,-0.0294427666813135
1789998298066713000,6.167713134765625,-0.2886568605899811,-0.1162140965461731,-0.1250800788402557
1789998298076784000,6.1777841796875,-0.2241281270980835,-0.1336464285850525,-0.0395473428070545
1789998298086855200,6.187855224609375,-0.1604058742523193,-0.1275323331356048,0.0244420301169157
1789998298096926200,6.19792626953125,-0.1581166982650756,-0.0814754143357276,-0.1520637273788452
1789998298106997000,6.2079970703125,-0.2191334366798401,-0.1085027754306793,-0.2853783965110779
1789998298117068000,6.218068115234375,-0.1796271204948425,-0.0777109563350677,-0.1149970367550849
1789998298127139000,6.22813916015625,-0.1102834641933441,0.013416551053524,-0.0034521287307143
1789998298137209000,6.238208984375,-0.0699656829237937,0.0546264760196208,-0.0187066849321126
1789998298147280100,6.248280029296875,-0.1278433501720428,0.0903756842017173,-0.0076015703380107
1789998298157351000,6.258350830078125,-0.0520591549575328,0.1119977682828903,-0.0169017631560564
1789998298167422000,6.268421875,-0.0271476805210113,0.1349893659353256,0.0659425258636474
1789998298177493000,6.278492919921875,0.0338932648301124,0.1329816430807113,0.0351235494017601
1789998298187564000,6.28856396484375,0.0886670351028442,0.1639179736375808,0.0710908696055412
1789998298197635000,6.298635009765625,0.043824765831232,0.2251511365175247,0.0046856347471475
1789998298207705000,6.308705078125,0.049684252589941,0.216014102101326,-0.0966170132160186
1789998298217776000,6.318776123046875,0.1012832596898078,0.2038997858762741,0.2053925991058349
1789998298227847200,6.32884716796875,0.1031823605298996,0.2273851335048675,0.2376762330532074
1789998298237918200,6.338918212890625,-0.004128037020564,0.228490799665451,0.1106506437063217
1789998298247989200,6.3489892578125,0.0791926905512809,0.2094867527484893,0.1262780725955963
1789998298258060300,6.359060302734375,0.1601359993219375,0.2235161811113357,0.2770017683506012
1789998298268131000,6.369131103515625,0.1403663009405136,0.1919297575950622,0.1500741839408874
1789998298278202000,6.3792021484375,0.0469034165143966,0.2098303884267807,0.0826278924942016
1789998298288272100,6.389272216796875,-0.0984101071953773,0.2078098505735397,0.012846952304244
1789998298298343200,6.39934326171875,-0.1227310374379158,0.1220201328396797,-0.090888500213623
1789998298308414200,6.409414306640625,-0.112439788877964,0.1050302311778068,-0.0076122498139739
1789998298318485000,6.419485107421875,-0.1065948009490966,0.1051623970270156,0.0231379847973585
1789998298328556000,6.42955615234375,-0.0843589976429939,0.0573344267904758,-0.0399877205491066
1789998298338627000,6.439626953125,-0.0155588965862989,0.0473201423883438,0.0443900078535079
1789998298348698000,6.449697998046875,-0.0131623176857829,0.0677228793501854,0.1624162495136261
1789998298358768000,6.45976806640625,-0.05383126065135,0.037495594471693,0.1224307566881179
1789998298368839000,6.4698388671875,-0.1451649069786071,0.0512758530676364,0.1661116629838943
1789998298378910000,6.479909912109375,-0.1989189833402633,0.0641607418656349,0.1087643727660179
1789998298388981000,6.48998095703125,-0.1509035229682922,0.0437473393976688,0.0880207493901252
1789998298399052000,6.500052001953125,-0.1857360303401947,0.0325174406170845,0.0895913541316986
1789998298409123000,6.510123046875,-0.3128276765346527,0.0028365119360387,-0.1057014465332031
1789998298419194000,6.520194091796875,-0.3371331393718719,0.0553386732935905,-0.130349725484848
1789998298429265000,6.530264892578125,-0.1834687739610672,0.0908857509493827,0.028533125296235
1789998298439335200,6.540335205078125,-0.1113803833723068,0.0420215427875518,0.1069953665137291
1789998298449406200,6.55040625,-0.1610957384109497,-0.0366564951837062,0.0114779006689786
1789998298459477200,6.560477294921875,-0.3850303590297699,-0.0063731567934155,-0.138545349240303
1789998298469548300,6.57054833984375,-0.4350296258926391,-0.0106326164677739,0.0242052227258682
1789998298479619000,6.580619140625,-0.3544688522815704,-0.0296854339540004,0.1756040006875991
1789998298489690000,6.590690185546875,-0.3798549175262451,-0.0776596218347549,0.0253441948443651
1789998298499761200,6.60076123046875,-0.4800903499126434,-0.2218804806470871,-0.104152575135231
1789998298509832200,6.610832275390625,-0.5019226670265198,-0.2295714169740677,-0.1381891071796417
1789998298519902000,6.62090185546875,-0.3529416620731354,-0.1532333195209503,0.0209912285208702
1789998298529973000,6.630972900390625,-0.3134547173976898,-0.1986306309700012,0.0732499063014984
1789998298540044000,6.6410439453125,-0.364025354385376,-0.2561911344528198,0.1516442149877548
1789998298550115000,6.651114990234375,-0.5023403763771057,-0.2416047304868698,-0.057836040854454
1789998298560188200,6.661188232421875,-0.5748876333236694,-0.2551157474517822,-0.0482248589396476
1789998298570259200,6.67125927734375,-0.515137255191803,-0.254462718963623,0.0137594165280461
1789998298580330200,6.681330322265625,-0.4243614971637726,-0.2142888307571411,-0.0611047968268394
1789998298590400000,6.69139990234375,-0.5235653519630432,-0.2554293572902679,-0.1132127419114112
1789998298600471000,6.701470947265625,-0.5547014474868774,-0.2829349935054779,-0.1426510512828827
1789998298610542000,6.7115419921875,-0.4610489308834076,-0.2147945612668991,-0.0750959813594818
1789998298620613000,6.721613037109375,-0.4239424467086792,-0.2005947083234787,-0.0333344973623752
1789998298630684200,6.73168408203125,-0.3882680535316467,-0.2448085099458694,0.112765185534954
1789998298640755000,6.7417548828125,-0.3840529918670654,-0.2792226076126098,0.1592370271682739
1789998298650826000,6.751825927734375,-0.3624334633350372,-0.3277488648891449,0.0726787000894546
1789998298660897000,6.76189697265625,-0.3088804483413696,-0.336925595998764,0.1267233937978744
1789998298670967000,6.771967041015625,-0.2932522296905517,-0.3091818392276764,0.0515133328735828
1789998298681038000,6.7820380859375,-0.3015065491199493,-0.3236408531665802,0.030619541183114
1789998298691108900,6.79210888671875,-0.276419848203659,-0.3268134891986847,-0.0235001537948846
1789998298701180000,6.802179931640625,-0.2886377274990082,-0.2945807874202728,-0.0142346881330013
1789998298711251000,6.8122509765625,-0.3321141004562378,-0.2414626777172088,-0.0687192380428314
1789998298721322000,6.822322021484375,-0.3336593210697174,-0.2540428042411804,0.1410531401634216
1789998298731393000,6.83239306640625,-0.2901302278041839,-0.2341639101505279,0.0963043123483657
1789998298741463000,6.842463134765625,-0.2421387732028961,-0.2313592582941055,0.0816201567649841
1789998298751534000,6.8525341796875,-0.1786239892244339,-0.207877367734909,-0.1076818630099296
1789998298761605000,6.862605224609375,-0.1582330763339996,-0.1621304154396057,-0.067484937608242
1789998298771676200,6.87267626953125,-0.188387781381607,-0.1576757431030273,0.0181388854980468
1789998298781747200,6.882747314453125,-0.1499586701393127,-0.1914487779140472,0.0636228248476982
1789998298791818200,6.892818359375,-0.2420228123664856,-0.2472662478685379,-0.0227698534727096
1789998298801889000,6.902888916015625,-0.2572478950023651,-0.3226428031921386,0.1532386243343353
1789998298811960000,6.9129599609375,-0.2599486112594604,-0.3886021077632904,0.3172741830348968
1789998298822030000,6.923030029296875,-0.2203977555036544,-0.4212216436862945,0.2063807994127273
1789998298832101000,6.93310107421875,-0.2081842273473739,-0.4556312561035156,0.1784024238586425
1789998298842172000,6.943171875,-0.2830040752887726,-0.4681903123855591,-0.0207846965640783
1789998298852243000,6.953242919921875,-0.2871490120887756,-0.4605835378170013,-0.0344642922282218
1789998298862314000,6.96331396484375,-0.2533445358276367,-0.435852438211441,0.0046008443459868
1789998298872385000,6.973385009765625,-0.2360329180955886,-0.4246674180030823,-0.0190570801496505
1789998298882456000,6.9834560546875,-0.2826050817966461,-0.4380275905132293,-0.0460995361208915
1789998298892525800,6.99352587890625,-0.2761496007442474,-0.3900409042835235,-0.04234154894948
1789998298902596900,7.003596923828125,-0.2630177438259125,-0.3331661820411682,0.0305135454982519
1789998298912668000,7.01366796875,-0.3109895288944244,-0.2769641876220703,-0.018662255257368
1789998298922739000,7.023739013671875,-0.2992361187934875,-0.2332112044095993,-0.0845231711864471
1789998298932810000,7.03381005859375,-0.2473476231098175,-0.2126201689243316,-0.2313208580017089
1789998298942881000,7.043881103515625,-0.2341900765895843,-0.2466428875923156,-0.0728030800819397
1789998298952951800,7.053951904296875,-0.1841719150543213,-0.2882262766361236,0.0297640450298786
1789998298963022000,7.06402197265625,-0.1448211520910263,-0.2991820871829986,-0.0093248235061764
1789998298973093000,7.074093017578125,-0.0509378127753734,-0.2945590913295746,-0.0539194531738758
1789998298983164200,7.0841640625,0.0076317563652992,-0.2729523777961731,0.2419310808181762
1789998298993235200,7.094235107421875,-0.0266111679375171,-0.2691802680492401,0.1678720414638519
1789998299003306000,7.104305908203125,-0.0672346502542495,-0.2493231445550918,0.0073380642570555
1789998299013377000,7.114376953125,-0.0641328617930412,-0.2242606729269027,-0.1163255497813224
1789998299023448000,7.124447998046875,-0.0078547494485974,-0.2233034670352935,-0.0321713462471962
1789998299033519000,7.13451904296875,0.0291932839900255,-0.2416891306638717,-0.0780996829271316
1789998299043589000,7.144589111328125,0.1302563250064849,-0.2132937163114547,-0.0708781480789184
1789998299053660000,7.154659912109375,0.1577920764684677,-0.1603522151708603,0.1207794398069381
1789998299063731000,7.16473095703125,0.1873252391815185,-0.1468814015388488,0.0538596324622631
1789998299073802000,7.174802001953125,0.2041108757257461,-0.0985724478960037,0.0002507327590137
1789998299083873000,7.184873046875,0.2185199111700058,-0.0591531358659267,-0.0929180979728698
1789998299093944000,7.194944091796875,0.2067721784114837,-0.0801721364259719,0.0241336952894926
1789998299104015000,7.20501513671875,0.2009911686182022,-0.0643547102808952,0.1332141011953354
1789998299114084900,7.2150849609375,0.2055885940790176,-0.0404304638504982,0.0287683755159378
1789998299124156000,7.225156005859375,0.2762238979339599,-0.0140323378145694,-0.0228648465126752
1789998299134227000,7.23522705078125,0.3027511239051819,-0.0149220991879701,0.1056116372346878
1789998299144298000,7.245298095703125,0.2548620998859405,0.0042992183007299,0.053409744054079
1789998299154369000,7.255369140625,0.2058050632476806,0.0433558039367198,0.0682581961154937
1789998299164439800,7.265439697265625,0.2207431197166443,0.0388820841908454,0.0549334175884723
1789998299174510800,7.2755107421875,0.2204469740390777,-0.0023947823792696,0.0508430674672126
1789998299184581000,7.2855810546875,0.2797451019287109,-0.0092029850929975,-0.0312019735574722
1789998299194652200,7.295652099609375,0.2522503733634949,0.0155481686815619,0.1571434289216995
1789998299204723200,7.30572314453125,0.234042078256607,0.0380386114120483,0.034205574542284
1789998299214794000,7.3157939453125,0.1684614568948745,0.0399491637945175,-0.024868132546544
1789998299224865000,7.325864990234375,0.1488322913646698,0.0392271317541599,-0.0977124720811843
1789998299234936000,7.33593603515625,0.101413644850254,0.0691655874252319,-0.0377743057906627
1789998299245007000,7.346007080078125,-0.0392340943217277,0.0782188549637794,-0.1373296529054641
1789998299255078100,7.356078125,-0.0005269132670946,0.0834461078047752,-0.1975589096546173
1789998299265148000,7.36614794921875,0.066794067621231,0.0846455469727516,0.0351890735328197
1789998299275219000,7.376218994140625,0.1547217965126037,0.1245884299278259,0.1253293603658676
1789998299285290000,7.3862900390625,0.0957353264093399,0.1002603396773338,0.1557532250881195
1789998299295361000,7.396361083984375,-0.0016452878480777,0.0351961217820644,-0.0115454904735088
1789998299305432000,7.40643212890625,-0.0406874530017375,-0.0136216320097446,0.1753998100757599
1789998299315503000,7.416503173828125,-0.0179879963397979,-0.00479431822896,0.1400290429592132
1789998299325574000,7.426573974609375,0.0202778931707143,-0.0631866753101348,0.2061221748590469
1789998299335644000,7.436643798828125,-0.0030034598894417,-0.0939379259943962,0.1102864518761634
1789998299345715000,7.44671484375,-0.0089702755212783,-0.1043550372123718,0.0531252585351467
1789998299355786000,7.456785888671875,-0.0298020541667938,-0.1451030075550079,0.0209598653018474
1789998299365857000,7.46685693359375,-0.0240762196481227,-0.1749015748500824,0.0179271977394819
1789998299375927800,7.476927734375,-0.1332533061504364,-0.162897914648056,-0.0698205009102821
1789998299385998800,7.486998779296875,-0.1222288459539413,-0.1443237662315368,-0.1711867898702621
1789998299396070000,7.49706982421875,-0.0902605280280113,-0.1806373000144958,-0.0901385322213172
1789998299406140200,7.50714013671875,-0.1108729764819145,-0.1898406744003296,0.0298153050243854
1789998299416211200,7.517211181640625,-0.134659007191658,-0.171536773443222,0.0087052267044782
1789998299426282000,7.527281982421875,-0.2138634920120239,-0.1866874694824218,-0.0339968614280223
1789998299436353000,7.53735302734375,-0.2506662607192993,-0.2165556102991104,0.073402039706707
1789998299446424000,7.547424072265625,-0.2788855135440826,-0.2095607966184616,0.0943824052810669
1789998299456495000,7.5574951171875,-0.277992844581604,-0.2483747750520706,-0.0614199712872505
1789998299466566100,7.567566162109375,-0.3474502861499786,-0.3316926658153534,-0.1980957835912704
1789998299476636000,7.577635986328125,-0.3852711617946625,-0.2906240820884704,-0.0784937515854835
1789998299486707000,7.58770703125,-0.2682733237743377,-0.2959454655647278,-0.0386418588459491
1789998299496778000,7.597778076171875,-0.1956358700990677,-0.3246501088142395,0.0212925802916288
1789998299506849000,7.60784912109375,-0.2851525545120239,-0.3190448880195617,0.1438609063625335
1789998299516920000,7.617920166015625,-0.3483909070491791,-0.3916647732257843,-0.0058686789125204
1789998299526991000,7.6279912109375,-0.3161801695823669,-0.4028085768222809,0.0583445094525814
1789998299537062000,7.638061767578125,-0.3421718180179596,-0.4018996357917785,-0.0343018025159835
1789998299547132000,7.6481318359375,-0.3091205656528473,-0.4153182506561279,-0.0591478534042835
1789998299557203000,7.658202880859375,-0.3014354705810547,-0.4432404339313507,-0.0132887549698352
1789998299567271700,7.668271728515625,-0.2509559690952301,-0.4884427189826965,0.0055016875267028
1789998299577342700,7.6783427734375,-0.2246663123369217,-0.4781498610973358,0.1106685847043991
1789998299587413800,7.688413818359375,-0.2901731431484222,-0.4517015814781189,-0.0166806634515523
1789998299597484800,7.69848486328125,-0.351534754037857,-0.4695647358894348,-0.2126661539077758
1789998299607555600,7.7085556640625,-0.3684723675251007,-0.4505320191383362,-0.1759881675243377
1789998299617625600,7.71862548828125,-0.3424708843231201,-0.418820708990097,-0.0639338046312332
1789998299627696600,7.728696533203125,-0.2770515382289886,-0.4461864233016968,0.0411458276212215
1789998299637767700,7.738767578125,-0.2784891128540039,-0.4641177654266357,0.2617836594581604
1789998299647838700,7.748838623046875,-0.3152012526988983,-0.4145587384700775,0.0096995458006858
1789998299657909500,7.758909423828125,-0.234788179397583,-0.3867926001548767,-0.1682637929916381
1789998299667980500,7.76898046875,-0.1833064407110214,-0.3724623322486877,-0.0791907534003257
1789998299678051600,7.779051513671875,-0.1401504427194595,-0.3660867214202881,0.0999710112810134
1789998299688121900,7.789121826171875,-0.0495538040995597,-0.3592547178268432,0.0306151434779167
1789998299698193000,7.79919287109375,-0.0800813511013984,-0.3388514220714569,-0.0021878089755773
1789998299708263700,7.809263671875,-0.1382474899291992,-0.358246773481369,0.0301819592714309
1789998299718334700,7.819334716796875,-0.1224725246429443,-0.3326567113399505,0.0100647052749991
1789998299728405800,7.82940576171875,-0.0606243759393692,-0.2949644327163696,-0.0184055920690298
1789998299738476800,7.839476806640625,-0.0380045510828495,-0.245659738779068,-0.0228464137762784
1789998299748547800,7.8495478515625,-0.0239758938550949,-0.2634377181529999,0.0862702801823616
1789998299758619000,7.859618896484375,-0.0611656047403812,-0.2636361122131347,-0.0776486098766326
1789998299768688600,7.869688720703125,-0.0375944599509239,-0.2699615955352783,-0.0052110175602138
1789998299778759700,7.879759765625,0.0339345820248127,-0.3107292652130127,0.0295914374291896
1789998299788830700,7.889830810546875,0.0897872298955917,-0.284269779920578,0.028811665251851
1789998299798901800,7.89990185546875,0.1018367037177085,-0.2689488530158996,-0.1054814308881759
1789998299808972800,7.909972900390625,0.1300842016935348,-0.2865926027297973,-0.2356042563915252
1789998299819043600,7.920043701171875,0.1372017711400985,-0.2805805206298828,-0.1130820661783218
1789998299829114600,7.930114501953125,0.1537113487720489,-0.2588893175125122,0.0125778345391154
1789998299839184600,7.9401845703125,0.1234117746353149,-0.2763189077377319,0.2323253750801086
1789998299849255700,7.950255615234375,0.0932924523949623,-0.2753918170928955,0.1178080737590789
1789998299859326700,7.96032666015625,0.1192548051476478,-0.2327223867177963,0.0893913507461547
1789998299869397800,7.970397705078125,0.1273191273212433,-0.1976198554039001,0.0608504600822925
1789998299879468800,7.98046875,0.1853270381689071,-0.2023986279964447,-0.0134967407211661
1789998299889539800,7.990539794921875,0.2270462960004806,-0.2321165055036544,0.0409575998783111
1789998299899611000,8.00061083984375,0.2939521074295044,-0.230567067861557,0.0483840927481651
1789998299909681000,8.010680908203126,0.2737123072147369,-0.2081730365753173,0.0287188217043876
1789998299919751700,8.020751708984376,0.2660629153251648,-0.1809877455234527,-0.0482507944107055
1789998299929822700,8.03082275390625,0.3310927152633667,-0.1700712293386459,0.0998889356851577
1789998299939893800,8.040893798828124,0.2981299757957458,-0.0898230001330375,-0.1113149225711822
1789998299949964800,8.05096484375,0.2793786227703094,-0.0709844529628753,0.0306327082216739
1789998299960035800,8.061035888671874,0.2883169949054718,-0.1052641347050666,0.1676954925060272
1789998299970107000,8.07110693359375,0.321657121181488,-0.045433934777975,0.1558355093002319
1789998299980176600,8.0811767578125,0.3792881965637207,-0.0069912034086883,0.0988446623086929
1789998299990247700,8.09124755859375,0.4401691854000091,0.0652872994542121,-0.0473744161427021
1789998300000318700,8.101318603515624,0.4550458788871765,0.127833753824234,-0.0705953165888786
1789998300010389800,8.1113896484375,0.5019188523292542,0.1497973054647445,0.019430810585618
1789998300020460800,8.121460693359374,0.5495425462722778,0.1326036751270294,0.1603453159332275
1789998300030531600,8.131531494140624,0.5543336272239685,0.1496199667453766,0.1016199812293052
1789998300040602600,8.1416025390625,0.5796691179275513,0.1988572925329208,0.0527427196502685
1789998300050673000,8.1516728515625,0.5927264094352722,0.299859881401062,-0.0913869962096214
1789998300060744000,8.161743896484374,0.5219635367393494,0.2450075447559356,0.038098819553852
1789998300070814700,8.171814697265624,0.4296846985816955,0.1770218014717102,0.2196258157491684
1789998300080885800,8.1818857421875,0.3742906749248504,0.2513966858386993,0.2060468792915344
1789998300090956800,8.191956787109374,0.4257663488388061,0.320652961730957,-0.0513669028878212
1789998300101027800,8.20202783203125,0.47038733959198,0.2916735112667084,-0.1817989498376846
1789998300111099000,8.212098876953124,0.4070184528827667,0.1366109848022461,-0.156966358423233
1789998300121168600,8.222168701171874,0.377487450838089,0.1291948854923248,0.0189839042723178
1789998300131239700,8.23223974609375,0.3546445369720459,0.1302542239427566,0.0114666894078254
1789998300141310700,8.242310791015624,0.280292809009552,0.1013844907283783,-0.0622240453958511
1789998300151381800,8.2523818359375,0.1614289283752441,0.0906220823526382,-0.1123585104942321
1789998300161452800,8.262452880859374,0.0993775427341461,0.0700257271528244,-0.220519334077835
1789998300171523800,8.27252392578125,0.1601227223873138,0.0371531546115875,0.0587783902883529
1789998300181595000,8.282594970703125,0.1749916821718216,-0.0003681215457618,0.1070766821503639
1789998300191664600,8.29266455078125,0.1127889975905418,-0.0450896546244621,-0.0620944425463676
1789998300201735700,8.302735595703124,0.0694809406995773,-0.0461554490029811,-0.1603704243898391
1789998300211806700,8.312806640625,0.0042748819105327,-0.0372464656829834,-0.0649950206279754
1789998300221877800,8.322877685546874,0.0429988391697406,-0.095570757985115,-0.0669074356555938
1789998300231948500,8.332948486328124,0.1269911080598831,-0.1397095769643783,0.0046180668286979
1789998300242019600,8.34301953125,0.0536913201212883,-0.1320274323225021,0.0240066796541214
1789998300252090600,8.353090576171875,0.023331819102168,-0.1149859130382537,-0.0646028742194175
1789998300262161000,8.363160888671874,-0.0444799847900867,-0.120955653488636,-0.0435644350945949
1789998300272232000,8.37323193359375,-0.0943804308772087,-0.0945680513978004,0.0956069678068161
1789998300282302700,8.383302734375,-0.0678257867693901,-0.1259595155715942,0.1784480512142181
1789998300292373800,8.393373779296875,-0.0305970814079046,-0.1219174116849899,-0.0447259619832038
1789998300302444800,8.40344482421875,-0.0272886361926794,-0.0694664493203163,-0.0983644276857376
1789998300312515800,8.413515869140625,-0.0340252518653869,-0.0635901242494583,-0.1414823085069656
1789998300322587000,8.4235869140625,0.0371463969349861,-0.031235909089446,-0.1116735488176345
1789998300332656600,8.43365673828125,0.0178257320076227,-0.0055264746770262,-0.0636912137269973
1789998300342727700,8.443727783203125,0.0846857205033302,0.0105323866009712,0.0286107510328292
1789998300352798700,8.453798828125,0.1538011729717254,0.0174906030297279,0.0041320067830383
1789998300362869800,8.463869873046875,0.1835604012012481,0.0829718708992004,0.0002190240193158
1789998300372940800,8.47394091796875,0.1812095642089843,0.0890278592705726,0.0138582168146967
1789998300383011800,8.48401171875,0.2330770194530487,0.0536035560071468,0.0372133404016494
1789998300393081600,8.49408154296875,0.3126392662525177,0.0387751534581184,0.0591009594500064
1789998300403152600,8.504152587890625,0.3436405658721924,0.0595858916640281,0.0233874358236789
1789998300413223700,8.5142236328125,0.4024020433425903,0.0804599449038505,0.1040316522121429
1789998300423294700,8.524294677734375,0.3406375050544739,0.1584421098232269,-0.0482910387217998
1789998300433365800,8.53436572265625,0.2706410884857178,0.1873195618391037,-0.1684291660785675
1789998300443436500,8.5444365234375,0.1719829589128494,0.1405794769525528,-0.1456578075885772
1789998300453507600,8.554507568359375,0.1898535043001175,0.1839486360549926,-0.1587246507406234
1789998300463577900,8.564577880859375,0.2580008506774902,0.1845355927944183,0.0062081064097583
1789998300473649000,8.57464892578125,0.3475798964500427,0.2002194225788116,0.0815766081213951
1789998300483720000,8.584719970703125,0.2989945113658905,0.2247955948114395,-0.0391775071620941
1789998300493790700,8.594790771484375,0.2720212340354919,0.2049804031848907,-0.0144020617008209
1789998300503861800,8.60486181640625,0.3172430396080017,0.1621186882257461,0.1709635406732559
1789998300513932800,8.614932861328125,0.2885336279869079,0.2103221714496612,-0.0066650467924773
1789998300524003800,8.62500390625,0.2761437892913818,0.2032347023487091,-0.1080792844295501
1789998300534073900,8.635073974609375,0.3153956532478332,0.227541983127594,-0.1650942116975784
1789998300544144600,8.64514453125,0.2562556266784668,0.2795926630496979,-0.1569795608520507
1789998300554215700,8.655215576171875,0.1646579802036285,0.203287735581398,-0.1663312017917633
1789998300564287200,8.665287353515625,0.2299104779958725,0.1786223351955413,-0.0520501621067523
1789998300574358300,8.675358154296875,0.242836132645607,0.2028793096542358,0.1401651799678802
1789998300584429000,8.685428955078125,0.2642812430858612,0.1934868693351745,-0.0495136603713035
1789998300594500000,8.6955,0.1523521095514297,0.1857670992612838,-0.0345801524817943
1789998300604570000,8.705570068359375,0.0511940717697143,0.2325412631034851,-0.042509451508522
1789998300614641200,8.71564111328125,0.0192874707281589,0.2022960186004638,0.0289030447602272
1789998300624712000,8.7257119140625,0.0504927933216095,0.1801579594612121,-0.0073167430236935
1789998300634783000,8.735782958984375,0.0651745647192001,0.1735154241323471,0.1132970452308654
1789998300644854000,8.74585400390625,0.0631990358233451,0.1707292199134826,-0.0392312444746494
1789998300654925000,8.755925048828125,0.0636419132351875,0.1703960597515106,-0.06303671002388
1789998300664996000,8.76599609375,-0.0083593064919114,0.1628755629062652,-0.0563266091048717
1789998300675066000,8.776066162109375,0.0164413880556821,0.2076593786478042,-0.1505097597837448
1789998300685137200,8.78613720703125,-0.0541100092232227,0.197216585278511,-0.1069356575608253
1789998300695208200,8.796208251953125,-0.0228463653475046,0.1903702020645141,-0.008381575345993
1789998300705279200,8.806279296875,-0.1128316521644592,0.1623542755842209,0.0336740016937255
1789998300715350300,8.816350341796875,-0.1848005503416061,0.1194810792803764,-0.0084673911333084
1789998300725421300,8.82642138671875,-0.17554871737957,0.0891878828406333,0.0106032388284802
1789998300735492000,8.8364921875,-0.1540958136320114,0.100316897034645,-0.0206068083643913
1789998300745562000,8.84656201171875,-0.0623786710202693,0.0824340432882309,0.1258593201637268
1789998300755633200,8.856633056640625,-0.0306636560708284,0.0178030934184789,0.2368030548095703
1789998300765704200,8.8667041015625,-0.0341438762843608,0.0115073807537555,-0.0974771752953529
1789998300775775200,8.876775146484375,-0.0258566942065954,0.0400645472109317,-0.062852069735527
1789998300785846000,8.886845947265625,0.0183539111167192,0.0417660400271415,0.1759964525699615
1789998300795917000,8.8969169921875,-0.0433211624622345,0.0145238619297742,0.2280333638191223
1789998300805987000,8.906987060546875,-0.1604501754045486,-0.0664418265223503,-0.0128476833924651
1789998300816058000,8.91705810546875,-0.1643242537975311,-0.1257114112377166,0.1217484474182128
1789998300826129200,8.927129150390625,-0.1771849244832992,-0.0999905914068222,0.1451326012611389
1789998300836200000,8.937199951171875,-0.1391314715147018,-0.1536363214254379,-0.0607257224619388
1789998300846271000,8.94727099609375,-0.0917338505387306,-0.1787288933992386,-0.0166373550891876
1789998300856342000,8.957342041015625,-0.0433358885347843,-0.1551523059606552,0.0852470099925994
1789998300866413000,8.9674130859375,-0.0564066842198371,-0.1564415395259857,-0.0026988282334059
1789998300876483300,8.9774833984375,-0.0946093127131462,-0.1705228090286255,-0.0077894777059555
1789998300886554000,8.98755419921875,-0.0417745932936668,-0.1252466589212417,0.038935150951147
1789998300896625200,8.997625244140625,-0.0583065785467624,-0.1084825918078422,0.0325464308261871
1789998300906696200,9.0076962890625,-0.1290220320224762,-0.1290238201618194,0.0559265874326229
1789998300916767200,9.017767333984375,-0.1337221264839172,-0.0824838280677795,0.0583267956972122
1789998300926838300,9.02783837890625,-0.0978858396410942,-0.0116458758711814,-0.0320920497179031
1789998300936909300,9.037909423828124,-0.0457394681870937,0.0157972425222396,-0.0879340916872024
1789998300946979000,9.04797900390625,0.0853972434997558,-0.0088396603241562,0.304801195859909
1789998300957050000,9.058050048828123,0.0654068738222122,0.0108565147966146,0.2799277603626251
1789998300967121200,9.06812109375,0.0057677752338349,0.0232993364334106,-0.0303874891251325
1789998300977192200,9.078192138671875,-0.0696679353713989,0.0149227976799011,-0.1342315822839737
1789998300987263200,9.08826318359375,-0.0204154346138238,0.1185234934091568,-0.0558377094566822
1789998300997334000,9.098333984375,0.1338444203138351,0.0939442440867424,-0.0052490648813545
1789998301007405000,9.108405029296875,0.1122549623250961,0.0598722919821739,-0.0346532948315143
1789998301017475000,9.11847509765625,-0.0361705757677555,0.0956224501132965,-0.0554271042346954
1789998301027546000,9.128546142578124,-0.0253259167075157,0.1177924647927284,-0.1139681786298751
1789998301037617200,9.1386171875,0.074049636721611,0.2085166871547699,0.0974216610193252
1789998301047688000,9.14868798828125,0.0978023707866668,0.2039160728454589,0.4541126787662506
1789998301057759000,9.158759033203124,0.0513491854071617,0.0485508851706981,0.4741210639476776
1789998301067830000,9.168830078125,0.0240768212825059,0.0254343803972005,0.1581093072891235
1789998301077900300,9.178900390625,0.0974083691835403,0.167125791311264,-0.1928945928812027
1789998301087971300,9.188971435546875,0.1589132845401764,0.0914770886301994,0.1700868010520935
1789998301098042000,9.1990419921875,0.1117246448993682,-0.0132552245631814,0.242573857307434
1789998301108113200,9.209113037109375,0.0488029383122921,0.0230604391545057,0.2073844522237777
1789998301118184200,9.21918408203125,-0.0203823372721672,0.0190294906497001,-0.1551477909088134
1789998301128255200,9.229255126953126,-0.0991019159555435,0.0233006682246923,-0.1368305683135986
1789998301138326300,9.239326171875,-0.0810664892196655,0.1284082531929016,-0.179753303527832
1789998301148396000,9.24939599609375,-0.0228409953415393,0.135513573884964,-0.1615247726440429
1789998301158467000,9.259467041015624,0.0568690113723278,0.0849774181842804,0.0483024902641773
1789998301168538000,9.2695380859375,0.0967242792248725,0.0545412190258502,0.0202173292636871
1789998301178609200,9.279609130859376,0.0856110230088234,0.1126260682940483,-0.2776812314987182
1789998301188680200,9.28968017578125,0.0205798223614692,0.0987675115466117,-0.2851719260215759
1789998301198751200,9.299751220703126,0.0244328435510396,0.1167795062065124,-0.2033519893884658
1789998301208822000,9.309822021484376,0.0461045801639556,0.125797763466835,-0.0019488257821649
1789998301218892000,9.31989208984375,0.0215189661830663,0.047613363713026,0.2251159250736236
1789998301228963000,9.329963134765626,0.0390012860298156,0.0300956256687641,0.0387548431754112
1789998301239034000,9.3400341796875,-0.0337908491492271,0.1345854550600052,-0.2618002593517303
1789998301249105200,9.350105224609376,0.0134115498512983,0.1151987090706825,0.0817701667547226
1789998301259176000,9.360176025390626,0.1449409425258636,0.0620598532259464,0.4200810194015503
1789998301269247000,9.3702470703125,0.1067011356353759,0.0964420661330223,0.1176641657948494
1789998301279318000,9.380318115234376,0.0959038808941841,0.0697250217199325,-0.0341811962425708
1789998301289388300,9.39038818359375,-0.0037526721134781,0.0277509447187185,-0.2106534391641616
1789998301299459300,9.400459228515626,-0.0067580631002783,0.0893813073635101,-0.4700386226177215
1789998301309530000,9.410530029296876,0.0471501760184764,0.0833436548709869,-0.220420241355896
1789998301319601200,9.42060107421875,0.0582192279398441,0.1063121184706687,-0.1335774213075637
1789998301329672200,9.430672119140626,0.0118029937148094,0.134264126420021,-0.2289175242185592
1789998301339743200,9.4407431640625,-0.0702079012989997,0.161648541688919,-0.2079861015081405
1789998301349813200,9.450813232421876,-0.1210745424032211,0.1553834527730941,0.0006339534884318
1789998301359884000,9.460884033203126,-0.1559436917304992,0.1349617391824722,-0.0222641751170158
1789998301369955000,9.470955078125,-0.1772551089525222,0.1209058463573455,-0.0100226905196905
1789998301380026000,9.481026123046876,-0.150903508067131,0.0365327782928943,0.2082504332065582
1789998301390097200,9.49109716796875,-0.1398495286703109,-0.0310883410274982,0.3483790457248688
1789998301400168200,9.501168212890626,-0.1726324260234832,0.0143633969128131,0.1266344040632248
1789998301410239200,9.5112392578125,-0.1371439397335052,0.0010047145187854,0.0625912323594093
1789998301420309000,9.52130908203125,-0.1595714092254638,-0.09738440066576,0.2352694571018219
1789998301430380000,9.531380126953126,-0.1534370929002761,-0.0903384760022163,0.4041897654533386
1789998301440451000,9.541451171875,-0.1390548944473266,-0.0926248505711555,0.3783798515796661
1789998301450522000,9.551522216796876,-0.151669755578041,-0.0792224928736686,0.1085095107555389
1789998301460593200,9.56159326171875,-0.1837043315172195,-0.0880911722779274,-0.0574624650180339
1789998301470664000,9.571663818359376,-0.2863369584083557,-0.1022522673010826,-0.0080768056213855
1789998301480734200,9.581734130859376,-0.3108338415622711,-0.1032218188047409,0.0758534297347068
1789998301490805200,9.59180517578125,-0.2452833503484726,-0.1191408634185791,0.0315884947776794
1789998301500876300,9.601876220703126,-0.2568516433238983,-0.1422517299652099,-0.1736903488636016
1789998301510947000,9.611947021484376,-0.2391770333051681,-0.163199096918106,-0.2559205293655395
1789998301521018000,9.62201806640625,-0.1938273459672927,-0.1860623806715011,0.0324790552258491
1789998301531089200,9.632089111328124,-0.1266062408685684,-0.200432538986206,-0.0141033604741096
1789998301541160200,9.64216015625,-0.0930090919137001,-0.2363230139017105,0.1132228970527648
1789998301551230200,9.652230224609376,-0.0574753321707248,-0.267354667186737,0.2213352471590042
1789998301561300700,9.66230078125,-0.045351255685091,-0.2363943010568618,0.1317786425352096
1789998301571371800,9.672371826171876,-0.0766950622200965,-0.2034462094306945,0.1396450847387313
1789998301581442800,9.68244287109375,-0.0595771297812461,-0.2428420335054397,0.0612529143691062
1789998301591513900,9.692513916015624,-0.0413640365004539,-0.2445842772722244,0.0105655007064342
1789998301601585000,9.7025849609375,-0.0429345108568668,-0.2023666501045227,-0.0446584373712539
1789998301611654700,9.712654541015626,0.0477176271378994,-0.2054942697286605,0.088036760687828
1789998301621725700,9.7227255859375,0.0802107006311416,-0.1656458675861358,0.0024052206426858
1789998301631796700,9.732796630859376,0.1019879058003425,-0.1112864837050437,0.0062734624370932
1789998301641867800,9.74286767578125,0.1949784457683563,-0.0936827957630157,0.051365565508604
1789998301651938800,9.752938720703124,0.1651281416416168,-0.0321057140827178,-0.0486214868724346
1789998301662009900,9.763009765625,0.1481520533561706,0.0216898526996374,-0.3256611824035644
1789998301672080600,9.77308056640625,0.2035034596920013,0.0734587758779525,-0.3366366028785705
1789998301682151000,9.78315087890625,0.2359590232372284,0.1246367618441581,-0.111463114619255
1789998301692222000,9.793221923828124,0.2219087183475494,0.170009046792984,-0.1498083770275116
1789998301702293000,9.80329296875,0.2633990049362182,0.1746632754802703,-0.1078970283269882
1789998301712364000,9.813364013671874,0.2453845888376236,0.2291395664215088,-0.098721370100975
1789998301722434800,9.823434814453124,0.3081928193569183,0.2928190231323242,-0.2843905985355377
1789998301732505900,9.833505859375,0.4015720188617706,0.3222810328006744,-0.0797117576003074
1789998301742577000,9.843576904296874,0.4766106307506561,0.3624202013015747,0.1354560405015945
1789998301752647000,9.85364697265625,0.448526531457901,0.3982684910297394,0.1811510920524597
1789998301762718000,9.863718017578124,0.380794882774353,0.3505828380584717,0.1888568103313446
1789998301772788700,9.873788818359374,0.3098860681056976,0.3584769964218139,0.1608816385269165
1789998301782859800,9.88385986328125,0.277281105518341,0.4317940473556518,0.1502661406993866
1789998301792930800,9.893930908203124,0.2581018209457397,0.467314749956131,0.1448034644126892
1789998301803001900,9.904001953125,0.1875141412019729,0.4164284169673919,0.1045488938689231
1789998301813072000,9.91407177734375,0.1092699393630027,0.4117489755153656,0.0172576624900102
1789998301823142700,9.924142578125,0.1384174227714538,0.4455641806125641,-0.0528716258704662
1789998301833213700,9.934213623046874,0.1589442789554596,0.426919937133789,-0.0224937442690134
1789998301843284700,9.94428466796875,0.1801107078790664,0.4351077377796173,0.0163878574967384
1789998301853355800,9.954355712890624,0.0870129913091659,0.3857572376728058,0.0447039194405078
1789998301863426800,9.9644267578125,0.0230015888810157,0.3199303448200226,-0.097575269639492
1789998301873496800,9.974496826171874,-0.0224737506359815,0.3190690577030182,-0.1115619242191314
1789998301883567900,9.98456787109375,-0.1006057932972908,0.2775709331035614,0.0643010735511779
1789998301893639000,9.994638916015624,-0.101309135556221,0.1703722923994064,0.1152907535433769
1789998301903710000,10.0047099609375,-0.1462252885103225,0.0762715265154838,0.130790889263153
1789998301913781000,10.014781005859374,-0.2799229025840759,0.0431444644927978,-0.0123614780604839
1789998301923852000,10.02485205078125,-0.3905439078807831,-0.0604064054787159,-0.1472286581993103
1789998301933922800,10.0349228515625,-0.4420047104358673,-0.1933609843254089,-0.0600855015218257
1789998301943992800,10.044992919921874,-0.2737390995025635,-0.1470534056425094,0.1612065583467483
1789998301954064000,10.05506396484375,-0.2843206226825714,-0.2850498855113983,0.272840142250061
1789998301964135000,10.065135009765624,-0.4062653183937073,-0.4314397871494293,0.2121275514364242
1789998301974206000,10.0752060546875,-0.4216104447841644,-0.4435177445411682,0.1743676513433456
1789998301984276700,10.08527685546875,-0.5075619220733643,-0.4724681377410888,-0.0104204779490828
1789998301994347800,10.09534765625,-0.5443257689476013,-0.4943673014640808,-0.0590804256498813
1789998302004417800,10.105417724609374,-0.4800127446651459,-0.4416956603527069,-0.1102350354194641
1789998302014488800,10.11548876953125,-0.431439608335495,-0.4336995184421539,-0.1794865578413009
1789998302024559900,10.125559814453124,-0.5315757989883423,-0.4627087414264679,-0.0749080330133438
1789998302034630700,10.135630615234374,-0.5913195610046387,-0.4418559074401855,-0.0111626097932457
1789998302044701700,10.14570166015625,-0.5204978585243225,-0.4311097860336303,-0.1379731148481369
1789998302054772700,10.155772705078125,-0.4595237076282501,-0.4135297238826751,-0.1076442375779151
1789998302064843800,10.16584375,-0.3945178091526031,-0.4127054810523987,0.0711774453520774
1789998302074913800,10.175913818359374,-0.3162938356399536,-0.4372286796569824,0.3290569484233856
1789998302084984800,10.18598486328125,-0.3151964843273163,-0.4979434311389923,0.2940674126148224
1789998302095056000,10.196055908203125,-0.3163736164569855,-0.4329822659492492,0.0857714861631393
1789998302105127000,10.206126953125,-0.2650847733020782,-0.3559079468250274,-0.0582398474216461
1789998302115198000,10.216197998046876,-0.2134892344474792,-0.3731106221675873,0.0383836328983306
1789998302125269000,10.22626904296875,-0.1864330470561981,-0.3214982151985168,-0.1085072755813598
1789998302135338800,10.2363388671875,-0.0941100344061851,-0.2907839715480804,0.0333438701927661
1789998302145409800,10.246409912109376,0.0301214009523391,-0.2322608679533004,-0.0484090484678745
1789998302155480800,10.256480712890625,0.0197302773594856,-0.138318121433258,-0.0277663543820381
1789998302165551900,10.2665517578125,0.0161765720695257,-0.1088837236166,-0.0084347547963261
1789998302175623000,10.276622802734376,0.1069695875048637,-0.0637093260884285,-0.0321555286645889
1789998302185693700,10.286693603515625,0.1497309952974319,-0.0032556201331317,-0.0066541279666125
1789998302195763700,10.296763671875,0.2439954578876495,-0.0073869819752871,-0.0285775363445281
1789998302205834800,10.306834716796876,0.3037837147712707,0.0681887045502662,-0.125485673546791
1789998302215905800,10.31690576171875,0.2716236412525177,0.1151346415281295,-0.0846937596797943
1789998302225976800,10.326976806640625,0.2973347902297973,0.0599054396152496,-0.1350699067115783
1789998302236048000,10.3370478515625,0.3198627233505249,0.0920681655406951,-0.1927169561386108
1789998302246118700,10.34711865234375,0.3015674352645874,0.1177920922636985,0.0599474310874938
1789998302256189700,10.357189697265625,0.3540681898593902,0.0726810693740844,0.2101103067398071
1789998302266260000,10.367260009765625,0.3423295319080353,0.108634814620018,-0.0438106581568717
1789998302276331000,10.3773310546875,0.2908271849155426,0.1275597810745239,-0.077002964913845
1789998302286401800,10.38740185546875,0.3748939335346222,0.0671153739094734,0.1355129331350326
1789998302296472800,10.397472900390625,0.3211824893951416,0.0877745822072029,0.0299119465053081
1789998302306543900,10.4075439453125,0.2310784012079239,0.0970215275883674,-0.0911637917160987
1789998302316615000,10.417614990234377,0.2193929851055145,0.0484332144260406,-0.0469768866896629
1789998302326685000,10.427684814453125,0.2365996241569519,0.0657246261835098,-0.2362048625946045
1789998302336755700,10.437755615234376,0.2373980432748794,0.0701872855424881,-0.2555266320705414
1789998302346826800,10.44782666015625,0.2714686393737793,0.0552999302744865,-0.2122234553098678
1789998302356897800,10.457897705078125,0.2689756453037262,0.0902368798851966,-0.2688976526260376
1789998302366968800,10.46796875,0.232894942164421,0.0980735346674919,-0.0180058665573596
1789998302377040000,10.478039794921877,0.2830545008182525,0.1028666943311691,0.2443740963935852
1789998302387109600,10.488109619140625,0.2208407819271087,0.1165278255939483,0.2820529341697693
1789998302397180700,10.4981806640625,0.1029631569981575,0.1550696343183517,-0.0169383026659488
1789998302407251700,10.508251708984377,0.0880041494965553,0.1397773474454879,0.0053955079056322
1789998302417322800,10.51832275390625,0.0416076183319091,0.1199719458818435,-0.0165492054075002
1789998302427393800,10.528393798828125,-0.0029689040966331,0.1006717532873153,-0.1303769797086715
1789998302437464800,10.53846484375,0.0375660061836242,0.0562646090984344,0.0385401435196399
1789998302447535900,10.548535888671877,0.1479750424623489,0.0611139386892318,0.1401164680719375
1789998302457606000,10.55860595703125,0.1995351612567901,0.0848813205957412,0.0771529600024223
1789998302467677000,10.568677001953125,0.1888937801122665,0.1160765662789344,-0.0159592274576425
1789998302477748000,10.578748046875,0.194273367524147,0.1785572618246078,-0.0184556748718023
1789998302487819000,10.588819091796877,0.1595636159181594,0.1729228943586349,0.0640170127153396
1789998302497889800,10.598889892578123,0.2005720436573028,0.1233177930116653,0.055125780403614
1789998302507960800,10.6089609375,0.2633975744247436,0.1810793876647949,0.0336673483252525
1789998302518030800,10.61903076171875,0.239477589726448,0.1940106302499771,-0.0174134112894535
1789998302528102000,10.629101806640625,0.2479902654886245,0.1585635095834732,-0.0207435972988605
1789998302538173000,10.6391728515625,0.106329545378685,0.1761965602636337,-0.0885617956519126
1789998302548243700,10.64924365234375,0.0337516777217388,0.1709153652191162,-0.2030093818902969
1789998302558314800,10.659314697265623,0.0994254946708679,0.1960428208112716,-0.068343698978424
1789998302568385800,10.6693857421875,0.0625668764114379,0.2573972642421722,0.0281556528061628
1789998302578455800,10.679455810546877,0.1453927904367447,0.2506482899188995,0.1778157204389572
1789998302588526800,10.68952685546875,0.23056361079216,0.2596860527992248,0.2980151176452636
1789998302598598000,10.699597900390623,0.24141626060009,0.2539868950843811,0.2576130926609039
1789998302608669000,10.7096689453125,0.1782684028148651,0.2282321006059646,0.0762015804648399
1789998302618740000,10.719739990234377,0.0209842454642057,0.1573526114225387,-0.0183472968637943
1789998302628811000,10.72981103515625,0.0016300305724143,0.0927477478981018,0.0789467766880989
1789998302638881000,10.739881103515623,0.0559952668845653,0.1116447374224662,0.0494227074086666
1789998302648951800,10.749951904296877,0.0566134639084339,0.0781842917203903,0.0155213791877031
1789998302659022800,10.76002294921875,-0.010208174586296,0.0144641678780317,-0.0375463664531707
1789998302669094000,10.770093994140623,-0.042799025774002,-0.0064506400376558,-0.0893840044736862
1789998302679165000,10.7801650390625,-0.0655211135745048,-0.0179019663482904,-0.0959225967526435
1789998302689236000,10.790236083984375,-0.0500986389815807,-0.0121568106114864,-0.0219693593680858
1789998302699307000,10.80030712890625,-0.0214890968054533,-0.00711997365579,0.1547257751226425
1789998302709376800,10.810376708984377,-0.0392992496490478,-0.002780947368592,0.2136715650558471
1789998302719447800,10.82044775390625,-0.0617100149393081,-0.0498267523944377,0.1731877923011779
1789998302729518800,10.830518798828123,-0.0753419697284698,-0.07690991461277,0.0499182902276515
1789998302739590000,10.84058984375,-0.1177690550684928,-0.0126185454428195,0.0169779192656278
1789998302749661000,10.850660888671875,-0.1322865486145019,0.0015813903883099,0.0515080317854881
1789998302759731700,10.860731689453123,-0.0635586231946945,-0.0031899292953312,0.1198042631149292
1789998302769801700,10.8708017578125,-0.0677773505449295,0.0042012678459286,0.1492582261562347
1789998302779872800,10.880872802734377,-0.1042109951376915,-0.0300435218960046,0.2277181446552276
1789998302789943800,10.89094384765625,-0.1945160031318664,-0.019480176270008,-0.0108753470703959
1789998302800014800,10.901014892578123,-0.1911404430866241,-0.0254469886422157,-0.0734665542840957
1789998302810086000,10.9110859375,-0.1480781883001327,-0.0112261604517698,-0.1692359745502472
1789998302820157000,10.921156982421875,-0.1276639997959137,0.0047277719713747,-0.2696640193462372
1789998302830227000,10.93122705078125,-0.0959912165999412,0.0132071767002344,-0.0337161198258399
1789998302840298000,10.941298095703123,-0.0929999575018882,0.0288487207144498,-0.0305983573198318
1789998302850369000,10.951369140625,-0.0533242188394069,-0.0285067334771156,0.0117348972707986
1789998302860439800,10.961439697265623,-0.0042560095898807,0.0113504007458686,-0.0710209682583808
1789998302870510800,10.9715107421875,-0.0015027035260573,0.0695278793573379,0.0265655517578125
1789998302880582000,10.981581787109375,-0.0657293647527694,0.0265820156782865,-0.0224688369780778
1789998302890653000,10.99165283203125,-0.0485414750874042,-0.0131854489445686,0.2034867405891418
1789998302900722700,11.00172265625,-0.0105874380096793,0.018233461305499,0.3686107099056244
1789998302910793700,11.011793701171875,0.0295108389109373,-0.0115177854895591,0.270865648984909
1789998302920864800,11.02186474609375,0.0288221463561058,-0.0188478697091341,-0.0149767668917775
1789998302930935800,11.031935791015623,0.0283818058669567,0.0238404162228107,-0.1385972052812576
1789998302941006800,11.0420068359375,0.0144542716443538,0.0495343282818794,-0.1145693808794021
1789998302951078000,11.052077880859375,-0.0341368205845356,0.1136237680912017,-0.1795888394117355
1789998302961148000,11.06214794921875,0.0806062743067741,0.1496843099594116,0.0667226761579513
1789998302971219000,11.072218994140623,0.1047982051968574,0.1575582176446914,0.0131016047671437
1789998302981290000,11.0822900390625,0.0998969227075576,0.0996469855308532,-0.069106712937355
1789998302991361000,11.092361083984375,0.0639898478984832,0.1211114898324012,-0.1396278291940689
1789998303001432000,11.10243212890625,0.0096033075824379,0.1669066846370697,-0.2123121470212936
1789998303011502800,11.1125029296875,0.0392639636993408,0.1703330129384994,-0.1750299334526062
1789998303021572900,11.12257275390625,0.0873238965868949,0.1350996643304824,0.1100484132766723
1789998303031644000,11.132643798828123,0.1478129029273986,0.092958852648735,0.1732290536165237
1789998303041715000,11.14271484375,0.0846786648035049,0.0492744892835617,-0.0707652419805526
1789998303051786000,11.152785888671875,0.0789055600762367,0.0767073482275009,-0.0207503642886877
1789998303061856800,11.162856689453124,0.0583438277244567,0.1064596474170684,0.0326894260942935
1789998303071927800,11.172927734375,-0.0194947533309459,0.0612486489117145,-0.1472909301519394
1789998303081997800,11.182997802734375,-0.050989031791687,0.0047536813654005,-0.1289089918136596
1789998303092068900,11.19306884765625,-0.0659137815237045,0.0438625365495681,-0.0179047547280788
1789998303102140000,11.203139892578124,-0.0407612919807434,0.0508895516395568,0.0081590693444013
1789998303112210700,11.213210693359375,0.0045126713812351,0.0458711311221122,0.1475798040628433
1789998303122281700,11.22328173828125,-0.0029170152265578,0.0883189961314201,0.0543862134218215
1789998303132352800,11.233352783203124,-0.0325545221567153,0.0851270109415054,-0.0376345328986644
1789998303142423000,11.243423095703124,-0.1351346969604492,0.0419180169701576,-0.0822842940688133
1789998303152494000,11.253494140625,-0.149996131658554,0.0918404683470726,-0.0801624506711959
1789998303162564900,11.26356494140625,-0.126480147242546,0.1698833405971527,-0.0785104930400848
1789998303172636000,11.273635986328124,-0.1956914663314819,0.0746354386210441,-0.0339048095047473
1789998303182707000,11.28370703125,-0.2220064252614975,-0.0426318012177944,-0.0967005491256713
1789998303192778000,11.293778076171876,-0.1973239183425903,-0.0549629293382167,0.0022920896299183
1789998303202848000,11.303847900390624,-0.1661441624164581,0.0002039186656475,0.0038881222717463
1789998303212918800,11.313918701171875,-0.1118791401386261,-0.0310274772346019,0.0335657969117164
1789998303222989800,11.32398974609375,-0.0866065397858619,-0.0354808159172534,0.0982577130198478
1789998303233060900,11.334060791015624,-0.1088299378752708,-0.0843133926391601,0.2592146396636963
1789998303243132000,11.3441318359375,-0.1463871598243713,-0.1406131535768509,0.1485251486301422
1789998303253203000,11.354202880859376,-0.1908034831285476,-0.1164109408855438,0.0064034247770905
1789998303263272700,11.364272705078124,-0.207939863204956,-0.1283594816923141,-0.040482860058546
1789998303273343700,11.37434375,-0.1473075747489929,-0.1397508978843689,0.0594547428190708
1789998303283414800,11.384414794921875,-0.0775202512741088,-0.174991175532341,0.062517911195755
1789998303293485800,11.39448583984375,-0.0606761686503887,-0.134729728102684,-0.0324083492159843
1789998303303556900,11.404556884765626,-0.0639689043164253,-0.0746722444891929,-0.0634863749146461
1789998303313628000,11.4146279296875,-0.0324053391814231,-0.0582831986248493,-0.0217842292040586
1789998303323698000,11.424697998046875,0.0002817676868289,-0.0620297342538833,0.0013921951176598
1789998303333769000,11.43476904296875,-0.0010272494982928,-0.0220595188438892,0.0746496170759201
1789998303343840000,11.444840087890626,-0.0032669680658727,0.0058514745905995,0.2371607571840286
1789998303353911000,11.4549111328125,-0.0405175648629665,0.0087921246886253,-0.0702574476599693
1789998303363982000,11.464982177734376,-0.1738604456186294,-0.0161430519074201,-0.1674915999174118
1789998303374052900,11.475052978515626,-0.0972297340631485,-0.044962327927351,-0.0865111649036407
1789998303384123000,11.485122802734375,-0.0205996707081794,-0.0001056385226547,-0.1374217569828033
1789998303394194000,11.49519384765625,0.0151807758957147,-0.0321708582341671,-0.1839390248060226
1789998303404265000,11.505264892578126,0.083801120519638,-0.0339703559875488,0.1005214676260948
1789998303414336000,11.5153359375,0.0604527220129966,0.0075321835465729,0.0855190977454185
1789998303424406800,11.52540673828125,0.0713146924972534,0.0205728840082883,-0.0815790817141532
1789998303434477800,11.535477783203126,0.052041295915842,0.0510466508567333,0.0418631732463836
1789998303444547800,11.5455478515625,0.0643024891614914,0.0377414971590042,0.1266363859176635
1789998303454619000,11.555618896484376,0.0621178038418293,0.0191330183297395,0.1849404871463775
1789998303464690000,11.56568994140625,0.072914257645607,0.047241348773241,0.1081847324967384
1789998303474760700,11.5757607421875,0.0794911757111549,0.0574662052094936,0.2254091650247573
1789998303484831700,11.585831787109376,-0.0056679337285459,0.0329749807715415,0.0464354269206523
1789998303494902800,11.59590283203125,-0.1267850399017334,0.0716666430234909,-0.1304457187652588
1789998303504973000,11.60597314453125,-0.0837422162294387,0.0625802129507064,-0.0763001888990402
1789998303515044000,11.616044189453126,-0.0415990687906742,0.0657578781247139,0.0657495409250259
1789998303525115000,11.626114990234376,0.0389357209205627,0.0605692379176616,0.0371511913836002
1789998303535186000,11.63618603515625,0.061123039573431,0.0553692169487476,-0.0757659301161766
1789998303545257000,11.646257080078126,-0.0018854856025427,0.0630226135253906,-0.026977090165019
1789998303555328000,11.656327880859376,-0.0358616225421428,0.077930748462677,-0.0695144012570381
1789998303565399000,11.66639892578125,-0.0669497698545456,0.0848187506198883,0.161720409989357
1789998303575469000,11.676468994140626,-0.0997948050498962,0.0551440119743347,0.1241238936781883
1789998303585539800,11.686539794921876,-0.0805561318993568,0.0164629258215427,0.0671479552984237
1789998303595611000,11.69661083984375,-0.162119448184967,0.0537565685808658,-0.140350267291069
1789998303605682000,11.706681884765626,-0.2018655240535736,0.0275896787643432,-0.0683125555515289
1789998303615753000,11.7167529296875,-0.174238309264183,-0.0347450114786624,0.0113857192918658
1789998303625824000,11.726823974609376,-0.0533153414726257,-0.050863791257143,-0.0785303190350532
1789998303635893800,11.736893798828126,0.020282519981265,-0.0917152464389801,-0.0052917832508683
1789998303645964800,11.74696484375,-0.0104612782597541,-0.1372324079275131,0.1517745405435562
1789998303656035800,11.757035888671876,-0.0823447927832603,-0.1440196633338928,0.1701264828443527
1789998303666107000,11.76710693359375,-0.1689337491989135,-0.1578390747308731,0.1108525022864341
1789998303676178000,11.777177978515626,-0.181503877043724,-0.2003939300775528,0.0934070274233818
1789998303686249000,11.7872490234375,-0.2298413068056106,-0.1953459084033966,-0.0483706071972847
1789998303696319000,11.797319091796876,-0.2897922694683075,-0.1716766208410263,-0.1563736349344253
1789998303706390000,11.80739013671875,-0.3049299418926239,-0.191943809390068,-0.1180004104971885
1789998303716461000,11.8174609375,-0.188018336892128,-0.1854620426893234,-0.0392156466841697
1789998303726532000,11.827531982421876,-0.0783088877797126,-0.1839626729488372,0.1185678616166114
1789998303736603000,11.837602783203126,-0.0829562842845916,-0.1864524930715561,0.0284867547452449
1789998303746674000,11.847673828125,-0.1088717728853225,-0.2020623385906219,-0.0413293428719043
1789998303756744000,11.857743896484376,-0.1187513396143913,-0.191086083650589,0.0211625602096319
1789998303766815000,11.86781494140625,-0.1383623331785202,-0.1618397831916809,0.0072347605600953
1789998303776886000,11.877885986328126,-0.0825514122843742,-0.1505431234836578,0.0275938119739294
1789998303786956800,11.887956787109376,-0.0946163311600685,-0.159590408205986,0.0206560101360082
1789998303797027800,11.89802783203125,-0.1751020848751068,-0.1664812564849853,0.0274957306683063
1789998303807099000,11.908098876953124,-0.2376650720834732,-0.1566667109727859,-0.1087696999311447
1789998303817169000,11.9181689453125,-0.2604153454303741,-0.1298293471336364,-0.2296456843614578
1789998303827240000,11.928239990234376,-0.2212865650653839,-0.1127459779381752,-0.1761707365512848
1789998303837310700,11.938310791015626,-0.1416014432907104,-0.1219585016369819,-0.0332914367318153
1789998303847381800,11.9483818359375,-0.0514393225312233,-0.1639802604913711,-0.0472826212644577
1789998303857452800,11.958452880859374,-0.0175840090960264,-0.1945981383323669,0.0018316956702619
1789998303867523000,11.968523193359376,-0.0363393202424049,-0.1686373800039291,0.0152758657932281
1789998303877594000,11.978593994140626,-0.0893831402063369,-0.1169467717409133,-0.083729088306427
1789998303887665000,11.988664794921876,-0.1455358862876892,-0.0961879640817642,-0.1632718592882156
1789998303897736000,11.99873583984375,-0.1081846430897712,-0.1199201941490173,-0.0431178882718086
1789998303907807000,12.008806884765624,-0.0440852902829647,-0.1065806820988655,0.0483081713318824
1789998303917878000,12.0188779296875,-0.0491769202053546,-0.061531014740467,0.0498339906334877
1789998303927948000,12.028947998046876,-0.0200240928679704,-0.1192246749997139,0.076705016195774
1789998303938018800,12.039018798828126,-0.0009358117240481,-0.0858977735042572,0.0524414889514446
1789998303948089900,12.04908984375,0.0261927433311939,-0.0604392886161804,0.0235310122370719
1789998303958161000,12.059160888671874,0.1152454316616058,-0.1012464091181755,0.0243912115693092
1789998303968232000,12.06923193359375,0.1395366489887237,-0.1003345474600792,0.1088829264044761
1789998303978303000,12.079302978515624,0.0901652052998542,-0.110911376774311,0.0760024189949035
1789998303988372700,12.089372802734376,0.0946286618709564,-0.1209144815802574,0.0027742823585867
1789998303998443800,12.09944384765625,0.1387868821620941,-0.0909735858440399,0.0293623749166727
1789998304008514800,12.109514892578124,0.084829106926918,-0.0524762645363807,-0.0683740377426147
1789998304018585900,12.1195859375,0.0015346317086368,-0.0962549597024917,-0.0040557403117418
1789998304028657000,12.129656982421874,0.0596986003220081,-0.0783372148871421,0.093119278550148
1789998304038728000,12.13972802734375,0.0122965453192591,-0.0357955694198608,-0.0017287777736783
1789998304048798000,12.1497978515625,0.0643722638487815,-0.0757304728031158,-0.0260461010038852
1789998304058869000,12.159868896484374,0.1255424618721008,-0.0814439877867698,0.2149173021316528
1789998304068940000,12.16993994140625,0.1349194645881652,-0.0174546167254447,0.0150305572897195
1789998304079011000,12.180010986328124,0.0587008744478225,-0.060104601085186,-0.0614263080060482
1789998304089082000,12.19008203125,0.0315129309892654,-0.0957845747470855,-0.0101900175213813
1789998304099153000,12.20015283203125,0.092711254954338,-0.0352630540728569,0.0096408352255821
1789998304109223000,12.210222900390624,0.0569607131183147,-0.0658364072442054,-0.0011582832084968
1789998304119294000,12.2202939453125,0.0746008157730102,-0.1077510416507721,0.1725495606660843
1789998304129365000,12.230364990234374,0.1295095980167389,-0.0721248686313629,0.2186704576015472
1789998304139436000,12.24043603515625,0.1705656200647354,-0.007609368301928,0.1117147058248519
1789998304149506800,12.2505068359375,0.2345664352178573,-0.024409120902419,0.1166905611753463
1789998304159577900,12.260577880859374,0.251045674085617,-0.0324452668428421,0.0299069508910179
1789998304169647900,12.27064794921875,0.2274383753538131,0.0422886237502098,-0.093622975051403
1789998304179719000,12.280718994140624,0.2429372519254684,0.0331725962460041,-0.0462112091481685
1789998304189790000,12.2907900390625,0.2304928302764892,0.0240190457552671,0.1177044883370399
1789998304199860700,12.30086083984375,0.1625371426343917,0.0260445419698953,0.017325934022665
1789998304209931800,12.310931884765624,0.1512251049280166,0.055420272052288,-0.0066558313556015
1789998304220002800,12.3210029296875,0.17860147356987,0.0602456666529178,0.0465305782854557
1789998304230073000,12.331072998046874,0.2444609105587005,0.0938702076673507,-0.0675238296389579
1789998304240144100,12.34114404296875,0.2878829538822174,0.1268699020147323,-0.1037205681204795
1789998304250215000,12.35121484375,0.3023106455802917,0.1394482851028442,-0.1409893780946731
1789998304260286000,12.361285888671874,0.3567165434360504,0.1224317699670791,-0.0523801892995834
1789998304270357000,12.37135693359375,0.4156655967235565,0.1656175851821899,0.0112704234197735
1789998304280428000,12.381427978515624,0.3631954491138458,0.2333934158086776,-0.1903026849031448
1789998304290497800,12.391497802734374,0.2447468340396881,0.2441432774066925,-0.1473224610090255
1789998304300568800,12.40156884765625,0.2424274832010269,0.258756160736084,-0.0941412597894668
1789998304310639900,12.411639892578124,0.2273832857608795,0.2679733633995056,-0.2106191515922546
1789998304320711000,12.4217109375,0.1516941487789154,0.289880096912384,-0.1204182133078575
1789998304330782000,12.431781982421874,0.2064287662506103,0.2755520045757293,-0.052274040877819
1789998304340853000,12.44185302734375,0.1794334203004837,0.2606127858161926,-0.0887329056859016
1789998304350922800,12.4519228515625,0.1978510320186615,0.2455943971872329,-0.1987406313419342
1789998304360993800,12.461993896484374,0.1465925872325897,0.209376260638237,0.0236882120370864
1789998304371064800,12.47206494140625,0.2188654541969299,0.2425240874290466,0.0574954450130462
1789998304381136000,12.482135986328124,0.2563120424747467,0.185069054365158,0.0504118092358112
1789998304391207000,12.49220703125,0.1733455210924148,0.0803386494517326,0.0131057146936655
1789998304401277700,12.502277587890624,0.1637280136346817,0.0766009539365768,-0.0249808095395565
1789998304411348000,12.512347900390624,0.107219748198986,0.111274778842926,-0.0926333591341972
1789998304421419000,12.5224189453125,0.0106642134487628,0.0811523124575614,-0.0550078712403774
1789998304431490000,12.532489990234374,-0.025552911683917,0.056345771998167,0.0423988439142704
1789998304441561000,12.54256103515625,-0.0147652952000498,0.0562724806368351,-0.0260030105710029
1789998304451631900,12.5526318359375,-0.0649014338850975,0.0229643285274505,-0.1310905516147613
1789998304461703000,12.562702880859376,-0.0738696977496147,0.0037415563128888,-0.1536623686552047
1789998304471773000,12.57277294921875,0.0476247817277908,0.0308056641370058,-0.1209068149328231
1789998304481844000,12.582843994140624,0.1049027368426323,0.0057331975549459,0.0380245111882686
1789998304491915000,12.5929150390625,0.0707916393876075,-0.0244777016341686,0.1079162508249282
1789998304501985800,12.60298583984375,0.0381393283605575,-0.0072020096704363,0.12880739569664
1789998304512056800,12.613056884765625,-0.0372907146811485,0.0655387714505195,-0.1146782338619232
1789998304522126800,12.623126953125,-0.0737068206071853,0.0388581417500972,-0.1627102792263031
1789998304532198000,12.633197998046874,-0.0288187060505151,0.0183379519730806,0.2181800752878189
1789998304542269000,12.64326904296875,0.0152614759281277,0.0396609231829643,0.1770619451999664
1789998304552339700,12.653339599609374,0.0219880882650613,0.036413200199604,0.1942577064037323
1789998304562410800,12.66341064453125,-0.0093900803476572,0.0250069461762905,0.0764877721667289
1789998304572481500,12.6734814453125,0.024301303550601,0.0542817413806915,0.0950641185045242
1789998304582551800,12.6835517578125,-0.0555706843733787,0.0749058276414871,0.1414012908935547
1789998304592622800,12.693622802734374,-0.0134043237194418,0.02356593683362,0.009781464934349
1789998304602694000,12.70369384765625,0.0687746927142143,0.0316463708877563,0.0584898591041564
1789998304612765000,12.713764892578125,0.0638893917202949,0.0833460465073585,-0.0506094619631767
1789998304622835700,12.723835693359376,0.0364314094185829,0.0495147109031677,-0.0666315481066703
1789998304632906800,12.73390673828125,0.0203682873398065,0.020120870321989,0.122792437672615
1789998304642976800,12.743976806640624,0.0738220065832138,0.0495921783149242,0.0724421963095665
1789998304653047800,12.7540478515625,0.1196283772587776,0.0130826327949762,0.1097128689289093
1789998304663118800,12.764118896484376,0.0331751555204391,-0.02446224167943,0.0663663074374198
1789998304673189600,12.774189697265625,-0.0193160157650709,0.0043678083457052,-0.1706664860248565
1789998304683260700,12.7842607421875,-0.0822875425219535,0.0317894220352172,-0.1070252582430839
1789998304693331700,12.794331787109376,-0.0575097650289535,0.0477723851799964,0.1556878536939621
1789998304703401700,12.804401611328124,-0.0384780056774616,0.0381368212401866,0.1150349974632263
1789998304713472800,12.81447265625,-0.0977375954389572,-0.0039190188981592,-0.1001545414328575
1789998304723543600,12.82454345703125,-0.0593280494213104,-0.0271657202392816,-0.0218795165419578
1789998304733614600,12.834614501953125,0.0132963526993989,-0.0138693545013666,0.1003617122769355
1789998304743685600,12.844685546875,0.0447667241096496,-0.0279887244105339,0.0114373238757252
1789998304753756000,12.854755859375,0.0970368534326553,-0.058423064649105,0.0006672340678051
1789998304763827000,12.864826904296876,0.0789486914873123,-0.098976194858551,0.0176824983209371
1789998304773897700,12.874897705078125,0.1063350439071655,-0.0469140596687793,-0.1652290076017379
1789998304783968800,12.88496875,0.0903421193361282,-0.0350663773715496,-0.0931366384029388
1789998304794039800,12.895039794921876,0.1169417724013328,-0.0597930327057838,0.0974916294217109
1789998304804110800,12.90511083984375,0.0975563302636146,-0.0341296382248401,0.0061086365021765
1789998304814180900,12.915180908203125,0.0267476718872785,-0.0096876770257949,-0.1098901405930519
1789998304824251600,12.925251708984376,0.0197252016514539,-0.0197062641382217,0.0931630432605743
1789998304834322700,12.93532275390625,0.0088115660473704,-0.0327783897519111,0.1153066977858543
1789998304844393700,12.945393798828125,-0.0147533668205142,-0.0182160064578056,-0.1891677677631378
1789998304854464800,12.95546484375,0.0210208743810653,-0.0197190959006547,-0.2007695585489273
1789998304864535800,12.965535888671877,0.0697414502501487,0.0470429174602031,-0.0750292316079139
1789998304874605600,12.97560546875,0.1518930494785308,0.1100003123283386,-0.1134229600429534
1789998304884676600,12.985676513671876,0.1961094886064529,0.0780219137668609,0.1593140959739685
1789998304894747600,12.99574755859375,0.1421815454959869,0.0595947057008743,0.1504473686218261
1789998304904818700,13.005818603515625,0.1262669861316681,0.1546262055635452,-0.1537044793367386
1789998304914889700,13.0158896484375,0.1304537504911422,0.1870224922895431,-0.1410416811704635
1789998304924960500,13.02596044921875,0.1386763751506805,0.193389818072319,0.0004236588720232
1789998304935030800,13.03603076171875,0.1555933058261871,0.2303070873022079,-0.0504515059292316
1789998304945101800,13.046101806640625,0.2222533524036407,0.2202786803245544,-0.1238990724086761
1789998304955172900,13.0561728515625,0.2022311687469482,0.256930410861969,-0.0946101546287536
1789998304965244000,13.066243896484377,0.1930055767297744,0.3072735369205475,-0.1163330599665641
1789998304975314700,13.076314697265625,0.2619569301605224,0.350451648235321,0.0050972308963537
1789998304985384700,13.086384765625,0.2891424298286438,0.3419663906097412,0.0759569182991981
1789998304995455700,13.096455810546876,0.3288674652576446,0.3422015607357025,-0.032867033034563
1789998305005526800,13.10652685546875,0.2981208860874176,0.3948180377483368,-0.2744999825954437
1789998305015597800,13.116597900390625,0.2907191812992096,0.3929410576820373,-0.0450268536806106
1789998305025668600,13.126668701171877,0.2860382199287414,0.4145077168941498,0.1151077896356582
1789998305035739600,13.13673974609375,0.3159484267234802,0.3650882542133331,0.1918907314538955
1789998305045809700,13.1468095703125,0.2636033892631531,0.2991603314876556,0.1152463927865028
1789998305055880700,13.156880615234376,0.1776929944753646,0.3328165709972381,-0.0116385882720351
1789998305065951700,13.16695166015625,0.1412972956895828,0.3751262724399566,-0.0894143804907798
1789998305076022500,13.1770224609375,0.1391475945711136,0.3369967341423034,0.0591207668185234
1789998305086093600,13.187093505859377,0.2216707617044448,0.3361976444721222,0.0369952656328678
1789998305096164600,13.19716455078125,0.3206716477870941,0.314089685678482,0.1947039365768432
1789998305106235000,13.20723486328125,0.3207683563232422,0.3167499601840973,0.3206932246685028
1789998305116306000,13.217305908203125,0.154757022857666,0.3134430944919586,0.1163224875926971
1789998305126376700,13.227376708984377,-0.0971590206027031,0.242678090929985,0.1070022508502006
1789998305136447700,13.23744775390625,-0.1405797302722931,0.2899862229824066,0.0816401690244674
1789998305146518800,13.247518798828125,-0.0181090701371431,0.3064989149570465,0.0504488609731197
1789998305156589800,13.25758984375,0.0662601366639137,0.2941237390041351,0.0127699244767427
1789998305166659800,13.267659912109377,0.0392661280930042,0.22503562271595,0.2000237852334976
1789998305176730600,13.277730712890625,-0.0594135783612728,0.1756736636161804,0.1053721085190773
1789998305186801700,13.2878017578125,-0.1149203702807426,0.1610854119062423,-0.1368430256843567
1789998305196872700,13.297872802734377,-0.1857977509498596,0.0805186629295349,-0.3719449937343597
1789998305206943700,13.30794384765625,-0.274857610464096,0.1072698310017585,-0.506938099861145
1789998305217013800,13.318013671875,-0.3738110959529876,0.0899267941713333,-0.6772605180740356
1789998305227084500,13.32808447265625,-0.5273374319076538,0.173513263463974,-1.0855140686035156
1789998305237155600,13.338155517578125,-0.1993132382631302,0.1087723523378372,-0.0330074876546859
1789998305247226600,13.3482265625,0.0159132052212953,-0.0740029066801071,0.6155155301094055
1789998305257297700,13.358297607421877,-0.2128560543060302,-0.2114539742469787,0.4201130270957947
1789998305267368700,13.36836865234375,-0.0131403636187314,0.1903693228960037,0.3933065831661224
1789998305277438700,13.378438720703125,0.062161847949028,0.3951432406902313,-0.1963726878166198
1789998305287509800,13.388509765625,-0.2198926359415054,0.1139790639281272,-0.0944496914744377
1789998305297580800,13.398580810546877,-0.3160500526428222,-0.1198611259460449,0.3234133422374725
1789998305307651800,13.40865185546875,-0.0326383188366889,0.1349405497312545,0.2092984765768051
1789998305317723000,13.418722900390623,0.1568266749382019,0.1877795308828354,0.4567985534667969
1789998305327794000,13.4287939453125,0.243426963686943,0.0163126364350318,0.7069692611694336
1789998305337863700,13.43886376953125,0.2204968780279159,-0.0566894002258777,1.2568273544311523
1789998305347934700,13.448934814453125,0.0833824127912521,0.0958065092563629,0.8924303650856018
1789998305358005800,13.459005859375,-0.0262617897242307,0.0778051316738128,0.3426003158092499
1789998305368076800,13.469076904296877,-0.4094482958316803,-0.0533878803253173,-0.4522946178913116
1789998305378147800,13.47914794921875,-0.3847141861915588,0.1131907179951667,-1.0143622159957886
1789998305388218600,13.489218505859377,-0.294943243265152,0.211135521531105,-0.9872781038284302
1789998305398288600,13.49928857421875,-0.3177486956119537,0.0830494686961174,-0.5483675599098206
1789998305408359700,13.509359619140625,-0.2587632834911346,0.0685302317142486,-0.0930709242820739
1789998305418430700,13.5194306640625,-0.1918593347072601,0.1323595494031906,-0.1314579993486404
1789998305428501800,13.529501708984377,-0.274021565914154,0.1570442169904709,0.0723246484994888
1789998305438572500,13.539572509765623,-0.4208901226520538,0.0887972488999366,0.2637499868869781
1789998305448642800,13.549642822265625,-0.4667103886604309,0.0133295431733131,0.2098254859447479
1789998305458713900,13.5597138671875,-0.1575014144182205,0.0340265668928623,0.0311500243842601
1789998305468785000,13.569784912109377,0.168856143951416,-0.1138957291841507,0.536127507686615
1789998305478856000,13.57985595703125,0.2255657762289047,-0.0165582597255706,1.046644926071167
1789998305488926700,13.5899267578125,0.0633939281105995,0.1875414997339248,0.4790651202201843
1789998305498997800,13.599997802734377,-0.1284902840852737,0.3250801861286163,-0.9230274558067322
1789998305509067800,13.61006787109375,-0.1306722462177276,0.1372711211442947,-0.4960080087184906
1789998305519138800,13.620138916015623,-0.2041541934013366,-0.2909190952777862,0.4558768570423126
1789998305529209600,13.630209716796877,-0.4195390045642853,0.1318366974592209,-0.1761354655027389
1789998305539280600,13.64028076171875,-0.4169671833515167,0.1009038165211677,-0.1714163571596145
1789998305549351700,13.6503515625,-0.27877077460289,0.0624866150319576,0.0713551342487335
1789998305559422700,13.660422607421877,-0.0894269496202468,0.0940056592226028,-0.1245941296219825
1789998305569492700,13.67049267578125,-0.1232453659176826,0.0639249831438064,-0.615660548210144
1789998305579563800,13.680563720703123,-0.124509572982788,0.0457758121192455,-0.5593075156211853
1789998305589634800,13.690634765625,-0.0878004431724548,-0.0056476444005966,-0.038655836135149
1789998305599705900,13.700705810546877,-0.1364563852548599,-0.1196735501289367,-0.061438113451004
1789998305609777000,13.71077685546875,-0.3356814384460449,-0.1079034805297851,-0.4081850051879883
1789998305619847000,13.720846923828123,-0.4979038834571838,-0.0627197548747062,-0.0931908562779426
1789998305629918000,13.73091796875,-0.6127840876579285,-0.1722038239240646,0.216752827167511
1789998305639989000,13.740989013671877,-0.5375015735626221,-0.2671127617359161,0.2205385267734527
1789998305650060000,13.75106005859375,-0.3786032795906067,-0.3209724724292755,-0.0832420587539672
1789998305660130800,13.761130859375,-0.3334656357765198,-0.3675434589385986,-0.0872051119804382
1789998305670201900,13.771201904296875,-0.3190735280513763,-0.2934693992137909,0.079482153058052
1789998305680272000,13.78127197265625,-0.2135103642940521,-0.1731650829315185,0.0573837757110595
1789998305690343000,13.791343017578123,-0.3619393706321716,-0.2977373898029327,-0.1696266680955886
1789998305700414000,13.8014140625,-0.4293034970760345,-0.3146457970142364,-0.2793702185153961
1789998305710484700,13.811484619140623,-0.4041875004768371,-0.2343323975801468,-0.2738294005393982
1789998305720555800,13.8215556640625,-0.3604618608951568,-0.1642308086156845,-0.2248461246490478
1789998305730626800,13.831626708984375,-0.3290683329105377,-0.1745103746652603,0.0245212167501449
1789998305740696800,13.84169677734375,-0.2963484525680542,-0.1952518820762634,-0.1571447104215622
1789998305750767900,13.851767822265623,-0.1663409322500229,-0.1578943133354187,-0.0264225043356418
1789998305760838700,13.861838623046877,-0.1059465706348419,-0.1252285093069076,0.2360365390777588
1789998305770909700,13.87190966796875,-0.1189406961202621,-0.1688951253890991,0.2712678015232086
1789998305780980700,13.881980712890623,-0.1945987194776535,-0.1022939980030059,0.1577455103397369
1789998305791051000,13.892051025390623,-0.0809256508946418,-0.0070397490635514,-0.0515681989490985
1789998305801122000,13.9021220703125,-0.0600587166845798,-0.0624028705060482,0.1130295395851135
1789998305811192800,13.91219287109375,-0.1977672576904297,-0.2277620583772659,0.2081416100263595
1789998305821264000,13.922263916015623,-0.3661720156669616,-0.2987936437129974,0.1535414755344391
1789998305831335000,13.9323349609375,-0.4744494557380676,-0.3193792402744293,0.283994972705841
1789998305841406000,13.942406005859375,-0.443966656923294,-0.3405609428882599,0.19076968729496
1789998305851476000,13.95247607421875,-0.2884774208068847,-0.4800119400024414,0.2355792671442031
1789998305861546800,13.962546630859377,-0.2075971961021423,-0.6286962628364563,0.3091283142566681
1789998305871617800,13.97261767578125,-0.2388533800840377,-0.6845420598983765,0.2900396883487701
1789998305881688800,13.982688720703123,-0.365388959646225,-0.7320552468299866,0.0816318914294242
1789998305891759900,13.992759765625,-0.3020651340484619,-0.6372029781341553,0.1012366786599159
1789998305901830000,14.002829833984377,-0.3012587428092956,-0.6666684746742249,0.1906174123287201
1789998305911900700,14.012900634765623,-0.3185400366783142,-0.7858327031135559,0.0311818849295377
1789998305921971700,14.0229716796875,-0.3335509300231933,-0.7027945518493652,0.1290346682071685
1789998305932042800,14.033042724609375,-0.3258692026138305,-0.6402983665466309,-0.1567172259092331
1789998305942113800,14.04311376953125,-0.2730613946914673,-0.5703890919685364,-0.3979833722114563
1789998305952184800,14.053184814453124,-0.0273713842034339,-0.4931241869926452,-0.1612207293510437
1789998305962254800,14.0632548828125,0.091854341328144,-0.379155546426773,-0.0074815060943365
1789998305972326000,14.073325927734375,-0.0335079282522201,-0.3135782182216644,-0.128088891506195
1789998305982397000,14.08339697265625,-0.0840150415897369,-0.2779254019260406,-0.1427232325077057
1789998305992468000,14.093468017578124,-0.0463967211544513,-0.2085850089788437,-0.0374061353504657
1789998306002539000,14.1035390625,0.087125651538372,-0.1808106303215026,0.01747309230268
1789998306012608800,14.11360888671875,0.1914245784282684,-0.1320154219865799,0.0097714262083172
1789998306022679800,14.1236796875,0.2646178603172302,-0.073369413614273,0.0874576941132545
1789998306032750800,14.133750732421875,0.3126797974109649,-0.0123455291613936,0.0751771181821823
1789998306042822000,14.14382177734375,0.4036411046981811,0.0682768747210502,-0.1236068159341812
1789998306052893000,14.153892822265624,0.2980801165103912,0.1333284080028534,-0.105365552008152
1789998306062964000,14.1639638671875,0.3262169361114502,0.1929967850446701,0.138929396867752
1789998306073033700,14.17403369140625,0.2878947556018829,0.2003900855779647,0.2131105363368988
1789998306083104800,14.184104736328123,0.3360838592052459,0.2052745968103408,-0.0073621897026896
1789998306093175800,14.19417578125,0.4221588373184204,0.2494335323572158,-0.1398477852344513
1789998306103246800,14.204246826171875,0.3920270204544067,0.2764313220977783,-0.1587610244750976
