time,seconds_elapsed,z,y,x
1789139606281239800,0.05523974609375,-0.4213714599609375,-0.9894866943359375,-0.1220703125
1789139606291212800,0.065212890625,-0.738311767578125,-0.6283721923828125,-0.1236114501953125
1789139606301185800,0.075185791015625,-0.599151611328125,-0.7958221435546875,-0.0330047607421875
1789139606311158000,0.085157958984375,-0.4098052978515625,-0.9822998046875,-0.011444091796875
1789139606321130800,0.095130859375,-0.617340087890625,-0.717926025390625,-0.1128692626953125
1789139606331103700,0.105103759765625,-0.5434417724609375,-0.692535400390625,-0.048797607421875
1789139606341076700,0.11507666015625,-0.328399658203125,-0.9601593017578125,-0.062347412109375
1789139606351050000,0.125050048828125,-0.5770721435546875,-0.7089996337890625,-0.1151580810546875
1789139606361023000,0.13502294921875,-0.5909881591796875,-0.716644287109375,-0.1694183349609375
1789139606370995700,0.14499560546875,-0.46209716796875,-0.88446044921875,-0.0081329345703125
1789139606380968700,0.15496875,-0.6617431640625,-0.75762939453125,-0.0716705322265625
1789139606390941000,0.16494091796875,-0.8671722412109375,-0.6558837890625,-0.121734619140625
1789139606400914000,0.174913818359375,-0.832916259765625,-0.8749237060546875,-0.038543701171875
1789139606410886700,0.18488671875,-0.8038177490234375,-0.861419677734375,0.0205078125
1789139606420860000,0.19485986328125,-0.6293792724609375,-0.8553619384765625,0.0136260986328125
1789139606430833000,0.2048330078125,-0.6667022705078125,-0.8687591552734375,0.01470947265625
1789139606440806000,0.214805908203125,-0.621978759765625,-0.9102020263671875,-0.1012725830078125
1789139606450778600,0.224778564453125,-0.404815673828125,-0.9580078125,-0.0716705322265625
1789139606460752000,0.234751953125,-0.31829833984375,-0.8810272216796875,-0.12445068359375
1789139606470723800,0.244723876953125,-0.41424560546875,-0.7498626708984375,-0.2149200439453125
1789139606480696800,0.25469677734375,-0.32086181640625,-0.856048583984375,-0.2325286865234375
1789139606490669800,0.264669921875,-0.486602783203125,-0.82684326171875,-0.061920166015625
1789139606500642800,0.274642822265625,-0.6199188232421875,-0.7850341796875,-0.1025238037109375
1789139606510615800,0.28461572265625,-0.480560302734375,-0.773162841796875,-0.094818115234375
1789139606520588800,0.2945888671875,-0.6931304931640625,-0.6748504638671875,-0.0225677490234375
1789139606530562000,0.30456201171875,-0.7709197998046875,-0.7908477783203125,0.036163330078125
1789139606540534800,0.31453466796875,-0.6197052001953125,-0.880889892578125,-0.0231170654296875
1789139606550507800,0.3245078125,-0.7518463134765625,-0.7957611083984375,0.0353851318359375
1789139606560480000,0.33447998046875,-0.7264862060546875,-0.7664337158203125,0.0324554443359375
1789139606570453000,0.344452880859375,-0.6476593017578125,-0.7209320068359375,0.0050048828125
1789139606580425700,0.35442578125,-0.591400146484375,-0.7943267822265625,-0.0025482177734375
1789139606590398700,0.364398681640625,-0.4044647216796875,-0.98175048828125,0.13616943359375
1789139606600371700,0.374371826171875,-0.639739990234375,-0.7144317626953125,0.0310516357421875
1789139606610345000,0.384344970703125,-0.669769287109375,-0.6720733642578125,-0.1134490966796875
1789139606620318000,0.39431787109375,-0.380035400390625,-0.9996795654296875,-0.0146026611328125
1789139606630290700,0.404290771484375,-0.46966552734375,-0.8537750244140625,0.083099365234375
1789139606640263000,0.414262939453125,-0.6327972412109375,-0.719329833984375,-0.0241851806640625
1789139606650236000,0.42423583984375,-0.5831756591796875,-0.7957763671875,-0.0296478271484375
1789139606660209000,0.434208984375,-0.56109619140625,-0.85394287109375,0.0444183349609375
1789139606670181600,0.444181640625,-0.598236083984375,-0.82611083984375,0.0782623291015625
1789139606680155000,0.45415478515625,-0.5987396240234375,-0.7574005126953125,-0.0932769775390625
1789139606690128000,0.4641279296875,-0.52294921875,-0.8159332275390625,-0.115570068359375
1789139606700100900,0.474100830078125,-0.4750823974609375,-0.9903411865234375,0.1022491455078125
1789139606710073900,0.484073974609375,-0.543182373046875,-0.9259490966796875,0.104156494140625
1789139606720046800,0.494046875,-0.5857391357421875,-0.815826416015625,-0.0269317626953125
1789139606730018800,0.504018798828125,-0.459930419921875,-0.8745269775390625,0.07086181640625
1789139606739991800,0.51399169921875,-0.5335845947265625,-0.935272216796875,0.1452484130859375
1789139606749965000,0.523965087890625,-0.5806427001953125,-0.822784423828125,0.0233154296875
1789139606759937800,0.533937744140625,-0.5590057373046875,-0.9853057861328125,0.04425048828125
1789139606769910800,0.543910888671875,-0.690032958984375,-0.847869873046875,0.00238037109375
1789139606779883800,0.5538837890625,-0.7588958740234375,-0.5690460205078125,-0.2149505615234375
1789139606789857000,0.56385693359375,-0.5108795166015625,-0.8612213134765625,-0.133514404296875
1789139606799829800,0.573829833984375,-0.3525238037109375,-1.0835418701171875,0.0414581298828125
1789139606809802800,0.583802734375,-0.6335906982421875,-0.7396697998046875,-0.0775909423828125
1789139606819775000,0.59377490234375,-0.6876068115234375,-0.6074066162109375,-0.2320709228515625
1789139606829748000,0.603748046875,-0.4844818115234375,-0.91845703125,-0.110015869140625
1789139606839720700,0.613720703125,-0.4510345458984375,-0.87371826171875,-0.05303955078125
1789139606849693700,0.623693603515625,-0.4531402587890625,-0.80816650390625,-0.1195526123046875
1789139606859667000,0.6336669921875,-0.748260498046875,-0.6646270751953125,-0.1755828857421875
1789139606869640000,0.643639892578125,-0.6058807373046875,-0.7742156982421875,-0.1558837890625
1789139606879613000,0.653613037109375,-0.399017333984375,-0.9049072265625,-0.0421295166015625
1789139606889585700,0.663585693359375,-0.577362060546875,-0.8033905029296875,-0.045196533203125
1789139606899558700,0.67355859375,-0.6055908203125,-0.7530975341796875,-0.024444580078125
1789139606909531000,0.68353076171875,-0.710723876953125,-0.6561737060546875,-0.0405120849609375
1789139606919504000,0.69350390625,-0.6392974853515625,-0.7653045654296875,0.0193634033203125
1789139606929476900,0.703476806640625,-0.4667205810546875,-0.9441986083984375,0.083038330078125
1789139606939449900,0.713449951171875,-0.6298980712890625,-0.796661376953125,0.02862548828125
1789139606949422800,0.7234228515625,-0.67431640625,-0.78271484375,-0.051177978515625
1789139606959395800,0.733395751953125,-0.4446563720703125,-1.0067138671875,0.0269317626953125
1789139606969368800,0.743368896484375,-0.5137176513671875,-0.8841094970703125,-0.018707275390625
1789139606979341800,0.753341796875,-0.5621185302734375,-0.774444580078125,-0.0979156494140625
1789139606989314800,0.763314697265625,-0.481903076171875,-0.9139404296875,-0.0232696533203125
1789139606999286800,0.773286865234375,-0.56591796875,-0.8050994873046875,-0.0135650634765625
1789139607009260000,0.783260009765625,-0.5439453125,-0.7529754638671875,-0.0813751220703125
1789139607019232800,0.793232666015625,-0.4976654052734375,-0.91259765625,-0.0212554931640625
1789139607029205800,0.803205810546875,-0.5455474853515625,-0.87664794921875,-0.0123748779296875
1789139607039178800,0.8131787109375,-0.66571044921875,-0.730712890625,-0.075531005859375
1789139607049152000,0.823152099609375,-0.6957244873046875,-0.791168212890625,-0.0708465576171875
1789139607059125000,0.833125,-0.5438690185546875,-0.941070556640625,0.0181884765625
1789139607069097700,0.84309765625,-0.657196044921875,-0.840423583984375,0.0481414794921875
1789139607079070700,0.85307080078125,-0.7935028076171875,-0.732635498046875,0.0221099853515625
1789139607089043000,0.86304296875,-0.61865234375,-0.8949737548828125,0.073486328125
1789139607099016000,0.873015869140625,-0.61419677734375,-0.8497772216796875,0.00830078125
1789139607108988700,0.88298876953125,-0.6856689453125,-0.769256591796875,-0.017913818359375
1789139607118962000,0.8929619140625,-0.5518798828125,-0.8247528076171875,-0.051788330078125
1789139607128935000,0.902934814453125,-0.5516357421875,-0.821563720703125,-0.0190582275390625
1789139607138908000,0.912907958984375,-0.571197509765625,-0.7748565673828125,-0.0547332763671875
1789139607148880600,0.922880615234375,-0.528717041015625,-0.765869140625,-0.0524139404296875
1789139607158854000,0.93285400390625,-0.5262451171875,-0.7714385986328125,-0.12689208984375
1789139607168827000,0.942826904296875,-0.5391845703125,-0.766265869140625,-0.191070556640625
1789139607178798600,0.952798583984375,-0.583282470703125,-0.7380523681640625,-0.137451171875
1789139607188771800,0.962771728515625,-0.518646240234375,-0.783538818359375,-0.092315673828125
1789139607198744800,0.972744873046875,-0.42333984375,-0.949493408203125,-0.1076507568359375
1789139607208717800,0.9827177734375,-0.7107391357421875,-0.7691802978515625,-0.0462646484375
1789139607218690600,0.992690673828125,-0.8777618408203125,-0.592620849609375,-0.0284423828125
1789139607228663800,1.002663818359375,-0.54736328125,-0.8721923828125,-0.0447540283203125
1789139607238636800,1.01263671875,-0.3197784423828125,-1.1094970703125,-0.0172271728515625
1789139607248609800,1.02260986328125,-0.9597015380859375,-0.56646728515625,-0.0247650146484375
1789139607258582800,1.032582763671875,-0.8457183837890625,-0.6661834716796875,-0.0475006103515625
1789139607268554800,1.0425546875,-0.2262115478515625,-1.1659698486328125,-0.0080413818359375
1789139607278527700,1.05252783203125,-0.4281005859375,-0.93560791015625,-0.0549163818359375
1789139607288500700,1.062500732421875,-0.7582550048828125,-0.5964813232421875,-0.0328216552734375
1789139607298473500,1.072473388671875,-0.56524658203125,-0.847259521484375,-0.073638916015625
1789139607308446700,1.08244677734375,-0.4125213623046875,-0.97027587890625,-0.0305328369140625
1789139607318419700,1.092419677734375,-0.51080322265625,-0.8017120361328125,0.0119171142578125
1789139607328392700,1.102392822265625,-0.6808624267578125,-0.6703948974609375,0.0376739501953125
1789139607338365700,1.11236572265625,-0.6336517333984375,-0.7836151123046875,-0.0387420654296875
1789139607348338700,1.122338623046875,-0.51409912109375,-0.8428955078125,-0.020721435546875
1789139607358311700,1.132311767578125,-0.583740234375,-0.8545989990234375,0.0337677001953125
1789139607368283600,1.14228369140625,-0.5543365478515625,-0.907470703125,-0.0478057861328125
1789139607378257000,1.1522568359375,-0.7274932861328125,-0.7529754638671875,-0.05615234375
1789139607388229600,1.162229736328125,-0.796417236328125,-0.68902587890625,0.0558624267578125
1789139607398202600,1.17220263671875,-0.3527069091796875,-0.98876953125,0.0266265869140625
1789139607408175600,1.182175537109375,-0.426544189453125,-0.9175262451171875,-0.04974365234375
1789139607418148900,1.19214892578125,-0.8134002685546875,-0.5995941162109375,0.05194091796875
1789139607428121900,1.202121826171875,-0.6311798095703125,-0.7774200439453125,0.027618408203125
1789139607438094600,1.212094482421875,-0.2812347412109375,-1.0083160400390625,-0.0507049560546875
1789139607448067600,1.222067626953125,-0.5860137939453125,-0.7554168701171875,-0.0605316162109375
1789139607458039800,1.232039794921875,-0.6922760009765625,-0.7307281494140625,-0.0009002685546875
1789139607468012800,1.2420126953125,-0.485137939453125,-0.9227142333984375,-0.031280517578125
1789139607477985500,1.251985595703125,-0.5747222900390625,-0.8136444091796875,0.000885009765625
1789139607487958800,1.261958740234375,-0.6550445556640625,-0.740203857421875,0.0066680908203125
1789139607497931800,1.271931884765625,-0.5797882080078125,-0.8662567138671875,-0.07025146484375
1789139607507904800,1.28190478515625,-0.609161376953125,-0.8756103515625,-0.10003662109375
1789139607517877800,1.291877685546875,-0.596160888671875,-0.820526123046875,-0.13250732421875
1789139607527850800,1.301850830078125,-0.551544189453125,-0.8416595458984375,-0.1332855224609375
1789139607537823700,1.31182373046875,-0.5798187255859375,-0.8620147705078125,-0.10711669921875
1789139607547795700,1.321795654296875,-0.68658447265625,-0.74517822265625,-0.0437164306640625
1789139607557768700,1.331768798828125,-0.634368896484375,-0.8054351806640625,-0.0491790771484375
1789139607567741700,1.34174169921875,-0.4287109375,-0.91064453125,-0.0588531494140625
1789139607577714700,1.351714599609375,-0.5814666748046875,-0.8148651123046875,-0.0407257080078125
1789139607587687700,1.361687744140625,-0.644989013671875,-0.7804718017578125,-0.0243377685546875
1789139607597660700,1.37166064453125,-0.431671142578125,-0.8836669921875,-0.1147308349609375
1789139607607634000,1.381634033203125,-0.43951416015625,-0.8498077392578125,-0.0790557861328125
1789139607617606700,1.391606689453125,-0.60821533203125,-0.7744903564453125,-0.0207977294921875
1789139607627579600,1.40157958984375,-0.6026458740234375,-0.7815093994140625,0.027679443359375
1789139607637552600,1.411552734375,-0.5017852783203125,-0.8908233642578125,-0.030181884765625
1789139607647524600,1.421524658203125,-0.5381011962890625,-0.9014129638671875,0.041595458984375
1789139607657497600,1.43149755859375,-0.67041015625,-0.726654052734375,-0.006103515625
1789139607667470600,1.441470703125,-0.6400146484375,-0.8048095703125,-0.017547607421875
1789139607677443800,1.45144384765625,-0.5252532958984375,-0.9176177978515625,-0.014404296875
1789139607687416800,1.461416748046875,-0.5139617919921875,-0.8940277099609375,0.0082550048828125
1789139607697389600,1.4713896484375,-0.66790771484375,-0.7631072998046875,-0.0618438720703125
1789139607707362600,1.481362548828125,-0.649505615234375,-0.75860595703125,-0.1060943603515625
1789139607717335800,1.491335693359375,-0.4894866943359375,-0.928955078125,-0.0838623046875
1789139607727308800,1.501308837890625,-0.590118408203125,-0.9100189208984375,-0.016571044921875
1789139607737281800,1.51128173828125,-0.760894775390625,-0.676025390625,-0.0623779296875
1789139607747253800,1.521253662109375,-0.5865325927734375,-0.8254547119140625,0.0671539306640625
1789139607757226800,1.531226806640625,-0.4915618896484375,-0.932891845703125,-0.0386810302734375
1789139607767199700,1.54119970703125,-0.7077484130859375,-0.727752685546875,-0.126007080078125
1789139607777172700,1.5511728515625,-0.57781982421875,-0.7966766357421875,-0.1179962158203125
1789139607787145700,1.561145751953125,-0.4136962890625,-0.9249114990234375,-0.0622406005859375
1789139607797118700,1.57111865234375,-0.4901885986328125,-0.793548583984375,-0.1348419189453125
1789139607807091700,1.581091796875,-0.467010498046875,-0.799530029296875,-0.027252197265625
1789139607817064700,1.591064697265625,-0.4841766357421875,-0.8052978515625,-0.030029296875
1789139607827037700,1.60103759765625,-0.47796630859375,-0.8074951171875,-0.0350494384765625
1789139607837010700,1.6110107421875,-0.4939727783203125,-0.7574615478515625,-0.0804901123046875
1789139607846982700,1.620982666015625,-0.5849609375,-0.7252044677734375,-0.0207366943359375
1789139607856955600,1.63095556640625,-0.6209716796875,-0.7555999755859375,-0.1224212646484375
1789139607866929000,1.640928955078125,-0.627349853515625,-0.829315185546875,-0.072021484375
1789139607876901600,1.650901611328125,-0.7366790771484375,-0.7631988525390625,-0.0479888916015625
1789139607886874600,1.66087451171875,-0.75421142578125,-0.7859649658203125,-0.07147216796875
1789139607896847600,1.67084765625,-0.6246185302734375,-0.897125244140625,-0.081787109375
1789139607906820900,1.68082080078125,-0.6864013671875,-0.8612060546875,-0.04815673828125
1789139607916793900,1.6907939453125,-0.6696014404296875,-0.8173828125,-0.1182403564453125
1789139607926766600,1.7007666015625,-0.4821624755859375,-0.828216552734375,-0.076385498046875
1789139607936739600,1.710739501953125,-0.4777984619140625,-0.819061279296875,-0.094146728515625
1789139607946711800,1.7207119140625,-0.4899749755859375,-0.807586669921875,-0.1062469482421875
1789139607956684800,1.730684814453125,-0.5174407958984375,-0.7483978271484375,-0.062530517578125
1789139607966657500,1.740657470703125,-0.582672119140625,-0.775177001953125,-0.0555877685546875
1789139607976630800,1.750630859375,-0.577728271484375,-0.85052490234375,-0.06787109375
1789139607986603800,1.760603759765625,-0.6927032470703125,-0.768341064453125,-0.06683349609375
1789139607996576800,1.77057666015625,-0.735504150390625,-0.769134521484375,-0.0616302490234375
1789139608006549500,1.780549560546875,-0.6479034423828125,-0.8480377197265625,-0.1078033447265625
1789139608016522800,1.790522705078125,-0.635528564453125,-0.8800506591796875,-0.039947509765625
1789139608026495700,1.800495849609375,-0.6005706787109375,-0.881927490234375,-0.0468597412109375
1789139608036468700,1.81046875,-0.6281890869140625,-0.851165771484375,-0.05535888671875
1789139608046440700,1.820440673828125,-0.6135711669921875,-0.763580322265625,-0.032867431640625
1789139608056413700,1.83041357421875,-0.515625,-0.7889556884765625,0.0249176025390625
1789139608066386700,1.84038671875,-0.54443359375,-0.8116607666015625,-0.0687713623046875
1789139608076359700,1.850359619140625,-0.56915283203125,-0.8075103759765625,-0.0573272705078125
1789139608086332700,1.860332763671875,-0.6650390625,-0.7072906494140625,-0.003662109375
1789139608096305700,1.8703056640625,-0.64617919921875,-0.7207489013671875,-0.06158447265625
1789139608106278700,1.880278564453125,-0.5670318603515625,-0.81689453125,-0.04833984375
1789139608116251600,1.890251708984375,-0.5464324951171875,-0.8430023193359375,-0.0359649658203125
1789139608126224600,1.900224609375,-0.634002685546875,-0.7425994873046875,-0.019683837890625
1789139608136198000,1.910197998046875,-0.5143280029296875,-0.80975341796875,-0.0630950927734375
1789139608146169600,1.920169677734375,-0.50775146484375,-0.7843170166015625,-0.0220794677734375
1789139608156142600,1.930142578125,-0.4881591796875,-0.850311279296875,-0.042877197265625
1789139608166116000,1.9401162109375,-0.528289794921875,-0.79974365234375,-0.083404541015625
1789139608176089000,1.950089111328125,-0.5117950439453125,-0.83966064453125,-0.08050537109375
1789139608186061800,1.960061767578125,-0.4848480224609375,-0.87359619140625,-0.1025390625
1789139608196034800,1.970034912109375,-0.5859527587890625,-0.849365234375,-0.1284332275390625
1789139608206008000,1.980008056640625,-0.536712646484375,-0.8176727294921875,-0.0943145751953125
1789139608215981000,1.98998095703125,-0.5285491943359375,-0.7903900146484375,-0.0724945068359375
1789139608225954000,1.9999541015625,-0.557769775390625,-0.9098358154296875,-0.05303955078125
1789139608235926800,2.0099267578125,-0.525115966796875,-0.8977203369140625,-0.0391693115234375
1789139608245899000,2.01989892578125,-0.6100616455078125,-0.791595458984375,-0.0587615966796875
1789139608255872000,2.0298720703125,-0.539825439453125,-0.8195037841796875,0.001556396484375
1789139608265845000,2.039844970703125,-0.47857666015625,-0.9181671142578125,-0.1132049560546875
1789139608275818000,2.04981787109375,-0.57421875,-0.805755615234375,-0.08282470703125
1789139608285791000,2.059791015625,-0.6377410888671875,-0.776153564453125,-0.0585784912109375
1789139608295764000,2.069763916015625,-0.5178985595703125,-0.92559814453125,-0.0030517578125
1789139608305737000,2.079737060546875,-0.503936767578125,-0.927764892578125,0.011932373046875
1789139608315710000,2.0897099609375,-0.6223297119140625,-0.8329620361328125,0.0618743896484375
1789139608325683000,2.099682861328125,-0.6724090576171875,-0.8180084228515625,0.0183563232421875
1789139608335656000,2.109656005859375,-0.534332275390625,-0.890106201171875,-0.0029144287109375
1789139608345629000,2.11962890625,-0.5088653564453125,-0.820281982421875,0.017578125
1789139608355601200,2.12960107421875,-0.6658172607421875,-0.774658203125,0.00091552734375
1789139608365574000,2.139573974609375,-0.541015625,-0.8675689697265625,0.0133514404296875
1789139608375547000,2.149546875,-0.5493621826171875,-0.791168212890625,0.0547332763671875
1789139608385519900,2.159519775390625,-0.6679534912109375,-0.782470703125,0.059295654296875
1789139608395493000,2.1694931640625,-0.5485076904296875,-0.886077880859375,0.0351715087890625
1789139608405466000,2.179466064453125,-0.6367645263671875,-0.815643310546875,-0.00885009765625
1789139608415438800,2.18943896484375,-0.676605224609375,-0.8275909423828125,0.094482421875
1789139608425411800,2.199411865234375,-0.6872406005859375,-0.8615264892578125,0.020233154296875
1789139608435385000,2.209385009765625,-0.572265625,-0.904388427734375,0.026580810546875
1789139608445358000,2.219358154296875,-0.5914459228515625,-0.859222412109375,-0.0194549560546875
1789139608455329800,2.229329833984375,-0.6026763916015625,-0.8283843994140625,-0.0540313720703125
1789139608465303000,2.239302978515625,-0.4833221435546875,-0.867828369140625,-0.0679473876953125
1789139608475276000,2.249276123046875,-0.4452056884765625,-0.8497467041015625,-0.0693511962890625
1789139608485249000,2.2592490234375,-0.4976806640625,-0.77886962890625,-0.093292236328125
1789139608495221800,2.2692216796875,-0.4756317138671875,-0.802093505859375,-0.1367034912109375
1789139608505195000,2.279195068359375,-0.5077972412109375,-0.8143768310546875,-0.0540313720703125
1789139608515168000,2.28916796875,-0.520416259765625,-0.8062896728515625,-0.012481689453125
1789139608525141000,2.29914111328125,-0.645965576171875,-0.7213287353515625,-0.069732666015625
1789139608535114000,2.309114013671875,-0.5985260009765625,-0.837158203125,0.0019683837890625
1789139608545087000,2.3190869140625,-0.5790252685546875,-0.9015350341796875,0.05474853515625
1789139608555060000,2.32906005859375,-0.6632080078125,-0.833892822265625,-0.0116729736328125
1789139608565032000,2.339031982421875,-0.7877349853515625,-0.7098846435546875,-0.04998779296875
1789139608575005000,2.3490048828125,-0.698089599609375,-0.8707427978515625,0.0169219970703125
1789139608584978000,2.35897802734375,-0.368621826171875,-1.0318756103515625,0.017364501953125
1789139608594951000,2.368950927734375,-0.504669189453125,-0.835540771484375,0.0403289794921875
1789139608604924000,2.378923828125,-0.763031005859375,-0.6421966552734375,0.0481414794921875
1789139608614897000,2.38889697265625,-0.4046173095703125,-0.8760223388671875,0.022491455078125
1789139608624870100,2.3988701171875,-0.1909027099609375,-0.9394073486328125,0.0387115478515625
1789139608634843000,2.4088427734375,-0.5450592041015625,-0.676422119140625,0.0230712890625
1789139608644816000,2.41881591796875,-0.63189697265625,-0.666015625,0.012481689453125
1789139608654788900,2.428788818359375,-0.49591064453125,-0.8604888916015625,0.0764923095703125
1789139608664762000,2.43876220703125,-0.5351715087890625,-0.83306884765625,0.0512542724609375
1789139608674733800,2.44873388671875,-0.7340087890625,-0.742034912109375,-0.0612335205078125
1789139608684706800,2.458706787109375,-0.7207183837890625,-0.8444366455078125,0.0186920166015625
1789139608694680000,2.46868017578125,-0.671905517578125,-0.8582000732421875,0.098297119140625
1789139608704653000,2.478653076171875,-0.6895904541015625,-0.818023681640625,0.020172119140625
1789139608714626000,2.4886259765625,-0.597503662109375,-0.8954315185546875,0.0030517578125
1789139608724598800,2.498598876953125,-0.5901947021484375,-0.8453216552734375,0.0584564208984375
1789139608734572000,2.508572021484375,-0.7036285400390625,-0.763458251953125,-0.034698486328125
1789139608744545000,2.518544921875,-0.4626922607421875,-0.9321136474609375,-0.0507659912109375
1789139608754518000,2.52851806640625,-0.46356201171875,-0.9357452392578125,-0.061553955078125
1789139608764491000,2.538490966796875,-0.6506195068359375,-0.73736572265625,-0.0819854736328125
1789139608774464000,2.548464111328125,-0.5954132080078125,-0.7712249755859375,-0.1096649169921875
1789139608784436000,2.55843603515625,-0.5475311279296875,-0.8693389892578125,-0.105224609375
1789139608794409000,2.568408935546875,-0.5381011962890625,-0.8169097900390625,-0.07550048828125
1789139608804382000,2.5783818359375,-0.5719146728515625,-0.788116455078125,-0.07659912109375
1789139608814355000,2.58835498046875,-0.582672119140625,-0.84027099609375,-0.04400634765625
1789139608824328000,2.598327880859375,-0.6265411376953125,-0.808868408203125,0.010528564453125
1789139608834301000,2.608301025390625,-0.5624542236328125,-0.8201446533203125,-0.0391998291015625
1789139608844274000,2.61827392578125,-0.5473480224609375,-0.856292724609375,-0.0061492919921875
1789139608854247000,2.628246826171875,-0.4961395263671875,-0.90875244140625,-0.02197265625
1789139608864220000,2.638219970703125,-0.570770263671875,-0.812255859375,0.06536865234375
1789139608874193000,2.64819287109375,-0.575897216796875,-0.7366485595703125,0.0049896240234375
1789139608884166000,2.658165771484375,-0.416717529296875,-0.8172607421875,0.0416412353515625
1789139608894137900,2.668137939453125,-0.4116668701171875,-0.8502197265625,0.0135650634765625
1789139608904110800,2.67811083984375,-0.5469970703125,-0.8347320556640625,0.0097808837890625
1789139608914083800,2.688083740234375,-0.609375,-0.7600860595703125,-0.014007568359375
1789139608924057000,2.69805712890625,-0.5860748291015625,-0.79376220703125,-0.075531005859375
1789139608934030000,2.708030029296875,-0.5800323486328125,-0.8940582275390625,-0.1234893798828125
1789139608944002800,2.7180029296875,-0.7258453369140625,-0.8114013671875,-0.0804443359375
1789139608953975800,2.727975830078125,-0.7215423583984375,-0.7444610595703125,-0.0316619873046875
1789139608963949000,2.737948974609375,-0.5599212646484375,-0.8847198486328125,-0.0912017822265625
1789139608973922000,2.747922119140625,-0.4697113037109375,-0.9413604736328125,0.0341949462890625
1789139608983895000,2.75789501953125,-0.534027099609375,-0.8124237060546875,0.01953125
1789139608993867800,2.76786767578125,-0.5193023681640625,-0.7705230712890625,-0.064178466796875
1789139609003840000,2.777840087890625,-0.4021759033203125,-0.8566741943359375,-0.141815185546875
1789139609013813000,2.78781298828125,-0.4295654296875,-0.855499267578125,-0.029541015625
1789139609023786000,2.797785888671875,-0.4994354248046875,-0.8253326416015625,-0.05804443359375
1789139609033759000,2.807759033203125,-0.5975341796875,-0.7030792236328125,-0.1084136962890625
1789139609043732000,2.81773193359375,-0.5660552978515625,-0.7847442626953125,-0.1812896728515625
1789139609053705000,2.827705078125,-0.5222320556640625,-0.93359375,-0.0025787353515625
1789139609063678000,2.837677978515625,-0.5895233154296875,-0.8963775634765625,-0.0157470703125
1789139609073651200,2.847651123046875,-0.689788818359375,-0.7800140380859375,0.00006103515625
1789139609083624000,2.8576240234375,-0.5988616943359375,-0.90093994140625,0.0045623779296875
1789139609093597000,2.867596923828125,-0.614959716796875,-0.917999267578125,0.02166748046875
1789139609103570000,2.87756982421875,-0.556732177734375,-0.9492950439453125,-0.0236968994140625
1789139609113542100,2.887542236328125,-0.541717529296875,-0.8585662841796875,-0.03497314453125
1789139609123515000,2.897514892578125,-0.48297119140625,-0.9138031005859375,-0.013641357421875
1789139609133487900,2.90748779296875,-0.3956146240234375,-0.8944244384765625,0.0233306884765625
1789139609143460900,2.9174609375,-0.3123016357421875,-0.935333251953125,0.0325469970703125
1789139609153434000,2.92743408203125,-0.4586334228515625,-0.7959442138671875,-0.009246826171875
1789139609163407000,2.937406982421875,-0.3574371337890625,-0.9051361083984375,-0.087615966796875
1789139609173380000,2.947380126953125,-0.470306396484375,-0.77783203125,0.0270233154296875
1789139609183353000,2.95735302734375,-0.6163177490234375,-0.7326202392578125,-0.089111328125
1789139609193326000,2.967326171875,-0.604461669921875,-0.819305419921875,-0.12969970703125
1789139609203299000,2.977299072265625,-0.75201416015625,-0.8319854736328125,0.00811767578125
1789139609213272000,2.98727197265625,-0.843048095703125,-0.813995361328125,0.108673095703125
1789139609223245000,2.9972451171875,-0.7328643798828125,-0.812042236328125,-0.074310302734375
1789139609233217000,3.007217041015625,-0.6210479736328125,-0.8831634521484375,-0.0834808349609375
1789139609243190000,3.01718994140625,-0.5044403076171875,-0.945831298828125,-0.019439697265625
1789139609253163000,3.0271630859375,-0.5529327392578125,-0.7982025146484375,-0.034149169921875
1789139609263136300,3.03713623046875,-0.5147857666015625,-0.834442138671875,-0.0334930419921875
1789139609273109200,3.047109130859375,-0.3509674072265625,-0.9029388427734375,0.0672454833984375
1789139609283082000,3.05708203125,-0.3609161376953125,-0.7630767822265625,-0.0925750732421875
1789139609293055000,3.067054931640625,-0.56829833984375,-0.6767578125,-0.1558074951171875
1789139609303028200,3.0770283203125,-0.598358154296875,-0.7786865234375,-0.0703887939453125
1789139609313001200,3.087001220703125,-0.65484619140625,-0.7835235595703125,-0.0413360595703125
1789139609322974200,3.09697412109375,-0.64605712890625,-0.712005615234375,-0.1197509765625
1789139609332947000,3.106947021484375,-0.6179962158203125,-0.7219390869140625,-0.0955657958984375
1789139609342919200,3.116919189453125,-0.67633056640625,-0.84014892578125,0.0251007080078125
1789139609352892200,3.12689208984375,-0.6923065185546875,-0.9189910888671875,0.0335693359375
1789139609362865000,3.136864990234375,-0.6038818359375,-0.851654052734375,-0.0717620849609375
1789139609372838100,3.146838134765625,-0.5752716064453125,-0.840484619140625,-0.044464111328125
1789139609382811100,3.15681103515625,-0.5041656494140625,-0.8354644775390625,-0.0419921875
1789139609392784100,3.1667841796875,-0.6259918212890625,-0.759307861328125,-0.09710693359375
1789139609402757000,3.176757080078125,-0.6539459228515625,-0.7919158935546875,-0.0048828125
1789139609412729900,3.186729736328125,-0.61236572265625,-0.8448638916015625,-0.0347137451171875
1789139609422703000,3.196703125,-0.6805419921875,-0.7556610107421875,-0.03802490234375
1789139609432676000,3.206676025390625,-0.588470458984375,-0.8495330810546875,-0.02288818359375
1789139609442649000,3.216649169921875,-0.535400390625,-0.9031219482421875,0.0223541259765625
1789139609452622000,3.2266220703125,-0.5967254638671875,-0.81378173828125,-0.0393218994140625
1789139609462594000,3.236593994140625,-0.4984588623046875,-0.8323211669921875,-0.02960205078125
1789139609472567000,3.246567138671875,-0.5181884765625,-0.85205078125,0.027587890625
1789139609482540000,3.2565400390625,-0.594573974609375,-0.7762451171875,0.024993896484375
1789139609492513300,3.26651318359375,-0.500946044921875,-0.817352294921875,-0.0536956787109375
1789139609502486000,3.276486083984375,-0.55364990234375,-0.817169189453125,-0.0294647216796875
1789139609512459000,3.286458984375,-0.629730224609375,-0.7712554931640625,-0.032470703125
1789139609522432000,3.296431884765625,-0.5817718505859375,-0.8210601806640625,-0.0343475341796875
1789139609532405200,3.3064052734375,-0.5818634033203125,-0.801788330078125,-0.052703857421875
1789139609542378200,3.316378173828125,-0.50946044921875,-0.8608856201171875,-0.0078582763671875
1789139609552351000,3.32635107421875,-0.58917236328125,-0.8677825927734375,-0.0392913818359375
1789139609562324000,3.336323974609375,-0.6206207275390625,-0.8046417236328125,-0.0532379150390625
1789139609572297200,3.346297119140625,-0.639923095703125,-0.7557373046875,-0.1312255859375
1789139609582269200,3.356269287109375,-0.5947113037109375,-0.751983642578125,-0.1399688720703125
1789139609592242000,3.366241943359375,-0.5774688720703125,-0.7689971923828125,-0.162933349609375
1789139609602215200,3.376215087890625,-0.6258544921875,-0.7395477294921875,-0.114898681640625
1789139609612188200,3.386188232421875,-0.5843963623046875,-0.761871337890625,-0.0828399658203125
1789139609622161200,3.3961611328125,-0.6127777099609375,-0.7720489501953125,-0.0671234130859375
1789139609632134100,3.406134033203125,-0.476043701171875,-0.8834228515625,-0.1042938232421875
1789139609642107100,3.416107177734375,-0.4584503173828125,-0.889129638671875,-0.15545654296875
1789139609652080000,3.426080078125,-0.575714111328125,-0.79388427734375,-0.1230010986328125
1789139609662053000,3.43605322265625,-0.5565032958984375,-0.8556671142578125,-0.1767425537109375
1789139609672026000,3.446026123046875,-0.502349853515625,-0.8942413330078125,-0.1626739501953125
1789139609681999000,3.4559990234375,-0.637542724609375,-0.789031982421875,-0.17828369140625
1789139609691972000,3.46597216796875,-0.6140289306640625,-0.8205413818359375,-0.145721435546875
1789139609701944000,3.475944091796875,-0.5995941162109375,-0.8758697509765625,-0.1620635986328125
1789139609711917000,3.4859169921875,-0.6106719970703125,-0.828948974609375,-0.098114013671875
1789139609721890000,3.49589013671875,-0.6485137939453125,-0.7956695556640625,-0.04107666015625
1789139609731863000,3.505863037109375,-0.48876953125,-0.942901611328125,-0.0565643310546875
1789139609741836000,3.5158359375,-0.4961090087890625,-0.9183502197265625,-0.10369873046875
1789139609751809000,3.52580908203125,-0.5439453125,-0.7898712158203125,-0.0222320556640625
1789139609761782300,3.5357822265625,-0.448516845703125,-0.835845947265625,-0.0550079345703125
1789139609771755000,3.545755126953125,-0.44244384765625,-0.9060821533203125,-0.082305908203125
1789139609781728000,3.55572802734375,-0.543121337890625,-0.82318115234375,-0.01416015625
1789139609791701000,3.565700927734375,-0.564117431640625,-0.79498291015625,0.04254150390625
1789139609801674200,3.57567431640625,-0.6431427001953125,-0.79718017578125,0.0121612548828125
1789139609811647200,3.585647216796875,-0.548492431640625,-0.842498779296875,0.0638885498046875
1789139609821620000,3.595619873046875,-0.6410369873046875,-0.748321533203125,0.0085296630859375
1789139609831592200,3.60559228515625,-0.6726531982421875,-0.7904815673828125,-0.0445098876953125
1789139609841565200,3.615565185546875,-0.5576934814453125,-0.8816375732421875,-0.068389892578125
1789139609851538200,3.6255380859375,-0.5659332275390625,-0.8701324462890625,-0.006195068359375
1789139609861511000,3.635510986328125,-0.5640716552734375,-0.8291015625,-0.102752685546875
1789139609871484200,3.645484130859375,-0.5900115966796875,-0.8173980712890625,-0.02880859375
1789139609881457200,3.65545703125,-0.5529937744140625,-0.8143463134765625,-0.015655517578125
1789139609891430100,3.66543017578125,-0.4804840087890625,-0.7967376708984375,-0.0363616943359375
1789139609901403100,3.675403076171875,-0.53387451171875,-0.805206298828125,-0.0648345947265625
1789139609911376000,3.6853759765625,-0.572998046875,-0.8134002685546875,-0.0217437744140625
1789139609921349000,3.69534912109375,-0.5775604248046875,-0.779388427734375,-0.081695556640625
1789139609931322000,3.705322021484375,-0.4619903564453125,-0.8563232421875,-0.1785430908203125
1789139609941295000,3.715295166015625,-0.5602874755859375,-0.8305511474609375,-0.2096405029296875
1789139609951267000,3.72526708984375,-0.630279541015625,-0.8095855712890625,-0.157958984375
1789139609961240000,3.735239990234375,-0.5643310546875,-0.858978271484375,-0.1767425537109375
1789139609971213000,3.745213134765625,-0.5445098876953125,-0.840606689453125,-0.1976776123046875
1789139609981186000,3.75518603515625,-0.5700836181640625,-0.7878265380859375,-0.1018524169921875
1789139609991159300,3.7651591796875,-0.597900390625,-0.8313446044921875,-0.1316680908203125
1789139610001132000,3.775132080078125,-0.6051483154296875,-0.8634490966796875,-0.1566162109375
1789139610011105000,3.78510498046875,-0.6083526611328125,-0.8091278076171875,-0.0894927978515625
1789139610021078000,3.795078125,-0.6092681884765625,-0.7686767578125,-0.0576324462890625
1789139610031051300,3.80505126953125,-0.5843505859375,-0.853759765625,-0.17498779296875
1789139610041024000,3.81502392578125,-0.613861083984375,-0.8332366943359375,-0.079315185546875
1789139610050997000,3.8249970703125,-0.668243408203125,-0.7710113525390625,-0.038726806640625
1789139610060970000,3.834969970703125,-0.6123809814453125,-0.769622802734375,-0.059967041015625
1789139610070943200,3.844943115234375,-0.5739288330078125,-0.8206939697265625,-0.0479583740234375
1789139610080915000,3.8549150390625,-0.6093597412109375,-0.820037841796875,-0.0263671875
1789139610090888000,3.864887939453125,-0.576019287109375,-0.839752197265625,-0.0541534423828125
1789139610100861200,3.874861083984375,-0.586700439453125,-0.8173980712890625,0.005218505859375
1789139610110834200,3.884834228515625,-0.652862548828125,-0.7870941162109375,0.0407867431640625
1789139610120807200,3.89480712890625,-0.563629150390625,-0.803070068359375,-0.012542724609375
1789139610130780000,3.90477978515625,-0.44268798828125,-0.8761444091796875,-0.04974365234375
1789139610140753200,3.914753173828125,-0.5636138916015625,-0.79278564453125,-0.0114593505859375
1789139610150726100,3.92472607421875,-0.6259613037109375,-0.7631378173828125,-0.0052032470703125
1789139610160699100,3.93469921875,-0.5968017578125,-0.8327178955078125,-0.0866241455078125
1789139610170672000,3.944672119140625,-0.56463623046875,-0.886016845703125,-0.042694091796875
1789139610180644900,3.954644775390625,-0.637939453125,-0.786468505859375,-0.025115966796875
1789139610190618000,3.9646181640625,-0.7621002197265625,-0.6913604736328125,-0.043975830078125
1789139610200590000,3.974590087890625,-0.7261810302734375,-0.810455322265625,0.0068817138671875
1789139610210563000,3.98456298828125,-0.5190582275390625,-0.9173583984375,-0.025421142578125
1789139610220536000,3.9945361328125,-0.4716644287109375,-0.762847900390625,-0.04583740234375
1789139610230509000,4.004509033203125,-0.6360931396484375,-0.6905670166015625,-0.038177490234375
1789139610240482000,4.01448193359375,-0.324127197265625,-1.00787353515625,-0.054473876953125
1789139610250455000,4.024455078125,-0.442230224609375,-0.7924957275390625,-0.0761871337890625
1789139610260428300,4.03442822265625,-0.7033233642578125,-0.5552520751953125,-0.00177001953125
1789139610270401000,4.044401123046875,-0.41510009765625,-0.836517333984375,-0.0935821533203125
1789139610280374000,4.0543740234375,-0.4615631103515625,-0.8507537841796875,-0.123443603515625
1789139610290347000,4.064346923828125,-0.8255157470703125,-0.5781402587890625,-0.02752685546875
1789139610300320300,4.0743203125,-0.703765869140625,-0.81719970703125,-0.066558837890625
1789139610310293200,4.084293212890625,-0.524078369140625,-1.010345458984375,-0.1275177001953125
1789139610320266000,4.094265869140625,-0.7068939208984375,-0.81396484375,-0.0658111572265625
1789139610330239000,4.104239013671875,-0.7523956298828125,-0.7486572265625,-0.084930419921875
1789139610340211200,4.114211181640625,-0.5861358642578125,-0.92401123046875,-0.10272216796875
1789139610350184200,4.12418408203125,-0.6472625732421875,-0.8071136474609375,-0.0587158203125
1789139610360157000,4.134156982421875,-0.6156158447265625,-0.7734832763671875,-0.043304443359375
1789139610370130200,4.144130126953125,-0.4864654541015625,-0.8864288330078125,-0.076995849609375
1789139610380103200,4.154103271484375,-0.4972991943359375,-0.9160919189453125,-0.0667266845703125
1789139610390076200,4.164076171875,-0.5324249267578125,-0.7992706298828125,-0.02252197265625
1789139610400049000,4.174048828125,-0.428466796875,-0.8489837646484375,-0.015777587890625
1789139610410022100,4.184022216796875,-0.4463653564453125,-0.90838623046875,-0.114410400390625
1789139610419995100,4.1939951171875,-0.5088043212890625,-0.8450927734375,-0.0362396240234375
1789139610429968100,4.203968017578125,-0.6430816650390625,-0.760040283203125,-0.0709381103515625
1789139610439941000,4.213941162109375,-0.564422607421875,-0.9033660888671875,-0.1086273193359375
1789139610449913900,4.223913818359375,-0.572601318359375,-0.8739471435546875,-0.075958251953125
1789139610459887000,4.23388720703125,-0.67901611328125,-0.775238037109375,0.08929443359375
1789139610469859000,4.243859130859375,-0.6541290283203125,-0.7974395751953125,-0.058746337890625
1789139610479832000,4.25383203125,-0.6064300537109375,-0.8937530517578125,0.0095672607421875
1789139610489805000,4.26380517578125,-0.5821533203125,-0.8966522216796875,0.075653076171875
1789139610499778000,4.273778076171875,-0.585205078125,-0.860595703125,0.0687408447265625
1789139610509751000,4.2837509765625,-0.603973388671875,-0.809295654296875,-0.0070343017578125
1789139610519724000,4.29372412109375,-0.5462493896484375,-0.814483642578125,0.05181884765625
1789139610529697300,4.303697265625,-0.5264739990234375,-0.81927490234375,0.0472869873046875
1789139610539670000,4.313669921875,-0.580596923828125,-0.84283447265625,0.048828125
1789139610549643000,4.32364306640625,-0.636383056640625,-0.764190673828125,0.019439697265625
1789139610559616000,4.333615966796875,-0.513427734375,-0.755828857421875,0.0242462158203125
1789139610569589200,4.34358935546875,-0.49462890625,-0.8211517333984375,0.0419158935546875
1789139610579562200,4.353562255859375,-0.438446044921875,-0.8814697265625,0.014404296875
1789139610589535000,4.363534912109375,-0.473419189453125,-0.8226470947265625,-0.013641357421875
1789139610599507200,4.373507080078125,-0.526092529296875,-0.7862396240234375,-0.002105712890625
1789139610609480200,4.383480224609375,-0.468780517578125,-0.786773681640625,-0.0434417724609375
1789139610619453200,4.393453125,-0.4827728271484375,-0.7913970947265625,-0.0421600341796875
1789139610629426000,4.403426025390625,-0.5378265380859375,-0.871368408203125,-0.044097900390625
1789139610639399200,4.413399169921875,-0.670684814453125,-0.813812255859375,-0.11077880859375
1789139610649372200,4.4233720703125,-0.7066497802734375,-0.8086090087890625,-0.0150299072265625
1789139610659345200,4.43334521484375,-0.612518310546875,-0.89971923828125,0.0147705078125
1789139610669318100,4.443318115234375,-0.561614990234375,-0.9293975830078125,-0.0642852783203125
1789139610679291100,4.453291015625,-0.685760498046875,-0.8179779052734375,-0.0036163330078125
1789139610689264000,4.46326416015625,-0.6974639892578125,-0.7948760986328125,-0.026824951171875
1789139610699237000,4.473237060546875,-0.5440216064453125,-0.85223388671875,-0.0729827880859375
1789139610709210000,4.483210205078125,-0.5260772705078125,-0.860382080078125,-0.0571441650390625
1789139610719183000,4.49318310546875,-0.5205230712890625,-0.830078125,-0.012603759765625
1789139610729155000,4.503155029296875,-0.5765533447265625,-0.7697601318359375,-0.0535736083984375
1789139610739128000,4.513128173828125,-0.5263671875,-0.80096435546875,-0.0323638916015625
1789139610749101000,4.52310107421875,-0.4805908203125,-0.9097900390625,0.0238037109375
1789139610759074000,4.533073974609375,-0.624420166015625,-0.7895050048828125,-0.0221405029296875
1789139610769047000,4.543047119140625,-0.65484619140625,-0.7643585205078125,-0.0324859619140625
1789139610779020000,4.55302001953125,-0.54559326171875,-0.8874359130859375,-0.0439910888671875
1789139610788993000,4.562992919921875,-0.516387939453125,-0.9236602783203125,-0.062255859375
1789139610798966300,4.57296630859375,-0.7612762451171875,-0.68914794921875,-0.0489959716796875
1789139610808939000,4.58293896484375,-0.673614501953125,-0.773590087890625,-0.0033721923828125
1789139610818912000,4.592912109375,-0.4549560546875,-0.913665771484375,-0.0584869384765625
1789139610828885000,4.602885009765625,-0.505279541015625,-0.852874755859375,-0.01007080078125
1789139610838858200,4.612858154296875,-0.7531280517578125,-0.673431396484375,0.05029296875
1789139610848831200,4.622831298828125,-0.6324310302734375,-0.79931640625,-0.0178680419921875
1789139610858804000,4.632803955078125,-0.365692138671875,-0.896514892578125,-0.0699310302734375
1789139610868776200,4.642776123046875,-0.48565673828125,-0.8047332763671875,-0.0029449462890625
1789139610878749200,4.652749267578125,-0.701385498046875,-0.7227630615234375,0.024810791015625
1789139610888722200,4.66272216796875,-0.50732421875,-0.8381195068359375,0.0626220703125
1789139610898695000,4.67269482421875,-0.5735931396484375,-0.8265533447265625,0.0098419189453125
1789139610908668200,4.682668212890625,-0.714263916015625,-0.7624359130859375,0.0399932861328125
1789139610918641200,4.69264111328125,-0.66632080078125,-0.69525146484375,-0.0041046142578125
1789139610928614100,4.7026142578125,-0.6431884765625,-0.7354736328125,-0.0491485595703125
1789139610938587100,4.712587158203125,-0.652130126953125,-0.7882537841796875,-0.035400390625
1789139610948560000,4.722559814453125,-0.554779052734375,-0.8365478515625,-0.0229034423828125
1789139610958533000,4.732533203125,-0.557830810546875,-0.8593597412109375,-0.0448760986328125
1789139610968506000,4.742506103515625,-0.5474395751953125,-0.823394775390625,-0.0745697021484375
1789139610978479000,4.75247900390625,-0.5502166748046875,-0.8308563232421875,-0.03179931640625
1789139610988452000,4.7624521484375,-0.5886688232421875,-0.7864532470703125,-0.075775146484375
1789139610998425000,4.772425048828125,-0.5953369140625,-0.800262451171875,-0.1544036865234375
1789139611008397000,4.78239697265625,-0.6721954345703125,-0.7631072998046875,-0.089752197265625
1789139611018370000,4.7923701171875,-0.685943603515625,-0.8480987548828125,-0.151275634765625
1789139611028343300,4.80234326171875,-0.5587158203125,-0.947540283203125,-0.1759185791015625
1789139611038316000,4.81231591796875,-0.5795440673828125,-0.8608551025390625,-0.1363677978515625
1789139611048289000,4.8222890625,-0.5727996826171875,-0.7926177978515625,-0.1309051513671875
1789139611058262000,4.832261962890625,-0.379180908203125,-0.877655029296875,-0.16644287109375
1789139611068235300,4.8422353515625,-0.3262786865234375,-0.922119140625,-0.1638336181640625
1789139611078208000,4.8522080078125,-0.4072265625,-0.865020751953125,-0.1294708251953125
1789139611088181000,4.862180908203125,-0.36358642578125,-0.9003753662109375,-0.1385498046875
1789139611098154000,4.872154052734375,-0.3952484130859375,-0.894195556640625,-0.092041015625
1789139611108127200,4.882127197265625,-0.4304351806640625,-0.9026336669921875,-0.101043701171875
1789139611118100200,4.892100341796875,-0.5980987548828125,-0.8618316650390625,-0.085968017578125
1789139611128073000,4.902072998046875,-0.6618194580078125,-0.861480712890625,-0.091094970703125
1789139611138046000,4.9120458984375,-0.6982421875,-0.8118133544921875,-0.068145751953125
1789139611148018200,4.92201806640625,-0.7284088134765625,-0.7764434814453125,-0.058135986328125
1789139611157991200,4.9319912109375,-0.6650848388671875,-0.9228668212890625,-0.029541015625
1789139611167964400,4.94196435546875,-0.5331268310546875,-0.954193115234375,-0.024383544921875
1789139611177937400,4.9519375,-0.480682373046875,-0.8638153076171875,0.0272064208984375
1789139611187910700,4.96191064453125,-0.452972412109375,-0.8275146484375,0.0795135498046875
1789139611197883400,4.97188330078125,-0.3985595703125,-0.8243560791015625,0.1107940673828125
1789139611207856400,4.9818564453125,-0.399810791015625,-0.7987213134765625,-0.00531005859375
1789139611217829400,4.991829345703125,-0.4368133544921875,-0.7988433837890625,0.05181884765625
1789139611227802600,5.001802734375,-0.51873779296875,-0.809814453125,0.0246429443359375
1789139611237775600,5.011775634765625,-0.5725860595703125,-0.7631072998046875,-0.0230712890625
1789139611247748400,5.021748291015625,-0.567108154296875,-0.77801513671875,-0.1096954345703125
1789139611257721300,5.031721435546875,-0.5327911376953125,-0.8747711181640625,0.03839111328125
1789139611267694600,5.041694580078125,-0.6538238525390625,-0.9130096435546875,0.0337371826171875
1789139611277667600,5.05166748046875,-0.6724090576171875,-0.8871307373046875,-0.02410888671875
1789139611287640600,5.061640625,-0.6165313720703125,-0.875579833984375,0.0746002197265625
1789139611297612500,5.071612548828125,-0.61376953125,-0.8535919189453125,0.1051177978515625
1789139611307585500,5.08158544921875,-0.54705810546875,-0.8955230712890625,-0.013763427734375
1789139611317558500,5.09155859375,-0.4807891845703125,-0.9161376953125,0.038116455078125
1789139611327531500,5.101531494140625,-0.660675048828125,-0.7203521728515625,0.0209503173828125
1789139611337504500,5.11150439453125,-0.522430419921875,-0.8405609130859375,-0.01080322265625
1789139611347477500,5.1214775390625,-0.4087677001953125,-0.9239654541015625,-0.0120849609375
1789139611357450500,5.131450439453125,-0.5096893310546875,-0.868560791015625,0.0383758544921875
1789139611367423500,5.141423583984375,-0.633941650390625,-0.786041259765625,-0.0255889892578125
1789139611377396200,5.151396240234375,-0.599609375,-0.91558837890625,-0.0377044677734375
1789139611387369500,5.161369384765625,-0.671417236328125,-0.8022308349609375,-0.0440521240234375
1789139611397342500,5.171342529296875,-0.621337890625,-0.8144073486328125,-0.06439208984375
1789139611407315500,5.1813154296875,-0.5315399169921875,-0.9276580810546875,-0.0820770263671875
1789139611417288400,5.191288330078125,-0.5955810546875,-0.8775634765625,-0.049774169921875
1789139611427261400,5.201261474609375,-0.7888641357421875,-0.59820556640625,-0.03509521484375
1789139611437233400,5.2112333984375,-0.5348052978515625,-0.772491455078125,-0.0196533203125
1789139611447206400,5.221206298828125,-0.3392333984375,-0.9119873046875,-0.020660400390625
1789139611457179600,5.2311796875,-0.49456787109375,-0.8389739990234375,-0.0137481689453125
1789139611467152400,5.24115234375,-0.653564453125,-0.7843170166015625,0.010528564453125
1789139611477125400,5.25112548828125,-0.4870452880859375,-0.91131591796875,0.034423828125
1789139611487098400,5.261098388671875,-0.379974365234375,-0.911407470703125,-0.0052337646484375
1789139611497071600,5.271071533203125,-0.5643157958984375,-0.738128662109375,-0.006988525390625
1789139611507044600,5.281044677734375,-0.591217041015625,-0.702239990234375,-0.031524658203125
1789139611517017300,5.291017333984375,-0.5226287841796875,-0.7630767822265625,-0.04718017578125
1789139611526990300,5.300990234375,-0.5157623291015625,-0.83197021484375,-0.03497314453125
1789139611536963600,5.310963623046875,-0.575714111328125,-0.7901458740234375,0.1075897216796875
1789139611546936600,5.3209365234375,-0.621490478515625,-0.762298583984375,0.045135498046875
1789139611556909600,5.33090966796875,-0.5232696533203125,-0.8909454345703125,0.0189056396484375
1789139611566882300,5.34088232421875,-0.5945587158203125,-0.8985748291015625,0.086822509765625
1789139611576855300,5.350855224609375,-0.6649169921875,-0.8342437744140625,0.093353271484375
1789139611586827500,5.36082763671875,-0.6281280517578125,-0.817413330078125,-0.0454864501953125
1789139611596800500,5.370800537109375,-0.5576629638671875,-0.896575927734375,-0.0123291015625
1789139611606773500,5.3807734375,-0.5615997314453125,-0.88616943359375,0.0194854736328125
1789139611616746500,5.39074658203125,-0.6710662841796875,-0.7738037109375,-0.0270233154296875
1789139611626719500,5.400719482421875,-0.6170806884765625,-0.8186798095703125,-0.0135040283203125
1789139611636692500,5.4106923828125,-0.5774688720703125,-0.8780517578125,-0.068450927734375
1789139611646665500,5.42066552734375,-0.5297393798828125,-0.8844146728515625,-0.1043701171875
1789139611656638500,5.430638427734375,-0.5875396728515625,-0.81146240234375,-0.096435546875
1789139611666611500,5.440611572265625,-0.4970245361328125,-0.8692169189453125,-0.088043212890625
1789139611676584400,5.45058447265625,-0.470306396484375,-0.8721923828125,-0.1724853515625
1789139611686557400,5.460557373046875,-0.4931793212890625,-0.7869720458984375,-0.0707550048828125
1789139611696530700,5.47053076171875,-0.5262298583984375,-0.7621917724609375,-0.16156005859375
1789139611706503400,5.48050341796875,-0.494598388671875,-0.8265380859375,-0.1405181884765625
1789139611716476400,5.490476318359375,-0.57818603515625,-0.74761962890625,-0.1137542724609375
1789139611726449400,5.500449462890625,-0.5394134521484375,-0.7515716552734375,-0.1204071044921875
1789139611736421400,5.51042138671875,-0.5637969970703125,-0.8636932373046875,-0.1368255615234375
1789139611746394400,5.520394287109375,-0.6240692138671875,-0.8687591552734375,-0.0542144775390625
1789139611756367400,5.530367431640625,-0.7187652587890625,-0.6977081298828125,-0.0257110595703125
1789139611766340600,5.540340576171875,-0.5750732421875,-0.81512451171875,-0.040863037109375
1789139611776313600,5.550313720703125,-0.4908905029296875,-0.97882080078125,-0.0859375
1789139611786286300,5.560286376953125,-0.6407470703125,-0.8167572021484375,0.00030517578125
1789139611796259300,5.57025927734375,-0.4714813232421875,-0.8704986572265625,0.013580322265625
1789139611806232600,5.580232666015625,-0.47857666015625,-0.9046630859375,-0.0156097412109375
1789139611816205600,5.59020556640625,-0.4036407470703125,-0.8812255859375,0.05377197265625
1789139611826178600,5.600178466796875,-0.511322021484375,-0.7681121826171875,0.0070648193359375
1789139611836151300,5.6101513671875,-0.58038330078125,-0.7426605224609375,0.008056640625
1789139611846124300,5.620124267578125,-0.458892822265625,-0.855804443359375,-0.042327880859375
1789139611856097500,5.63009765625,-0.4897613525390625,-0.79705810546875,-0.0117034912109375
1789139611866070500,5.640070556640625,-0.66473388671875,-0.7007904052734375,-0.09710693359375
1789139611876043500,5.65004345703125,-0.5237274169921875,-0.851409912109375,-0.0419464111328125
1789139611886015500,5.660015380859375,-0.4119720458984375,-1.0731201171875,-0.0907135009765625
1789139611895988500,5.669988525390625,-0.6943206787109375,-0.7840118408203125,-0.0355072021484375
1789139611905961500,5.67996142578125,-0.7836151123046875,-0.6778106689453125,0.046661376953125
1789139611915934500,5.6899345703125,-0.4254913330078125,-0.9774169921875,-0.0288238525390625
1789139611925907500,5.699907470703125,-0.392333984375,-1.0361480712890625,-0.0811004638671875
1789139611935880400,5.70988037109375,-0.8290557861328125,-0.6609649658203125,-0.00701904296875
1789139611945853400,5.719853515625,-0.6993560791015625,-0.7618408203125,-0.124298095703125
1789139611955826400,5.729826416015625,-0.3125457763671875,-1.0108642578125,-0.1923828125
1789139611965799700,5.739799560546875,-0.4994049072265625,-0.8654937744140625,-0.1550140380859375
1789139611975772400,5.7497724609375,-0.70648193359375,-0.7024383544921875,-0.1553497314453125
1789139611985745400,5.759745361328125,-0.5521240234375,-0.8175506591796875,-0.1416015625
1789139611995718400,5.769718505859375,-0.3942413330078125,-0.98284912109375,-0.1065521240234375
1789139612005691600,5.779691650390625,-0.4994659423828125,-0.8569488525390625,-0.10015869140625
1789139612015664600,5.78966455078125,-0.6801300048828125,-0.7714080810546875,-0.13507080078125
1789139612025637400,5.799637451171875,-0.6056060791015625,-0.9195556640625,-0.1476898193359375
1789139612035609600,5.809609619140625,-0.387359619140625,-0.9632720947265625,-0.1180572509765625
1789139612045582600,5.81958251953125,-0.7012176513671875,-0.7426910400390625,-0.162933349609375
1789139612055555600,5.8295556640625,-0.67425537109375,-0.8324127197265625,-0.08465576171875
1789139612065528300,5.8395283203125,-0.454620361328125,-0.9334869384765625,-0.114715576171875
1789139612075501600,5.84950146484375,-0.6486358642578125,-0.7789306640625,-0.0680694580078125
1789139612085474600,5.859474609375,-0.61065673828125,-0.7508544921875,-0.0863037109375
1789139612095447600,5.869447509765625,-0.4940185546875,-0.82086181640625,-0.0896759033203125
1789139612105420300,5.879420166015625,-0.6138763427734375,-0.80657958984375,0.056610107421875
1789139612115393300,5.889393310546875,-0.5979461669921875,-0.8527069091796875,0.0739288330078125
1789139612125366500,5.899366455078125,-0.4645233154296875,-0.8860931396484375,0.017486572265625
1789139612135339500,5.909339599609375,-0.6132659912109375,-0.823455810546875,0.0612640380859375
1789139612145312500,5.9193125,-0.6199798583984375,-0.8144989013671875,0.0947418212890625
1789139612155285200,5.92928515625,-0.4144439697265625,-0.8590240478515625,0.0207977294921875
1789139612165258500,5.939258544921875,-0.565704345703125,-0.776611328125,0.06219482421875
1789139612175231000,5.94923095703125,-0.478759765625,-0.8883209228515625,0.019439697265625
1789139612185204000,5.959203857421875,-0.5095367431640625,-0.852142333984375,-0.0450897216796875
1789139612195176200,5.96917626953125,-0.832366943359375,-0.568603515625,-0.03070068359375
1789139612205149200,5.979149169921875,-0.6182708740234375,-0.7967529296875,-0.0185089111328125
1789139612215122000,5.989121826171875,-0.571075439453125,-0.93585205078125,-0.1068267822265625
1789139612225095000,5.999094970703125,-0.820556640625,-0.71533203125,-0.0341033935546875
1789139612235068200,6.009068115234375,-0.8868408203125,-0.7301025390625,0.0687408447265625
1789139612245041200,6.019041259765625,-0.5801239013671875,-1.038421630859375,-0.0030975341796875
1789139612255014100,6.02901416015625,-0.4796295166015625,-1.0210418701171875,0.0417022705078125
1789139612264987000,6.03898681640625,-0.621795654296875,-0.811309814453125,0.0863189697265625
1789139612274960100,6.048960205078125,-0.5709075927734375,-0.7811737060546875,0.020599365234375
1789139612284933000,6.05893310546875,-0.38739013671875,-0.80029296875,-0.0222930908203125
1789139612294906000,6.068906005859375,-0.3949127197265625,-0.776763916015625,-0.0391693115234375
1789139612304879000,6.078879150390625,-0.45733642578125,-0.7246551513671875,-0.036590576171875
1789139612314852000,6.08885205078125,-0.5144195556640625,-0.6537933349609375,-0.1421966552734375
1789139612324825000,6.0988251953125,-0.4130859375,-0.756195068359375,-0.18914794921875
1789139612334798000,6.108798095703125,-0.5477447509765625,-0.7979736328125,-0.1463470458984375
1789139612344770300,6.118770263671875,-0.650848388671875,-0.8432769775390625,-0.1806640625
1789139612354743000,6.128742919921875,-0.6248626708984375,-0.8251800537109375,-0.2001190185546875
1789139612364716000,6.138716064453125,-0.621612548828125,-0.9234771728515625,-0.170928955078125
1789139612374689000,6.14868896484375,-0.6363372802734375,-0.984466552734375,-0.1411895751953125
1789139612384662300,6.158662353515625,-0.701202392578125,-0.85943603515625,-0.118377685546875
1789139612394635300,6.16863525390625,-0.5644378662109375,-0.8818511962890625,-0.05810546875
1789139612404608000,6.17860791015625,-0.4894561767578125,-0.944366455078125,-0.054443359375
1789139612414581000,6.1885810546875,-0.5174102783203125,-0.7586669921875,-0.030670166015625
1789139612424554000,6.198553955078125,-0.4144287109375,-0.72906494140625,-0.1347808837890625
1789139612434527200,6.20852734375,-0.4180450439453125,-0.8235321044921875,0.0027923583984375
1789139612444500000,6.2185,-0.3488616943359375,-0.8613128662109375,0.0057220458984375
1789139612454473000,6.228472900390625,-0.39703369140625,-0.759185791015625,-0.03643798828125
1789139612464446000,6.238446044921875,-0.450347900390625,-0.7879486083984375,-0.011505126953125
1789139612474419200,6.248419189453125,-0.628875732421875,-0.8507537841796875,0.0488739013671875
1789139612484392200,6.25839208984375,-0.832427978515625,-0.748504638671875,0.070556640625
1789139612494364000,6.268364013671875,-0.800323486328125,-0.76007080078125,0.1306304931640625
1789139612504337200,6.278337158203125,-0.7040557861328125,-0.9009857177734375,0.081298828125
1789139612514310100,6.28831005859375,-0.730743408203125,-0.953704833984375,-0.0020751953125
1789139612524283100,6.298283203125,-0.65814208984375,-0.8484954833984375,0.012115478515625
1789139612534255900,6.308255859375,-0.642791748046875,-0.8017425537109375,0.01220703125
1789139612544229000,6.31822900390625,-0.4099884033203125,-0.927642822265625,-0.06878662109375
1789139612554202000,6.3282021484375,-0.3069610595703125,-0.933990478515625,-0.0529022216796875
1789139612564175000,6.338175048828125,-0.4935455322265625,-0.7376251220703125,-0.0683746337890625
1789139612574148000,6.348148193359375,-0.418487548828125,-0.8083343505859375,-0.0868988037109375
1789139612584121000,6.35812109375,-0.405548095703125,-0.831298828125,-0.1554718017578125
1789139612594094000,6.368093994140625,-0.4717559814453125,-0.799530029296875,-0.0493011474609375
1789139612604067000,6.378067138671875,-0.4797210693359375,-0.86114501953125,-0.0549468994140625
1789139612614040000,6.3880400390625,-0.579559326171875,-0.93060302734375,-0.081268310546875
1789139612624013300,6.398013427734375,-0.5912322998046875,-0.8931121826171875,-0.0667724609375
1789139612633986000,6.407986083984375,-0.6573333740234375,-0.79541015625,-0.0716094970703125
1789139612643959000,6.417958984375,-0.6240234375,-0.8723602294921875,-0.0100555419921875
1789139612653931300,6.42793115234375,-0.53631591796875,-0.903533935546875,-0.0535125732421875
1789139612663904300,6.437904296875,-0.6348876953125,-0.8686676025390625,-0.0563201904296875
1789139612673877000,6.447876953125,-0.5168609619140625,-0.865753173828125,-0.019287109375
1789139612683850000,6.45785009765625,-0.445770263671875,-0.891265869140625,-0.0335235595703125
1789139612693823000,6.467822998046875,-0.3748321533203125,-0.956024169921875,-0.00927734375
1789139612703796200,6.477796142578125,-0.5861663818359375,-0.7737274169921875,0.0697784423828125
1789139612713769200,6.487769287109375,-0.6291656494140625,-0.7101287841796875,0.0137481689453125
1789139612723742000,6.497741943359375,-0.408355712890625,-0.8760528564453125,0.00091552734375
1789139612733715000,6.50771484375,-0.5924835205078125,-0.765655517578125,0.01214599609375
1789139612743688200,6.517688232421875,-0.783721923828125,-0.698699951171875,0.001312255859375
1789139612753661200,6.5276611328125,-0.6433868408203125,-0.8683013916015625,-0.082977294921875
1789139612763634200,6.53763427734375,-0.615936279296875,-0.8974609375,-0.0727996826171875
1789139612773607000,6.54760693359375,-0.6555023193359375,-0.764892578125,-0.0247650146484375
1789139612783580200,6.557580078125,-0.65093994140625,-0.8232879638671875,-0.02227783203125
1789139612793553200,6.56755322265625,-0.6480255126953125,-0.862762451171875,0.0276031494140625
1789139612803526100,6.577526123046875,-0.6846771240234375,-0.8011932373046875,-0.061065673828125
1789139612813499000,6.587498779296875,-0.652069091796875,-0.7437286376953125,-0.0630645751953125
1789139612823471000,6.59747119140625,-0.479461669921875,-0.87432861328125,-0.0586700439453125
1789139612833444000,6.607444091796875,-0.6665496826171875,-0.8084259033203125,-0.0665740966796875
1789139612843417000,6.6174169921875,-0.5842742919921875,-0.77923583984375,-0.0471038818359375
1789139612853390000,6.62739013671875,-0.5064544677734375,-0.8484039306640625,-0.0762939453125
1789139612863363000,6.637363037109375,-0.4611968994140625,-0.9022216796875,-0.0641326904296875
1789139612873336000,6.647336181640625,-0.643524169921875,-0.7131500244140625,-0.0459747314453125
1789139612883309000,6.65730908203125,-0.512115478515625,-0.7823638916015625,-0.0561065673828125
1789139612893282000,6.667281982421875,-0.4886474609375,-0.8657073974609375,-0.0925750732421875
1789139612903255000,6.677255126953125,-0.535400390625,-0.8622589111328125,-0.0222015380859375
1789139612913228000,6.68722802734375,-0.6441802978515625,-0.7791748046875,-0.0794830322265625
1789139612923201000,6.697200927734375,-0.664520263671875,-0.86944580078125,0.042205810546875
1789139612933174000,6.707174072265625,-0.5126800537109375,-0.966644287109375,0.040374755859375
1789139612943147300,6.717147216796875,-0.629791259765625,-0.7831878662109375,0.025726318359375
1789139612953120000,6.7271201171875,-0.75518798828125,-0.7254180908203125,0.0602569580078125
1789139612963093000,6.737093017578125,-0.5382537841796875,-0.8740997314453125,-0.0214080810546875
1789139612973066000,6.74706591796875,-0.3889617919921875,-0.826690673828125,0.0111846923828125
1789139612983038200,6.7570380859375,-0.504547119140625,-0.722564697265625,-0.015380859375
1789139612993011000,6.767010986328125,-0.524871826171875,-0.7414703369140625,-0.0120391845703125
1789139613002984000,6.77698388671875,-0.3525238037109375,-0.85455322265625,-0.0926666259765625
1789139613012957200,6.786957275390625,-0.446624755859375,-0.8713226318359375,-0.0552825927734375
1789139613022930200,6.79693017578125,-0.6891326904296875,-0.69537353515625,-0.03106689453125
1789139613032903200,6.806903076171875,-0.7199554443359375,-0.6583709716796875,-0.0677032470703125
1789139613042876000,6.8168759765625,-0.46728515625,-0.7991180419921875,-0.1626129150390625
1789139613052849200,6.82684912109375,-0.47186279296875,-0.983123779296875,-0.1354827880859375
1789139613062822100,6.836822265625,-0.7576446533203125,-0.7799530029296875,-0.0900421142578125
1789139613072795100,6.846795166015625,-0.6333465576171875,-0.8533935546875,-0.1059112548828125
1789139613082768100,6.85676806640625,-0.4368896484375,-0.988861083984375,-0.0615234375
1789139613092741000,6.8667412109375,-0.4334716796875,-0.98480224609375,-0.0001220703125
1789139613102714000,6.876714111328125,-0.625946044921875,-0.800811767578125,-0.0634613037109375
1789139613112687000,6.88668701171875,-0.5124969482421875,-0.8297576904296875,-0.011322021484375
1789139613122660000,6.89666015625,-0.53472900390625,-0.7921295166015625,-0.0459442138671875
1789139613132633000,6.906633056640625,-0.47509765625,-0.8773193359375,-0.035369873046875
1789139613142605000,6.91660498046875,-0.5023345947265625,-0.869171142578125,-0.079254150390625
1789139613152578000,6.926578125,-0.6295623779296875,-0.809112548828125,-0.059539794921875
1789139613162551000,6.936551025390625,-0.6045684814453125,-0.85205078125,-0.0195770263671875
1789139613172524000,6.94652392578125,-0.5996856689453125,-0.86444091796875,0.024505615234375
1789139613182497000,6.9564970703125,-0.643157958984375,-0.88604736328125,0.0162811279296875
1789139613192470000,6.966469970703125,-0.6601409912109375,-0.94134521484375,0.0196685791015625
1789139613202443000,6.976443115234375,-0.679412841796875,-0.8485107421875,0.0139617919921875
1789139613212416000,6.986416015625,-0.6141204833984375,-0.765533447265625,0.0513458251953125
1789139613222389000,6.996388916015625,-0.4651336669921875,-0.8392333984375,-0.0126953125
1789139613232362000,7.006362060546875,-0.4155731201171875,-0.8429718017578125,0.0040435791015625
1789139613242335000,7.0163349609375,-0.5251922607421875,-0.734771728515625,-0.010498046875
1789139613252308000,7.026307861328125,-0.4865875244140625,-0.7171783447265625,-0.0069122314453125
1789139613262281000,7.036281005859375,-0.475738525390625,-0.809600830078125,-0.0075531005859375
1789139613272254000,7.04625390625,-0.5596923828125,-0.7154998779296875,-0.053314208984375
1789139613282227000,7.05622705078125,-0.6462249755859375,-0.728302001953125,-0.0378570556640625
1789139613292200000,7.066199951171875,-0.628631591796875,-0.793975830078125,-0.020721435546875
1789139613302173000,7.0761728515625,-0.5297393798828125,-0.8935089111328125,-0.0643463134765625
1789139613312145000,7.086144775390625,-0.5724639892578125,-0.839324951171875,-0.0439605712890625
1789139613322118100,7.0961181640625,-0.5720062255859375,-0.830108642578125,-0.048126220703125
1789139613332091000,7.1060908203125,-0.4876251220703125,-0.846282958984375,-0.1365203857421875
1789139613342063900,7.11606396484375,-0.4704742431640625,-0.8683624267578125,-0.0120391845703125
1789139613352036900,7.126036865234375,-0.5682373046875,-0.77618408203125,-0.0797576904296875
1789139613362010000,7.136010009765625,-0.590179443359375,-0.819610595703125,-0.1829986572265625
1789139613371983000,7.145983154296875,-0.6130218505859375,-0.8598785400390625,-0.1096343994140625
1789139613381955800,7.155955810546875,-0.61309814453125,-0.860687255859375,-0.03375244140625
1789139613391928800,7.1659287109375,-0.6616973876953125,-0.8374176025390625,-0.1411285400390625
1789139613401902000,7.175902099609375,-0.6039276123046875,-0.847747802734375,-0.097564697265625
1789139613411875000,7.185875,-0.556671142578125,-0.90185546875,-0.1029510498046875
1789139613421848000,7.19584814453125,-0.6367340087890625,-0.820831298828125,-0.02288818359375
1789139613431820800,7.20582080078125,-0.546661376953125,-0.8189544677734375,-0.0675506591796875
1789139613441793800,7.215793701171875,-0.4648284912109375,-0.891326904296875,-0.046600341796875
1789139613451767000,7.22576708984375,-0.527069091796875,-0.8504638671875,-0.0717010498046875
1789139613461740000,7.235739990234375,-0.6085357666015625,-0.7713775634765625,-0.020782470703125
1789139613471713000,7.245713134765625,-0.4842987060546875,-0.8582763671875,-0.128662109375
1789139613481685000,7.25568505859375,-0.351593017578125,-1.0141448974609375,-0.001495361328125
1789139613491658000,7.265657958984375,-0.593353271484375,-0.8266143798828125,-0.071319580078125
1789139613501631000,7.275630859375,-1.0041961669921875,-0.4636383056640625,0.0186004638671875
1789139613511604000,7.28560400390625,-0.589447021484375,-0.823516845703125,-0.114532470703125
1789139613521577000,7.295576904296875,-0.2787322998046875,-1.0542755126953125,-0.1475067138671875
1789139613531550000,7.305550048828125,-1.0010528564453125,-0.493804931640625,-0.06744384765625
1789139613541523000,7.31552294921875,-0.9644927978515625,-0.6632080078125,-0.0182037353515625
1789139613551496000,7.325495849609375,-0.3472747802734375,-1.1518402099609375,-0.151336669921875
1789139613561469200,7.33546923828125,-0.4626922607421875,-0.9003143310546875,-0.021026611328125
1789139613571442000,7.34544189453125,-0.6168060302734375,-0.6850128173828125,-0.00506591796875
1789139613581415000,7.355414794921875,-0.4414520263671875,-0.8150177001953125,-0.00054931640625
1789139613591388000,7.365387939453125,-0.374908447265625,-0.7864837646484375,0.0134735107421875
1789139613601361200,7.375361083984375,-0.4371490478515625,-0.7289276123046875,0.010589599609375
1789139613611334000,7.385333984375,-0.4991607666015625,-0.7159271240234375,0.00537109375
1789139613621307000,7.395306884765625,-0.5769805908203125,-0.688262939453125,0.0040283203125
1789139613631279900,7.40527978515625,-0.5560455322265625,-0.7211151123046875,0.0384521484375
1789139613641253000,7.415253173828125,-0.6214141845703125,-0.7822418212890625,0.01739501953125
1789139613651224800,7.425224853515625,-0.6855316162109375,-0.8196868896484375,-0.0467376708984375
1789139613661197800,7.43519775390625,-0.6798553466796875,-0.8180694580078125,0.037567138671875
1789139613671171000,7.445171142578125,-0.6175384521484375,-0.9075164794921875,0.030731201171875
1789139613681144000,7.45514404296875,-0.5702972412109375,-0.8734130859375,-0.015716552734375
1789139613691117000,7.465116943359375,-0.615509033203125,-0.7800750732421875,0.0159912109375
1789139613701089800,7.47508984375,-0.615997314453125,-0.7699127197265625,-0.0660552978515625
1789139613711062800,7.485062744140625,-0.42034912109375,-0.8648834228515625,-0.123779296875
1789139613721036000,7.4950361328125,-0.441864013671875,-0.8624725341796875,-0.1144256591796875
1789139613731009000,7.505009033203125,-0.4584808349609375,-0.811248779296875,-0.113677978515625
1789139613740982000,7.51498193359375,-0.468414306640625,-0.8938140869140625,-0.1160125732421875
1789139613750954800,7.524954833984375,-0.4920501708984375,-0.8594207763671875,-0.0780487060546875
1789139613760928000,7.534927978515625,-0.49578857421875,-0.8675994873046875,-0.077972412109375
1789139613770901000,7.54490087890625,-0.614990234375,-0.84979248046875,-0.1201934814453125
1789139613780874000,7.5548740234375,-0.653045654296875,-0.8657073974609375,-0.11358642578125
1789139613790847000,7.564846923828125,-0.7147064208984375,-0.798095703125,-0.1416015625
1789139613800820000,7.574820068359375,-0.65753173828125,-0.823944091796875,-0.073211669921875
1789139613810793000,7.58479296875,-0.547393798828125,-0.9326324462890625,-0.02374267578125
1789139613820766000,7.594765869140625,-0.5359954833984375,-0.83966064453125,0.03045654296875
1789139613830738200,7.60473828125,-0.597381591796875,-0.786224365234375,-0.0263519287109375
1789139613840711000,7.6147109375,-0.5831451416015625,-0.81298828125,-0.0159454345703125
1789139613850684000,7.624683837890625,-0.47296142578125,-0.87384033203125,-0.08111572265625
1789139613860657000,7.634656982421875,-0.595489501953125,-0.7558135986328125,0.0091552734375
1789139613870630100,7.644630126953125,-0.63604736328125,-0.7259979248046875,0.0782012939453125
1789139613880603100,7.65460302734375,-0.5280609130859375,-0.8258056640625,-0.0142364501953125
1789139613890576000,7.664575927734375,-0.6163177490234375,-0.7599945068359375,0.0283355712890625
1789139613900548900,7.674548828125,-0.613922119140625,-0.7748260498046875,0.0283660888671875
1789139613910522000,7.684522216796875,-0.518768310546875,-0.85406494140625,-0.09625244140625
1789139613920495000,7.6944951171875,-0.5228118896484375,-0.83624267578125,-0.0563201904296875
1789139613930468000,7.704468017578125,-0.540313720703125,-0.7890625,-0.0054931640625
1789139613940440800,7.71444091796875,-0.5653228759765625,-0.807403564453125,-0.02532958984375
1789139613950413800,7.724413818359375,-0.6095733642578125,-0.8508758544921875,-0.028289794921875
1789139613960387000,7.734386962890625,-0.6910552978515625,-0.77850341796875,0.0468597412109375
1789139613970360000,7.744360107421875,-0.672149658203125,-0.7887725830078125,0.02069091796875
1789139613980332800,7.754332763671875,-0.5675048828125,-0.921966552734375,0.03125
1789139613990305800,7.764305908203125,-0.6775970458984375,-0.8728790283203125,0.04315185546875
1789139614000278000,7.774278076171875,-0.5796356201171875,-0.8782196044921875,0.043365478515625
1789139614010251000,7.7842509765625,-0.4113616943359375,-0.97607421875,0.00396728515625
1789139614020223700,7.7942236328125,-0.4876708984375,-0.8854217529296875,0.020599365234375
1789139614030197000,7.804197021484375,-0.495697021484375,-0.8078460693359375,-0.0143280029296875
1789139614040170000,7.814169921875,-0.4660797119140625,-0.8207550048828125,-0.01446533203125
1789139614050143000,7.82414306640625,-0.463134765625,-0.8220672607421875,-0.1052093505859375
1789139614060116000,7.834115966796875,-0.5213775634765625,-0.755126953125,0.0158843994140625
1789139614070089000,7.8440888671875,-0.590179443359375,-0.7823638916015625,-0.066497802734375
1789139614080062000,7.85406201171875,-0.6508941650390625,-0.83489990234375,-0.0193023681640625
1789139614090035000,7.864034912109375,-0.6630706787109375,-0.87591552734375,-0.0631103515625
1789139614100008000,7.874008056640625,-0.6619110107421875,-0.8670806884765625,-0.09796142578125
1789139614109981200,7.883981201171875,-0.7535247802734375,-0.8126220703125,-0.1021881103515625
1789139614119954000,7.893953857421875,-0.6957855224609375,-0.847808837890625,-0.0899658203125
1789139614129927000,7.903927001953125,-0.591827392578125,-0.8820648193359375,-0.090728759765625
1789139614139900000,7.91389990234375,-0.653900146484375,-0.8280029296875,-0.0824432373046875
1789139614149873000,7.923872802734375,-0.516357421875,-0.8809967041015625,-0.03790283203125
1789139614159846100,7.93384619140625,-0.410919189453125,-0.868194580078125,-0.051300048828125
1789139614169819100,7.943819091796875,-0.509368896484375,-0.788177490234375,-0.0687408447265625
1789139614179790800,7.953790771484375,-0.5296630859375,-0.75830078125,-0.0751190185546875
1789139614189764000,7.96376416015625,-0.40032958984375,-0.7671356201171875,-0.091522216796875
1789139614199737000,7.973737060546875,-0.4905853271484375,-0.751220703125,-0.0007781982421875
1789139614209710000,7.9837099609375,-0.5908966064453125,-0.7850341796875,0.0955963134765625
1789139614219682800,7.993682861328125,-0.672698974609375,-0.7847900390625,0.046600341796875
1789139614229656000,8.003656005859375,-0.7066650390625,-0.7988739013671875,0.099334716796875
1789139614239629000,8.013629150390624,-0.68280029296875,-0.85321044921875,0.0752716064453125
1789139614249602000,8.02360205078125,-0.6890106201171875,-0.8820953369140625,-0.06787109375
1789139614259574800,8.03357470703125,-0.667327880859375,-0.86749267578125,-0.0125885009765625
1789139614269548000,8.043548095703125,-0.651519775390625,-0.7853851318359375,-0.035430908203125
1789139614279521000,8.05352099609375,-0.5334014892578125,-0.84759521484375,-0.0688934326171875
1789139614289494000,8.063493896484376,-0.480682373046875,-0.8621063232421875,-0.0473785400390625
1789139614299467000,8.073467041015626,-0.522003173828125,-0.761566162109375,-0.0169830322265625
1789139614309440000,8.08343994140625,-0.5368804931640625,-0.79400634765625,-0.0660858154296875
1789139614319413000,8.0934130859375,-0.5073089599609375,-0.8499908447265625,0.0043792724609375
1789139614329386000,8.103385986328124,-0.484527587890625,-0.8357696533203125,-0.0257720947265625
1789139614339359000,8.11335888671875,-0.5585784912109375,-0.8424530029296875,-0.0650482177734375
1789139614349332000,8.12333203125,-0.631805419921875,-0.8099212646484375,-0.051605224609375
1789139614359305000,8.133304931640625,-0.572540283203125,-0.79010009765625,0.00726318359375
1789139614369277000,8.14327685546875,-0.5893707275390625,-0.82171630859375,-0.0566558837890625
1789139614379250200,8.153250244140626,-0.6148834228515625,-0.83221435546875,-0.0250244140625
1789139614389223200,8.16322314453125,-0.5557708740234375,-0.912353515625,-0.04486083984375
1789139614399196000,8.17319580078125,-0.62237548828125,-0.828155517578125,0.0057525634765625
1789139614409169000,8.1831689453125,-0.536773681640625,-0.8708343505859375,-0.0699310302734375
1789139614419142000,8.193141845703124,-0.482940673828125,-0.8987274169921875,-0.0859832763671875
1789139614429115100,8.203115234375,-0.5664215087890625,-0.7869110107421875,-0.029327392578125
1789139614439088000,8.213088134765625,-0.520477294921875,-0.811370849609375,-0.0622100830078125
1789139614449060900,8.223060791015625,-0.4403839111328125,-0.843841552734375,-0.1019134521484375
1789139614459033900,8.233033935546874,-0.5130615234375,-0.7799224853515625,-0.0247802734375
1789139614469007000,8.243007080078126,-0.551849365234375,-0.7573394775390625,-0.12750244140625
1789139614478980000,8.25297998046875,-0.6075897216796875,-0.781982421875,-0.0466766357421875
1789139614488953000,8.262953125,-0.4974822998046875,-0.8780059814453125,0.028045654296875
1789139614498925800,8.27292578125,-0.583953857421875,-0.8624114990234375,-0.087066650390625
1789139614508899000,8.282899169921874,-0.7253570556640625,-0.78216552734375,-0.0597991943359375
1789139614518872000,8.2928720703125,-0.61602783203125,-0.840423583984375,0.039154052734375
1789139614528845000,8.302844970703125,-0.5515899658203125,-0.8701324462890625,-0.0226898193359375
1789139614538818000,8.312818115234375,-0.6082305908203125,-0.81768798828125,-0.04937744140625
1789139614548790000,8.3227900390625,-0.6496734619140625,-0.818267822265625,0.0030059814453125
1789139614558763000,8.332762939453126,-0.6281280517578125,-0.8661346435546875,-0.0316925048828125
1789139614568736000,8.342736083984375,-0.479278564453125,-0.903961181640625,-0.039642333984375
1789139614578709000,8.352708984375,-0.5200653076171875,-0.8638916015625,-0.053863525390625
1789139614588682000,8.362681884765625,-0.4899444580078125,-0.8754730224609375,-0.03411865234375
1789139614598655000,8.372655029296874,-0.4637603759765625,-0.8511962890625,-0.1404571533203125
1789139614608628000,8.3826279296875,-0.5023193359375,-0.795562744140625,-0.1372222900390625
1789139614618601000,8.39260107421875,-0.5121612548828125,-0.7934417724609375,-0.15826416015625
1789139614628574000,8.402573974609375,-0.5043182373046875,-0.7965545654296875,-0.05010986328125
1789139614638547000,8.412546875,-0.5440673828125,-0.7919464111328125,-0.1425323486328125
1789139614648520000,8.42252001953125,-0.678436279296875,-0.7810211181640625,-0.0538177490234375
1789139614658493000,8.432492919921875,-0.666656494140625,-0.8350372314453125,-0.0216064453125
1789139614668466200,8.442466064453125,-0.58734130859375,-0.87713623046875,-0.005950927734375
1789139614678439000,8.45243896484375,-0.6883544921875,-0.8171234130859375,0.0318145751953125
1789139614688412000,8.462411865234374,-0.609039306640625,-0.8328094482421875,0.0128631591796875
1789139614698385000,8.472385009765626,-0.608642578125,-0.82318115234375,-0.0291290283203125
1789139614708358100,8.482358154296875,-0.6268157958984375,-0.8286590576171875,-0.0239410400390625
1789139614718331100,8.4923310546875,-0.5088958740234375,-0.8506622314453125,0.0385894775390625
1789139614728303900,8.502303955078125,-0.5506439208984375,-0.7940673828125,0.0024566650390625
1789139614738276000,8.512276123046876,-0.5959014892578125,-0.8091888427734375,-0.03631591796875
1789139614748249000,8.5222490234375,-0.59326171875,-0.7818756103515625,-0.04595947265625
1789139614758222000,8.53222216796875,-0.516754150390625,-0.7770233154296875,-0.0664825439453125
1789139614768194800,8.54219482421875,-0.5266265869140625,-0.8047027587890625,-0.116973876953125
1789139614778168000,8.55216796875,-0.597442626953125,-0.812774658203125,-0.017547607421875
1789139614788141000,8.56214111328125,-0.6546478271484375,-0.7483062744140625,-0.100311279296875
1789139614798114000,8.572114013671875,-0.6180267333984375,-0.78118896484375,-0.0368804931640625
1789139614808087000,8.582087158203125,-0.5966339111328125,-0.838470458984375,-0.0259857177734375
1789139614818060000,8.59206005859375,-0.65472412109375,-0.822967529296875,-0.0287933349609375
1789139614828033000,8.602032958984376,-0.6118621826171875,-0.83447265625,-0.03717041015625
1789139614838006000,8.612006103515625,-0.7378387451171875,-0.741363525390625,-0.0821990966796875
1789139614847979000,8.62197900390625,-0.5334320068359375,-0.8404998779296875,-0.0994415283203125
1789139614857952000,8.631951904296875,-0.601715087890625,-0.822113037109375,-0.0407867431640625
1789139614867925000,8.641925048828124,-0.5137481689453125,-0.8221893310546875,-0.0372467041015625
1789139614877898000,8.65189794921875,-0.5643463134765625,-0.8182373046875,0.01702880859375
1789139614887871000,8.66187109375,-0.5181732177734375,-0.8766632080078125,0.0222320556640625
1789139614897844000,8.671843994140625,-0.4874420166015625,-0.8301849365234375,-0.02239990234375
1789139614907817000,8.68181689453125,-0.55322265625,-0.83734130859375,-0.073089599609375
1789139614917790000,8.6917900390625,-0.622283935546875,-0.7915496826171875,-0.0112152099609375
1789139614927762000,8.701761962890625,-0.5660552978515625,-0.7535552978515625,-0.0344390869140625
1789139614937735200,8.711735107421875,-0.6345672607421875,-0.773834228515625,0.0277557373046875
1789139614947708000,8.7217080078125,-0.509307861328125,-0.84954833984375,0.0389404296875
1789139614957681000,8.731680908203124,-0.52691650390625,-0.8571929931640625,-0.0177001953125
1789139614967654000,8.74165380859375,-0.5687408447265625,-0.8124847412109375,0.0183563232421875
1789139614977627100,8.751627197265625,-0.5066680908203125,-0.8415069580078125,-0.052154541015625
1789139614987600100,8.76160009765625,-0.4265289306640625,-0.9031524658203125,-0.1572418212890625
1789139614997572900,8.77157275390625,-0.5194549560546875,-0.8163299560546875,-0.029998779296875
1789139615007545900,8.7815458984375,-0.54791259765625,-0.8566436767578125,-0.026336669921875
1789139615017519000,8.79151904296875,-0.519012451171875,-0.8576202392578125,-0.05279541015625
1789139615027492000,8.8014921875,-0.54547119140625,-0.8636474609375,0.0084381103515625
1789139615037465000,8.811465087890625,-0.594329833984375,-0.8074493408203125,-0.0908966064453125
1789139615047437800,8.821437744140624,-0.6074371337890625,-0.88348388671875,-0.06341552734375
1789139615057411000,8.8314111328125,-0.6444854736328125,-0.8282012939453125,-0.1179046630859375
1789139615067384000,8.841384033203125,-0.605712890625,-0.8144378662109375,-0.1031951904296875
1789139615077357000,8.851357177734375,-0.6827239990234375,-0.83013916015625,-0.1011199951171875
1789139615087330000,8.861330078125,-0.585296630859375,-0.8504180908203125,0.040283203125
1789139615097303000,8.871302978515626,-0.5477447509765625,-0.8759918212890625,-0.070098876953125
1789139615107276000,8.881276123046876,-0.5602874755859375,-0.8362579345703125,0.0120697021484375
1789139615117248000,8.891248046875,-0.48828125,-0.875152587890625,-0.0755615234375
1789139615127221000,8.901220947265625,-0.4687347412109375,-0.8282012939453125,0.0013580322265625
1789139615137194000,8.911194091796874,-0.4020233154296875,-0.821929931640625,-0.03759765625
1789139615147167000,8.9211669921875,-0.44842529296875,-0.769622802734375,0.059539794921875
1789139615157140000,8.931139892578125,-0.47015380859375,-0.7649078369140625,-0.005889892578125
1789139615167113000,8.941113037109375,-0.5298309326171875,-0.809417724609375,0.041351318359375
1789139615177086200,8.951086181640624,-0.5877532958984375,-0.81829833984375,-0.0192413330078125
1789139615187059200,8.96105908203125,-0.59869384765625,-0.810150146484375,0.004547119140625
1789139615197032200,8.9710322265625,-0.590057373046875,-0.85467529296875,-0.0487518310546875
1789139615207005200,8.981005126953125,-0.712615966796875,-0.9165802001953125,-0.0157318115234375
1789139615216978400,8.990978515625,-0.6362457275390625,-0.878082275390625,0.0139007568359375
1789139615226951200,9.000951171875,-0.6481475830078125,-0.7853240966796875,-0.023895263671875
1789139615236924200,9.010924072265626,-0.6936187744140625,-0.8145751953125,-0.045928955078125
1789139615246897200,9.020897216796875,-0.495269775390625,-0.899749755859375,-0.013397216796875
1789139615256870100,9.0308701171875,-0.641754150390625,-0.7462615966796875,-0.0306396484375
1789139615266843400,9.040843505859375,-0.606201171875,-0.8026275634765625,-0.0471343994140625
1789139615276816100,9.050816162109374,-0.438262939453125,-0.8940582275390625,-0.0091552734375
1789139615286789000,9.0607890625,-0.4759063720703125,-0.829010009765625,0.0560150146484375
1789139615296762000,9.07076220703125,-0.6338653564453125,-0.744415283203125,-0.01837158203125
1789139615306735400,9.0807353515625,-0.5651702880859375,-0.79376220703125,-0.0350341796875
1789139615316708400,9.090708251953124,-0.5189361572265625,-0.7899932861328125,-0.06927490234375
1789139615326680000,9.10068017578125,-0.575531005859375,-0.755126953125,-0.0648193359375
1789139615336653300,9.1106533203125,-0.6524810791015625,-0.812255859375,-0.0091552734375
1789139615346626300,9.120626220703125,-0.695953369140625,-0.8345794677734375,-0.073883056640625
1789139615356599300,9.130599365234374,-0.59454345703125,-0.881561279296875,-0.169464111328125
1789139615366572000,9.140572021484376,-0.6241302490234375,-0.8403778076171875,-0.061798095703125
1789139615376545300,9.150545166015625,-0.6493988037109375,-0.78692626953125,-0.1719818115234375
1789139615386518300,9.160518310546875,-0.626251220703125,-0.764404296875,-0.1309661865234375
1789139615396491300,9.1704912109375,-0.67144775390625,-0.6939544677734375,-0.0900726318359375
1789139615406464000,9.180464111328124,-0.5825653076171875,-0.7549591064453125,-0.0956268310546875
1789139615416437200,9.190437255859376,-0.5261077880859375,-0.82720947265625,-0.1278533935546875
1789139615426410200,9.20041015625,-0.5590972900390625,-0.8527984619140625,-0.0988616943359375
1789139615436383200,9.21038330078125,-0.5972747802734375,-0.8348541259765625,-0.0339202880859375
1789139615446356200,9.220356201171874,-0.6639556884765625,-0.8396148681640625,-0.02520751953125
1789139615456329200,9.2303291015625,-0.4688720703125,-0.9189300537109375,0.011932373046875
1789139615466302200,9.24030224609375,-0.4885711669921875,-0.8927459716796875,-0.0128631591796875
1789139615476275200,9.250275146484375,-0.7033538818359375,-0.7623138427734375,0.01806640625
1789139615486248200,9.260248291015625,-0.5318603515625,-0.8248138427734375,0.00390625
1789139615496221200,9.27022119140625,-0.6272125244140625,-0.7594146728515625,-0.0378265380859375
1789139615506194200,9.280194091796876,-0.5009002685546875,-0.8429107666015625,0.01654052734375
1789139615516167200,9.290167236328125,-0.59185791015625,-0.7957611083984375,-0.074493408203125
1789139615526139100,9.30013916015625,-0.6476898193359375,-0.7621917724609375,-0.0327301025390625
1789139615536112400,9.3101123046875,-0.5754547119140625,-0.85272216796875,-0.116851806640625
1789139615546085000,9.320085205078126,-0.5628814697265625,-0.8232421875,-0.113861083984375
1789139615556058000,9.33005810546875,-0.6974945068359375,-0.7623748779296875,-0.0955352783203125
1789139615566031000,9.340031005859375,-0.6700592041015625,-0.828765869140625,-0.0918731689453125
1789139615576004400,9.35000439453125,-0.500579833984375,-0.866485595703125,-0.075836181640625
1789139615585977300,9.359977294921874,-0.582366943359375,-0.702880859375,0.0455322265625
1789139615595950000,9.3699501953125,-0.4525299072265625,-0.8505096435546875,-0.1830902099609375
1789139615605923000,9.379923095703125,-0.2812652587890625,-0.9347076416015625,-0.217376708984375
1789139615615896300,9.389896240234375,-0.54443359375,-0.7066497802734375,-0.146942138671875
1789139615625869300,9.399869384765625,-0.52716064453125,-0.6992034912109375,-0.216094970703125
1789139615635842300,9.40984228515625,-0.5151519775390625,-0.8088836669921875,-0.2356719970703125
1789139615645815000,9.41981494140625,-0.7804718017578125,-0.651641845703125,-0.0443878173828125
1789139615655788300,9.429788330078125,-0.8302001953125,-0.7625732421875,-0.06597900390625
1789139615665761300,9.43976123046875,-0.61578369140625,-0.94891357421875,-0.050445556640625
1789139615675734300,9.449734375,-0.8229217529296875,-0.8808746337890625,-0.023223876953125
1789139615685707300,9.459707275390626,-0.6290283203125,-0.93194580078125,-0.0450592041015625
1789139615695680300,9.46968017578125,-0.4832305908203125,-0.9808349609375,-0.0773468017578125
1789139615705653200,9.4796533203125,-0.5890045166015625,-0.8450469970703125,-0.0351715087890625
1789139615715626200,9.489626220703125,-0.431121826171875,-0.8688812255859375,0.00433349609375
1789139615725599200,9.49959912109375,-0.45819091796875,-0.8367156982421875,-0.064056396484375
1789139615735571200,9.5095712890625,-0.349334716796875,-0.86737060546875,-0.035980224609375
1789139615745544200,9.519544189453125,-0.395416259765625,-0.73822021484375,-0.0473175048828125
1789139615755517200,9.52951708984375,-0.559814453125,-0.7261962890625,-0.107086181640625
1789139615765490200,9.539490234375,-0.523712158203125,-0.8223876953125,-0.1293792724609375
1789139615775463200,9.549463134765626,-0.5542449951171875,-0.7978668212890625,-0.077606201171875
1789139615785436200,9.559436279296875,-0.7004547119140625,-0.7423858642578125,-0.180419921875
1789139615795409200,9.5694091796875,-0.7413482666015625,-0.8304290771484375,-0.087646484375
1789139615805382100,9.579382080078124,-0.666046142578125,-0.89385986328125,-0.0573272705078125
1789139615815355400,9.58935546875,-0.572784423828125,-0.9347381591796875,-0.0603179931640625
1789139615825328000,9.599328125,-0.5849761962890625,-0.8513031005859375,-0.1171722412109375
1789139615835301000,9.609301025390625,-0.5312957763671875,-0.8323974609375,-0.057037353515625
1789139615845274000,9.619274169921875,-0.4791412353515625,-0.898468017578125,-0.1080780029296875
1789139615855247400,9.629247314453124,-0.4833221435546875,-0.8345184326171875,-0.1666717529296875
1789139615865220400,9.639220458984376,-0.593109130859375,-0.7346343994140625,-0.132232666015625
1789139615875193000,9.649193115234375,-0.5160064697265625,-0.73199462890625,-0.1255645751953125
1789139615885166000,9.659166015625,-0.41082763671875,-0.7920989990234375,-0.1298065185546875
1789139615895139300,9.669139404296875,-0.567657470703125,-0.7642822265625,-0.0127716064453125
1789139615905112300,9.6791123046875,-0.5674591064453125,-0.81707763671875,-0.0472412109375
1789139615915085300,9.689085205078126,-0.549163818359375,-0.8263702392578125,-0.06622314453125
1789139615925058000,9.69905810546875,-0.5965423583984375,-0.8212738037109375,0.0009307861328125
1789139615935030300,9.7090302734375,-0.6169586181640625,-0.8495025634765625,-0.105072021484375
1789139615945003300,9.719003173828124,-0.7203521728515625,-0.807159423828125,-0.058074951171875
1789139615954976300,9.728976318359376,-0.96246337890625,-0.6399688720703125,-0.0496063232421875
1789139615964949200,9.73894921875,-0.664093017578125,-0.849700927734375,-0.011810302734375
1789139615974922200,9.748922119140625,-0.4878692626953125,-0.913482666015625,-0.0367584228515625
1789139615984895200,9.758895263671874,-0.65582275390625,-0.7760162353515625,-0.0558013916015625
1789139615994868200,9.7688681640625,-0.464630126953125,-0.9001922607421875,-0.058502197265625
1789139616004841200,9.77884130859375,-0.504119873046875,-0.8662567138671875,-0.0435791015625
1789139616014814200,9.788814208984375,-0.4376220703125,-0.8541717529296875,0.02105712890625
1789139616024787200,9.798787109375,-0.549530029296875,-0.79058837890625,-0.06280517578125
1789139616034760200,9.80876025390625,-0.6722564697265625,-0.6970977783203125,0.0028533935546875
1789139616044733200,9.818733154296876,-0.6495208740234375,-0.728118896484375,0.01385498046875
1789139616054706200,9.8287060546875,-0.653045654296875,-0.783905029296875,0.0095062255859375
1789139616064679200,9.83867919921875,-0.529052734375,-0.914093017578125,-0.0098114013671875
1789139616074652200,9.848652099609374,-0.7305450439453125,-0.8006134033203125,-0.00421142578125
1789139616084625200,9.858625244140624,-0.684417724609375,-0.7434844970703125,-0.0261383056640625
1789139616094598400,9.868598388671876,-0.4757080078125,-0.80224609375,-0.043304443359375
1789139616104571100,9.878571044921875,-0.5191650390625,-0.8430023193359375,-0.0384979248046875
1789139616114544000,9.888544189453125,-0.60589599609375,-0.757049560546875,0.054351806640625
1789139616124517000,9.89851708984375,-0.5128936767578125,-0.829559326171875,-0.00531005859375
1789139616134490400,9.908490478515626,-0.4038543701171875,-0.909271240234375,0.012725830078125
1789139616144463400,9.91846337890625,-0.5180206298828125,-0.7749481201171875,0.0493927001953125
1789139616154436000,9.92843603515625,-0.5506591796875,-0.7342987060546875,-0.00177001953125
1789139616164408300,9.938408203125,-0.5328521728515625,-0.8528900146484375,-0.0022125244140625
1789139616174381000,9.948381103515626,-0.6085968017578125,-0.734832763671875,-0.0121002197265625
1789139616184354000,9.95835400390625,-0.582855224609375,-0.7728424072265625,-0.041748046875
1789139616194326800,9.968326904296875,-0.6102142333984375,-0.8274993896484375,-0.099945068359375
1789139616204300000,9.978300048828125,-0.6580810546875,-0.7491607666015625,0.044769287109375
1789139616214273000,9.98827294921875,-0.6387176513671875,-0.8350067138671875,-0.0317230224609375
1789139616224246000,9.99824609375,-0.56475830078125,-0.9188995361328125,0.0108642578125
1789139616234219000,10.008218994140625,-0.6204071044921875,-0.9134979248046875,-0.0500946044921875
1789139616244192000,10.01819189453125,-0.618438720703125,-0.9036712646484375,-0.026947021484375
1789139616254165000,10.0281650390625,-0.46734619140625,-1.0057220458984375,-0.05096435546875
1789139616264138000,10.038137939453126,-0.474945068359375,-0.91607666015625,0.0045623779296875
1789139616274111000,10.048111083984375,-0.807220458984375,-0.5613250732421875,-0.01885986328125
1789139616284084000,10.058083984375,-0.4666748046875,-0.8917694091796875,0.0096588134765625
1789139616294057000,10.068056884765625,-0.3870391845703125,-0.92474365234375,-0.0177001953125
1789139616304030000,10.078030029296874,-0.621826171875,-0.734832763671875,0.1188201904296875
1789139616314003000,10.0880029296875,-0.5640411376953125,-0.8173675537109375,-0.045440673828125
1789139616323976000,10.097975830078125,-0.332611083984375,-1.1077880859375,-0.102630615234375
1789139616333949000,10.107948974609375,-0.4969024658203125,-0.8329620361328125,-0.0028533935546875
1789139616343922000,10.117921875,-0.66851806640625,-0.7174072265625,-0.0403594970703125
1789139616353895000,10.12789501953125,-0.557464599609375,-0.873931884765625,-0.082061767578125
1789139616363868000,10.137867919921876,-0.6190643310546875,-0.73455810546875,0.007232666015625
1789139616373840000,10.14783984375,-0.7442779541015625,-0.73858642578125,0.03814697265625
1789139616383812900,10.157812744140625,-0.7030181884765625,-0.8978118896484375,-0.0173187255859375
1789139616393785900,10.167785888671874,-0.5169677734375,-0.9350128173828125,-0.019500732421875
1789139616403759000,10.177759033203126,-0.61773681640625,-0.8616790771484375,0.07098388671875
1789139616413732000,10.187732177734375,-0.5639801025390625,-0.930206298828125,-0.037994384765625
1789139616423704800,10.197704833984375,-0.59051513671875,-0.7891082763671875,-0.0723114013671875
1789139616433677800,10.207677734375,-0.5062408447265625,-0.740966796875,-0.0937347412109375
1789139616443651000,10.217651123046876,-0.34405517578125,-0.8479461669921875,-0.0622100830078125
1789139616453624000,10.2276240234375,-0.52020263671875,-0.8361358642578125,-0.0239105224609375
1789139616463597000,10.23759716796875,-0.59100341796875,-0.787689208984375,-0.06475830078125
1789139616473569800,10.24756982421875,-0.518463134765625,-0.792327880859375,-0.014984130859375
1789139616483543000,10.25754296875,-0.5832061767578125,-0.8130645751953125,0.0515289306640625
1789139616493516000,10.26751611328125,-0.5561981201171875,-0.854736328125,-0.013702392578125
1789139616503489000,10.277489013671875,-0.64361572265625,-0.854888916015625,0.05010986328125
1789139616513462000,10.2874619140625,-0.7830810546875,-0.840118408203125,-0.092529296875
1789139616523434800,10.297434814453124,-0.58148193359375,-0.9438323974609375,-0.07843017578125
1789139616533408000,10.307407958984374,-0.7264404296875,-0.8200225830078125,-0.0110626220703125
1789139616543381000,10.317381103515626,-0.4807281494140625,-0.88311767578125,-0.015777587890625
1789139616553354000,10.32735400390625,-0.784027099609375,-0.8016815185546875,-0.0185089111328125
1789139616563327000,10.337326904296875,-0.5792388916015625,-0.946502685546875,0.015350341796875
1789139616573300000,10.347300048828124,-0.5279388427734375,-0.926483154296875,-0.108642578125
1789139616583273000,10.35727294921875,-0.6306915283203125,-0.832672119140625,-0.16070556640625
1789139616593245000,10.367244873046875,-0.510406494140625,-0.8016815185546875,-0.1070404052734375
1789139616603218200,10.37721826171875,-0.711273193359375,-0.7329254150390625,-0.121551513671875
1789139616613191000,10.38719091796875,-0.5912628173828125,-0.846282958984375,-0.0488433837890625
1789139616623164000,10.397163818359376,-0.47125244140625,-0.8528900146484375,-0.04412841796875
1789139616633137000,10.407136962890625,-0.6227874755859375,-0.7981719970703125,0.0253448486328125
1789139616643110100,10.417110107421875,-0.6029052734375,-0.8470001220703125,-0.0384521484375
1789139616653083000,10.427082763671875,-0.51702880859375,-0.8131256103515625,-0.0865020751953125
1789139616663056000,10.437055908203124,-0.7126922607421875,-0.7035064697265625,-0.0121002197265625
1789139616673028900,10.44702880859375,-0.4644775390625,-0.8950958251953125,-0.018951416015625
1789139616683002000,10.457002197265625,-0.5785369873046875,-0.839630126953125,0.0189208984375
1789139616692975000,10.46697509765625,-0.5811004638671875,-0.8417510986328125,0.0731048583984375
1789139616702947800,10.47694775390625,-0.4581451416015625,-0.88189697265625,-0.0343475341796875
1789139616712920800,10.4869208984375,-0.4994659423828125,-0.846527099609375,-0.0366973876953125
1789139616722894000,10.49689404296875,-0.63507080078125,-0.7559051513671875,-0.0065765380859375
1789139616732867000,10.5068671875,-0.560211181640625,-0.8219146728515625,-0.0543975830078125
1789139616742840000,10.516840087890625,-0.7416534423828125,-0.7189788818359375,0.0087890625
1789139616752812800,10.526812744140624,-0.635101318359375,-0.7892608642578125,0.1116790771484375
1789139616762785800,10.536785888671876,-0.705047607421875,-0.8604888916015625,0.0730133056640625
1789139616772759000,10.546759033203125,-0.705963134765625,-0.8528900146484375,0.0550689697265625
1789139616782732000,10.55673193359375,-0.717803955078125,-0.8596649169921875,0.04364013671875
1789139616792705000,10.566705078125,-0.61328125,-0.9630584716796875,-0.0031890869140625
1789139616802677800,10.576677734375,-0.4504852294921875,-0.9965057373046875,-0.072906494140625
1789139616812650000,10.58664990234375,-0.4736785888671875,-0.8624725341796875,-0.103057861328125
1789139616822623000,10.596623046875,-0.6112213134765625,-0.77685546875,-0.087310791015625
1789139616832596000,10.606595947265625,-0.2752838134765625,-0.9133148193359375,-0.164642333984375
1789139616842569000,10.61656884765625,-0.406829833984375,-0.7884521484375,-0.1263427734375
1789139616852542000,10.6265419921875,-0.56683349609375,-0.71240234375,-0.0560302734375
1789139616862515000,10.636514892578125,-0.51885986328125,-0.7975616455078125,-0.2066650390625
1789139616872488000,10.646488037109375,-0.60650634765625,-0.83294677734375,-0.1549224853515625
1789139616882461200,10.656461181640625,-0.6198883056640625,-0.85064697265625,-0.1220855712890625
1789139616892434000,10.666433837890626,-0.7735595703125,-0.80804443359375,-0.180999755859375
1789139616902407000,10.676406982421875,-0.9605255126953125,-0.7444610595703125,-0.09600830078125
1789139616912380000,10.6863798828125,-0.5081634521484375,-0.926849365234375,-0.0924530029296875
1789139616922353200,10.696353271484375,-0.6414642333984375,-0.8428802490234375,-0.046661376953125
1789139616932326100,10.706326171875,-0.7033538818359375,-0.7827301025390625,-0.028594970703125
1789139616942299000,10.716298828125,-0.3660125732421875,-0.9436492919921875,-0.0330963134765625
1789139616952272000,10.72627197265625,-0.4522857666015625,-0.7806854248046875,-0.100006103515625
1789139616962244900,10.736244873046875,-0.4708404541015625,-0.75830078125,-0.0872039794921875
1789139616972218000,10.746218017578125,-0.386383056640625,-0.7845001220703125,-0.0964508056640625
1789139616982190800,10.75619091796875,-0.41070556640625,-0.853729248046875,-0.0579681396484375
1789139616992163800,10.766163818359376,-0.634735107421875,-0.790283203125,0.0311737060546875
1789139617002136800,10.77613671875,-0.7059478759765625,-0.801605224609375,0.025390625
1789139617012110000,10.786110107421875,-0.635223388671875,-0.886260986328125,-0.0010986328125
1789139617022083000,10.7960830078125,-0.6315765380859375,-0.83209228515625,-0.0040283203125
1789139617032055800,10.806055908203126,-0.692138671875,-0.78466796875,-0.07647705078125
1789139617042028000,10.816028076171875,-0.566131591796875,-0.8731536865234375,-0.180450439453125
1789139617052001000,10.8260009765625,-0.495452880859375,-0.8957061767578125,-0.1100006103515625
1789139617061974000,10.83597412109375,-0.482940673828125,-0.818572998046875,-0.1674346923828125
1789139617071946800,10.84594677734375,-0.3095550537109375,-0.86334228515625,-0.09130859375
1789139617081920000,10.855919921875,-0.438995361328125,-0.810760498046875,-0.058380126953125
1789139617091893000,10.86589306640625,-0.602142333984375,-0.7014312744140625,-0.0293121337890625
1789139617101866000,10.875865966796875,-0.5742950439453125,-0.7372894287109375,-0.086212158203125
1789139617111839000,10.8858388671875,-0.5764007568359375,-0.831146240234375,-0.094757080078125
1789139617121812000,10.89581201171875,-0.6296539306640625,-0.8040771484375,-0.127410888671875
1789139617131785000,10.905784912109375,-0.6747283935546875,-0.772735595703125,-0.15771484375
1789139617141758000,10.915758056640625,-0.594512939453125,-0.888702392578125,-0.237579345703125
1789139617151731000,10.92573095703125,-0.648773193359375,-0.788330078125,-0.210906982421875
1789139617161704000,10.935703857421874,-0.7015228271484375,-0.655303955078125,-0.14581298828125
1789139617171677700,10.945677734375,-0.564605712890625,-0.8284149169921875,-0.0998382568359375
1789139617181650400,10.955650390625,-0.5544586181640625,-0.7965087890625,-0.0658416748046875
1789139617191623400,10.96562353515625,-0.7098541259765625,-0.6828155517578125,-0.062744140625
1789139617201596400,10.975596435546874,-0.600494384765625,-0.8040008544921875,-0.0855712890625
1789139617211569700,10.985569580078124,-0.443572998046875,-0.8744354248046875,-0.155181884765625
1789139617221542700,10.995542724609376,-0.4441986083984375,-0.755523681640625,-0.0614166259765625
1789139617231515400,11.005515380859375,-0.501220703125,-0.7659759521484375,-0.1253509521484375
1789139617241488400,11.01548828125,-0.430999755859375,-0.7774505615234375,-0.0715789794921875
1789139617251461600,11.025461669921874,-0.505523681640625,-0.6965179443359375,-0.0333404541015625
1789139617261434600,11.0354345703125,-0.545989990234375,-0.724365234375,-0.0351104736328125
1789139617271406300,11.04540625,-0.577667236328125,-0.7887115478515625,-0.030609130859375
1789139617281379600,11.055379638671875,-0.7288818359375,-0.743438720703125,0.021514892578125
1789139617291352600,11.0653525390625,-0.721588134765625,-0.79437255859375,-0.0864105224609375
1789139617301325600,11.07532568359375,-0.8610382080078125,-0.6673736572265625,-0.0976409912109375
1789139617311298600,11.085298583984375,-0.7202911376953125,-0.8039093017578125,-0.0448150634765625
1789139617321271300,11.095271240234375,-0.582122802734375,-0.88311767578125,-0.04998779296875
1789139617331244500,11.10524462890625,-0.6776275634765625,-0.73858642578125,-0.0534210205078125
1789139617341217500,11.115217529296874,-0.650177001953125,-0.75933837890625,-0.0076446533203125
1789139617351190500,11.1251904296875,-0.60260009765625,-0.7960357666015625,-0.00738525390625
1789139617361163500,11.13516357421875,-0.4965972900390625,-0.8128662109375,0.041290283203125
1789139617371136500,11.145136474609375,-0.4554901123046875,-0.82965087890625,0.0153961181640625
1789139617381109500,11.155109619140624,-0.5609588623046875,-0.7182159423828125,0.005859375
1789139617391082500,11.16508251953125,-0.4903564453125,-0.8063812255859375,-0.0643157958984375
1789139617401055500,11.175055419921875,-0.447357177734375,-0.850555419921875,-0.0778961181640625
1789139617411028700,11.18502880859375,-0.51983642578125,-0.766998291015625,-0.14764404296875
1789139617421001500,11.19500146484375,-0.621734619140625,-0.701568603515625,-0.0572967529296875
1789139617430974500,11.204974365234374,-0.602691650390625,-0.706146240234375,-0.073150634765625
1789139617440947500,11.214947509765626,-0.598480224609375,-0.7623291015625,0.007080078125
1789139617450920700,11.224920654296875,-0.63397216796875,-0.8151397705078125,-0.0013427734375
1789139617460893400,11.2348935546875,-0.693023681640625,-0.7942657470703125,-0.0421295166015625
1789139617470866400,11.244866455078125,-0.6072845458984375,-0.8561248779296875,-0.0305633544921875
1789139617480839400,11.25483935546875,-0.4720306396484375,-1.0095062255859375,-0.05975341796875
1789139617490812400,11.2648125,-0.592437744140625,-0.817474365234375,-0.0729522705078125
1789139617500784400,11.274784423828125,-0.5631866455078125,-0.8011474609375,-0.0278167724609375
1789139617510757400,11.28475732421875,-0.45587158203125,-0.8458099365234375,-0.00311279296875
1789139617520730400,11.29473046875,-0.5507354736328125,-0.7586517333984375,-0.0013580322265625
1789139617530703600,11.30470361328125,-0.6265869140625,-0.69097900390625,-0.0194549560546875
1789139617540676600,11.314676513671875,-0.52374267578125,-0.83917236328125,-0.0299072265625
1789139617550649300,11.3246494140625,-0.5334320068359375,-0.8592987060546875,-0.0490875244140625
1789139617560622300,11.334622314453124,-0.538055419921875,-0.841766357421875,-0.145050048828125
1789139617570595600,11.344595703125,-0.505340576171875,-0.8514404296875,-0.10137939453125
1789139617580568600,11.354568603515625,-0.541290283203125,-0.86627197265625,-0.050750732421875
1789139617590541600,11.36454150390625,-0.559783935546875,-0.8202972412109375,-0.0755462646484375
1789139617600514300,11.374514404296875,-0.597564697265625,-0.758941650390625,0.032867431640625
1789139617610487600,11.384487548828124,-0.6063232421875,-0.768646240234375,0.07342529296875
1789139617620460500,11.39446044921875,-0.5576324462890625,-0.8028411865234375,0.0592193603515625
1789139617630433500,11.40443359375,-0.5701751708984375,-0.7951812744140625,0.1282196044921875
1789139617640406500,11.414406494140625,-0.620513916015625,-0.799835205078125,0.0897064208984375
1789139617650379500,11.424379638671875,-0.4611968994140625,-0.898040771484375,0.03778076171875
1789139617660352500,11.4343525390625,-0.52587890625,-0.842926025390625,0.06085205078125
1789139617670325500,11.444325439453126,-0.6151275634765625,-0.814239501953125,0.0379638671875
1789139617680298500,11.454298583984375,-0.538818359375,-0.8559112548828125,0.012481689453125
1789139617690271500,11.464271484375,-0.558258056640625,-0.844146728515625,0.0562591552734375
1789139617700244500,11.474244384765624,-0.6152191162109375,-0.8370208740234375,0.0008392333984375
1789139617710217500,11.484217529296876,-0.592498779296875,-0.89666748046875,-0.0339202880859375
1789139617720190500,11.4941904296875,-0.615325927734375,-0.8441925048828125,-0.0093231201171875
1789139617730162700,11.50416259765625,-0.6130218505859375,-0.771331787109375,-0.074920654296875
1789139617740135400,11.514135498046874,-0.6212310791015625,-0.7914581298828125,-0.05340576171875
1789139617750108400,11.5241083984375,-0.571014404296875,-0.852996826171875,-0.054534912109375
1789139617760081400,11.534081298828125,-0.5539093017578125,-0.867095947265625,-0.1058502197265625
1789139617770054700,11.5440546875,-0.61370849609375,-0.8102874755859375,-0.1199493408203125
1789139617780027400,11.55402734375,-0.558013916015625,-0.82904052734375,-0.1318511962890625
1789139617790000400,11.56400048828125,-0.4810333251953125,-0.839630126953125,-0.1657562255859375
1789139617799973400,11.573973388671876,-0.6060333251953125,-0.7608184814453125,-0.1012725830078125
1789139617809946600,11.583946533203125,-0.510589599609375,-0.8084564208984375,-0.0782928466796875
1789139617819919600,11.593919677734375,-0.471771240234375,-0.809417724609375,-0.1056365966796875
1789139617829892400,11.603892333984374,-0.5843963623046875,-0.744903564453125,-0.0538177490234375
1789139617839865300,11.613865234375,-0.4373931884765625,-0.7919769287109375,-0.075103759765625
1789139617849838600,11.623838623046876,-0.519805908203125,-0.7681121826171875,-0.0528411865234375
1789139617859811600,11.6338115234375,-0.6491546630859375,-0.7305908203125,-0.01715087890625
1789139617869784600,11.64378466796875,-0.6033935546875,-0.745208740234375,-0.0265655517578125
1789139617879757300,11.65375732421875,-0.7337646484375,-0.730987548828125,-0.019744873046875
1789139617889730600,11.66373046875,-0.7486572265625,-0.7620391845703125,0.076416015625
1789139617899703600,11.67370361328125,-0.7639923095703125,-0.80224609375,0.0450592041015625
1789139617909676500,11.683676513671875,-0.7494659423828125,-0.846435546875,0.04620361328125
1789139617919649500,11.6936494140625,-0.7779541015625,-0.8509063720703125,0.07501220703125
1789139617929622500,11.70362255859375,-0.7313232421875,-0.855377197265625,0.0248565673828125
1789139617939595500,11.713595458984376,-0.583160400390625,-0.8733367919921875,0.0060577392578125
1789139617949568500,11.723568603515625,-0.557586669921875,-0.85552978515625,-0.0421600341796875
1789139617959541500,11.73354150390625,-0.5337677001953125,-0.83984375,-0.13336181640625
1789139617969514500,11.743514404296874,-0.485107421875,-0.8738861083984375,-0.1134185791015625
1789139617979486500,11.753486572265626,-0.47418212890625,-0.8564300537109375,-0.1379241943359375
1789139617989459500,11.76345947265625,-0.49932861328125,-0.805572509765625,-0.1008453369140625
1789139617999432400,11.773432373046875,-0.5254364013671875,-0.81439208984375,-0.03948974609375
1789139618009405700,11.78340576171875,-0.5377655029296875,-0.815399169921875,-0.0742340087890625
1789139618019378400,11.79337841796875,-0.6383819580078125,-0.8152923583984375,-0.057464599609375
1789139618029351400,11.803351318359375,-0.6219635009765625,-0.8571929931640625,-0.0483551025390625
1789139618039324400,11.813324462890625,-0.626953125,-0.8289794921875,-0.0514678955078125
1789139618049297700,11.823297607421875,-0.6306304931640625,-0.7969818115234375,-0.0601348876953125
1789139618059270700,11.833270751953124,-0.571807861328125,-0.848480224609375,-0.0619659423828125
1789139618069243400,11.843243408203126,-0.60467529296875,-0.80029296875,-0.0314788818359375
1789139618079216400,11.85321630859375,-0.5992431640625,-0.8025360107421875,-0.0671234130859375
1789139618089189600,11.863189697265625,-0.5413055419921875,-0.8780975341796875,0.0018768310546875
1789139618099162600,11.87316259765625,-0.5163421630859375,-0.8331298828125,-0.0680694580078125
1789139618109135400,11.88313525390625,-0.59954833984375,-0.7891082763671875,-0.0926666259765625
1789139618119108400,11.8931083984375,-0.586090087890625,-0.766754150390625,-0.0210723876953125
1789139618129081600,11.90308154296875,-0.4839019775390625,-0.7467041015625,-0.126312255859375
1789139618139054600,11.9130546875,-0.4843597412109375,-0.8539581298828125,-0.0298614501953125
1789139618149027600,11.923027587890624,-0.5762176513671875,-0.89532470703125,0.016387939453125
1789139618159000300,11.933000244140626,-0.6060028076171875,-0.8512115478515625,0.048858642578125
1789139618168973600,11.9429736328125,-0.58892822265625,-0.86505126953125,0.0966644287109375
1789139618178946600,11.952946533203125,-0.5521697998046875,-0.8923797607421875,0.04052734375
1789139618188919600,11.96291943359375,-0.623565673828125,-0.8093109130859375,0.004852294921875
1789139618198892500,11.972892578125,-0.7019805908203125,-0.7841644287109375,-0.0156097412109375
1789139618208865300,11.982865234375,-0.58001708984375,-0.8760986328125,0.0012054443359375
1789139618218838500,11.992838623046875,-0.475555419921875,-0.9110565185546875,0.0285491943359375
1789139618228810500,12.002810546875,-0.5630950927734375,-0.8345794677734375,0.0369110107421875
1789139618238783500,12.012783447265624,-0.4609832763671875,-0.93450927734375,-0.001251220703125
1789139618248756500,12.022756591796876,-0.5563507080078125,-0.8987274169921875,0.0381927490234375
1789139618258729500,12.0327294921875,-0.5772705078125,-0.8488922119140625,0.0006561279296875
1789139618268702500,12.042702392578125,-0.5484466552734375,-0.9412841796875,-0.12841796875
1789139618278675500,12.052675537109375,-0.6244354248046875,-0.94659423828125,-0.0933837890625
1789139618288648700,12.062648681640624,-0.7288818359375,-0.792327880859375,0.00341796875
1789139618298621400,12.072621337890626,-0.6934356689453125,-0.807891845703125,-0.0438385009765625
1789139618308594400,12.082594482421875,-0.564483642578125,-0.9254608154296875,0.0803985595703125
1789139618318567400,12.0925673828125,-0.57098388671875,-0.861785888671875,0.0422210693359375
1789139618328540700,12.102540771484374,-0.6814727783203125,-0.74969482421875,-0.0189208984375
1789139618338513700,12.112513671875,-0.539520263671875,-0.836517333984375,-0.026092529296875
1789139618348486400,12.122486328125,-0.4092864990234375,-0.8894500732421875,-0.0592041015625
1789139618358459400,12.13245947265625,-0.4762420654296875,-0.8181610107421875,0.0289306640625
1789139618368432600,12.1424326171875,-0.5222930908203125,-0.7673797607421875,-0.0025177001953125
1789139618378405600,12.152405517578124,-0.4622039794921875,-0.8358306884765625,0.023040771484375
1789139618388378600,12.162378662109376,-0.4977264404296875,-0.7642974853515625,0.0203857421875
1789139618398351400,12.172351318359375,-0.5494537353515625,-0.7310638427734375,0.069305419921875
1789139618408324600,12.18232470703125,-0.5662078857421875,-0.759246826171875,0.0471343994140625
1789139618418297600,12.192297607421875,-0.599456787109375,-0.8290557861328125,0.03643798828125
1789139618428270600,12.2022705078125,-0.6465911865234375,-0.7706146240234375,0.010650634765625
1789139618438243300,12.212243408203125,-0.70654296875,-0.7640838623046875,-0.0461578369140625
1789139618448216300,12.22221630859375,-0.709747314453125,-0.8170623779296875,0.005279541015625
1789139618458189600,12.232189453125,-0.6468963623046875,-0.85809326171875,0.0081024169921875
1789139618468162600,12.24216259765625,-0.6775054931640625,-0.8556365966796875,0.0126953125
1789139618478134300,12.25213427734375,-0.6781158447265625,-0.88525390625,0.0163421630859375
1789139618488107500,12.262107421875,-0.7092742919921875,-0.8852081298828125,0.0078582763671875
1789139618498080500,12.27208056640625,-0.524078369140625,-0.9283599853515625,0.0065155029296875
1789139618508053500,12.282053466796874,-0.583770751953125,-0.877655029296875,-0.0256805419921875
1789139618518026500,12.292026611328126,-0.5108184814453125,-0.8854217529296875,-0.1123199462890625
1789139618527999500,12.30199951171875,-0.5047149658203125,-0.841522216796875,-0.093658447265625
1789139618537972500,12.311972412109375,-0.468353271484375,-0.8153076171875,-0.120086669921875
1789139618547945500,12.321945556640625,-0.4534149169921875,-0.81329345703125,-0.0960845947265625
1789139618557918500,12.33191845703125,-0.4787139892578125,-0.791046142578125,0.0075531005859375
1789139618567891700,12.3418916015625,-0.5620880126953125,-0.7676544189453125,-0.0707550048828125
1789139618577864400,12.351864501953125,-0.602783203125,-0.8325347900390625,-0.0055999755859375
1789139618587837400,12.36183740234375,-0.63916015625,-0.8348846435546875,0.0342254638671875
1789139618597810400,12.371810546875,-0.6707763671875,-0.7989501953125,-0.079437255859375
1789139618607783700,12.38178369140625,-0.699371337890625,-0.78485107421875,-0.0149688720703125
1789139618617756700,12.391756591796875,-0.599395751953125,-0.839630126953125,-0.005523681640625
1789139618627729400,12.4017294921875,-0.599609375,-0.8009490966796875,-0.030120849609375
1789139618637702400,12.411702392578125,-0.6033935546875,-0.7943267822265625,-0.04815673828125
1789139618647675400,12.42167529296875,-0.5623931884765625,-0.7949066162109375,0.042236328125
1789139618657648600,12.431648681640626,-0.521942138671875,-0.7791900634765625,0.0061492919921875
1789139618667621600,12.44162158203125,-0.5888671875,-0.72003173828125,0.0150146484375
1789139618677594400,12.451594482421875,-0.5857391357421875,-0.745819091796875,0.0728759765625
1789139618687567400,12.4615673828125,-0.5012969970703125,-0.7607269287109375,-0.00048828125
1789139618697540600,12.47154052734375,-0.4892425537109375,-0.776824951171875,0.037078857421875
1789139618707513600,12.481513671875,-0.5813446044921875,-0.8322906494140625,0.0952911376953125
1789139618717486600,12.491486572265625,-0.5740203857421875,-0.8228607177734375,-0.0298004150390625
1789139618727459300,12.501459228515625,-0.5550079345703125,-0.8036346435546875,-0.0330810546875
1789139618737431600,12.511431640625,-0.5609130859375,-0.863250732421875,0.0629119873046875
1789139618747404500,12.521404541015626,-0.5964508056640625,-0.8294219970703125,-0.135284423828125
1789139618757377300,12.531377197265625,-0.5904998779296875,-0.871734619140625,-0.1134185791015625
1789139618767350500,12.5413505859375,-0.6161956787109375,-0.8475494384765625,-0.1221466064453125
1789139618777323500,12.551323486328124,-0.5933074951171875,-0.8820343017578125,-0.128753662109375
1789139618787296500,12.561296630859376,-0.43994140625,-0.950225830078125,-0.099212646484375
1789139618797269500,12.57126953125,-0.5051116943359375,-0.8686370849609375,-0.0703277587890625
1789139618807242500,12.581242431640625,-0.562896728515625,-0.8935546875,-0.095306396484375
1789139618817215500,12.591215576171875,-0.450653076171875,-0.913360595703125,-0.1226348876953125
1789139618827188500,12.6011884765625,-0.540802001953125,-0.847442626953125,-0.0990447998046875
1789139618837161500,12.611161376953126,-0.5535888671875,-0.8362579345703125,-0.1539459228515625
1789139618847134500,12.621134521484375,-0.6356964111328125,-0.76324462890625,-0.127410888671875
1789139618857107500,12.631107421875,-0.6311492919921875,-0.75494384765625,-0.0571136474609375
1789139618867080400,12.64108056640625,-0.5626373291015625,-0.867584228515625,-0.0192108154296875
1789139618877053400,12.651053466796874,-0.499114990234375,-0.9657745361328125,-0.0006866455078125
1789139618887026400,12.6610263671875,-0.53045654296875,-0.9217529296875,-0.0089569091796875
1789139618896999700,12.670999755859375,-0.781646728515625,-0.597564697265625,0.029693603515625
1789139618906972400,12.680972412109375,-0.58062744140625,-0.7348480224609375,-0.049102783203125
1789139618916945400,12.6909453125,-0.3820648193359375,-0.8442230224609375,-0.04107666015625
1789139618926918400,12.70091845703125,-0.6110076904296875,-0.6959991455078125,0.1282958984375
1789139618936891600,12.7108916015625,-0.681304931640625,-0.752197265625,0.0923309326171875
1789139618946864600,12.72086474609375,-0.4534912109375,-0.937957763671875,0.000152587890625
1789139618956837400,12.73083740234375,-0.4586029052734375,-0.80767822265625,0.078094482421875
1789139618966810400,12.740810302734374,-0.5716400146484375,-0.7391510009765625,-0.004058837890625
1789139618976783600,12.75078369140625,-0.5704345703125,-0.8016510009765625,-0.018218994140625
1789139618986756600,12.760756591796875,-0.54962158203125,-0.809234619140625,0.0876617431640625
