time,seconds_elapsed,z,y,x
1789139606289966800,0.063966796875,-0.2759956121444702,-0.050450827926397324,0.06857908517122269
1789139606299939800,0.07393994140625,-0.23668308556079865,-0.07220379263162613,0.02261478826403618
1789139606309912800,0.083912841796875,-0.17256124317646027,-0.04196381941437721,0.004049957729876041
1789139606319885800,0.0938857421875,-0.22739306092262268,-0.07214994728565216,0.03511200100183487
1789139606329858800,0.10385888671875,-0.254793643951416,-0.08390597999095917,0.05603255704045296
1789139606339831800,0.113831787109375,-0.15525132417678833,-0.052073217928409576,-0.0797223448753357
1789139606349804000,0.123803955078125,-0.21775902807712555,-0.08717846125364304,-0.009532040916383266
1789139606359776800,0.13377685546875,-0.24559812247753143,-0.09505822509527206,-0.027602385729551315
1789139606369749800,0.143749755859375,-0.17449213564395905,-0.0877949446439743,-0.06297442317008972
1789139606379722800,0.15372265625,-0.20075783133506775,-0.09165546298027039,-0.054000373929739
1789139606389696000,0.163696044921875,-0.28301936388015747,-0.12032698094844818,0.01901146210730076
1789139606399669000,0.1736689453125,-0.246780663728714,-0.12054909020662308,0.024580132216215134
1789139606409641700,0.183641845703125,-0.2591226100921631,-0.13538695871829987,0.0869293212890625
1789139606419614700,0.19361474609375,-0.25543761253356934,-0.11714484542608261,0.05369173362851143
1789139606429587000,0.2035869140625,-0.2362593561410904,-0.12669669091701508,0.11371894180774689
1789139606439560000,0.213559814453125,-0.2101270854473114,-0.11534391343593597,0.0891619324684143
1789139606449532700,0.22353271484375,-0.1416425257921219,-0.08276985585689545,0.06332823634147644
1789139606459506000,0.233505859375,-0.10280031710863113,-0.03007468953728676,0.03312693163752556
1789139606469479000,0.24347900390625,-0.10905005782842636,-0.05895346403121948,0.025994373485445976
1789139606479452000,0.253451904296875,-0.11156168580055237,-0.024721456691622734,-0.04091009125113487
1789139606489425000,0.2634248046875,-0.0071216244250535965,-0.020984584465622902,-0.05906400457024574
1789139606499397600,0.273397705078125,0.005051950458437204,0.012529166415333748,-0.06372427195310593
1789139606509371000,0.283370849609375,0.009205572307109833,0.04064225032925606,-0.10774825513362885
1789139606519342800,0.2933427734375,-0.031884074211120605,0.013729142025113106,-0.047428715974092484
1789139606529315800,0.30331591796875,0.009384049102663994,-0.007819273509085178,-0.03951864317059517
1789139606539288800,0.313288818359375,0.00007470324635505676,0.04804984852671623,-0.07426676899194717
1789139606549261800,0.32326171875,-0.002721819095313549,0.019529176875948906,-0.02165679633617401
1789139606559234800,0.33323486328125,0.0009187217801809311,0.025409171357750893,-0.02386881783604622
1789139606569207800,0.343207763671875,0.004730124957859516,0.018617000430822372,0.025220632553100586
1789139606579181000,0.35318115234375,-0.018908891826868057,0.03267928957939148,0.07186456769704819
1789139606589153800,0.36315380859375,0.08892922103404999,0.035197384655475616,-0.04114513099193573
1789139606599126800,0.373126708984375,0.08241406083106995,0.010931992903351784,0.020787211135029793
1789139606609099000,0.38309912109375,0.05492011457681656,0.035069286823272705,0.054172333329916
1789139606619071700,0.39307177734375,0.12305335700511932,0.08308049291372299,-0.045217905193567276
1789139606629044700,0.403044677734375,0.1611490249633789,0.07011370360851288,-0.05200793594121933
1789139606639017700,0.413017822265625,0.14007650315761566,0.07159468531608582,-0.02168145775794983
1789139606648991000,0.422990966796875,0.1409306824207306,0.09078668802976608,0.004079279489815235
1789139606658964000,0.4329638671875,0.16924035549163818,0.08790168166160583,-0.024360351264476776
1789139606668936700,0.442936767578125,0.21336117386817932,0.06110132113099098,-0.005300776567310095
1789139606678909700,0.45290966796875,0.21177978813648224,0.07899882644414902,0.01716138795018196
1789139606688882000,0.4628818359375,0.14179660379886627,0.12781159579753876,0.057716209441423416
1789139606698855000,0.47285498046875,0.2101151943206787,0.09756873548030853,-0.026120634749531746
1789139606708827600,0.48282763671875,0.1885378360748291,0.07975941896438599,0.007729803677648306
1789139606718801000,0.49280078125,0.1154860109090805,0.06167655810713768,0.015001566149294376
1789139606728774000,0.50277392578125,0.06367580592632294,0.06638076901435852,-0.008549300022423267
1789139606738747000,0.512746826171875,0.10213238000869751,0.011718588881194592,-0.04535684734582901
1789139606748719900,0.522719970703125,0.024382028728723526,0.021267499774694443,-0.008265413343906403
1789139606758692900,0.53269287109375,0.04476106911897659,0.0044222064316272736,-0.07662849128246307
1789139606768665900,0.542665771484375,0.050654057413339615,-0.028515471145510674,-0.01801004260778427
1789139606778637800,0.552637939453125,-0.08606410771608353,-0.04078678414225578,0.06655224412679672
1789139606788610800,0.56261083984375,-0.07335395365953445,-0.005968370474874973,0.04683531075716019
1789139606798583800,0.572583740234375,0.06964261829853058,0.021198268979787827,-0.054440177977085114
1789139606808556800,0.582556884765625,0.0390840582549572,0.007605609949678183,0.01898036152124405
1789139606818529800,0.59252978515625,-0.04239509254693985,0.0009682131931185722,0.06940492242574692
1789139606828502800,0.602502685546875,0.0008689267560839653,0.015379123389720917,0.02468344196677208
1789139606838476000,0.61247607421875,-0.0009148577228188515,0.016320550814270973,-0.02362949587404728
1789139606848448800,0.62244873046875,0.014933189377188683,0.03489629924297333,-0.024057216942310333
1789139606858421800,0.632421875,-0.029214033856987953,0.013261048123240471,0.05218029394745827
1789139606868394000,0.64239404296875,-0.06910718232393265,0.05116228014230728,0.06379280239343643
1789139606878367000,0.652366943359375,-0.0010943040251731873,0.06386662274599075,-0.0328674279153347
1789139606888339700,0.662339599609375,-0.022466061636805534,0.07519043236970901,-0.010666188783943653
1789139606898312700,0.672312744140625,0.008472147397696972,0.05945887416601181,-0.04015776887536049
1789139606908286000,0.682285888671875,-0.059919584542512894,0.03171372786164284,0.07519596815109253
1789139606918259000,0.692259033203125,-0.040195416659116745,0.010955719277262688,0.038825176656246185
1789139606928232000,0.70223193359375,-0.005256714299321175,0.04097786545753479,0.02006535790860653
1789139606938204700,0.71220458984375,0.03970649838447571,0.016100745648145676,0.019918885082006454
1789139606948177000,0.722177001953125,-0.019663559272885323,0.02468232437968254,0.07187096774578094
1789139606958150000,0.73214990234375,0.005621025338768959,0.02930157631635666,0.0005011859466321766
1789139606968122600,0.74212255859375,0.0064916592091321945,0.030577784404158592,0.014775417745113373
1789139606978095900,0.752095947265625,-0.05640501528978348,0.03430913761258125,0.02329540252685547
1789139606988068900,0.76206884765625,-0.03363179415464401,0.030356476083397865,-0.007542137987911701
1789139606998041900,0.772041748046875,-0.015213636681437492,0.008449843153357506,0.008884505368769169
1789139607008014800,0.782014892578125,-0.0632670596241951,-0.004563858732581139,0.02084321528673172
1789139607017987800,0.79198779296875,-0.051572322845458984,-0.013705424964427948,-0.006554321851581335
1789139607027960800,0.8019609375,-0.03636312484741211,-0.006052824668586254,-0.04170108959078789
1789139607037933800,0.811933837890625,-0.07203856110572815,-0.035505786538124084,-0.010260874405503273
1789139607047906000,0.821906005859375,-0.12401974946260452,-0.05920643359422684,0.02847605012357235
1789139607057878800,0.831878662109375,-0.14062374830245972,-0.045941758900880814,-0.020396685227751732
1789139607067851800,0.841851806640625,-0.1570238620042801,-0.07611514627933502,-0.03814603015780449
1789139607077824800,0.85182470703125,-0.2112697809934616,-0.1190093532204628,0.032642655074596405
1789139607087797800,0.8617978515625,-0.19297190010547638,-0.1346549540758133,-0.008854473941028118
1789139607097771000,0.87177099609375,-0.20796284079551697,-0.12344516813755035,-0.0004932136507704854
1789139607107743700,0.88174365234375,-0.2360219657421112,-0.16520601511001587,0.021300824359059334
1789139607117716700,0.891716796875,-0.27692943811416626,-0.17282052338123322,0.020576709881424904
1789139607127689700,0.901689697265625,-0.2365632802248001,-0.17191745340824127,0.02255578525364399
1789139607137662000,0.911661865234375,-0.21672220528125763,-0.1735723465681076,0.009856767021119595
1789139607147634700,0.921634765625,-0.19671806693077087,-0.18598361313343048,-0.01965021900832653
1789139607157607700,0.931607666015625,-0.19153130054473877,-0.18472713232040405,-0.0016943886876106262
1789139607167580700,0.94158056640625,-0.1944083720445633,-0.15778401494026184,-0.01769193820655346
1789139607177553700,0.9515537109375,-0.17678730189800262,-0.14066095650196075,-0.014104127883911133
1789139607187526700,0.961526611328125,-0.14688903093338013,-0.12641793489456177,-0.013011363334953785
1789139607197499600,0.971499755859375,-0.11188685148954391,-0.08407314121723175,-0.08764512091875076
1789139607207473000,0.981472900390625,-0.12372864782810211,-0.0920148715376854,-0.0598987340927124
1789139607217445600,0.991445556640625,-0.13232693076133728,-0.1128397285938263,0.0394078753888607
1789139607227417600,1.00141748046875,-0.08859357237815857,-0.08336758613586426,0.06806988269090652
1789139607237390800,1.011390869140625,-0.014030922204256058,-0.02670031413435936,-0.11944462358951569
1789139607247363800,1.02136376953125,-0.040812309831380844,-0.0846724733710289,0.05395141988992691
1789139607257336600,1.031336669921875,-0.03092852234840393,-0.10224613547325134,0.14859430491924286
1789139607267309600,1.0413095703125,0.02985364943742752,-0.031336527317762375,0.01382499374449253
1789139607277282800,1.05128271484375,0.038480427116155624,-0.021336089819669724,-0.04328782483935356
1789139607287255800,1.061255859375,0.0378057062625885,-0.05779067054390907,0.050441909581422806
1789139607297228800,1.071228759765625,0.04867299646139145,-0.02154371701180935,0.028769640251994133
1789139607307201500,1.081201416015625,0.05374109745025635,-0.010584554634988308,-0.008618932217359543
1789139607317173800,1.091173828125,0.04975593835115433,-0.020453695207834244,-0.04294681176543236
1789139607327146800,1.101146728515625,0.05706946551799774,-0.043459806591272354,0.005839063320308924
1789139607337119700,1.11111962890625,0.06346877664327621,-0.017824485898017883,0.0092305988073349
1789139607347092700,1.1210927734375,0.06237401068210602,0.0078116608783602715,-0.021992193534970284
1789139607357065700,1.131065673828125,0.07794125378131866,-0.03091762587428093,-0.02039589360356331
1789139607367038700,1.141038818359375,0.08597663789987564,-0.009771555662155151,-0.08735637366771698
1789139607377011700,1.15101171875,0.051348887383937836,0.007652442902326584,-0.028226474300026894
1789139607386984700,1.160984619140625,0.04732474684715271,-0.03967868164181709,0.05031877011060715
1789139607396957700,1.170957763671875,0.10201835632324219,-0.02991127222776413,-0.012957937084138393
1789139607406930700,1.1809306640625,0.1216404139995575,0.01778249256312847,-0.070270836353302
1789139607416902700,1.190902587890625,0.10468193888664246,-0.032317958772182465,0.048417460173368454
1789139607426876000,1.2008759765625,0.11278700083494186,-0.057624973356723785,0.07925688475370407
1789139607436848600,1.2108486328125,0.12223349511623383,-0.010274766013026237,-0.0500694178044796
1789139607446821600,1.220821533203125,0.04376017302274704,-0.017650214955210686,-0.008336629718542099
1789139607456794600,1.230794677734375,0.047277674078941345,-0.0438045859336853,0.034056901931762695
1789139607466768000,1.240767822265625,0.06864729523658752,-0.0005158537533134222,-0.03812875971198082
1789139607476740600,1.25074072265625,0.05404491722583771,-0.01914093643426895,-0.03826404735445976
1789139607486713600,1.260713623046875,0.043114498257637024,-0.049361106008291245,-0.010334313847124577
1789139607496686600,1.2706865234375,0.049923673272132874,-0.02478119544684887,-0.008313240483403206
1789139607506658800,1.280658935546875,0.0628083199262619,-0.015008934773504734,0.015107114799320698
1789139607516631600,1.290631591796875,0.05755230784416199,-0.007836775854229927,0.0077775632962584496
1789139607526604500,1.3006044921875,0.08080851286649704,0.022168749943375587,0.011447868309915066
1789139607536577800,1.310577880859375,0.0878688171505928,0.04726211726665497,0.000819724693428725
1789139607546550800,1.32055078125,0.09983190149068832,0.03474303334951401,0.03602362051606178
1789139607556523800,1.330523681640625,0.11460366100072861,0.027971947565674782,0.05856088921427727
1789139607566496500,1.34049658203125,0.12664341926574707,0.06185615062713623,-0.00756243709474802
1789139607576469800,1.3504697265625,0.10390482097864151,0.06689777970314026,-0.015376151539385319
1789139607586442800,1.36044287109375,0.12136174738407135,0.04517726972699165,0.019548099488019943
1789139607596415700,1.370415771484375,0.12800873816013336,0.08092620968818665,0.01897685043513775
1789139607606387700,1.3803876953125,0.11686046421527863,0.09752456843852997,-0.004589712712913752
1789139607616360700,1.390360595703125,0.09569951891899109,0.08426788449287415,0.0018964160699397326
1789139607626333700,1.400333740234375,0.1248752549290657,0.0740981325507164,0.023221664130687714
1789139607636306700,1.410306640625,0.11626578867435455,0.09148244559764862,0.0005893214838579297
1789139607646280000,1.420280029296875,0.12948597967624664,0.07014099508523941,-0.03137863054871559
1789139607656252700,1.430252685546875,0.1321752369403839,0.05428799241781235,0.02066805586218834
1789139607666225700,1.4402255859375,0.12656141817569733,0.07293400168418884,0.03287560120224953
1789139607676198700,1.45019873046875,0.07832544296979904,0.05404127016663551,0.015623644925653934
1789139607686171600,1.460171630859375,0.06912414729595184,0.03474152833223343,-0.006760318763554096
1789139607696143600,1.4701435546875,0.04534025117754936,0.035148993134498596,0.022453492507338524
1789139607706116600,1.48011669921875,0.016819193959236145,0.04793618619441986,0.05095155909657478
1789139607716089600,1.490089599609375,0.008768723346292973,0.06828353554010391,0.008032320067286491
1789139607726062800,1.500062744140625,0.05178532749414444,0.057953037321567535,-0.010371883399784565
1789139607736035800,1.510035888671875,0.02766401320695877,0.06283833831548691,0.05402388423681259
1789139607746008600,1.520008544921875,0.07214706391096115,0.0505671352148056,0.06749983131885529
1789139607755981600,1.529981689453125,0.1116984635591507,0.05113678425550461,-0.018915487453341484
1789139607765954800,1.539954833984375,0.09168790280818939,0.0630498081445694,0.060161057859659195
1789139607775927800,1.549927734375,0.0728074237704277,0.09524822235107422,0.06731484085321426
1789139607785900800,1.55990087890625,0.10164690017700195,0.0695345401763916,0.007710880599915981
1789139607795872800,1.569872802734375,0.05317603796720505,0.07807609438896179,0.03144257515668869
1789139607805845800,1.579845703125,0.04817195609211922,0.06775171309709549,0.02281438186764717
1789139607815818800,1.58981884765625,0.028769494965672493,0.06234309822320938,-0.009656742215156555
1789139607825791500,1.59979150390625,0.034946590662002563,0.06642802804708481,-0.016094030812382698
1789139607835764700,1.6097646484375,0.002171602100133896,0.07094794511795044,-0.04966264218091965
1789139607845737700,1.61973779296875,0.003821423277258873,0.03428984805941582,-0.04108263924717903
1789139607855710700,1.629710693359375,-0.027345551177859306,0.060917194932699203,-0.011785469949245453
1789139607865683700,1.63968359375,-0.054757360368967056,0.059733789414167404,-0.017459971830248833
1789139607875656700,1.64965673828125,-0.08094236254692078,0.02279920130968094,-0.00577002577483654
1789139607885629700,1.659629638671875,-0.08670224249362946,0.02105345018208027,0.03666042536497116
1789139607895601700,1.6696015625,-0.09890484064817429,0.041076160967350006,0.02430841512978077
1789139607905575000,1.679574951171875,-0.10996964573860168,0.0042386120185256,0.03875036537647247
1789139607915547600,1.689547607421875,-0.13010473549365997,0.010321005247533321,0.043875087052583694
1789139607925520600,1.699520751953125,-0.12090839445590973,0.01243882067501545,0.037624020129442215
1789139607935493600,1.70949365234375,-0.10850099474191666,0.012229494750499725,0.016023654490709305
1789139607945467000,1.719466796875,-0.12835370004177094,0.024618985131382942,-0.010302928276360035
1789139607955439900,1.72943994140625,-0.13783907890319824,0.030818555504083633,0.0009534549899399281
1789139607965412600,1.73941259765625,-0.13246342539787292,0.010000544600188732,-0.013390040025115013
1789139607975385600,1.749385498046875,-0.12089786678552628,0.005442543886601925,-0.06239859759807587
1789139607985358600,1.759358642578125,-0.13474012911319733,0.0070708198472857475,-0.04079773649573326
1789139607995330800,1.769330810546875,-0.13542908430099487,-0.010645858943462372,-0.010495760478079319
1789139608005303600,1.779303466796875,-0.1555318981409073,0.0031561567448079586,0.00305948662571609
1789139608015276500,1.789276611328125,-0.15201492607593536,-0.00013311346992850304,0.0037385926116257906
1789139608025249800,1.799249755859375,-0.14367182552814484,-0.003699853317812085,-0.018265098333358765
1789139608035222800,1.809222900390625,-0.16805173456668854,-0.014142374508082867,-0.01811649464070797
1789139608045195800,1.81919580078125,-0.20438268780708313,-0.02921138145029545,-0.0037749039474874735
1789139608055168500,1.82916845703125,-0.17874203622341156,-0.04732460528612137,-0.009326796047389507
1789139608065141800,1.839141845703125,-0.16768348217010498,-0.05794825404882431,0.004039466846734285
1789139608075114800,1.84911474609375,-0.1941627562046051,-0.04684926196932793,-0.02706359140574932
1789139608085087700,1.859087646484375,-0.22537393867969513,-0.08578707277774811,-0.012541108764708042
1789139608095059700,1.869059814453125,-0.24216623604297638,-0.0846048966050148,0.0034546363167464733
1789139608105032700,1.87903271484375,-0.28124403953552246,-0.09250134229660034,-0.010247963480651379
1789139608115005700,1.889005615234375,-0.30875980854034424,-0.1268816888332367,-0.0285785011947155
1789139608124978700,1.898978759765625,-0.3050650358200073,-0.139461487531662,0.009783638641238213
1789139608134952000,1.908951904296875,-0.29491013288497925,-0.11443523317575455,0.00002235436113551259
1789139608144924700,1.918924560546875,-0.29467442631721497,-0.13959462940692902,0.01264036726206541
1789139608154897700,1.928897705078125,-0.29693809151649475,-0.17408496141433716,-0.0021665417589247227
1789139608164871000,1.938870849609375,-0.30834242701530457,-0.1678059846162796,-0.009136502631008625
1789139608174844000,1.948843994140625,-0.30606356263160706,-0.16033901274204254,0.008752482943236828
1789139608184817200,1.958817138671875,-0.28614652156829834,-0.15984737873077393,-0.021512256935238838
1789139608194788900,1.968788818359375,-0.27762147784233093,-0.15869316458702087,0.0068948836997151375
1789139608204761900,1.978761962890625,-0.25997617840766907,-0.13425183296203613,-0.024517716839909554
1789139608214735000,1.988735107421875,-0.26465827226638794,-0.12885014712810516,-0.002848641714081168
1789139608224708000,1.9987080078125,-0.2569827139377594,-0.1342143714427948,-0.0058312080800533295
1789139608234680800,2.008680908203125,-0.21311113238334656,-0.13467510044574738,-0.04601671174168587
1789139608244653800,2.01865380859375,-0.2155858725309372,-0.11992821097373962,0.0038171124178916216
1789139608254627000,2.028626953125,-0.17538438737392426,-0.13075847923755646,0.02011219598352909
1789139608264600000,2.03860009765625,-0.16736671328544617,-0.11439305543899536,-0.02257147617638111
1789139608274572800,2.04857275390625,-0.1513427495956421,-0.09143287688493729,-0.00750064617022872
1789139608284545800,2.0585458984375,-0.14658010005950928,-0.07194264978170395,0.04452994465827942
1789139608294519000,2.06851904296875,-0.12318795919418335,-0.07379966974258423,0.017469564452767372
1789139608304491000,2.078490966796875,-0.10102088004350662,-0.0873028039932251,-0.03096196800470352
1789139608314463700,2.088463623046875,-0.056021980941295624,-0.0922917053103447,-0.010304358787834644
1789139608324437000,2.09843701171875,-0.05688519403338432,-0.09437199681997299,0.03135785087943077
1789139608334410000,2.108409912109375,-0.0666094571352005,-0.09649001061916351,-0.007864654064178467
1789139608344383000,2.118383056640625,-0.07992028445005417,-0.11266186088323593,-0.031305618584156036
1789139608354356000,2.12835595703125,-0.09562467783689499,-0.1347874104976654,0.02139514498412609
1789139608364329000,2.138328857421875,-0.10750588774681091,-0.13467302918434143,-0.008118312805891037
1789139608374302000,2.148302001953125,-0.11027983576059341,-0.14953425526618958,-0.038380347192287445
1789139608384275000,2.15827490234375,-0.15804122388362885,-0.17425647377967834,0.004440419841557741
1789139608394248000,2.168248046875,-0.18282486498355865,-0.1800967901945114,-0.007339806761592627
1789139608404221200,2.17822119140625,-0.20718662440776825,-0.1590377390384674,-0.019935335963964462
1789139608414193000,2.18819287109375,-0.17741355299949646,-0.1791275441646576,-0.010359140112996101
1789139608424166000,2.198165771484375,-0.18556122481822968,-0.19963979721069336,0.05604987591505051
1789139608434139100,2.20813916015625,-0.14451712369918823,-0.18677912652492523,0.02917778305709362
1789139608444112100,2.218112060546875,-0.12794409692287445,-0.19082269072532654,0.02173967845737934
1789139608454084900,2.2280849609375,-0.11152811348438263,-0.1942666918039322,0.05434369295835495
1789139608464057900,2.238057861328125,-0.0780906230211258,-0.16077184677124023,0.028840117156505585
1789139608474030800,2.24803076171875,-0.04857827350497246,-0.14329297840595245,-0.001015516696497798
1789139608484004000,2.258004150390625,-0.011367418803274632,-0.13832716643810272,0.014464004896581173
1789139608493977000,2.26797705078125,0.013299044221639633,-0.09060145169496536,0.0006770856562070549
1789139608503949800,2.27794970703125,0.0223928801715374,-0.07947202026844025,-0.028929565101861954
1789139608513922000,2.287922119140625,0.0632132813334465,-0.07198187708854675,-0.030013738200068474
1789139608523895000,2.29789501953125,0.07804368436336517,-0.03256067633628845,0.04115349054336548
1789139608533868000,2.307867919921875,0.08324883878231049,-0.02671370655298233,0.021274589002132416
1789139608543840800,2.3178408203125,0.1008116826415062,-0.04852953553199768,-0.009468063712120056
1789139608553814000,2.32781396484375,0.13315604627132416,-0.01555507443845272,-0.007364432327449322
1789139608563787000,2.337787109375,0.11192984879016876,0.006760244257748127,0.08576703071594238
1789139608573760000,2.347760009765625,0.11876990646123886,-0.017877724021673203,0.14633449912071228
1789139608583733000,2.35773291015625,0.15144413709640503,-0.006474907509982586,0.04237756133079529
1789139608593706000,2.3677060546875,0.16254739463329315,-0.008983604609966278,0.030319033190608025
1789139608603679000,2.377678955078125,0.167429119348526,-0.02422257512807846,0.10449961572885513
1789139608613652000,2.38765185546875,0.16005563735961914,-0.02198818325996399,0.052058253437280655
1789139608623624000,2.3976240234375,0.12806612253189087,-0.019807808101177216,-0.023354418575763702
1789139608633597000,2.407596923828125,0.10989856719970703,-0.03832396864891052,-0.028062887489795685
1789139608643570000,2.41756982421875,0.08227875828742981,-0.03303089737892151,-0.009409923106431961
1789139608653543000,2.42754296875,0.10535983741283417,-0.03892207518219948,-0.030730657279491425
1789139608663516200,2.43751611328125,0.09572196006774902,-0.06139266490936279,-0.07844369113445282
1789139608673489000,2.447489013671875,0.04029465466737747,-0.06445476412773132,-0.038139406591653824
1789139608683462000,2.4574619140625,-0.012532703578472137,-0.05272768810391426,-0.022072291001677513
1789139608693435000,2.467434814453125,-0.015227289870381355,-0.10557172447443008,0.017021849751472473
1789139608703408000,2.477408203125,-0.007386371493339539,-0.09653075784444809,0.0036909219343215227
1789139608713381000,2.487381103515625,-0.01972213387489319,-0.09296797960996628,0.003585194470360875
1789139608723353900,2.497353759765625,0.01379694789648056,-0.11541005969047546,0.0010659273248165846
1789139608733326000,2.507326171875,0.004977890755981207,-0.1122206598520279,0.05783893167972565
1789139608743299000,2.517299072265625,0.0330960787832737,-0.08882958441972733,0.007446328643709421
1789139608753272000,2.52727197265625,0.046267807483673096,-0.08153411746025085,-0.03673231601715088
1789139608763244800,2.537244873046875,0.060435935854911804,-0.08166526257991791,0.010399652644991875
1789139608773217800,2.5472177734375,0.0543450228869915,-0.0726214349269867,0.004936976823955774
1789139608783191000,2.55719091796875,0.07750855386257172,-0.04702461510896683,-0.011621372774243355
1789139608793164000,2.5671640625,0.0852559506893158,-0.025470320135354996,-0.013693577609956264
1789139608803137000,2.577136962890625,0.07513988018035889,-0.031048012897372246,-0.008068571798503399
1789139608813109800,2.58710986328125,0.08551448583602905,-0.037537336349487305,-0.008101062849164009
1789139608823083000,2.5970830078125,0.11319997161626816,-0.05964256450533867,0.029224945232272148
1789139608833056000,2.607055908203125,0.06816671788692474,-0.054462980479002,0.0335611030459404
1789139608843028000,2.617028076171875,0.05400439351797104,-0.08276999741792679,0.013046586886048317
1789139608853001000,2.6270009765625,0.032554496079683304,-0.06416195631027222,-0.012076608836650848
1789139608862974000,2.636973876953125,0.021411031484603882,-0.08623769879341125,-0.017031952738761902
1789139608872947000,2.646947021484375,-0.04400179907679558,-0.10481377691030502,0.025205248966813087
1789139608882920000,2.656919921875,-0.048908136785030365,-0.13005831837654114,-0.0565478540956974
1789139608892893200,2.66689306640625,-0.060101673007011414,-0.13984224200248718,-0.05527033284306526
1789139608902866000,2.676865966796875,-0.042812906205654144,-0.1469118893146515,-0.06395984441041946
1789139608912839000,2.6868388671875,-0.051960598677396774,-0.15542522072792053,-0.04814385995268822
1789139608922812000,2.69681201171875,-0.06766515225172043,-0.17337951064109802,-0.048789430409669876
1789139608932785200,2.70678515625,-0.0696454793214798,-0.1461220532655716,-0.05409923940896988
1789139608942758000,2.7167578125,-0.09035229682922363,-0.13810773193836212,-0.05076209455728531
1789139608952729900,2.726729736328125,-0.06441337615251541,-0.1708185374736786,0.01475433073937893
1789139608962703000,2.736703125,-0.06412995606660843,-0.14575429260730743,0.022947300225496292
1789139608972676000,2.746676025390625,-0.011904032900929451,-0.15002547204494476,-0.019208408892154694
1789139608982648800,2.75664892578125,-0.008343085646629333,-0.1596955507993698,-0.010730341076850891
1789139608992621800,2.766621826171875,0.02351817488670349,-0.1458471119403839,0.019995879381895065
1789139609002595000,2.776594970703125,0.022045563906431198,-0.10982973128557205,0.010863063856959343
1789139609012568000,2.786568115234375,0.05050463601946831,-0.12252262234687805,-0.021036546677350998
1789139609022541000,2.796541015625,0.10158218443393707,-0.09282709658145905,-0.08594149351119995
1789139609032513800,2.806513671875,0.10373988747596741,-0.07078038901090622,-0.03128437325358391
1789139609042486800,2.81648681640625,0.06866270303726196,-0.043080270290374756,-0.0008054961217567325
1789139609052460000,2.8264599609375,0.12264230847358704,-0.05376540869474411,-0.021319827064871788
1789139609062432000,2.836431884765625,0.14391788840293884,-0.04284895583987236,-0.03360697254538536
1789139609072404700,2.84640478515625,0.17607849836349487,-0.035896774381399155,0.0016732525546103716
1789139609082378000,2.8563779296875,0.19310684502124786,-0.03477133437991142,-0.008422443643212318
1789139609092351000,2.86635107421875,0.22275768220424652,-0.032016295939683914,0.027533426880836487
1789139609102324000,2.876323974609375,0.2194000780582428,-0.01442511472851038,0.011260160245001316
1789139609112297000,2.886296875,0.21629935503005981,-0.015354824252426624,0.023851320147514343
1789139609122270000,2.89627001953125,0.278899610042572,0.0474604107439518,-0.007072406355291605
1789139609132243000,2.906242919921875,0.32930445671081543,0.05835087224841118,-0.005211655981838703
1789139609142216000,2.9162158203125,0.36725500226020813,0.046492863446474075,-0.06859804689884186
1789139609152189000,2.92618896484375,0.36290472745895386,0.023090600967407227,-0.034697066992521286
1789139609162162200,2.936162109375,0.3595989942550659,0.10117551684379578,-0.10588803142309189
1789139609172134100,2.946134033203125,0.38618239760398865,0.08899954706430435,-0.10701268911361694
1789139609182107000,2.95610693359375,0.3514386713504791,0.10131528973579407,-0.05027463287115097
1789139609192080100,2.966080078125,0.343858540058136,0.12970830500125885,-0.050972916185855865
1789139609202053000,2.97605322265625,0.3155888617038727,0.10646325349807739,-0.021692318841814995
1789139609212026000,2.986026123046875,0.3563283085823059,0.07284297794103622,0.0023903800174593925
1789139609221999000,2.9959990234375,0.2476579248905182,0.11817105859518051,0.0921287015080452
1789139609231972000,3.00597216796875,0.2570980191230774,0.05719371885061264,0.0426330603659153
1789139609241945000,3.015945068359375,0.19295759499073029,0.08532482385635376,0.03495950624346733
1789139609251918000,3.02591796875,0.19341431558132172,0.06933627277612686,0.03411981090903282
1789139609261891000,3.03589111328125,0.18886011838912964,0.07751311361789703,0.0439545214176178
1789139609271864000,3.045864013671875,0.2696838676929474,0.10627684742212296,-0.03731636703014374
1789139609281837000,3.055837158203125,0.25117605924606323,0.1267782300710678,-0.02945375256240368
1789139609291809000,3.06580908203125,0.23334379494190216,0.11870485544204712,-0.02692801132798195
1789139609301782000,3.075781982421875,0.2295689880847931,0.11589684337377548,-0.051395393908023834
1789139609311755300,3.08575537109375,0.28498268127441406,0.13759921491146088,-0.03480230271816254
1789139609321728000,3.09572802734375,0.28964540362358093,0.20755444467067719,-0.04068838059902191
1789139609331701000,3.105700927734375,0.30036598443984985,0.20239883661270142,-0.018697859719395638
1789139609341674000,3.115674072265625,0.3588812053203583,0.20575836300849915,-0.0014468047302216291
1789139609351647200,3.125647216796875,0.4271276593208313,0.23027755320072174,-0.02259070612490177
1789139609361620200,3.1356201171875,0.4435383081436157,0.2626360356807709,-0.020093193277716637
1789139609371593000,3.145593017578125,0.4673597514629364,0.279846727848053,-0.013722645118832588
1789139609381566000,3.15556591796875,0.4981655478477478,0.3015354871749878,-0.04492008313536644
1789139609391539200,3.165539306640625,0.46057796478271484,0.3256394863128662,0.019390994682908058
1789139609401512200,3.17551220703125,0.4563240110874176,0.30106881260871887,0.04036211594939232
1789139609411484000,3.18548388671875,0.4415120482444763,0.3011809289455414,0.032337214797735214
1789139609421457200,3.19545703125,0.44013312458992004,0.30805015563964844,0.0645613819360733
1789139609431430100,3.20543017578125,0.39153629541397095,0.28403112292289734,0.06850366294384003
1789139609441403100,3.215403076171875,0.39978891611099243,0.2576141357421875,0.04596852511167526
1789139609451376000,3.225376220703125,0.37347447872161865,0.2665077745914459,0.07975897938013077
1789139609461349000,3.23534912109375,0.3262118995189667,0.27131184935569763,0.035399772226810455
1789139609471322000,3.245322021484375,0.26783594489097595,0.2381480187177658,0.027526667341589928
1789139609481295000,3.255295166015625,0.2193639725446701,0.1928630769252777,0.06621471047401428
1789139609491268000,3.26526806640625,0.17220550775527954,0.19018393754959106,0.014376018196344376
1789139609501241000,3.275240966796875,0.15710361301898956,0.1850162297487259,0.0029228280764073133
1789139609511214000,3.285214111328125,0.138482004404068,0.16815495491027832,0.0345582515001297
1789139609521187000,3.29518701171875,0.12119445949792862,0.16203553974628448,0.029181145131587982
1789139609531159000,3.305158935546875,0.07326928526163101,0.15287426114082336,0.035641707479953766
1789139609541132000,3.315132080078125,0.06774535030126572,0.1437004655599594,0.016434989869594574
1789139609551105000,3.32510498046875,0.07699371129274368,0.12899290025234222,0.0020169017370790243
1789139609561078000,3.335078125,0.1091776043176651,0.12597467005252838,-0.0016424255445599556
1789139609571051000,3.345051025390625,0.07311280816793442,0.13245068490505219,0.028893113136291504
1789139609581024300,3.355024169921875,0.02458946406841278,0.11954526603221893,0.026127012446522713
1789139609590997000,3.3649970703125,-0.006581769324839115,0.13316866755485535,0.01577024534344673
1789139609600970000,3.374969970703125,0.0017644655890762806,0.1354682743549347,0.046689216047525406
1789139609610943000,3.38494287109375,0.002706159371882677,0.14548787474632263,0.048902302980422974
1789139609620916200,3.394916259765625,0.007017464376986027,0.11519831418991089,0.09430704265832901
1789139609630889200,3.40488916015625,0.04462076723575592,0.132221519947052,0.05132016912102699
1789139609640862000,3.414862060546875,0.02786543406546116,0.13559018075466156,-0.0007426245138049126
1789139609650834200,3.424834228515625,0.060275573283433914,0.16045105457305908,0.03402973711490631
1789139609660807200,3.43480712890625,0.03427666425704956,0.18409137427806854,0.04219621792435646
1789139609670780200,3.4447802734375,0.07345256209373474,0.18603308498859406,-0.006368387956172228
1789139609680753000,3.4547529296875,0.08334939926862717,0.20838738977909088,0.025664113461971283
1789139609690726100,3.46472607421875,0.09980214387178421,0.2275027632713318,0.05054363235831261
1789139609700699100,3.47469921875,0.09168632328510284,0.23121090233325958,0.05817246064543724
1789139609710672100,3.484672119140625,0.11615544557571411,0.25900816917419434,0.04656294360756874
1789139609720645000,3.49464501953125,0.14313039183616638,0.27698203921318054,0.08389675617218018
1789139609730618000,3.5046181640625,0.16480186581611633,0.2813376486301422,0.07192984223365784
1789139609740591000,3.514591064453125,0.15568827092647552,0.2787063717842102,0.04598202556371689
1789139609750564000,3.524564208984375,0.18675830960273743,0.27695855498313904,0.0704873651266098
1789139609760537000,3.534537109375,0.18636010587215424,0.29524338245391846,0.045975878834724426
1789139609770509000,3.544509033203125,0.1524183750152588,0.2748883068561554,0.004868390038609505
1789139609780482000,3.55448193359375,0.10902893543243408,0.24357889592647552,0.0003930092789232731
1789139609790455000,3.564455078125,0.07954028248786926,0.23742379248142242,-0.011956335045397282
1789139609800428000,3.574427978515625,0.02437177300453186,0.22803282737731934,0.02113325521349907
1789139609810401300,3.5844013671875,0.006919546518474817,0.189019113779068,-0.016605334356427193
1789139609820374000,3.5943740234375,-0.001370697282254696,0.15850892663002014,0.004194650799036026
1789139609830347000,3.604346923828125,-0.024131935089826584,0.15629370510578156,0.031575676053762436
1789139609840320000,3.614320068359375,-0.1297122687101364,0.12264378368854523,0.033023472875356674
1789139609850293200,3.624293212890625,-0.16180042922496796,0.06707026809453964,0.05028395354747772
1789139609860266000,3.634265869140625,-0.18226324021816254,0.0787806510925293,0.02163444273173809
1789139609870239000,3.644239013671875,-0.2024739682674408,0.05141348019242287,0.028774376958608627
1789139609880212000,3.6542119140625,-0.26238614320755005,0.0203910730779171,0.03447774425148964
1789139609890184200,3.66418408203125,-0.2646631598472595,0.003302367404103279,0.011013961397111416
1789139609900157000,3.674156982421875,-0.26605796813964844,-0.004458605777472258,-0.0015780789544805884
1789139609910130000,3.6841298828125,-0.26276469230651855,-0.02488638274371624,0.026971805840730667
1789139609920103200,3.694103271484375,-0.2626517117023468,-0.045247454196214676,0.054502807557582855
1789139609930076200,3.704076171875,-0.26786139607429504,-0.036284320056438446,-0.0022124024108052254
1789139609940049200,3.714049072265625,-0.30611857771873474,-0.021755199879407883,0.0235328059643507
1789139609950022000,3.72402197265625,-0.3344508707523346,-0.020917367190122604,0.03700627014040947
1789139609959995100,3.7339951171875,-0.32898107171058655,-0.02651018649339676,0.002774920081719756
1789139609969968000,3.743968017578125,-0.3300181031227112,-0.006249922327697277,0.007629062980413437
1789139609979941000,3.753941162109375,-0.3129061460494995,-0.012477809563279152,-0.0025117022451013327
1789139609989914000,3.7639140625,-0.27888160943984985,-0.0014733613934367895,-0.008040158078074455
1789139609999887000,3.77388720703125,-0.25582247972488403,0.015513993799686432,0.009856674820184708
1789139610009860000,3.783860107421875,-0.2409130334854126,0.018004316836595535,-0.008970276452600956
1789139610019832000,3.79383203125,-0.2119867354631424,0.0022805235348641872,0.008445260114967823
1789139610029805000,3.80380517578125,-0.22214403748512268,0.028538759797811508,0.035986077040433884
1789139610039778000,3.813778076171875,-0.19894519448280334,0.022600889205932617,0.0042778244242072105
1789139610049751000,3.8237509765625,-0.1829127073287964,0.015968553721904755,0.017462868243455887
1789139610059724000,3.83372412109375,-0.1569995880126953,0.02296489104628563,0.04721240699291229
1789139610069697000,3.843697021484375,-0.14449071884155273,0.033160269260406494,0.024697773158550262
1789139610079670300,3.853670166015625,-0.13328054547309875,0.025753069669008255,0.034360114485025406
1789139610089643000,3.86364306640625,-0.13106559216976166,0.030511870980262756,-0.008539949543774128
1789139610099616000,3.873615966796875,-0.15477831661701202,0.03174051642417908,-0.013107497245073318
1789139610109589000,3.883589111328125,-0.17660771310329437,0.005533946678042412,0.03212975710630417
1789139610119562200,3.893562255859375,-0.1903689056634903,-0.013581839390099049,0.02389739267528057
1789139610129535200,3.90353515625,-0.19392502307891846,0.013808239251375198,-0.04176071286201477
1789139610139507000,3.9135068359375,-0.17916332185268402,-0.0041248793713748455,-0.000407742423703894
1789139610149480200,3.923480224609375,-0.15968257188796997,-0.04015931114554405,0.01155837345868349
1789139610159453200,3.933453125,-0.19131538271903992,-0.024834705516695976,-0.00003938801819458604
1789139610169426200,3.94342626953125,-0.19994188845157623,-0.031092869117856026,-0.04224543273448944
1789139610179399000,3.95339892578125,-0.24078670144081116,-0.063971146941185,-0.03543101251125336
1789139610189372200,3.9633720703125,-0.29177266359329224,-0.05789008364081383,0.019033294171094894
1789139610199345200,3.97334521484375,-0.27673542499542236,-0.10284022241830826,0.07693322002887726
1789139610209318100,3.983318115234375,-0.25745201110839844,-0.13650336861610413,0.02127661742269993
1789139610219291000,3.993290771484375,-0.24191880226135254,-0.14352509379386902,-0.009025771170854568
1789139610229264100,4.00326416015625,-0.3108760416507721,-0.1564086675643921,0.06644528359174728
1789139610239237000,4.013237060546875,-0.32757338881492615,-0.16798391938209534,-0.03013734519481659
1789139610249210000,4.023210205078125,-0.3633526861667633,-0.15419089794158936,-0.09044782817363739
1789139610259183000,4.03318310546875,-0.3696672320365906,-0.18157614767551422,-0.008854861371219158
1789139610269156000,4.043156005859375,-0.35948675870895386,-0.1909821629524231,-0.036610860377550125
1789139610279128000,4.053128173828125,-0.34910470247268677,-0.18955685198307037,-0.08989138901233673
1789139610289101000,4.06310107421875,-0.35271862149238586,-0.19982919096946716,0.006422895006835461
1789139610299074000,4.073073974609375,-0.3455100655555725,-0.22779753804206848,0.0179026797413826
1789139610309047000,4.083047119140625,-0.31255289912223816,-0.2167970836162567,-0.04984840378165245
1789139610319020000,4.09302001953125,-0.33222898840904236,-0.22960570454597473,-0.016667017713189125
1789139610328993000,4.102992919921875,-0.34432560205459595,-0.21944361925125122,0.039303310215473175
1789139610338966000,4.112966064453125,-0.3124094307422638,-0.18628494441509247,0.0002446065773256123
1789139610348939300,4.122939208984375,-0.2926245331764221,-0.1973636895418167,0.023331817239522934
1789139610358912000,4.132912109375,-0.2958661913871765,-0.20582953095436096,0.046770013868808746
1789139610368885000,4.142885009765625,-0.2888287901878357,-0.18297427892684937,0.0290386863052845
1789139610378858000,4.15285791015625,-0.28689873218536377,-0.19573692977428436,0.013720409013330936
1789139610388831200,4.162831298828125,-0.2609257400035858,-0.1840784102678299,0.016202475875616074
1789139610398804200,4.17280419921875,-0.2017846554517746,-0.18592660129070282,0.007905500009655952
1789139610408776000,4.18277587890625,-0.20301903784275055,-0.17629048228263855,-0.029569970443844795
1789139610418749200,4.192749267578125,-0.1924924999475479,-0.18102271854877472,-0.05735327675938606
1789139610428722200,4.20272216796875,-0.18189285695552826,-0.16726616024971008,-0.008860044181346893
1789139610438695200,4.212695068359375,-0.14764806628227234,-0.13812680542469025,-0.02620074339210987
1789139610448668000,4.22266796875,-0.15353631973266602,-0.09769043326377869,-0.020078402012586594
1789139610458641200,4.23264111328125,-0.08855012059211731,-0.14996130764484406,0.007308991625905037
1789139610468614100,4.2426142578125,-0.07505694776773453,-0.13528889417648315,0.024277854710817337
1789139610478587100,4.252587158203125,-0.07159462571144104,-0.1268407702445984,0.026075098663568497
1789139610488560000,4.26256005859375,-0.08513706922531128,-0.13340972363948822,0.025652987882494926
1789139610498533000,4.272533203125,-0.054373301565647125,-0.16065876185894012,0.026749595999717712
1789139610508506000,4.282506103515625,-0.05734138935804367,-0.14701353013515472,0.03286954388022423
1789139610518479000,4.29247900390625,-0.07112932205200195,-0.1515713930130005,0.008369832299649715
1789139610528452000,4.3024521484375,-0.05588246136903763,-0.14883366227149963,-0.008107678033411503
1789139610538424000,4.312424072265625,-0.04188062995672226,-0.14577797055244446,-0.012142634019255638
1789139610548397000,4.32239697265625,-0.0415906086564064,-0.14226871728897095,0.018567608669400215
1789139610558370000,4.3323701171875,-0.022535325959324837,-0.1481737494468689,0.04399342089891434
1789139610568343000,4.342343017578125,0.03431916981935501,-0.14447008073329926,0.023687884211540222
1789139610578316000,4.35231591796875,0.03978888690471649,-0.14159905910491943,0.0025734207592904568
1789139610588289000,4.3622890625,0.049065738916397095,-0.12959618866443634,-0.005192623008042574
1789139610598262000,4.372261962890625,0.06774301826953888,-0.11730916053056717,-0.010116541758179665
1789139610608235000,4.382235107421875,0.09268059581518173,-0.09758365899324417,-0.016986966133117676
1789139610618208300,4.392208251953125,0.12731917202472687,-0.0770554170012474,-0.042761147022247314
1789139610628181000,4.402180908203125,0.17301742732524872,-0.07068407535552979,-0.06143017113208771
1789139610638154000,4.412154052734375,0.1760079711675644,-0.03035689890384674,-0.04200832545757294
1789139610648127000,4.422126953125,0.18615621328353882,-0.0024999689776450396,-0.014061379246413708
1789139610658100200,4.432100341796875,0.202814981341362,-0.007951022125780582,-0.01943979598581791
1789139610668072000,4.442072021484375,0.2321113497018814,0.02399439364671707,-0.0400950089097023
1789139610678045000,4.452044921875,0.26626676321029663,0.03448580205440521,-0.004379479214549065
1789139610688018200,4.46201806640625,0.29713281989097595,0.05299530178308487,0.02633688785135746
1789139610697991200,4.4719912109375,0.3112773895263672,0.0838276743888855,0.0230009313672781
1789139610707964200,4.481964111328125,0.321746826171875,0.11114452034235,0.011599672958254814
1789139610717937000,4.49193701171875,0.3297903537750244,0.13085989654064178,-0.007253643590956926
1789139610727910100,4.50191015625,0.3586491644382477,0.14869269728660583,0.01470704935491085
1789139610737883100,4.511883056640625,0.36776766180992126,0.17583610117435455,0.01269900519400835
1789139610747856100,4.521856201171875,0.3958996832370758,0.17529122531414032,-0.010219359770417213
1789139610757829000,4.5318291015625,0.42335081100463867,0.18309205770492554,-0.002712690271437168
1789139610767802000,4.541802001953125,0.4061718285083771,0.2009349763393402,-0.004039743449538946
1789139610777775000,4.551775146484375,0.36121800541877747,0.20888464152812958,0.002505016978830099
1789139610787748000,4.561748046875,0.35238322615623474,0.23184455931186676,-0.048539526760578156
1789139610797720300,4.57172021484375,0.31940749287605286,0.25174224376678467,-0.0059121279045939445
1789139610807693000,4.581693115234375,0.3005605638027191,0.22675111889839172,0.04492708295583725
1789139610817666000,4.591666015625,0.3049021363258362,0.2212522029876709,0.01099236961454153
1789139610827639000,4.60163916015625,0.3048930764198303,0.22280696034431458,-0.04218882694840431
1789139610837612000,4.611612060546875,0.27194640040397644,0.18701685965061188,-0.00000470760278403759
1789139610847585300,4.621585205078125,0.2063266485929489,0.1760808527469635,0.01585415005683899
1789139610857558000,4.63155810546875,0.14493389427661896,0.1867673546075821,-0.00938599742949009
1789139610867531000,4.641531005859375,0.13141250610351562,0.18788881599903107,-0.05674632266163826
1789139610877504000,4.65150390625,0.10397905111312866,0.17258460819721222,-0.00573066296055913
1789139610887477200,4.661477294921875,0.1199851781129837,0.14499372243881226,-0.03175773844122887
1789139610897450000,4.671449951171875,0.0999985933303833,0.11496057361364365,-0.05084967613220215
1789139610907423000,4.681423095703125,0.05782531201839447,0.08598112314939499,-0.038735754787921906
1789139610917396000,4.69139599609375,-0.003430602140724659,0.05461888387799263,0.013147175312042236
1789139610927369200,4.701369140625,-0.03409184142947197,0.0429968498647213,0.03866265341639519
1789139610937341000,4.7113408203125,-0.08184242248535156,0.006728067062795162,0.04677562788128853
1789139610947314000,4.72131396484375,-0.09252462536096573,-0.016436640173196793,0.031097861006855965
1789139610957287200,4.731287109375,-0.1016501784324646,-0.02084559015929699,0.02373037301003933
1789139610967260200,4.74126025390625,-0.14778918027877808,-0.03976308926939964,0.03912850469350815
1789139610977233200,4.751233154296875,-0.16885459423065186,-0.046653155237436295,0.026922862976789474
1789139610987206000,4.761205810546875,-0.17779695987701416,-0.03691823408007622,0.02544347755610943
1789139610997179100,4.77117919921875,-0.21903176605701447,-0.02971140295267105,0.02353569306433201
1789139611007152000,4.781152099609375,-0.2440156787633896,-0.05637416988611221,0.06145591288805008
1789139611017125000,4.791125,-0.25522083044052124,-0.05459769442677498,0.08278877288103104
1789139611027098000,4.80109814453125,-0.2617325186729431,-0.07596530020236969,0.04015795513987541
1789139611037071000,4.811071044921875,-0.26155614852905273,-0.08275149017572403,0.05569930374622345
1789139611047044000,4.821044189453125,-0.27413105964660645,-0.09850648790597916,0.10873455554246902
1789139611057017000,4.83101708984375,-0.28614118695259094,-0.1114438846707344,0.07403240352869034
1789139611066990000,4.840989990234375,-0.29691341519355774,-0.1014021635055542,0.023277346044778824
1789139611076963000,4.850963134765625,-0.29257601499557495,-0.08303870260715485,0.009121416136622429
1789139611086935000,4.86093505859375,-0.3234716057777405,-0.08697246015071869,-0.010327649302780628
1789139611096908000,4.870907958984375,-0.3268018960952759,-0.1044122725725174,0.009216143749654293
1789139611106881000,4.880881103515625,-0.30482202768325806,-0.08547559380531311,-0.03489752113819122
1789139611116854300,4.890854248046875,-0.26157912611961365,-0.09413431584835052,-0.038215454667806625
1789139611126827000,4.900826904296875,-0.25741156935691833,-0.09746113419532776,-0.028362292796373367
1789139611136800000,4.910800048828125,-0.2549234926700592,-0.10863281786441803,-0.007870950736105442
1789139611146773000,4.92077294921875,-0.2760940194129944,-0.11960477381944656,0.0842461884021759
1789139611156746200,4.930746337890625,-0.2726486325263977,-0.12128456681966782,0.09371431171894073
1789139611166719500,4.940719482421875,-0.2371140718460083,-0.12618398666381836,0.03255108371376991
1789139611176692500,4.9506923828125,-0.22327294945716858,-0.13698022067546844,0.033744651824235916
1789139611186665500,4.96066552734375,-0.2156030386686325,-0.13452531397342682,0.043493419885635376
1789139611196638500,4.970638427734375,-0.16524739563465118,-0.1576339602470398,0.011087319813668728
1789139611206611500,4.980611572265625,-0.16653716564178467,-0.13168253004550934,-0.022252792492508888
1789139611216584400,4.99058447265625,-0.17235781252384186,-0.14529018104076385,-0.02211562916636467
1789139611226556400,5.000556396484375,-0.1646873652935028,-0.14138492941856384,-0.05314385145902634
1789139611236529400,5.010529296875,-0.14287780225276947,-0.1578066498041153,-0.04225911945104599
1789139611246502400,5.02050244140625,-0.16395805776119232,-0.1321774572134018,-0.03491704910993576
1789139611256475400,5.030475341796875,-0.1813591569662094,-0.14646324515342712,-0.02685297280550003
1789139611266448400,5.040448486328125,-0.15566684305667877,-0.17761850357055664,-0.005093350075185299
1789139611276421600,5.050421630859375,-0.12547415494918823,-0.15953998267650604,-0.0066543929278850555
1789139611286394400,5.060394287109375,-0.10790181905031204,-0.16224922239780426,-0.01949349232017994
1789139611296367400,5.070367431640625,-0.08294475078582764,-0.20258879661560059,0.02369529940187931
1789139611306340400,5.08034033203125,-0.07263246178627014,-0.1837775707244873,0.0036518159322440624
1789139611316313600,5.090313720703125,-0.06087277829647064,-0.18698157370090485,-0.04783879220485687
1789139611326286600,5.10028662109375,-0.07157282531261444,-0.19676043093204498,0.007266270462423563
1789139611336259300,5.11025927734375,-0.07407316565513611,-0.17744384706020355,0.0057424153201282024
1789139611346232300,5.120232421875,-0.07183051854372025,-0.15981531143188477,-0.027457617223262787
1789139611356205600,5.13020556640625,-0.018834523856639862,-0.16075828671455383,-0.05750976875424385
1789139611366177500,5.140177490234375,-0.010246627032756805,-0.17163996398448944,-0.01378838811069727
1789139611376150300,5.150150390625,0.01676534116268158,-0.1439715027809143,-0.03370623290538788
1789139611386123500,5.16012353515625,0.03390144929289818,-0.14383408427238464,-0.00421918136999011
1789139611396096500,5.170096435546875,0.08890023082494736,-0.12048306316137314,-0.002269434742629528
1789139611406069500,5.180069580078125,0.11818195134401321,-0.08020168542861938,-0.040858373045921326
1789139611416042500,5.19004248046875,0.1597001701593399,-0.06917303800582886,-0.04495804384350777
1789139611426015500,5.200015380859375,0.18418900668621063,-0.05286889523267746,0.08519969135522842
1789139611435988500,5.209988525390625,0.21371130645275116,-0.013827872462570667,0.0665128231048584
1789139611445961500,5.21996142578125,0.21948504447937012,0.0033303415402770042,0.006032170262187719
1789139611455934500,5.2299345703125,0.2544907033443451,0.015675904229283333,0.02583320066332817
1789139611465907500,5.239907470703125,0.27547985315322876,0.04194425791501999,0.013267874717712402
1789139611475880400,5.24988037109375,0.2728002071380615,0.046037860214710236,-0.005008627660572529
1789139611485853400,5.259853515625,0.3008669912815094,0.05744843930006027,-0.06416649371385574
1789139611495826400,5.269826416015625,0.3109440505504608,0.06086711958050728,-0.04824754223227501
1789139611505799400,5.27979931640625,0.3095059394836426,0.06605122983455658,-0.00544894440099597
1789139611515771400,5.289771484375,0.3114927411079407,0.06659245491027832,-0.009061053395271301
1789139611525744400,5.299744384765625,0.2758577764034271,0.09713731706142426,-0.04142538085579872
1789139611535717400,5.30971728515625,0.26635387539863586,0.07602616399526596,-0.031712085008621216
1789139611545690600,5.319690673828125,0.27291882038116455,0.06155054643750191,-0.009659248404204845
1789139611555663400,5.329663330078125,0.264679878950119,0.0803469717502594,-0.030433470383286476
1789139611565636400,5.33963623046875,0.2513073682785034,0.07825132459402084,-0.03938142582774162
1789139611575609300,5.349609375,0.2649393379688263,0.04410823807120323,-0.05013035610318184
1789139611585582600,5.35958251953125,0.2236931025981903,0.056763045489788055,-0.00860767811536789
1789139611595555600,5.3695556640625,0.17424924671649933,0.053449954837560654,0.02477651834487915
1789139611605528300,5.3795283203125,0.16782942414283752,0.03176277130842209,-0.03461943194270134
1789139611615501300,5.389501220703125,0.17229270935058594,0.024883868172764778,-0.004163332283496857
1789139611625474600,5.399474609375,0.15819872915744781,0.016544446349143982,0.04858483374118805
1789139611635447600,5.409447509765625,0.15839117765426636,0.0339394249022007,0.024709777906537056
1789139611645420500,5.419420654296875,0.11692575365304947,0.032363634556531906,-0.022185826674103737
1789139611655393300,5.429393310546875,0.08624938130378723,0.035044923424720764,0.032977256923913956
1789139611665365500,5.439365478515625,0.1097341999411583,0.04337688907980919,0.0038033912423998117
1789139611675338500,5.44933837890625,0.11020414531230927,0.06614426523447037,-0.04194767028093338
1789139611685311500,5.4593115234375,0.15773437917232513,0.055184029042720795,-0.043288037180900574
1789139611695284500,5.469284423828125,0.14930249750614166,0.06390894949436188,-0.013538706116378307
1789139611705257500,5.479257568359375,0.13663063943386078,0.08077874034643173,-0.03192596882581711
1789139611715230500,5.48923046875,0.13138724863529205,0.08126417547464371,-0.020587049424648285
1789139611725203500,5.499203369140625,0.12512695789337158,0.09295864403247833,-0.009201769717037678
1789139611735176400,5.509176513671875,0.06496716290712357,0.10488937050104141,-0.0026158946566283703
1789139611745149400,5.5191494140625,0.07859988510608673,0.09667432308197021,-0.03175061196088791
1789139611755122400,5.529122314453125,0.08945514261722565,0.0972668007016182,0.012967654503881931
1789139611765095400,5.539095458984375,0.0666707307100296,0.06546386331319809,0.07113801687955856
1789139611775068400,5.549068359375,0.04719024524092674,0.07823355495929718,0.005228323861956596
1789139611785041700,5.559041748046875,0.03827744349837303,0.06718703359365463,0.023921584710478783
1789139611795014400,5.569014404296875,0.01685972325503826,0.06880035996437073,0.005363650154322386
1789139611804987400,5.5789873046875,-0.020128656178712845,0.06512626260519028,0.026233777403831482
1789139611814959600,5.588959716796875,0.03780856728553772,0.04812326282262802,-0.04876968264579773
1789139611824932600,5.5989326171875,0.021531328558921814,0.03042016550898552,-0.037970833480358124
1789139611834905300,5.6089052734375,0.017965570092201233,-0.008020934648811817,0.002537321764975786
1789139611844878300,5.61887841796875,-0.044784367084503174,-0.011943770572543144,-0.017349034547805786
1789139611854851600,5.6288515625,-0.07015274465084076,-0.04619171470403671,-0.0344892181456089
1789139611864824600,5.638824462890625,-0.13477487862110138,-0.051106046885252,0.03408132120966911
1789139611874797300,5.64879736328125,-0.1608992964029312,-0.07847680151462555,0.04129796475172043
1789139611884770300,5.658770263671875,-0.16652308404445648,-0.062020592391490936,-0.08442588150501251
1789139611894743600,5.66874365234375,-0.1881650686264038,-0.07298766821622849,-0.04694336652755737
1789139611904716500,5.678716552734375,-0.18650299310684204,-0.09635797888040543,0.0738043561577797
1789139611914689500,5.688689453125,-0.17633573710918427,-0.10767930001020432,0.018657274544239044
1789139611924662300,5.698662353515625,-0.1652766913175583,-0.0820290595293045,-0.10854461789131165
1789139611934635500,5.708635498046875,-0.1539267748594284,-0.12181810289621353,-0.0047018262557685375
1789139611944608500,5.7186083984375,-0.13734273612499237,-0.12032993137836456,0.08014435321092606
1789139611954581500,5.72858154296875,-0.1388104110956192,-0.10314801335334778,0.02674318291246891
1789139611964553500,5.738553466796875,-0.10790682584047318,-0.10165690630674362,-0.0005962970899417996
1789139611974526500,5.7485263671875,-0.10277874767780304,-0.07188872247934341,0.027985913679003716
1789139611984499500,5.75849951171875,-0.11911138147115707,-0.05606076121330261,0.05707003176212311
1789139611994472400,5.768472412109375,-0.08284270018339157,-0.03812265768647194,0.011428369209170341
1789139612004445400,5.778445556640625,-0.06477981060743332,-0.015347568318247795,-0.036756206303834915
1789139612014418400,5.78841845703125,-0.0475458987057209,0.0035033728927373886,0.031424012035131454
1789139612024391400,5.798391357421875,-0.01593497395515442,0.005706339608877897,0.07398718595504761
1789139612034364400,5.808364501953125,0.08863147348165512,0.040947191417217255,-0.05608673766255379
1789139612044337400,5.81833740234375,0.08294376730918884,0.07099564373493195,0.006036288104951382
1789139612054310700,5.828310546875,0.09727226942777634,0.07101109623908997,0.04315347969532013
1789139612064283400,5.838283447265625,0.08718155324459076,0.10371418297290802,0.014265637844800949
1789139612074256400,5.84825634765625,0.08561977744102478,0.09560205042362213,0.029636066406965256
1789139612084229400,5.8582294921875,0.10884679853916168,0.10252094268798828,0.026314305141568184
1789139612094202600,5.86820263671875,0.11725721508264542,0.12665317952632904,0.03176184743642807
1789139612104175600,5.878175537109375,0.12652207911014557,0.11957583576440811,0.07266214489936829
1789139612114148400,5.8881484375,0.117423877120018,0.0988139659166336,0.07558039575815201
1789139612124120600,5.89812060546875,0.11997438222169876,0.1183738261461258,0.03303053602576256
1789139612134093600,5.908093505859375,0.0874515026807785,0.10111302882432938,0.03823975473642349
1789139612144066600,5.918066650390625,0.09330326318740845,0.06645038723945618,0.059558626264333725
1789139612154039300,5.928039306640625,0.10606379806995392,0.08329344540834427,-0.0021551516838371754
1789139612164012300,5.93801220703125,0.07861299812793732,0.06920479238033295,0.0265934057533741
1789139612173985000,5.947985107421875,0.06351205706596375,0.060678523033857346,-0.011580666527152061
1789139612183958000,5.9579580078125,0.08443625271320343,0.053759362548589706,-0.05147881060838699
1789139612193931000,5.967930908203125,0.08034584671258926,0.06338007003068924,0.05342484265565872
1789139612203904300,5.977904296875,0.07635243982076645,0.05843217670917511,0.035154491662979126
1789139612213877200,5.987877197265625,0.04553631693124771,0.06424254179000854,-0.0312116090208292
1789139612223850000,5.99785009765625,0.04071226716041565,0.0609319694340229,0.059800855815410614
1789139612233823000,6.007822998046875,0.05915268883109093,0.049329813569784164,0.14262980222702026
1789139612243796200,6.017796142578125,0.03310111537575722,0.047163598239421844,0.0836077556014061
1789139612253769200,6.027769287109375,0.03363598510622978,0.02007678896188736,0.02917032316327095
1789139612263742000,6.037741943359375,0.06488578021526337,0.0020565097220242023,0.06744181364774704
1789139612273714200,6.047714111328125,0.06324058771133423,0.02464340627193451,0.06728298962116241
1789139612283687200,6.057687255859375,0.05249366536736488,0.0395139679312706,0.008635119535028934
1789139612293660200,6.06766015625,0.01573112979531288,0.0027270298451185226,0.005112902726978064
1789139612303633000,6.0776328125,0.015792381018400192,-0.04054107889533043,0.010282364673912525
1789139612313606100,6.087606201171875,-0.014522286131978035,-0.023346073925495148,0.027931855991482735
1789139612323579100,6.0975791015625,-0.04305539280176163,0.029192235320806503,-0.020704656839370728
1789139612333552000,6.10755224609375,-0.03755366429686546,0.017847925424575806,-0.02376748062670231
1789139612343525000,6.117525146484375,-0.02959294244647026,0.038973186165094376,-0.02829272486269474
1789139612353497900,6.127497802734375,-0.005468492396175861,0.07271791994571686,-0.010233047418296337
1789139612363471000,6.13747119140625,-0.025694934651255608,0.08109116554260254,0.03128749877214432
1789139612373444000,6.147444091796875,0.012295907363295555,0.10599371045827866,0.007299383636564016
1789139612383417000,6.1574169921875,0.06737540662288666,0.13218404352664948,0.029940247535705566
1789139612393390000,6.16739013671875,0.09126719832420349,0.12542548775672913,0.04335455223917961
1789139612403363000,6.177363037109375,0.08744104206562042,0.12379190325737,0.010384349152445793
1789139612413336000,6.187336181640625,0.10592802613973618,0.08798500150442123,0.003779212711378932
1789139612423309000,6.19730908203125,0.08652503043413162,0.168185293674469,-0.025739798322319984
1789139612433281300,6.20728125,0.04028494283556938,0.16443178057670593,0.003997570835053921
1789139612443254000,6.21725390625,0.07110410928726196,0.14078477025032043,-0.09849018603563309
1789139612453227000,6.22722705078125,0.04618939012289047,0.12123102694749832,-0.10913161188364029
1789139612463200000,6.237199951171875,0.030481800436973572,0.1416444033384323,-0.13620051741600037
1789139612473173200,6.24717333984375,0.005162100773304701,0.11873091757297516,-0.10846708714962006
1789139612483146200,6.257146240234375,0.0015157004818320274,0.10863460600376129,-0.04242841154336929
1789139612493119000,6.267118896484375,-0.0014783833175897598,0.07848995923995972,0.010355154052376747
1789139612503092000,6.277092041015625,-0.006220141425728798,0.034954994916915894,0.026835061609745026
1789139612513065200,6.287065185546875,-0.03911871090531349,0.016452737152576447,0.043524131178855896
1789139612523038200,6.2970380859375,-0.0652504414319992,0.0027443822473287582,0.04740302264690399
1789139612533011200,6.30701123046875,-0.10008574277162552,-0.013973280787467957,0.09560906141996384
1789139612542984000,6.31698388671875,-0.13411055505275726,-0.01320815458893776,0.04905540496110916
1789139612552957200,6.326957275390625,-0.13096605241298676,-0.03347839042544365,-0.024709491059184074
1789139612562930200,6.33693017578125,-0.12855269014835358,-0.04304978996515274,0.008524361066520214
1789139612572903200,6.346903076171875,-0.15764062106609344,-0.044127486646175385,-0.0036443027202039957
1789139612582875100,6.356875244140625,-0.2070036381483078,-0.03276883810758591,-0.021964721381664276
1789139612592848100,6.36684814453125,-0.1596756875514984,-0.021551987156271935,-0.05309347063302994
1789139612602821000,6.376821044921875,-0.12504900991916656,-0.021384209394454956,-0.053606126457452774
1789139612612794000,6.386794189453125,-0.10470793396234512,-0.025365324690937996,-0.04193343594670296
1789139612622766800,6.396766845703125,-0.08930554240942001,-0.015071941539645195,-0.06672027707099915
1789139612632740000,6.406739990234375,-0.11586465686559677,-0.007885432802140713,-0.003662356873974204
1789139612642713000,6.416713134765625,-0.08907032757997513,-0.0030001304112374783,0.0314711295068264
1789139612652686000,6.42668603515625,-0.04450622573494911,0.015433993190526962,0.00895898137241602
1789139612662659000,6.4366591796875,-0.008273650892078876,0.02204901911318302,0.04797402396798134
1789139612672632000,6.446632080078125,0.009055117145180702,0.005655974615365267,0.05347883701324463
1789139612682605000,6.45660498046875,0.00007280707359313965,0.011579908430576324,0.03253307566046715
1789139612692578000,6.466578125,-0.0022619999945163727,0.0319015309214592,-0.04803026467561722
1789139612702551000,6.476551025390625,0.01785152405500412,0.014203496277332306,-0.013710642233490944
1789139612712524300,6.486524169921875,-0.0038476353511214256,0.014398759230971336,0.0013284708838909864
1789139612722497000,6.4964970703125,-0.03662022948265076,-0.001686467556282878,-0.046626269817352295
1789139612732470000,6.506469970703125,-0.021572884172201157,-0.03984719142317772,-0.017108822241425514
1789139612742442200,6.516442138671875,-0.0025629736483097076,-0.03977608308196068,0.04475800693035126
1789139612752415200,6.526415283203125,-0.07328232377767563,-0.04296400398015976,0.02090514451265335
1789139612762388000,6.536387939453125,-0.1214706152677536,-0.05920795351266861,0.006053493358194828
1789139612772361000,6.54636083984375,-0.14376267790794373,-0.046723026782274246,0.011195935308933258
1789139612782334200,6.556334228515625,-0.1652437299489975,-0.07780930399894714,0.06246977671980858
1789139612792307200,6.56630712890625,-0.12556889653205872,-0.1063542440533638,0.052078526467084885
1789139612802280200,6.5762802734375,-0.10187235474586487,-0.08941680938005447,0.023298542946577072
1789139612812253000,6.5862529296875,-0.12285274267196655,-0.08557146787643433,0.04675673320889473
1789139612822226000,6.596225830078125,-0.1811983436346054,-0.08912225812673569,0.025357699021697044
1789139612832199200,6.60619921875,-0.18833860754966736,-0.07987052202224731,0.06900510936975479
1789139612842172200,6.616172119140625,-0.15468983352184296,-0.07319903373718262,0.026019025593996048
1789139612852145200,6.626145263671875,-0.13707947731018066,-0.07613375037908554,0.016393812373280525
1789139612862118000,6.636117919921875,-0.10186049342155457,-0.051741328090429306,-0.018318360671401024
1789139612872091100,6.646091064453125,-0.08147212862968445,-0.07721323519945145,0.040505461394786835
1789139612882064100,6.656064208984375,-0.032244134694337845,-0.07039820402860641,0.01104210875928402
1789139612892037000,6.666037109375,-0.0398113988339901,-0.0371503010392189,-0.020154712721705437
1789139612902009000,6.676009033203125,-0.033887993544340134,-0.04051494225859642,-0.037902288138866425
1789139612911982000,6.685982177734375,-0.08444442600011826,-0.02399659901857376,0.030588211491703987
1789139612921955000,6.695955078125,-0.07823899388313293,-0.04329439625144005,0.05882277712225914
1789139612931928000,6.705927978515625,-0.029025914147496223,-0.04830199480056763,-0.03136008605360985
1789139612941901300,6.7159013671875,-0.012782763689756393,-0.05723343789577484,-0.0022346917539834976
1789139612951874000,6.7258740234375,0.022692617028951645,-0.0981036052107811,0.08026112616062164
1789139612961847000,6.735846923828125,-0.00615873746573925,-0.10184561461210251,0.05346999317407608
1789139612971820000,6.745820068359375,-0.043762966990470886,-0.12160681188106537,0.002304626861587167
1789139612981793300,6.755793212890625,-0.10432697832584381,-0.11514198780059814,0.0022449721582233906
1789139612991766000,6.76576611328125,-0.11186996847391129,-0.12813927233219147,-0.013549651950597763
1789139613001739000,6.775739013671875,-0.13931091129779816,-0.12607212364673615,-0.06078028306365013
1789139613011712000,6.7857119140625,-0.14266282320022583,-0.12141049653291702,-0.10281999409198761
1789139613021685200,6.795685302734375,-0.14746743440628052,-0.12288641929626465,-0.07335398346185684
1789139613031658200,6.805658203125,-0.138919860124588,-0.13628652691841125,-0.021135127171874046
1789139613041631000,6.815630859375,-0.13999071717262268,-0.13520820438861847,0.0000537805026397109
1789139613051604000,6.82560400390625,-0.11540409177541733,-0.11063142120838165,-0.062077831476926804
1789139613061577000,6.835576904296875,-0.07393228262662888,-0.10740553587675095,-0.014838413335382938
1789139613071549200,6.845549072265625,-0.04784497246146202,-0.07428181171417236,0.02452687732875347
1789139613081522000,6.85552197265625,-0.05120721459388733,-0.06742417067289352,-0.021174831315875053
1789139613091495000,6.865494873046875,0.01042264699935913,-0.06528674811124802,-0.10095395892858505
1789139613101468200,6.87546826171875,0.012081796303391457,-0.049282483756542206,-0.019932342693209648
1789139613111441200,6.885441162109375,0.04976217448711395,-0.030281690880656242,-0.06815475225448608
1789139613121414100,6.8954140625,0.038819774985313416,-0.02617349848151207,-0.048132844269275665
1789139613131387000,6.905386962890625,0.06489638239145279,-0.012442773208022118,-0.04961436241865158
1789139613141360000,6.915360107421875,0.0676325187087059,-0.004261808004230261,-0.05032409355044365
1789139613151333000,6.9253330078125,0.06808626651763916,0.02208082750439644,-0.061885103583335876
1789139613161306000,6.93530615234375,0.08017009496688843,0.01341969519853592,-0.040753185749053955
1789139613171278800,6.94527880859375,0.11128417402505875,0.009776640683412552,-0.0433976985514164
1789139613181252000,6.955252197265625,0.11492418497800827,-0.0040030875243246555,-0.006768849212676287
1789139613191225000,6.96522509765625,0.1319034993648529,-0.0012582531198859215,-0.012482644990086555
1789139613201197800,6.97519775390625,0.1400008350610733,0.00020302319899201393,-0.022515572607517242
1789139613211170800,6.9851708984375,0.15045267343521118,-0.015942763537168503,0.015565687790513039
1789139613221144000,6.99514404296875,0.1135425865650177,-0.009075269103050232,0.0004162956611253321
1789139613231116000,7.005115966796875,0.09725309908390045,-0.003016844391822815,-0.05746112018823624
1789139613241088800,7.0150888671875,0.06149004027247429,-0.024976737797260284,-0.025444863364100456
1789139613251062000,7.02506201171875,0.03910146653652191,-0.012135572731494904,-0.02249849960207939
1789139613261035000,7.035034912109375,0.05208704248070717,-0.023208994418382645,-0.06899143010377884
1789139613271008000,7.045008056640625,0.07532559335231781,-0.0242622010409832,-0.0548156201839447
1789139613280981000,7.05498095703125,0.07973578572273254,-0.019461320713162422,-0.008188996464014053
1789139613290954000,7.0649541015625,0.07813826948404312,-0.021616149693727493,0.01735495775938034
1789139613300927000,7.074927001953125,0.0785079151391983,-0.009648701176047325,-0.00942951813340187
1789139613310900000,7.08489990234375,0.07773648947477341,-0.0028496086597442627,-0.015032350085675716
1789139613320873000,7.094873046875,0.09750194102525711,-0.020682401955127716,0.003956786822527647
1789139613330846000,7.104845947265625,0.08546388149261475,0.00905107893049717,-0.0032035373151302338
1789139613340819000,7.11481884765625,0.07027054578065872,0.0026837261393666267,-0.01972205936908722
1789139613350792000,7.1247919921875,0.07817379385232925,-0.007566440384835005,0.0034391209483146667
1789139613360765000,7.134764892578125,0.056954525411129,0.03053940087556839,0.0004047150141559541
1789139613370738000,7.144738037109375,0.049001097679138184,0.04874902218580246,-0.005196892190724611
1789139613380711200,7.154711181640625,0.10333197563886642,0.029952429234981537,0.011098192073404789
1789139613390683000,7.164682861328125,0.12153047323226929,0.06623445451259613,0.02829170785844326
1789139613400656000,7.17465576171875,0.11498468369245529,0.07727378606796265,0.011711133643984795
1789139613410629000,7.184629150390625,0.05351855233311653,0.0839914083480835,-0.010961133986711502
1789139613420601900,7.194601806640625,0.0748952105641365,0.07006627321243286,0.04069433733820915
1789139613430574800,7.204574951171875,0.053670838475227356,0.08059026300907135,0.04263129085302353
1789139613440547800,7.2145478515625,0.06950972229242325,0.07077145576477051,0.03012002818286419
1789139613450521000,7.22452099609375,0.061822567135095596,0.08026766777038574,0.0196242593228817
1789139613460494000,7.234494140625,0.09834595769643784,0.06702776253223419,0.03631775081157684
1789139613470466800,7.244466796875,0.044113244861364365,0.09996191412210464,-0.0011296544689685106
1789139613480439800,7.254439697265625,0.06704279780387878,0.0828617587685585,-0.11764535307884216
1789139613490413000,7.2644130859375,0.04846232384443283,0.09940697252750397,-0.1248525083065033
1789139613500386000,7.274385986328125,0.012683821842074394,0.07453518360853195,0.08179627358913422
1789139613510359000,7.284359130859375,0.016011448577046394,0.08788981288671494,0.04889414831995964
1789139613520331800,7.294331787109375,0.04596908017992973,0.12878425419330597,-0.1586364060640335
1789139613530305000,7.304304931640625,0.03305020183324814,0.09329511970281601,0.0715029239654541
1789139613540278000,7.314278076171875,0.05449344217777252,0.07826477289199829,0.20368920266628265
1789139613550251000,7.3242509765625,0.04325387626886368,0.12051908671855927,0.03483845293521881
1789139613560224000,7.33422412109375,0.05945468321442604,0.09577565640211105,0.003129794728010893
1789139613570196000,7.344196044921875,0.03287895768880844,0.0958910584449768,0.07164186239242554
1789139613580169000,7.3541689453125,0.016477879136800766,0.09197541326284409,0.05420135334134102
1789139613590142000,7.364141845703125,-0.0045106541365385056,0.0754479318857193,-0.010595321655273438
1789139613600115000,7.374114990234375,-0.0038587115705013275,0.06622886657714844,-0.026959646493196487
1789139613610088000,7.384087890625,0.0023519406095147133,0.05135528743267059,-0.03328641876578331
1789139613620061000,7.39406103515625,-0.03144410625100136,0.03453902155160904,-0.03797651082277298
1789139613630034000,7.404033935546875,-0.055027347058057785,0.02076796442270279,-0.058436907827854156
1789139613640007000,7.4140068359375,-0.07171764969825745,0.000409694854170084,-0.08691861480474472
1789139613649980200,7.423980224609375,-0.1321752667427063,-0.007426058873534203,-0.054800741374492645
1789139613659953000,7.433952880859375,-0.1567290723323822,-0.020018018782138824,-0.03780258074402809
1789139613669926000,7.44392578125,-0.15032607316970825,-0.042971398681402206,-0.045751627534627914
1789139613679899000,7.45389892578125,-0.15573948621749878,-0.047836992889642715,-0.04937485605478287
1789139613689872100,7.4638720703125,-0.15667489171028137,-0.06865544617176056,-0.011669374071061611
1789139613699845000,7.47384521484375,-0.15955083072185516,-0.07965803146362305,0.03365762531757355
1789139613709817900,7.48381787109375,-0.16897615790367126,-0.061265163123607635,-0.005685206037014723
1789139613719790800,7.493790771484375,-0.15394073724746704,-0.04894378036260605,-0.02216937392950058
1789139613729764000,7.50376416015625,-0.120477095246315,-0.026191405951976776,-0.02889818325638771
1789139613739737000,7.513737060546875,-0.11045482009649277,-0.023251809179782867,-0.0558384545147419
1789139613749708800,7.523708740234375,-0.10855690389871597,-0.028156593441963196,-0.09426047652959824
1789139613759682000,7.53368212890625,-0.10437174141407013,-0.015061299316585064,-0.10914674401283264
1789139613769655000,7.543655029296875,-0.08962288498878479,-0.015094215050339699,-0.07415299117565155
1789139613779628000,7.5536279296875,-0.05952516943216324,-0.00013524014502763748,-0.07004798948764801
1789139613789600800,7.563600830078125,-0.051475342363119125,0.006395693868398666,-0.0403185710310936
1789139613799574000,7.573573974609375,-0.03918671980500221,0.016074420884251595,0.003165519330650568
1789139613809547000,7.583547119140625,-0.052149221301078796,0.018201496452093124,-0.027151193469762802
1789139613819520000,7.59352001953125,-0.03380456939339638,-0.0002374313771724701,-0.02742656320333481
1789139613829493000,7.603492919921875,-0.0646796002984047,-0.0228571817278862,-0.003772697877138853
1789139613839466000,7.613466064453125,-0.07554316520690918,-0.033718086779117584,0.004056995268911123
1789139613849439000,7.62343896484375,-0.06688401103019714,-0.004729725420475006,-0.08540245145559311
1789139613859412000,7.633411865234375,-0.11460360139608383,-0.001674014376476407,-0.053850650787353516
1789139613869385000,7.643385009765625,-0.1330651193857193,-0.04796212911605835,-0.016700657084584236
1789139613879358000,7.65335791015625,-0.13598021864891052,-0.037498839199543,-0.053814470767974854
1789139613889331000,7.6633310546875,-0.1361667811870575,-0.057698868215084076,-0.02752022072672844
1789139613899304000,7.673303955078125,-0.10762915760278702,-0.10505147278308868,-0.006741972640156746
1789139613909277000,7.68327685546875,-0.10817472636699677,-0.0954585075378418,-0.019187239930033684
1789139613919249200,7.693249267578125,-0.13484469056129456,-0.07244373857975006,-0.033934496343135834
1789139613929222000,7.703221923828125,-0.1443684846162796,-0.06777438521385193,-0.022948676720261574
1789139613939195000,7.71319482421875,-0.12142162024974823,-0.07088735699653625,-0.00849010981619358
1789139613949167900,7.72316796875,-0.12788957357406616,-0.06709573417901993,-0.017026402056217194
1789139613959141000,7.73314111328125,-0.08685320615768433,-0.08846653997898102,0.016476696357131004
1789139613969114000,7.743114013671875,-0.059648580849170685,-0.07746591418981552,0.053684886544942856
1789139613979086800,7.7530869140625,-0.07116568833589554,-0.07291324436664581,0.03527871519327164
1789139613989059800,7.763059814453125,-0.07678627967834473,-0.10136890411376953,0.100772924721241
1789139613999033000,7.773033203125,-0.04124879837036133,-0.0903138592839241,0.09568575769662857
1789139614009006000,7.783006103515625,-0.01210581511259079,-0.0756838321685791,0.026293525472283363
1789139614018979000,7.79297900390625,0.020044663920998573,-0.09790551662445068,0.03605135157704353
1789139614028951800,7.802951904296875,-0.015690181404352188,-0.11549745500087738,0.04366927221417427
1789139614038925000,7.812925048828125,-0.02773432806134224,-0.13286633789539337,0.02585565112531185
1789139614048898000,7.82289794921875,-0.04959120601415634,-0.08928435295820236,-0.01547318883240223
1789139614058871000,7.83287109375,-0.01637386530637741,-0.09190730005502701,0.00102536054328084
1789139614068844000,7.842843994140625,-0.03284769877791405,-0.09458310902118683,0.009135974571108818
1789139614078816800,7.852816650390625,-0.019708458334207535,-0.0944608747959137,0.026667296886444092
1789139614088789000,7.8627890625,-0.016973819583654404,-0.08911847323179245,0.01702761836349964
1789139614098762000,7.872761962890625,-0.014467519707977772,-0.07028912752866745,0.008527607657015324
1789139614108734700,7.882734619140625,-0.041298333555459976,-0.052429698407649994,0.0569891482591629
1789139614118708000,7.8927080078125,-0.025637082755565643,-0.04287933558225632,0.08719366043806076
1789139614128681000,7.902680908203125,0.04445838928222656,-0.045287154614925385,0.06466986238956451
1789139614138654000,7.912654052734375,0.059286072850227356,-0.038662541657686234,0.08988067507743835
1789139614148627000,7.922626953125,0.10505057871341705,-0.025827564299106598,0.07186861336231232
1789139614158600000,7.932599853515625,0.10561756789684296,-0.012672348879277706,0.027573319151997566
1789139614168573000,7.942572998046875,0.08814748376607895,0.0043489267118275166,0.057847097516059875
1789139614178546000,7.9525458984375,0.0787433311343193,0.006228318903595209,0.04270249977707863
1789139614188519000,7.962518798828125,0.0760302022099495,0.029371552169322968,-0.019802257418632507
1789139614198492200,7.9724921875,0.05911007896065712,0.03608378395438194,-0.01127002201974392
1789139614208465200,7.982465087890625,0.09926454722881317,0.014951587654650211,-0.02788020856678486
1789139614218438000,7.99243798828125,0.08042933791875839,0.026477482169866562,-0.05969725921750069
1789139614228411000,8.002410888671875,0.0700363963842392,-0.0007020784541964531,-0.0022815940901637077
1789139614238384000,8.012384033203125,0.05309363454580307,-0.04168173670768738,0.025395572185516357
1789139614248357000,8.022357177734374,0.05153626576066017,-0.0244767889380455,0.01878032647073269
1789139614258330000,8.032330078125,0.06042323634028435,-0.04426167532801628,0.0100582055747509
1789139614268302800,8.042302734375,0.04960840195417404,-0.06661555916070938,0.05727623775601387
1789139614278275000,8.052275146484375,0.022110197693109512,-0.04102843999862671,0.0533512718975544
1789139614288248000,8.062248046875,0.0017661619931459427,-0.04500705748796463,0.021380692720413208
1789139614298221000,8.072220947265626,0.0006348509341478348,-0.055932674556970596,0.012507306411862373
1789139614308194000,8.082194091796875,-0.01856851950287819,-0.0338863730430603,0.03652701899409294
1789139614318167000,8.0921669921875,0.0021229088306427,-0.05988388508558273,0.031844913959503174
1789139614328140000,8.10214013671875,-0.00910118781030178,-0.0705009326338768,-0.0019681614357978106
1789139614338113000,8.112113037109374,0.003582383506000042,-0.058732155710458755,-0.01970241777598858
1789139614348086000,8.1220859375,-0.017756525427103043,-0.04249994456768036,-0.013551942072808743
1789139614358059000,8.13205908203125,-0.031248901039361954,-0.07454922050237656,0.0018895987886935472
1789139614368032000,8.142031982421875,-0.0022096801549196243,-0.07326526939868927,0.013188917189836502
1789139614378005000,8.1520048828125,0.0026708291843533516,-0.06872404366731644,-0.0026675439439713955
1789139614387978000,8.16197802734375,0.002131060231477022,-0.07121360301971436,0.0010634008795022964
1789139614397951000,8.171950927734375,0.007823833264410496,-0.09201955050230026,0.025406822562217712
1789139614407924000,8.181924072265625,-0.020417768508195877,-0.07113374769687653,-0.03798232972621918
1789139614417897000,8.19189697265625,-0.038402896374464035,-0.053680192679166794,-0.03745422512292862
1789139614427870000,8.201869873046874,-0.03359097242355347,-0.06161109730601311,0.02386660873889923
1789139614437843200,8.21184326171875,-0.010640919208526611,-0.06272776424884796,0.0022001962643116713
1789139614447816000,8.22181591796875,0.000960975419729948,-0.055596090853214264,-0.023592697456479073
1789139614457788000,8.231787841796875,0.02734730765223503,-0.0806865319609642,-0.02814910002052784
1789139614467761200,8.24176123046875,0.0027519473806023598,-0.06238885596394539,-0.013742011040449142
1789139614477734100,8.251734130859376,-0.03672834858298302,-0.045697491616010666,0.001388205448165536
1789139614487707000,8.261706787109375,-0.0150584252551198,-0.0880512148141861,-0.06091693788766861
1789139614497680000,8.271679931640625,-0.008292132057249546,-0.0773056298494339,-0.05816109851002693
1789139614507653000,8.281653076171875,-0.008756007067859173,-0.05442718788981438,0.005218101665377617
1789139614517626000,8.291626220703124,-0.0006860969588160515,-0.08448442071676254,0.016044117510318756
1789139614527599000,8.30159912109375,0.023432936519384384,-0.08274149894714355,-0.0124699417501688
1789139614537571800,8.31157177734375,0.029050875455141068,-0.046408262103796005,-0.013114693574607372
1789139614547544800,8.321544921875,-0.005687069147825241,-0.055396512150764465,0.01790475659072399
1789139614557518000,8.33151806640625,0.0021194550208747387,-0.0640866756439209,0.029598696157336235
1789139614567491000,8.341490966796876,0.05064500495791435,-0.033877864480018616,0.001292150467634201
1789139614577464000,8.351464111328125,0.04895975813269615,-0.03255613520741463,-0.009351438842713833
1789139614587436800,8.361436767578125,0.09976882487535477,-0.052489493042230606,-0.027594134211540222
1789139614597410000,8.37141015625,0.08784931153059006,-0.027161233127117157,-0.023259039968252182
1789139614607383000,8.381383056640624,0.1371762454509735,0.001731656026095152,0.007802954874932766
1789139614617356000,8.39135595703125,0.16673865914344788,0.038781821727752686,-0.003982864785939455
1789139614627329000,8.4013291015625,0.2088039666414261,0.020257361233234406,-0.03663940355181694
1789139614637302000,8.411302001953125,0.18802811205387115,0.05150929093360901,-0.04513488709926605
1789139614647274000,8.42127392578125,0.15049098432064056,0.05573001503944397,-0.021835818886756897
1789139614657247000,8.4312470703125,0.12215814739465714,0.031880609691143036,0.0006162267527543008
1789139614667220200,8.44122021484375,0.12184504419565201,0.043903227895498276,-0.021227091550827026
1789139614677193000,8.45119287109375,0.1319677233695984,0.03412330150604248,-0.017488013952970505
1789139614687166000,8.461166015625,0.14343567192554474,0.019972052425146103,-0.0203766580671072
1789139614697139000,8.471138916015626,0.12953928112983704,0.029620416462421417,0.009976185858249664
1789139614707112200,8.4811123046875,0.11366569250822067,0.03880694881081581,0.029856756329536438
1789139614717085200,8.491085205078125,0.07951251417398453,0.030347151681780815,-0.002252443227916956
1789139614727058000,8.501057861328125,0.07048587501049042,0.03830335661768913,-0.01755358651280403
1789139614737031000,8.511031005859374,0.11281256377696991,0.03262310102581978,-0.0002976341638714075
1789139614747004200,8.521004150390626,0.1308639943599701,0.030181245878338814,-0.005100112408399582
1789139614756977200,8.53097705078125,0.13736103475093842,0.029604407027363777,-0.03252880647778511
1789139614766950000,8.540949951171875,0.11016751825809479,0.0655299723148346,-0.028277363628149033
1789139614776923000,8.5509228515625,0.1255137175321579,0.04255754500627518,-0.018789319321513176
1789139614786896000,8.560895751953124,0.12404248118400574,0.06433454155921936,-0.017209777608513832
1789139614796869000,8.570869140625,0.13983182609081268,0.06916312128305435,0.00703830411657691
1789139614806842000,8.580842041015625,0.1696346253156662,0.0590614415705204,-0.01505986601114273
1789139614816814800,8.59081494140625,0.17348581552505493,0.054871220141649246,-0.008747109211981297
1789139614826787800,8.600787841796874,0.19062741100788116,0.06672731041908264,-0.03660010173916817
1789139614836760000,8.610760009765626,0.14018315076828003,0.05209456756711006,0.03987762704491615
1789139614846733000,8.620733154296875,0.10399536788463593,0.08466782420873642,0.04006808251142502
1789139614856705800,8.630705810546875,0.12489877641201019,0.0816912055015564,0.0630466416478157
1789139614866679000,8.640678955078124,0.13353799283504486,0.09827530384063721,0.013403603807091713
1789139614876652000,8.650652099609376,0.1286018192768097,0.07110626995563507,0.04611334577202797
1789139614886625000,8.660625,0.11711326241493225,0.05983280763030052,0.013908129185438156
1789139614896598000,8.670597900390625,0.12528197467327118,0.055104631930589676,0.010221782140433788
1789139614906571000,8.680571044921875,0.09435547888278961,0.08561279624700546,-0.007582674268633127
1789139614916544000,8.6905439453125,0.10241153836250305,0.06442122161388397,0.019060388207435608
1789139614926517000,8.70051708984375,0.1260944902896881,0.08130086958408356,0.011825911700725555
1789139614936490000,8.710489990234375,0.11992688477039337,0.06810703873634338,0.052329130470752716
1789139614946463200,8.720463134765625,0.11077530682086945,0.04789448529481888,0.03473661094903946
1789139614956436000,8.73043603515625,0.09037815779447556,0.04559990391135216,0.03262871876358986
1789139614966409000,8.740408935546874,0.10133504122495651,0.03209378197789192,0.03266723453998566
1789139614976382000,8.7503818359375,0.1217910423874855,0.028439924120903015,0.01895887777209282
1789139614986355000,8.76035498046875,0.12443050742149353,0.07014209777116776,-0.01575036533176899
1789139614996328200,8.770328125,0.10857297480106354,0.062143560498952866,0.010960075072944164
1789139615006301000,8.780301025390624,0.08278700709342957,0.05498715490102768,-0.010480577126145363
1789139615016274000,8.79027392578125,0.05609920993447304,0.07804374396800995,-0.049676716327667236
1789139615026247000,8.800246826171875,0.10072660446166992,0.06378917396068573,-0.05190844461321831
1789139615036219100,8.81021923828125,0.10615305602550507,0.05890040844678879,0.007171120960265398
1789139615046191900,8.82019189453125,0.13632822036743164,0.058668527752161026,-0.012239211238920689
1789139615056164900,8.830164794921876,0.14635396003723145,0.08502902835607529,-0.01998475007712841
1789139615066138000,8.84013818359375,0.1298418939113617,0.11029184609651566,-0.011001971550285816
1789139615076111000,8.850111083984375,0.08359529078006744,0.11829491704702377,0.06686246395111084
1789139615086083800,8.860083740234375,0.1576606184244156,0.11298996210098267,0.04094433784484863
1789139615096056800,8.870056884765624,0.1845010221004486,0.1385459303855896,-0.009051449596881866
1789139615106030000,8.880030029296876,0.18348515033721924,0.12483600527048111,0.025876497849822044
1789139615116003000,8.890003173828125,0.14209136366844177,0.1193685382604599,0.05857079476118088
1789139615125976000,8.89997607421875,0.15616115927696228,0.1149582639336586,0.018853891640901566
1789139615135948800,8.90994873046875,0.12355846911668777,0.1372382640838623,-0.03003428876399994
1789139615145922000,8.919922119140624,0.17733323574066162,0.11513842642307281,-0.026139192283153534
1789139615155895000,8.92989501953125,0.15552781522274017,0.11343959718942642,-0.03280481696128845
1789139615165868000,8.939867919921875,0.17918190360069275,0.10240746289491653,-0.034158855676651
1789139615175841300,8.94984130859375,0.14435388147830963,0.10807839781045914,-0.05406438559293747
1789139615185814000,8.95981396484375,0.10795916616916656,0.08600028604269028,-0.007900655269622803
1789139615195787300,8.969787353515626,0.08755935728549957,0.11092347651720047,-0.005533904302865267
1789139615205760300,8.97976025390625,0.11019174754619598,0.08784300088882446,0.02107953280210495
1789139615215733200,8.989733154296875,0.10458739846944809,0.06819925457239151,-0.01743563450872898
1789139615225705200,8.999705322265624,0.11919231712818146,0.07707760483026505,0.0284695066511631
1789139615235678200,9.00967822265625,0.07980203628540039,0.08149232715368271,0.0629236251115799
1789139615245651200,9.019651123046875,0.06645285338163376,0.07472050935029984,0.002050037495791912
1789139615255624200,9.029624267578125,0.05982024595141411,0.07105280458927155,0.05533536523580551
1789139615265597200,9.03959716796875,0.09138525277376175,0.08306563645601273,0.060009073466062546
1789139615275570200,9.049570068359374,0.10889793187379837,0.0938812717795372,-0.017060143873095512
1789139615285543200,9.059543212890626,0.12250935286283493,0.07707736641168594,-0.03634001687169075
1789139615295516200,9.06951611328125,0.10607125610113144,0.07256064563989639,0.016508547589182854
1789139615305489400,9.079489501953125,0.0852435827255249,0.07638285309076309,-0.007880357094109058
1789139615315462100,9.089462158203125,0.07993696630001068,0.08917907625436783,-0.03880951181054115
1789139615325435100,9.09943505859375,0.09662932902574539,0.10347543656826019,-0.04417933523654938
1789139615335408000,9.109408203125,0.12131284177303314,0.09146537631750107,-0.03808123245835304
1789139615345381400,9.11938134765625,0.13390085101127625,0.09173129498958588,-0.016680827364325523
1789139615355354400,9.129354248046875,0.11979275941848755,0.10926127433776855,-0.01298968493938446
1789139615365327000,9.1393271484375,0.11780174821615219,0.09812364727258682,-0.0017789420671761036
1789139615375300000,9.149300048828126,0.08626379817724228,0.13192209601402283,-0.006609383970499039
1789139615385273300,9.1592734375,0.10675153881311417,0.151060551404953,-0.008520848117768764
1789139615395246300,9.169246337890625,0.1180337518453598,0.1430196613073349,0.031823646277189255
1789139615405219300,9.17921923828125,0.16639360785484314,0.15580004453659058,0.04857177659869194
1789139615415192000,9.189192138671874,0.1608947217464447,0.17578014731407166,0.016349125653505325
1789139615425164300,9.199164306640625,0.12838700413703918,0.18539102375507355,0.01088806800544262
1789139615435137300,9.20913720703125,0.09837689995765686,0.16569773852825165,0.043348539620637894
1789139615445110300,9.2191103515625,0.11449776589870453,0.16045252978801727,0.09974013268947601
1789139615455083000,9.2290830078125,0.12489581108093262,0.15818378329277039,-0.000681012577842921
1789139615465056300,9.23905615234375,0.09873482584953308,0.151613250374794,-0.02739069052040577
1789139615475029200,9.249029296875,0.0728779286146164,0.10911824554204941,0.06970949470996857
1789139615485002200,9.259002197265625,0.0729181095957756,0.12120503932237625,0.0305170901119709
1789139615494975200,9.268975341796875,0.009316498413681984,0.11604942381381989,0.03265374153852463
1789139615504948200,9.2789482421875,0.01434154249727726,0.08496211469173431,-0.0007092574960552156
1789139615514921200,9.288921142578126,-0.06058170273900032,0.07485061883926392,0.02795194834470749
1789139615524894200,9.298894287109375,-0.05589872971177101,0.03502732515335083,0.06916206330060959
1789139615534867200,9.3088671875,-0.07268756628036499,0.04218989610671997,0.039646249264478683
1789139615544840200,9.318840087890624,-0.08669568598270416,0.029848214238882065,0.02640232816338539
1789139615554813200,9.328813232421876,-0.127745121717453,0.03684886544942856,0.05997147411108017
1789139615564786200,9.3387861328125,-0.1508105993270874,0.03560837358236313,0.0745624527335167
1789139615574759200,9.34875927734375,-0.16655947268009186,0.06054887920618057,0.02832864224910736
1789139615584732400,9.358732421875,-0.13379742205142975,-0.011090537533164024,0.09549397230148315
1789139615594705200,9.368705078125,-0.09973665326833725,0.018344584852457047,0.05709118768572807
1789139615604678100,9.37867822265625,-0.09846564382314682,0.026576105505228043,-0.06407497823238373
1789139615614651100,9.388651123046875,-0.1390809714794159,0.0021378742530941963,-0.0262298621237278
1789139615624624000,9.3986240234375,-0.18200278282165527,0.02295217104256153,-0.01589609868824482
1789139615634596000,9.40859619140625,-0.19961079955101013,0.07516664266586304,-0.07627368718385696
1789139615644569000,9.418569091796876,-0.16704639792442322,0.04307253658771515,-0.01480978075414896
1789139615654542000,9.4285419921875,-0.1129341647028923,0.031795911490917206,0.07886797189712524
1789139615664515300,9.438515380859375,-0.09386997669935226,0.04959475249052048,0.049227748066186905
1789139615674488300,9.44848828125,-0.10907875746488571,0.024256106466054916,0.07491447031497955
1789139615684461000,9.4584609375,-0.15460601449012756,0.008412430062890053,0.0864131972193718
1789139615694434000,9.46843408203125,-0.20285290479660034,0.014133698306977749,0.09193180501461029
1789139615704407300,9.4784072265625,-0.19866737723350525,-0.008790163323283195,0.07365097105503082
1789139615714380300,9.48838037109375,-0.14029648900032043,-0.02007397636771202,0.015613495372235775
1789139615724353300,9.498353271484374,-0.162532240152359,-0.029582930728793144,0.02745954506099224
1789139615734326000,9.508325927734376,-0.21410568058490753,-0.03413933515548706,-0.013218109495937824
1789139615744299300,9.51829931640625,-0.24195003509521484,-0.06503213942050934,-0.025835590437054634
1789139615754272300,9.528272216796875,-0.22924064099788666,-0.052320074290037155,-0.007642206270247698
1789139615764245200,9.538245361328125,-0.26333341002464294,-0.05013715848326683,-0.04754042997956276
1789139615774218200,9.54821826171875,-0.21946075558662415,-0.08012355118989944,-0.10201326012611389
1789139615784191200,9.558191162109376,-0.25230997800827026,-0.06125842034816742,-0.03201815485954285
1789139615794164200,9.568164306640625,-0.2665139436721802,-0.07365330308675766,0.03606422618031502
1789139615804137200,9.57813720703125,-0.2696688175201416,-0.09820609539747238,0.03553645685315132
1789139615814110200,9.588110107421874,-0.23328709602355957,-0.09522148966789246,-0.04060651361942291
1789139615824083500,9.59808349609375,-0.25357306003570557,-0.09476607292890549,-0.020526228472590446
1789139615834056200,9.60805615234375,-0.2702481746673584,-0.11952255666255951,0.018367907032370567
1789139615844028200,9.618028076171875,-0.2360626459121704,-0.10911088436841965,-0.001982312649488449
1789139615854001400,9.62800146484375,-0.19783563911914825,-0.07662484794855118,-0.05745489150285721
1789139615863974100,9.63797412109375,-0.2152743935585022,-0.07691533863544464,-0.04453081637620926
1789139615873947100,9.647947021484375,-0.23434607684612274,-0.07859686017036438,-0.046792373061180115
1789139615883920100,9.657920166015625,-0.24196405708789825,-0.046550504863262177,-0.061847489327192307
1789139615893893000,9.66789306640625,-0.200831800699234,-0.09563815593719482,-0.04189641773700714
1789139615903866400,9.677866455078124,-0.1473921686410904,-0.0809035375714302,-0.05581263080239296
1789139615913839000,9.687839111328126,-0.13047923147678375,-0.06327181309461594,-0.07511628419160843
1789139615923812000,9.69781201171875,-0.11635567247867584,-0.082894466817379,-0.08761852979660034
1789139615933785000,9.70778515625,-0.17559662461280823,-0.06958211958408356,-0.07456690818071365
1789139615943758300,9.71775830078125,-0.1693117916584015,-0.060915425419807434,-0.06777079403400421
1789139615953731300,9.7277314453125,-0.16946358978748322,-0.06719223409891129,0.007898136973381042
1789139615963704000,9.7377041015625,-0.09574531763792038,-0.056640900671482086,0.012339361943304539
1789139615973677000,9.747677001953125,-0.04778045415878296,-0.03511324152350426,-0.02000206708908081
1789139615983650300,9.757650390625,-0.040031351149082184,-0.035097964107990265,0.010578645393252373
1789139615993623300,9.767623291015624,-0.043164294213056564,-0.02682485431432724,-0.00009077705908566713
1789139616003596300,9.77759619140625,-0.05659706890583038,-0.03795934095978737,0.03328562155365944
1789139616013569000,9.787569091796875,-0.007501431740820408,-0.03975590690970421,-0.043283190578222275
1789139616023542300,9.797542236328125,0.031235046684741974,-0.012594593688845634,-0.07031427323818207
1789139616033515300,9.807515380859375,0.053428765386343,-0.027120539918541908,-0.043519146740436554
1789139616043488300,9.81748828125,0.03972408175468445,-0.015111088752746582,-0.022559205070137978
1789139616053460200,9.827460205078125,0.035666488111019135,-0.009100867435336113,-0.00013458990724757314
1789139616063433200,9.83743310546875,0.05350610613822937,0.006785964127629995,-0.038461823016405106
1789139616073406200,9.84740625,0.04720479995012283,-0.01970982551574707,0.012823732569813728
1789139616083379200,9.857379150390624,0.053156547248363495,-0.022419285029172897,0.01505978126078844
1789139616093352200,9.867352294921876,0.08068963140249252,-0.003925494849681854,-0.014684532769024372
1789139616103325200,9.8773251953125,0.06907015293836594,0.01857774704694748,-0.014249084517359734
1789139616113298200,9.887298095703125,0.054197728633880615,-0.00993538647890091,0.032853178679943085
1789139616123271200,9.897271240234375,0.04418959096074104,0.0019472623243927956,0.002597585553303361
1789139616133244200,9.907244140625,0.06493428349494934,0.013250783085823059,-0.05139613896608353
1789139616143217400,9.917217529296876,0.09587753564119339,-0.006495008710771799,-0.049744147807359695
1789139616153190100,9.927190185546875,0.11730373650789261,0.006281772628426552,-0.03323761001229286
1789139616163163100,9.9371630859375,0.13448864221572876,0.02998557686805725,-0.06119713932275772
1789139616173136000,9.947135986328124,0.11578179895877838,0.02468269132077694,-0.020427072420716286
1789139616183109000,9.957109130859376,0.1319563239812851,0.032840531319379807,-0.006932639516890049
1789139616193081900,9.967081787109375,0.11041561514139175,0.07227928936481476,-0.020460166037082672
1789139616203054800,9.977054931640625,0.1698869913816452,0.056862957775592804,-0.009911904111504555
1789139616213027800,9.98702783203125,0.18194206058979034,0.06427479535341263,0.0248977430164814
1789139616223001000,9.9970009765625,0.18418310582637787,0.05185195058584213,0.03447526693344116
1789139616232974000,10.00697412109375,0.15672512352466583,0.05618278682231903,0.03512854129076004
1789139616242946800,10.01694677734375,0.16419613361358643,0.05197139084339142,0.03323880583047867
1789139616252919800,10.026919921875,0.14721795916557312,0.08444277942180634,-0.021973051130771637
1789139616262892000,10.03689208984375,0.19742849469184875,0.07605290412902832,-0.0673314705491066
1789139616272865000,10.046864990234376,0.1562405824661255,0.05877005681395531,0.07651544362306595
1789139616282837800,10.056837646484375,0.1683962047100067,0.06939288973808289,0.045723360031843185
1789139616292811000,10.06681103515625,0.12359943240880966,0.0759221613407135,-0.008850403130054474
1789139616302784000,10.076783935546874,0.144826278090477,0.03271672874689102,0.0036381236277520657
1789139616312757000,10.086757080078126,0.10851540416479111,0.02783541940152645,0.06361943483352661
1789139616322730000,10.09672998046875,0.10069769620895386,0.03894447535276413,-0.03246832266449928
1789139616332703000,10.106702880859375,0.07381334900856018,0.00045673688873648643,-0.06239932402968407
1789139616342676000,10.116676025390625,0.04368814826011658,-0.002301839180290699,-0.02615150809288025
1789139616352649000,10.12664892578125,0.012828770093619823,0.024839766323566437,-0.021555690094828606
1789139616362622000,10.1366220703125,-0.005694808438420296,0.015575770288705826,-0.014269744046032429
1789139616372595000,10.146594970703125,-0.011207818053662777,0.014040989801287651,0.03822994977235794
1789139616382568000,10.15656787109375,0.003759225830435753,0.004693101160228252,0.0989556834101677
1789139616392541000,10.166541015625,0.03792412206530571,0.03150207921862602,0.04410041868686676
1789139616402514000,10.176513916015624,0.04283770173788071,0.0011389749124646187,0.06512106209993362
1789139616412487000,10.18648681640625,0.055106088519096375,0.0014103511348366737,0.03006960079073906
1789139616422460200,10.196460205078125,0.06122475862503052,-0.020565979182720184,0.06628213822841644
1789139616432433000,10.206432861328125,0.0340551882982254,-0.006419535260647535,0.07708524912595749
1789139616442406000,10.216406005859374,0.04315114766359329,0.019815512001514435,0.027623329311609268
1789139616452379000,10.22637890625,0.07605503499507904,0.0009938869625329971,0.037840016186237335
1789139616462352100,10.23635205078125,0.11064779758453369,0.00910940207540989,0.04195595160126686
1789139616472324900,10.246324951171875,0.0973743349313736,0.030204297974705696,0.02101391926407814
1789139616482296800,10.256296875,0.08620934933423996,0.009113896638154984,0.03507180139422417
1789139616492270000,10.26627001953125,0.06724444776773453,0.01787090301513672,0.017989221960306168
1789139616502243000,10.2762431640625,0.08557999134063721,-0.00963541865348816,0.045015472918748856
1789139616512215800,10.2862158203125,0.04895859956741333,-0.0059623862616717815,0.07158289849758148
1789139616522188800,10.296188720703125,0.05767976492643356,0.02200484275817871,0.03360947221517563
1789139616532162000,10.306162109375,0.04051036387681961,-0.011002110317349434,0.13067317008972168
1789139616542135000,10.316135009765626,0.08888081461191177,0.006683091167360544,0.06349895894527435
1789139616552108000,10.32610791015625,0.0684322640299797,-0.008011166006326675,0.11386492848396301
1789139616562080800,10.336080810546875,0.06374520808458328,-0.009690620005130768,0.07473774254322052
1789139616572054000,10.346053955078125,0.07058953493833542,-0.002533640945330262,0.09717541188001633
1789139616582027000,10.356027099609374,0.08154242485761642,0.03709477186203003,0.04032416641712189
1789139616592000000,10.366,0.09690673649311066,0.056017328053712845,0.02680835872888565
1789139616601973000,10.375972900390625,0.11413558572530746,0.06286785006523132,0.10050968080759048
1789139616611946000,10.385946044921875,0.11907920986413956,0.060474999248981476,0.09113801270723343
1789139616621919000,10.3959189453125,0.12493272125720978,0.08579646050930023,0.04944955185055733
1789139616631892000,10.40589208984375,0.13570068776607513,0.0748244971036911,0.06290117651224136
1789139616641865000,10.415864990234375,0.14549802243709564,0.07122591882944107,0.062477871775627136
1789139616651838000,10.425837890625,0.1418260633945465,0.09220550209283829,0.035025741904973984
1789139616661811000,10.43581103515625,0.11574290692806244,0.07044826447963715,0.11053203791379929
1789139616671784000,10.445783935546874,0.111134834587574,0.09224463999271393,0.045186057686805725
1789139616681757000,10.4557568359375,0.09590272605419159,0.07373331487178802,0.06930024176836014
1789139616691730000,10.46572998046875,0.11255228519439697,0.0542520247399807,0.06128279119729996
1789139616701702000,10.475701904296875,0.1441362053155899,0.07484163343906403,0.029855994507670403
1789139616711675000,10.4856748046875,0.1342737227678299,0.0794941708445549,-0.013297602534294128
1789139616721647900,10.49564794921875,0.11490890383720398,0.057683032006025314,0.03034229390323162
1789139616731621000,10.50562109375,0.10723873227834702,0.08322541415691376,-0.00859365239739418
1789139616741594000,10.515593994140625,0.06554502248764038,0.05479252338409424,0.054353341460227966
1789139616751566800,10.52556689453125,0.029162511229515076,0.06069914996623993,0.045379552990198135
1789139616761539800,10.535539794921876,0.04371611028909683,0.052269525825977325,0.08710154891014099
1789139616771513000,10.54551318359375,0.08955630660057068,0.018993861973285675,0.0749058723449707
1789139616781486000,10.555486083984375,0.10931754857301712,-0.007429149001836777,0.1407918781042099
1789139616791458800,10.565458740234375,0.11134874075651169,-0.013843106105923653,0.1051555797457695
1789139616801431800,10.575431884765624,0.0668974369764328,-0.008495989255607128,0.08068802952766418
1789139616811405000,10.585405029296876,0.02566158026456833,0.020914362743496895,0.0674784779548645
1789139616821378000,10.5953779296875,0.0011297240853309631,-0.004624937195330858,0.1285286545753479
1789139616831351000,10.60535107421875,0.010482479818165302,0.032348792999982834,0.0006351351621560752
1789139616841323800,10.61532373046875,0.0344795323908329,0.04931280016899109,-0.03573621064424515
1789139616851297000,10.625297119140624,0.07715696096420288,0.019093377515673637,-0.0035274075344204903
1789139616861270000,10.63527001953125,0.08500267565250397,0.067289799451828,0.011529882438480854
1789139616871243000,10.645242919921875,0.09606172144412994,0.09122443199157715,-0.015651404857635498
1789139616881216000,10.655216064453125,0.09385901689529419,0.10773548483848572,-0.054865654557943344
1789139616891188700,10.665188720703124,0.085410937666893,0.14280985295772552,-0.051067452877759933
1789139616901162000,10.675161865234376,0.08037255704402924,0.10669485479593277,0.1162605956196785
1789139616911135000,10.685135009765625,0.10280755162239075,0.15409353375434875,0.0673614963889122
1789139616921107000,10.69510693359375,0.16119539737701416,0.14768806099891663,0.040535155683755875
1789139616931080000,10.705079833984374,0.1599985659122467,0.1434677392244339,0.10033776611089706
1789139616941053000,10.715052978515626,0.15536466240882874,0.14931774139404297,0.08021686226129532
1789139616951026000,10.72502587890625,0.13610468804836273,0.14142866432666779,0.048129238188266754
1789139616960999000,10.7349990234375,0.09501562267541885,0.14356331527233124,0.03773016855120659
1789139616970972200,10.74497216796875,0.08555367588996887,0.15994256734848022,0.026947829872369766
1789139616980945000,10.75494482421875,0.06539046764373779,0.17387333512306213,-0.03723003342747688
1789139616990918000,10.76491796875,0.03330256789922714,0.1413406878709793,-0.006129106041043997
1789139617000891000,10.774890869140625,0.062165215611457825,0.1310403048992157,0.025594979524612427
1789139617010864000,10.784864013671875,0.06111487001180649,0.12924373149871826,0.032269395887851715
1789139617020837000,10.794837158203125,0.039963774383068085,0.10171731561422348,0.023345673456788063
1789139617030809900,10.804809814453124,0.026789918541908264,0.06753724068403244,0.031243277713656425
1789139617040782800,10.814782958984376,-0.022968754172325134,0.08062069863080978,0.03640049695968628
1789139617050756000,10.824756103515625,-0.07034425437450409,0.04682758077979088,0.033007096499204636
1789139617060729000,10.83472900390625,-0.13135193288326263,0.05722471699118614,0.01410615909844637
1789139617070702000,10.8447021484375,-0.15324871242046356,0.05516210198402405,-0.03845425695180893
1789139617080674800,10.8546748046875,-0.1829017698764801,0.04010219871997833,-0.055134519934654236
1789139617090647800,10.864647705078125,-0.1651368886232376,0.005119983572512865,-0.05811566486954689
1789139617100621000,10.87462109375,-0.15066838264465332,0.03102443553507328,-0.04738710820674896
1789139617110594000,10.884593994140625,-0.16542255878448486,0.027815325185656548,-0.015670988708734512
1789139617120566800,10.89456689453125,-0.17716261744499207,0.02728235349059105,-0.02469584345817566
1789139617130539800,10.904539794921876,-0.16815528273582458,0.0038412101566791534,-0.029385138303041458
1789139617140513000,10.914512939453125,-0.18747684359550476,0.023054350167512894,-0.07006052136421204
1789139617150485000,10.924485107421875,-0.23731842637062073,0.013816643506288528,-0.05831730738282204
1789139617160457700,10.934457763671874,-0.261250376701355,0.026978252455592155,-0.02796313352882862
1789139617170431500,10.944431396484376,-0.2459622472524643,0.018499812111258507,-0.021414153277873993
1789139617180404500,10.954404541015625,-0.1648024171590805,0.01121782511472702,-0.06806722283363342
1789139617190377500,10.96437744140625,-0.18159285187721252,-0.0012100816238671541,-0.035591304302215576
1789139617200350500,10.9743505859375,-0.19214126467704773,-0.006169378291815519,-0.010238485410809517
1789139617210323500,10.984323486328124,-0.25376415252685547,0.012635203078389168,-0.04450857639312744
1789139617220296700,10.994296630859376,-0.25307777523994446,-0.001886142184957862,-0.08701322227716446
1789139617230269400,11.00426953125,-0.25830957293510437,0.008167557418346405,-0.12265217304229736
1789139617240242400,11.014242431640625,-0.2633958160877228,-0.0029518979135900736,-0.16341978311538696
1789139617250215400,11.02421533203125,-0.24953220784664154,-0.018503693863749504,-0.15856990218162537
1789139617260188700,11.034188720703124,-0.2452159821987152,-0.02179965004324913,-0.15326862037181854
1789139617270161400,11.044161376953125,-0.21791672706604004,-0.01999029889702797,-0.19315984845161438
1789139617280134400,11.054134521484375,-0.21265682578086853,-0.05306398123502731,-0.19258569180965424
1789139617290107400,11.064107421875,-0.18822497129440308,-0.03704293817281723,-0.18675309419631958
1789139617300080600,11.07408056640625,-0.21973741054534912,-0.04357004538178444,-0.07358750700950623
1789139617310053600,11.0840537109375,-0.21657836437225342,-0.04038570448756218,-0.05007658898830414
1789139617320026400,11.0940263671875,-0.19038230180740356,-0.028595931828022003,-0.10924649238586426
1789139617329999400,11.103999267578125,-0.1742510050535202,-0.026080576702952385,-0.09125310927629471
1789139617339972600,11.11397265625,-0.19018442928791046,-0.029443083330988884,-0.035216476768255234
1789139617349945600,11.123945556640624,-0.22059586644172668,-0.03162767365574837,-0.03217141702771187
1789139617359918600,11.133918701171876,-0.21745099127292633,-0.05859118700027466,-0.04845551773905754
1789139617369891300,11.143891357421875,-0.2071208506822586,-0.07609295099973679,-0.07435236126184464
1789139617379864600,11.153864501953125,-0.18677499890327454,-0.1101008877158165,-0.055099938064813614
1789139617389836500,11.16383642578125,-0.2041526585817337,-0.1048017293214798,-0.06725886464118958
1789139617399809500,11.1738095703125,-0.20663775503635406,-0.10378023982048035,-0.12064715474843979
1789139617409782500,11.183782470703125,-0.24265487492084503,-0.08018836379051208,-0.12220164388418198
1789139617419755500,11.193755615234375,-0.25226834416389465,-0.10920131206512451,-0.06993979960680008
1789139617429728500,11.203728515625,-0.2201908379793167,-0.09415312111377716,-0.08782052993774414
1789139617439701500,11.213701416015626,-0.19990523159503937,-0.0935182049870491,-0.08661148697137833
1789139617449674500,11.223674560546876,-0.18338485062122345,-0.12051413208246231,-0.07189112901687622
1789139617459647500,11.2336474609375,-0.1698688119649887,-0.09481555968523026,-0.046526696532964706
1789139617469620500,11.243620361328125,-0.1889043003320694,-0.09110657870769501,-0.01724976859986782
1789139617479593500,11.253593505859374,-0.17627009749412537,-0.09157272428274155,-0.08137432485818863
1789139617489566500,11.26356640625,-0.15901866555213928,-0.08247856795787811,-0.0566287636756897
1789139617499539700,11.273539794921875,-0.12699271738529205,-0.06144002452492714,-0.03856118023395538
1789139617509512400,11.283512451171875,-0.0766664370894432,-0.04956765100359917,-0.06091362237930298
1789139617519485400,11.2934853515625,-0.033805787563323975,-0.04122476652264595,-0.02742011472582817
1789139617529458400,11.30345849609375,-0.017869433388113976,-0.028545193374156952,0.015162233263254166
1789139617539431700,11.313431640625,0.006799544673413038,-0.005019213072955608,-0.03014492616057396
1789139617549404700,11.32340478515625,0.05451646447181702,-0.0009424460586160421,-0.03356336057186127
1789139617559377400,11.33337744140625,0.06237315759062767,0.019311681389808655,-0.027352511882781982
1789139617569350400,11.343350341796874,0.060293760150671005,0.052529022097587585,-0.04245636612176895
1789139617579323600,11.35332373046875,0.05325927585363388,0.03822779655456543,-0.0335422046482563
1789139617589296600,11.363296630859375,0.07824824750423431,0.04936859756708145,-0.02395722083747387
1789139617599269400,11.373269287109375,0.08407974988222122,0.04714217036962509,-0.030164089053869247
1789139617609242400,11.383242431640625,0.08120406419038773,0.04178335517644882,-0.01225353218615055
1789139617619215600,11.393215576171874,0.07045260071754456,0.03904424607753754,-0.01012510061264038
1789139617629187600,11.4031875,0.06109878420829773,0.0268472358584404,-0.015209341421723366
1789139617639160300,11.413160400390625,0.033145759254693985,0.005918273702263832,0.027660857886075974
1789139617649133600,11.423133544921875,0.0399104543030262,0.004067376255989075,-0.003742870409041643
1789139617659106600,11.4331064453125,0.032671134918928146,-0.02047804370522499,-0.015543647110462189
1789139617669079600,11.44307958984375,0.002112160436809063,-0.021463412791490555,-0.012799791991710663
1789139617679052500,11.453052490234375,-0.0222608782351017,-0.01594557613134384,-0.009978827089071274
1789139617689025300,11.463025390625,-0.02593151107430458,-0.03521274775266647,-0.003190163755789399
1789139617698998500,11.47299853515625,-0.0354556180536747,-0.04436330497264862,0.0048121241852641106
1789139617708971500,11.482971435546874,-0.03480234369635582,-0.02450571022927761,-0.04487180709838867
1789139617718944500,11.492944580078126,-0.02433416061103344,-0.02659933641552925,-0.04431546851992607
1789139617728917500,11.50291748046875,-0.04731990396976471,-0.02057420089840889,0.009534980170428753
1789139617738890500,11.512890380859375,-0.03115503489971161,-0.01972060650587082,0.03940017148852348
1789139617748863500,11.522863525390624,-0.014044227078557014,-0.01924230344593525,0.01983366161584854
1789139617758836500,11.53283642578125,0.00984506867825985,-0.009365245699882507,-0.0014526527374982834
1789139617768809500,11.5428095703125,-0.0018379529938101768,-0.0011802858207374811,0.02563515678048134
1789139617778782700,11.55278271484375,-0.024579046294093132,0.01362061407417059,0.022359462454915047
1789139617788755500,11.56275537109375,-0.027922114357352257,0.062226761132478714,-0.025245074182748795
1789139617798728400,11.572728515625,-0.053532011806964874,0.058251187205314636,0.0167009886354208
1789139617808701400,11.582701416015626,-0.02216210588812828,0.06427685171365738,0.005040069576352835
1789139617818674700,11.5926748046875,0.011093034408986568,0.0818847119808197,-0.026354381814599037
1789139617828647700,11.602647705078125,0.032409243285655975,0.05783078074455261,0.015004243701696396
1789139617838620400,11.612620361328124,0.046476855874061584,0.07769849896430969,-0.03553856164216995
1789139617848593400,11.622593505859374,0.004489726386964321,0.07975152134895325,-0.03306634724140167
1789139617858566400,11.63256640625,-0.04911503195762634,0.04712621867656708,0.00013346789637580514
1789139617868538600,11.64253857421875,-0.07159930467605591,0.04123423993587494,-0.042048338800668716
1789139617878511400,11.652511474609375,-0.10367276519536972,0.020793914794921875,-0.03257189318537712
1789139617888484400,11.662484375,-0.12653759121894836,-0.01773776486515999,-0.009462577290832996
1789139617898457600,11.67245751953125,-0.17467059195041656,-0.033285610377788544,0.016935011371970177
1789139617908430600,11.6824306640625,-0.2449687421321869,-0.04900385066866875,0.03779289126396179
1789139617918403300,11.6924033203125,-0.28566110134124756,-0.086898572742939,0.06321416050195694
1789139617928376300,11.702376220703124,-0.28287622332572937,-0.07352684438228607,0.049650680273771286
1789139617938349600,11.712349609375,-0.2909901440143585,-0.11873620748519897,0.03483158349990845
1789139617948322600,11.722322509765625,-0.30492034554481506,-0.16077500581741333,0.06944442540407181
1789139617958295600,11.732295654296875,-0.31313997507095337,-0.1525619477033615,0.06906993687152863
1789139617968268300,11.742268310546875,-0.31948626041412354,-0.15005165338516235,0.043388012796640396
1789139617978241500,11.752241455078124,-0.34870079159736633,-0.1609870195388794,0.01355198584496975
1789139617988214500,11.762214599609376,-0.3649391531944275,-0.159745454788208,0.03643333166837692
1789139617998187500,11.7721875,-0.3727719783782959,-0.17799602448940277,-0.004898991901427507
1789139618008160500,11.782160400390625,-0.34984534978866577,-0.18080832064151764,-0.02342207543551922
1789139618018133500,11.792133544921874,-0.3611067235469818,-0.18875442445278168,0.009669952094554901
1789139618028106500,11.8021064453125,-0.3576989471912384,-0.18803296983242035,0.032492443919181824
1789139618038079500,11.81207958984375,-0.36676087975502014,-0.19461184740066528,0.023556364700198174
1789139618048052500,11.822052490234375,-0.36331474781036377,-0.18735845386981964,0.04845798760652542
1789139618058025500,11.832025390625,-0.3356276750564575,-0.19156624376773834,0.05454898998141289
1789139618067998500,11.84199853515625,-0.29674017429351807,-0.21464066207408905,0.04673261195421219
1789139618077971500,11.851971435546876,-0.31846311688423157,-0.1827673316001892,0.04774992913007736
1789139618087944400,11.8619443359375,-0.29872003197669983,-0.19169718027114868,0.05869206041097641
1789139618097916700,11.871916748046875,-0.2707277536392212,-0.1811107099056244,0.04801815375685692
1789139618107889400,11.881889404296874,-0.2731403112411499,-0.165579155087471,0.0661444216966629
1789139618117862400,11.8918623046875,-0.19537678360939026,-0.17698454856872559,0.06891442835330963
1789139618127835400,11.90183544921875,-0.18069744110107422,-0.15266883373260498,0.04794549196958542
1789139618137808600,11.91180859375,-0.18101026117801666,-0.13491512835025787,0.0547182634472847
1789139618147781600,11.92178173828125,-0.213767409324646,-0.15348641574382782,0.0626467689871788
1789139618157754400,11.93175439453125,-0.19627581536769867,-0.17025887966156006,0.05626445263624191
1789139618167727400,11.941727294921876,-0.17442405223846436,-0.19789743423461914,0.04967658966779709
1789139618177700600,11.95170068359375,-0.14644812047481537,-0.21511925756931305,0.034421082586050034
1789139618187673600,11.961673583984375,-0.13982591032981873,-0.22646565735340118,0.04596428573131561
1789139618197646600,11.971646484375,-0.18854540586471558,-0.22358013689517975,0.09252148866653442
1789139618207619300,11.981619384765626,-0.21844710409641266,-0.21555070579051971,0.06855037808418274
1789139618217592600,11.991592529296875,-0.23840966820716858,-0.22439950704574585,0.04352476820349693
1789139618227565600,12.001565673828125,-0.2365872710943222,-0.24720415472984314,0.07330956310033798
1789139618237538600,12.01153857421875,-0.19333626329898834,-0.2355780303478241,0.022441308945417404
1789139618247511300,12.02151123046875,-0.14810220897197723,-0.24552947282791138,0.018101153895258904
1789139618257484500,12.031484619140626,-0.12423849105834961,-0.257905513048172,0.008548459969460964
1789139618267457500,12.04145751953125,-0.13879132270812988,-0.23468168079853058,0.011717354878783226
1789139618277430500,12.051430419921875,-0.15500347316265106,-0.20453482866287231,-0.020260680466890335
1789139618287403500,12.061403564453125,-0.13394106924533844,-0.21172375977039337,0.002260873094201088
1789139618297376500,12.07137646484375,-0.13597199320793152,-0.18601466715335846,0.03964339569211006
1789139618307349500,12.081349609375,-0.05078199505805969,-0.2078976035118103,0.035761572420597076
1789139618317322500,12.091322509765625,-0.002742249518632889,-0.19873486459255219,0.025202184915542603
1789139618327295500,12.10129541015625,-0.011267295107245445,-0.18316681683063507,0.07734262198209763
