time,seconds_elapsed,z,y,x,vertical,horizontal
1789141176863219500,1.538219482421875,0.6981856782674789,0.9817448457390068,0.3045228989146649,-1.2158004018546666,0.2566120852305053
1789141176873191400,1.54819140625,-0.8272253151565789,0.9797516260951756,0.8670018105540425,-0.36980398051625996,1.5030476128088424
1789141176883163400,1.558163330078125,-0.8247732458293437,0.1003396121054887,0.8474912005286663,0.35234428679006846,1.133319806291794
1789141176893136400,1.568136474609375,-2.182247593215108,0.3900461962908506,0.798459531660378,0.8876177239038887,2.1826619053910026
1789141176903108400,1.5781083984375,-2.219111635231972,-0.3054430824995041,0.6301160583868622,1.4868984929863776,1.7899528052048053
1789141176913080600,1.58808056640625,-1.7431196783691645,-0.3725625620484352,-0.0677537953970953,1.299471829214538,1.2219789759347122
1789141176923052500,1.598052490234375,-0.3340016529858112,-0.4567144249409436,-0.4825823681037873,0.5844579477764082,0.4598258577244646
1789141176933024500,1.6080244140625,0.4334229812026023,-0.4476847307890653,-0.4218336656957864,0.13850231365314575,0.7396200710116644
1789141176942997500,1.61799755859375,1.0704951423376798,-0.723795920342207,0.1273708634266629,-0.018558891931711563,1.298352528573389
1789141176952969500,1.627969482421875,-0.5933101762980222,0.7163321603327989,-0.1100914830520749,-0.24716834759698375,0.9034249674503283
1789141176962941400,1.63794140625,-0.1540074894070625,-0.4506237068504095,0.6750617000505328,0.43088116883972843,0.7048615106412714
1789141176972913400,1.647913330078125,0.119736971014738,-0.7633370726138353,0.8656771378215402,0.5247082038738197,1.0349389529768642
1789141176982885400,1.657885498046875,-1.3234721245408057,0.1675713198572397,0.331315299978666,0.6011229453882678,1.236155186132768
1789141176992858400,1.6678583984375,-1.2808873667895793,-0.0839928729385137,0.3554506106626242,0.7827111089623141,1.077699264931096
1789141177002830600,1.67783056640625,-1.0571668742090463,0.0035369419544935,0.3042547860303893,0.5856860142674075,0.9312127455083887
1789141177012802300,1.68780224609375,0.2747498380720615,0.4934124627411365,-0.5294245275711641,-0.5404852926181736,0.5541744407371159
1789141177022774500,1.6977744140625,0.5318406853348017,0.1380260764211416,-0.1354038016261533,-0.4102554879934017,0.38978242189164564
1789141177032747500,1.70774755859375,1.153750933173299,-0.1715396389663219,0.1707702254964038,-0.5214884099570085,1.057250855630563
1789141177042719500,1.717719482421875,1.0437252088338136,0.6834726777821779,-0.2374547476941719,-1.1453503583868898,0.5486843596964055
1789141177052691500,1.72769140625,0.5328589224666357,0.3805389477550983,-0.3782106509380042,-0.6004399613654465,0.45963427993272155
1789141177062663700,1.73766357421875,1.5247610050827265,-0.1275356620669364,0.388886687524803,-0.7772091934730946,1.374168909935985
1789141177072635400,1.747635498046875,0.9871429053902624,-0.8413309973984956,-1.0599806895207613,0.17287949903644306,1.6661214553014114
1789141177082608400,1.7576083984375,-0.1588730496168136,0.0282347453594207,-0.1512847133796662,0.07312648944694922,0.20875207252525857
1789141177092580600,1.76758056640625,-0.0823182177245616,0.2465951722115278,-0.1998985221620648,-0.14789744147311853,0.29269648767223766
1789141177102552300,1.77755224609375,0.718338823980093,0.1854056672334671,-1.0871600075431167,-0.5171233299250851,1.210324861815096
1789141177112524500,1.787524658203125,-0.178156426757574,0.588508328974247,-0.3481796332789584,-0.368514561996427,0.6029161138118129
1789141177122496300,1.797496337890625,-0.8913602259367703,-0.2947843258410692,0.3960373264644294,0.7329741890723132,0.7078243095927843
1789141177132469500,1.807469482421875,-1.4174515539646149,0.2775707407116889,-0.3863686402892693,0.5928184100556837,1.3726111914282089
1789141177142441500,1.81744140625,-0.8898591737240552,-0.5424035804033279,-0.8608433609895407,0.9858849982056905,0.9247340458574789
1789141177152413400,1.827413330078125,-0.1290484047174453,-1.350439626443386,0.368514199973084,1.168485123514082,0.7815279311302649
1789141177162385400,1.837385498046875,0.1538601898908615,-1.700206419315934,0.2970908492177724,1.2980344675069075,1.1479304509286956
1789141177172358400,1.8473583984375,0.6682862145662307,-1.4536609314650295,0.8400129736024886,0.7813653359514279,1.629363856184691
1789141177182330400,1.857330322265625,1.116327503708005,-1.5687790105074644,0.778963534682244,0.6238091617337084,1.9811362894676046
1789141177192302600,1.867302490234375,1.234169454756379,-0.3763023330986499,1.165913591588661,-0.4386880948156773,1.68276110825848
1789141177202274600,1.877274658203125,1.9563281292855736,-0.0233072258293628,0.9244310862157492,-1.1295309985529751,1.845669399616248
1789141177212246800,1.887246826171875,2.2016776853501794,-0.2406353870242834,1.2397042925298214,-1.1029462331154385,2.285971644493995
1789141177222219800,1.8972197265625,2.366424595436454,-0.2198965503782033,0.574627797257714,-1.1870204178819863,2.137638765476371
1789141177232191500,1.90719140625,1.1917957094073297,0.1778454611122608,0.74543345939368,-0.8532334644923316,1.1312248752807708
1789141177242163700,1.917163818359375,0.2069341929525137,-0.265755799755454,-0.0608563275009393,0.10325488766973055,0.326327789325062
1789141177252135700,1.9271357421875,-0.3982955537199973,0.5215823261708021,0.3936510523824021,-0.2180715739909001,0.733548506061984
1789141177262107600,1.937107666015625,-0.4264443743616342,0.2413496727734804,-0.1395551491519436,0.04955807289875033,0.5070740636612516
1789141177272080600,1.94708056640625,-0.9778034146368504,0.2260837145805359,-0.291983260413073,0.3815207560362197,0.9730927503321651
1789141177282052900,1.957052978515625,-1.2838964854776858,0.0322393048256635,-0.3048336453642696,0.7152932501453018,1.1093731003770713
1789141177292024600,1.967024658203125,-1.198933890724182,-0.1935275988906621,-0.1435851718530058,0.8461151797875005,0.8829502873710573
1789141177301996800,1.976996826171875,-1.039602575945854,-0.7802350159227848,-0.3146071436207741,1.2446063592517371,0.48935964413981026
1789141177311969800,1.9869697265625,-0.9071709585309028,-0.4414893832802772,0.3435717741573229,0.8646290436425268,0.6231614593654653
1789141177321941500,1.99694140625,-0.3778600839346647,-0.269385096168518,0.1014279918640851,0.43207107103281406,0.19735450382236394
1789141177331913700,2.006913818359375,0.2212257531553506,0.0735217478066682,0.554717629988119,-0.2083205174235784,0.5645002146144036
1789141177341885400,2.016885498046875,0.9326941068440676,0.3541653200924396,0.5711531434170901,-0.8439371173735647,0.7806006828412684
1789141177351857700,2.026857666015625,0.853491975313425,0.6139817929267883,0.4812887480966746,-1.0088709562394336,0.5650136694549975
1789141177361830700,2.03683056640625,0.2993009264826774,0.1180716681510209,0.6527746110491455,-0.29322317646433627,0.6660756901643249
1789141177371802600,2.046802734375,-0.1404232006907463,0.3864543092787265,0.623925167857483,-0.26276244878477145,0.6995027655749116
1789141177381774600,2.056774658203125,-0.475104652634263,0.545987868630886,0.5929878855410963,-0.20245129452355537,0.9134961901349442
1789141177391746800,2.066746826171875,-0.0914583865135908,0.4056277963042259,0.7147353926606476,-0.3099766698146742,0.7665896498718636
1789141177401718500,2.076718505859375,-0.5828238535970449,0.0703138916760683,0.5887690988022833,0.24987291039363568,0.7929944943315878
1789141177411691800,2.08669189453125,-1.104540619802475,-0.5397071809262037,0.5527431150447577,1.0491475865125717,0.8462317146510013
1789141177421663700,2.096663818359375,-1.1864204461097716,-1.0375877289921045,1.1907490498986095,1.4793611840224856,1.3090284784313644
1789141177431635700,2.1066357421875,-1.531049291571975,-0.7593664154171943,1.1651296016041188,1.4475667315155698,1.4774392821466837
1789141177441607700,2.116607666015625,-0.9990712435930966,-0.3307283304035663,0.9855074862081556,0.800156089555234,1.1993747604590408
1789141177451580700,2.12658056640625,-0.8434241702854632,0.2065893250375986,0.2980359480481594,0.29758828384050773,0.8685102877289591
1789141177461552600,2.136552734375,-0.2712736863940954,0.5424795682489871,0.2940833379648626,-0.3034483140757283,0.6018950284315391
1789141177471524600,2.146524658203125,0.3904284736067056,0.7021218486726284,-0.9460687713976949,-0.7610955097016583,0.9804025850191584
1789141177481496600,2.15649658203125,1.7703683353006838,0.2251747830420732,-0.7678162638545036,-1.1604148447010179,1.5581678114986075
1789141177491468500,2.166468505859375,0.932607597604394,0.6099310562312603,-0.6759171478360891,-1.0042329929995966,0.8307544227837528
1789141177501441800,2.17644189453125,-0.6623071401566266,1.1899404369294642,0.1721410389255732,-0.6084877355399305,1.2304406545308055
1789141177511413500,2.18641357421875,-0.2605640763312578,0.246895031940937,0.1772469837624579,-0.06193105614373651,0.395514642218576
1789141177521385700,2.1963857421875,-0.2808107455462217,-0.1383463944166898,0.7079459517162293,0.24497395116302373,0.7342817126044318
1789141177531357700,2.206357666015625,-1.0249164634674788,-0.1697182687580585,0.327861031338945,0.7088083072574892,0.82724947100033
1789141177541329700,2.21632958984375,-1.280410396927595,-0.2344453002125024,0.5594592715572565,0.8979355046963083,1.095957065440601
1789141177551302700,2.226302734375,-0.1539022754669189,-0.3830634977966546,0.5967448999870568,0.37842702383277615,0.6191292409761737
1789141177561274600,2.236274658203125,-0.049362873584032,-0.0295084185570478,0.4149948326516896,0.035711057971905893,0.4174360687822054
1789141177571246600,2.24624658203125,0.6302396847665309,0.0774321992486715,0.7101684500712901,-0.4501806509179186,0.83956799292903
1789141177581218800,2.25621875,0.7085358073681592,-0.1072574286699295,1.4197311893343925,-0.3712534553446897,1.5463940856687248
1789141177591190500,2.2661904296875,0.40459436160326,-0.3760071495443582,1.0844861852239818,0.035748827837757846,1.2165156313009355
1789141177601163500,2.27616357421875,0.0297410582691431,-0.363166957193613,0.5432020373046398,0.25985617874885003,0.6002649323775238
1789141177611135700,2.2861357421875,-0.1943453450143337,-0.6775298437297343,0.4563203841220587,0.649036996685071,0.5327251375451557
1789141177621107500,2.296107421875,-0.1950268975377082,-0.67697863958776,0.4555690542981028,0.6490013258602072,0.5316728425329235
1789141177631079700,2.30607958984375,-0.4274088354796171,0.4567658628672361,-0.1932972972661256,-0.12478903444347075,0.6427323767634149
1789141177641052700,2.316052734375,-0.7067763964802026,1.0658166291326283,-0.0833100783061236,-0.47099003035237,1.191892160395908
1789141177651024600,2.326024658203125,0.9655179335594176,1.0592682304024696,0.2687175721704959,-1.4300001904272883,0.28562677209245046
1789141177660996600,2.33599658203125,0.8882061458200216,0.2977472672998905,-0.77256236240305,-0.7185625683693644,0.9788176703539907
1789141177670968600,2.345968505859375,-0.0641466012179851,0.4347334792792797,-0.2308287902157753,-0.3116122596327654,0.3863776837410871
1789141177680940500,2.3559404296875,-0.1549275268614292,0.3673591481864452,-0.598671191874519,-0.1899439196275977,0.6937461968995804
1789141177690913800,2.365913818359375,0.0282756618916988,-0.577476647350192,-0.325852321865037,0.4715703810900178,0.46699025967752555
1789141177700885500,2.375885498046875,-0.920244375115633,-0.2944832970678806,-0.5763682477168739,0.7880199877264308,0.8029912690084414
1789141177710857700,2.385857666015625,-0.6657943977504969,-0.7177192307770252,-0.8687036460358649,1.00295618121276,0.8409090304582498
1789141177720829700,2.39582958984375,-0.926669439727068,-0.812260385736823,-1.0176419424198568,1.2348594050511843,1.0144952230001407
1789141177730802400,2.405802490234375,-0.9739595986902712,-0.764756876283884,-0.6125041946548968,1.2064929792277512,0.6730426875380097
1789141177740774700,2.415774658203125,0.0010842881053686,-0.2937824553221464,-0.7964861126955598,0.2726800482955619,0.8039558605509499
1789141177750746600,2.42574658203125,-0.0302016615182161,-0.4501157573282718,0.0839567787118256,0.38374221000231756,0.25160880808880326
1789141177760718600,2.435718505859375,1.4749129783302544,-0.5673205795168876,-0.0351304231572896,-0.37048306773514156,1.5366188130903407
1789141177770690600,2.445690673828125,1.856591159248352,0.23679975438416,-0.3702531160622835,-1.2348625738163117,1.4543750032289207
1789141177780663800,2.455663818359375,2.208040206119418,0.3535048103570938,-0.9668054891519248,-1.5066456965889445,1.9144552231874719
1789141177790635500,2.465635498046875,1.265175418394804,0.6189829622149468,-0.8292694612700492,-1.1945298768398747,1.1156141624929694
1789141177800607700,2.475607666015625,1.0203472558557989,0.6716419547349214,-0.6686728757962584,-1.1051008665310231,0.8474000988379843
1789141177810579500,2.485579345703125,0.9581664017528296,0.3891583075404167,-0.6147237704005092,-0.8397576771875896,0.8615215605401925
1789141177820551700,2.4955517578125,0.025835867524147,0.1544353594303131,-0.4915444769121706,-0.1219542903739924,0.501259310272967
1789141177830524700,2.505524658203125,-0.9201298088252544,0.1799292816489935,0.1531248613536358,0.36888287933386743,0.8754347811130465
1789141177840496600,2.51549658203125,-1.4462246439844368,-0.8659808700084686,0.3110211748927831,1.52113579428535,0.7901700163028837
1789141177850468600,2.525468505859375,-1.6347645175904035,-1.3049252449810504,-0.7888284375492483,2.0330071696435423,0.9297403266642692
1789141177860440800,2.53544091796875,-1.2400988448053598,-1.3011392967015505,0.0791064891364425,1.7709162002432726,0.31768264454958234
1789141177870412500,2.54541259765625,-0.8084522256255149,-0.1967091515362262,0.2104555720116943,0.612674990459044,0.6010078163166684
1789141177880385500,2.555385498046875,0.8775503117710352,-1.0423626883089545,-0.5524319667363539,0.3800865465696067,1.4203273632008566
1789141177890357800,2.565357666015625,1.953061820966005,-0.3116717477560043,-0.0156479797804728,-0.8530902633630522,1.7843967094485176
1789141177900329500,2.57532958984375,1.985425628954172,0.8449643854647875,-0.2385455020729452,-1.8131732850281486,1.1938116835713333
1789141177910301700,2.5853017578125,1.914609632974863,0.7893927203685045,-0.7471938931949437,-1.7069209224444304,1.3905360808696046
1789141177920274700,2.595274658203125,0.8856962088257074,0.81994977119565,-0.0958716363785788,-1.1733741436190177,0.2985965360821746
1789141177930246700,2.60524658203125,-0.2349099951148033,1.0523083282619714,-0.7431235019508748,-0.7016552235142108,1.1056437084347275
1789141177940218600,2.615218505859375,-1.1456325086474417,0.3036293110758066,-0.5348165593404323,0.42286997912681,1.229582992852548
1789141177950190600,2.625190673828125,-0.7988350869745016,-0.4587251802414655,0.1043729592747986,0.8267941860470283,0.41937021319561474
1789141177960162600,2.63516259765625,-0.7973714441627263,-0.4594266065090894,0.0992909067701548,0.826742113185179,0.4162093093480174
1789141177970135800,2.6451357421875,-1.1648556800335643,-0.5038227975964545,-0.3750233626713976,1.091025032030501,0.749021407382047
1789141177980107500,2.655107421875,-1.447011410447955,-0.4406996942073106,0.1521443258836865,1.178409689518981,0.9604981738594703
1789141177990079700,2.665079833984375,-0.1397100839853286,-0.7245365095764398,0.9826059926129876,0.6355804729773923,1.0516767851223052
1789141178000051700,2.6750517578125,-0.0210509713351726,-0.6285019011884927,0.299535758151859,0.5165328287449664,0.4673042803485073
1789141178010023700,2.685023681640625,-0.3433832293152808,0.6432090564548969,0.2301521330632269,-0.342700852678422,0.6834881582058502
1789141178019996700,2.69499658203125,0.3038333092153072,0.259690800628066,0.077140924684517,-0.3891759489117528,0.1193599378744374
1789141178029968600,2.70496875,0.5823568206071853,-0.2336059267789125,0.0546263470701873,-0.1411273514658811,0.6138226975246209
1789141178039940600,2.714940673828125,0.079277534854412,-0.0568728108227252,0.034568076566793,0.0003087321565045792,0.10350990650876467
1789141178049912600,2.72491259765625,-1.779926437240839,1.4024340175747871,0.7190263678528368,-0.16988432029692824,2.371307135531945
1789141178059885800,2.7348857421875,-0.4934855279773473,0.4412105663388967,0.2402029138911515,-0.0917875214869287,0.6981885282022742
1789141178069857500,2.744857421875,-0.3250222277164459,-0.1680278314530849,0.209056372738257,0.3144391659152128,0.28054478889049045
1789141178079829800,2.754829833984375,-1.098798276758194,0.483480266791582,0.4567478522865101,0.20879628033525732,1.2673332376569852
1789141178089801500,2.764801513671875,-0.7902882079035043,0.9054559713065624,0.4431946528282016,-0.31278812347442825,1.2421719114659207
1789141178099773700,2.774773681640625,0.6674205376476049,0.5180792864859104,-0.2567339601164684,-0.7948045897257349,0.38477826288338934
1789141178109746700,2.78474658203125,1.198491992175579,0.3194078949660062,0.2017792213421314,-0.9516479377562606,0.8206616327118605
1789141178119718700,2.79471875,0.6315782398939133,-0.3692418931931257,-0.0122293304434046,-0.05495040548112762,0.7296304943304458
1789141178129690600,2.804690673828125,-0.2309393379181623,-0.4232032004833221,0.3669402651872486,0.4643827274386111,0.38913720892478404
1789141178139662800,2.814662841796875,-0.8322896128088235,-0.5283025743365287,0.5120389834083616,0.88668946352305,0.6691601642709607
1789141178149634600,2.824634521484375,-0.8293722640573978,-0.485651181089878,0.5605682557124644,0.8480374324029606,0.7202671064525968
1789141178159607600,2.834607666015625,-0.201937115317583,-0.8173772903591394,-0.4891955391658469,0.806091541337029,0.5462718516108005
1789141178169579800,2.844579833984375,-1.3150766366392372,0.1804921762287616,-0.7453538182862103,0.6287806556065462,1.3864310972720562
1789141178179551500,2.854551513671875,-1.0225129094570875,0.952182651168108,0.0706766240412369,-0.20433048177182978,1.3839901338509184
1789141178189523700,2.864523681640625,0.0815180072575807,0.3556301319479942,-0.2792479897415265,-0.3274407791848667,0.322304129911619
1789141178199496000,2.874495849609375,1.3803589638888836,-0.5824363155841827,-0.1672105967860668,-0.2990466712474793,1.4775497971280105
1789141178209468200,2.88446826171875,0.5303028082430362,-0.0335784444749355,0.3665457494443282,-0.28841426823584504,0.5775132696981888
1789141178219439900,2.89443994140625,0.5296107343256473,-0.0330015213698148,0.3644304012581706,-0.28841056086599615,0.575504557816727
1789141178229412000,2.904412109375,0.4584019396364688,0.1793190407961606,-0.6718585931602865,-0.38101097636101344,0.7406161365716241
1789141178239383800,2.9143837890625,0.0505149662286043,0.0173585465580225,-0.4282216496998444,-0.025851313394583537,0.4307651005120022
1789141178249357000,2.924357177734375,-0.6309405265122652,0.3193494427770376,-0.4008307347534224,0.11210823576927936,0.805088216280208
1789141178259329000,2.9343291015625,-1.4318892446398734,0.5426350510716438,-0.7063663543745875,0.3959690475720858,1.639183195229921
1789141178269301000,2.944301025390625,-1.431668295365572,-0.378631652829051,-0.5872364824075251,1.148241088668417,1.1042758373898045
1789141178279273000,2.95427294921875,-1.47201199619174,0.2257809322416782,0.1449041820297017,0.6451464054566522,1.3500295121931112
1789141178289245200,2.9642451171875,-1.4765209980487823,0.2288233686774969,0.1462626839665696,0.6451539415939944,1.3555971216031433
1789141178299218000,2.974218017578125,0.1245078386783599,-0.50041854211092,0.0728244497248902,0.33761262115928,0.39653756151526004
1789141178309190100,2.984190185546875,1.418736333078146,-0.2477367434620857,-0.4180490325905382,-0.5859055585860473,1.3804586002213466
1789141178319162000,2.994162109375,2.248174648109078,0.4402431826114654,-0.3532220113603398,-1.625273126215766,1.6526815672556294
1789141178329134000,3.004134033203125,2.0714087989270684,0.3441723338663577,0.0820564615158364,-1.4632679724067876,1.5082337721575274
1789141178339106000,3.01410595703125,1.270205229255557,-0.0356125806510448,0.8963101034291088,-0.7283891923037582,1.3738670118948806
1789141178349079000,3.0240791015625,0.0685416213065385,0.5468593907684087,0.4347943060884252,-0.5057812699801193,0.48681058191778953
1789141178359051000,3.034051025390625,0.0524865585625171,0.0846726718962192,0.6279798500757664,-0.1245246519892686,0.6235195292401955
1789141178369023000,3.04402294921875,-0.7484183204233646,-0.0826262607604265,0.5127064708737656,0.4727134891728406,0.7786956810862959
1789141178378995000,3.053994873046875,-1.1983674890130758,-0.4653425525546074,0.0497244003728032,1.0614606492422707,0.7269127430745412
1789141178388968000,3.063968017578125,-1.399849261778593,-0.2310743624746799,0.589779225692898,0.9618264677179247,1.1982081195482384
1789141178398940200,3.073940185546875,0.9453893377661704,-1.349790807145834,0.3098482221232727,0.559725174698891,1.5806359076582468
1789141178408912000,3.083911865234375,0.7822732437521219,0.0170779760509729,0.0272111744653433,-0.4596673972242748,0.633789726250993
1789141178418884000,3.093884033203125,0.2234393375515937,-0.5027326642721891,0.693333708191663,0.25848509198102376,0.846500063455445
1789141178428856000,3.10385595703125,0.2721872941076755,-0.4951239428341388,1.4083812355414032,0.19594028627886612,1.504785283912415
1789141178438829000,3.1138291015625,1.247718672159314,-0.8449842592090367,0.4280857483604923,-0.03169232840821645,1.5662226174575167
1789141178448801000,3.123801025390625,0.6352203957885504,0.1329419050246477,0.4364718473792076,-0.48768969947433716,0.6114285991991166
1789141178458773200,3.133773193359375,-0.2405997311890125,-0.1794733545750379,0.251267730599828,0.27418327850282453,0.2793884712740894
1789141178468745000,3.143744873046875,-0.239617734414339,-0.1803103899210691,0.2545020728785545,0.27418385434109543,0.28199825261425054
1789141178478717200,3.15371728515625,-0.0155728321850299,0.6233674609094858,0.3078970880554988,-0.515787387436384,0.4664691760637648
1789141178488690200,3.163690185546875,-0.0286246214598417,-0.1910404582500457,0.5360001065691933,0.15184621658928243,0.549139933342872
1789141178498662000,3.173661865234375,0.5492413174688816,-0.3828028010338544,0.4019362483099102,-0.013574748193051378,0.7807512300414637
1789141178508634000,3.183634033203125,-1.144452358952165,0.1137146419852972,1.0789762626960873,0.5137609390144218,1.49095328388171
1789141178518605800,3.193605712890625,-0.4357096308350562,-0.8133744844585656,0.8461223233282565,0.8822587162664062,0.8882361611514238
1789141178528579000,3.2035791015625,-0.3294096490204334,-0.785975020879507,0.6198866330564021,0.8083781543705459,0.6760559501200909
1789141178538551000,3.213551025390625,-0.2182078666388988,-0.6306734000086784,0.0700107074784115,0.639533131393208,0.20313169017568708
1789141178548523000,3.22352294921875,0.1799877338379621,-0.4559644833564758,0.0929655396735295,0.2687442687276698,0.4203787625552504
1789141178558495000,3.233494873046875,0.2245101816534996,0.2220066743999719,-0.0258070798210799,-0.30901134247926837,0.06978381425713595
1789141178568467200,3.24346728515625,1.8503186548501247,-0.2147843219310045,-0.3105782534308731,-0.8625410042303646,1.6799682428424596
1789141178578440000,3.25343994140625,0.7788204729497432,-0.0858557442009449,0.0658409840457141,-0.3746517491946414,0.6913057499424283
1789141178588412200,3.263412109375,-1.5429694464683532,1.1628303116858003,0.98050375963673,-0.11807182691170781,2.163417600201506
1789141178598383900,3.2733837890625,-1.881388915896416,1.2221025848656892,0.5799930140852928,0.04154165279250943,2.3168567431466927
1789141178608356000,3.283356201171875,-0.6311410175204276,-0.6847042654037475,0.2144776306020095,0.9128214194406346,0.2826952870103133
1789141178618328000,3.293328125,-2.0488819098204374,-0.1198801788777112,-0.1113503605393692,1.267299017876107,1.6182213815667181
1789141178628300800,3.30330078125,-2.449399815765023,0.4424515063107013,0.0931005642300471,1.0245643877298864,2.2702991704535274
1789141178638273000,3.31327294921875,-0.6137760412216187,-0.5233773928940296,-0.3722130179584026,0.7938211507088957,0.3987924718385999
1789141178648245000,3.323244873046875,0.5053396319001913,-0.5215834952145815,-0.0980181103553622,0.14542230693019514,0.7182460502181799
1789141178658217000,3.333217041015625,1.1614543471574783,0.1943687258899211,0.1604970706220716,-0.8261841001744328,0.8543620686993919
1789141178668189000,3.34318896484375,1.2600631899476051,0.6164817930489778,0.3253837910378351,-1.2357349869809773,0.7393528908735626
1789141178678162200,3.353162109375,0.9482903199046848,0.7547685662329197,-0.0387093045573681,-1.157659658597919,0.3609053123916182
1789141178688134000,3.3631337890625,1.2696166157126425,0.1460655904918909,0.2734317777434363,-0.8524661808172181,0.990619934819712
1789141178698106000,3.373106201171875,0.6350818641006947,0.0964233154445886,-0.7010753352943807,-0.4121155379859532,0.8569094695355026
1789141178708077800,3.383077880859375,-0.8520312551110982,0.730558254083991,-0.7099485237102955,-0.08785276781682849,1.325134491212795
1789141178718051000,3.393051025390625,-0.8490753279149532,0.7286293318480253,-0.712470005011931,-0.08784640015548062,1.3235279119552446
1789141178728023000,3.40302294921875,-1.2357599388182163,0.0234545253455638,-0.8390144640844315,0.7165164267720836,1.3108021293299148
1789141178737995000,3.4129951171875,-1.0235644643366335,0.0313806421697139,0.1352398432360962,0.5504644777289139,0.8740409780513045
1789141178747967000,3.422967041015625,-0.4049661175251007,-0.1333341192126274,-0.2558911526167765,0.3499450508388305,0.35326234878700497
1789141178757939200,3.432939208984375,0.1289998894006014,0.38223289219141,-0.8753576970975846,-0.3524534341420506,0.8970900902182787
1789141178767912000,3.442911865234375,0.7727011132866144,0.3341857773810625,-0.4709715714175254,-0.6949303838102594,0.6690539044194999
1789141178777884000,3.4528837890625,1.187344575217366,-0.0966699836820364,-0.4691037317190319,-0.5765280451305875,1.1431561355885806
1789141178787856100,3.462856201171875,1.1858517063111067,-0.0956453168094158,-0.4691895103063434,-0.5765184028020922,1.1415592949122564
1789141178797827800,3.472827880859375,0.0942477249711751,0.6562894873023033,0.2852253836506978,-0.6043464049311593,0.3946105258748596
1789141178807800000,3.482800048828125,-1.0591168392330408,0.0532078585743904,0.5184583489313721,0.5374067431077909,1.0509769775784723
1789141178817773000,3.49277294921875,-1.1298515866696834,-0.3791676594018936,0.2653453923236578,0.9430794707474452,0.775462449715282
1789141178827745000,3.5027451171875,-1.9786779082596304,0.4218506168305874,0.4468036736382171,0.7598558734142087,1.9275312661457893
1789141178837717000,3.512717041015625,-2.2285352971374985,0.1784358282208442,-0.5115614290244878,1.1402156047204843,1.989927733812978
1789141178847689000,3.52268896484375,-1.4130331530004738,-0.7338263159692286,-0.0779708727026358,1.4092131216905766,0.7452258638376301
1789141178857661000,3.532660888671875,-0.2278717670410871,-0.0938105025976896,-0.0238990907752886,0.20754852860789863,0.13498417471926247
1789141178867634200,3.54263427734375,0.6797673935234546,0.2542640994042158,0.309653539801389,-0.6076449511693459,0.5033754757369908
1789141178877606000,3.55260595703125,2.111386589050293,-0.6062105744034052,-0.2546056428508833,-0.6914352143185749,2.1005204037837086
1789141178887578000,3.562578125,1.7140099037408827,0.648777796497941,-0.2007772777579724,-1.4992058286900478,1.0730498487191742
1789141178897550000,3.572550048828125,0.9799369195342064,0.4286164577037096,-0.4853884385004639,-0.8897298233623192,0.7667928088670632
1789141178907522800,3.582522705078125,0.6184107152849435,0.3215717950016259,-0.8061471635535359,-0.5834833646584426,0.8917738752576672
1789141178917495000,3.5924951171875,0.3167553346306085,0.3423223220854997,-0.8164356255948543,-0.4287040788858465,0.8368383701181826
1789141178927467000,3.602467041015625,-1.00762513692677,-0.0045808980494737,-0.3915548472881316,0.5920248417828355,0.9045171011874082
1789141178937439000,3.61243896484375,-1.6197715311199423,-0.3822264624506234,-0.1386378881765529,1.2401531786262283,1.1184799681735373
1789141178947411000,3.622410888671875,-1.1986246786445378,-0.3653665130645036,-0.10332819946222,0.985558997167202,0.7807329819032363
1789141178957384200,3.63238427734375,-1.1981132219910622,-0.3662456339865922,-0.0917679273867979,0.985528665213466,0.7789517056040622
1789141178967356000,3.64235595703125,0.0660170712649822,-0.2324848137944936,-0.3740308445027098,0.16851115727516072,0.4122020194718391
1789141178977328000,3.652328125,1.0108248097509145,-0.5200935489177704,-0.357160519853048,-0.13269388757726652,1.1841537335900203
1789141178987299800,3.6622998046875,0.615910715162754,-0.1805886223405599,0.0369905910059809,-0.20306323974919008,0.6099933475511771
1789141178997272000,3.67227197265625,1.4280103573799132,-0.8003899152010678,-0.106979305848293,-0.14940444877465908,1.6336953448259572
1789141179007245000,3.6822451171875,1.4026210645794868,0.1126513966679573,0.4495162935977801,-0.9076270105901911,1.1654674151731284
1789141179017217000,3.692217041015625,0.3118319067537784,0.2842541639983654,0.0938172611320391,-0.41457595582253004,0.12234387258976093
1789141179027189000,3.70218896484375,-0.7414414671480655,-0.276446120595932,-0.1489580970630049,0.6544982879199712,0.46901856316106993
1789141179037161200,3.7121611328125,-0.3716898708671331,-0.6896838073819875,0.411895953320898,0.7615819970305343,0.451074553074384
1789141179047134000,3.722134033203125,-0.5764946505755185,0.1460556536197662,0.0221333962770178,0.20668187486311235,0.5580777955897462
1789141179057106000,3.73210595703125,-0.8583399998664856,0.1861035863697528,-0.3514426171302795,0.34886887215634177,0.879309117094907
1789141179067078100,3.742078125,-0.0942763665437698,-0.6071510701239109,1.0169771949008106,0.5119120681538156,1.072244890250408
1789141179077049900,3.7520498046875,0.3349707902789116,-0.2700911986112594,0.489696693621017,0.012046008910624989,0.6517763660336471
1789141179087022000,3.76202197265625,1.2240396904081106,0.1152098489791154,-0.5375531812300905,-0.768781557971181,1.0997657985999418
1789141179096995000,3.7719951171875,1.1365630670070648,0.1205073708653449,0.2077029853679239,-0.7532221335410719,0.884361113681491
1789141179106967000,3.781967041015625,1.124669215595722,-0.0064256491333246,0.343266142274253,-0.6475610092453793,0.9815388516062086
1789141179116939000,3.79193896484375,1.0748971766889095,-0.5336825138092041,-0.07342530169487,-0.16928046633293187,1.1903597626963824
1789141179126911000,3.801910888671875,0.0037602293163537,0.040373511442542,0.7589040586024522,-0.06566142678288811,0.7571447067415992
1789141179136883000,3.811883056640625,-0.4067822270363569,0.4872989482969045,0.703007545465976,-0.19744122182924617,0.9263739083915297
1789141179146856200,3.821856201171875,-0.4031207819193601,-0.2102788272053003,-0.0329522754006087,0.40322123816347377,0.21265473315707226
1789141179156828000,3.831827880859375,-0.6949322294294834,-0.6446656850039959,0.3454490027386695,0.9109291124608782,0.43366786194722995
1789141179166800100,3.841800048828125,-0.620008213609457,-0.4756237080723047,0.0734854343842714,0.7402953143621465,0.2607509409834123
1789141179176772000,3.851772216796875,-0.6398959863841533,0.0553805264383554,-0.3045025867789983,0.3302938471951426,0.6294137557753811
1789141179186744000,3.861744140625,-0.6391255865335465,0.1766518674135208,-0.0939911929268389,0.22177011062032553,0.6319333509206432
1789141179196717800,3.8717177734375,0.9030167614609004,-0.4285474841207266,-0.3681822280723601,-0.14622786331041443,1.0551150566101952
1789141179206689500,3.881689453125,0.9095616530597208,-0.4922241297394037,-0.1936434803552925,-0.10459175480230892,1.0469696064957805
1789141179216661800,3.891661865234375,0.2026975782960653,0.0979483330547809,-0.6194158737394958,-0.17092219581190876,0.6365075112004558
1789141179226633500,3.901633544921875,0.2200099476248025,0.0024234277546405,-0.6886234116088599,-0.09948425866214322,0.7160414341015604
1789141179236605700,3.911605712890625,0.7712637739598751,-0.2744055546790361,-0.7741710397087037,-0.18180846843699383,1.111949952556224
1789141179246578700,3.92157861328125,0.912694690388441,0.0348749140262603,-0.9794646989125758,-0.508159561123483,1.2390935454380685
1789141179256550700,3.931550537109375,-0.3262842104762792,1.6977105108469723,0.047194370438531,-1.2117648758373063,1.2339106770485875
1789141179266522600,3.941522705078125,-0.2738812385439872,1.1661451353222132,-0.0195936121337115,-0.801996445353516,0.8899949554569523
1789141179276494800,3.951494873046875,-0.5736626420199871,0.7780822218030691,0.1962877843189984,-0.32133374964551015,0.9326169022417353
1789141179286467600,3.961467529296875,-0.5691337664186954,0.7739543282181024,0.2057616420418024,-0.32089358008085234,0.9285923270435185
1789141179296439600,3.971439453125,-3.3959365700006483,1.4566612823247909,0.6670696053180843,0.7059577737439136,3.6879333994693604
1789141179306411800,3.981411865234375,-1.9149486556708808,-0.5310094952076673,0.6363909739378839,1.499186544644948,1.451355440242522
1789141179316383500,3.991383544921875,-1.584663977381587,-0.8214671900212764,1.0795965865515171,1.5324929605152753,1.4152605347274745
1789141179326355700,4.001355712890625,-1.300438454955816,-0.79900576736629,1.0837651044078171,1.35234868683892,1.2943145761945196
1789141179336328700,4.01132861328125,-0.5202537079155445,-0.3067436437040567,0.5232991400260478,0.5268256972164737,0.6008762420474715
1789141179346300700,4.02130078125,1.396203014230728,-0.2133791313081979,0.7755666587855666,-0.649061670440402,1.4748342621493895
1789141179356272600,4.031272705078125,1.1628174522042274,0.4808142624527216,0.455765965109691,-1.0741850473955057,0.7982329741579011
1789141179366244600,4.04124462890625,-0.1133878942489624,0.9641238488525152,1.6951105574816463,-0.7957232568950132,1.7839887642612922
1789141179376216600,4.051216552734375,-0.4389040429621935,0.287598798251152,2.2728546235963702,-0.07782626090754877,2.3313431838321477
1789141179386189800,4.06118994140625,-0.8006073573440313,-0.489827005469799,0.8956439676705747,0.8217259866718605,1.0039159106089268
1789141179396161500,4.07116162109375,-0.9386474622905254,-0.1939882021397352,0.6006344547715038,0.668824652832254,0.9122093033160353
1789141179406133800,4.0811337890625,-1.0803946050614115,0.3917039003700017,1.062042005964741,0.2495650159846341,1.544776674293432
1789141179416105700,4.091105712890625,-0.6821119108229875,-0.7548755337387323,0.2558632051639258,0.9978036291697043,0.32398707952084715
1789141179426077700,4.10107763671875,0.4806131869226693,-0.8141875544071197,0.1597360231216996,0.38965025243671436,0.8761156813196258
1789141179436050700,4.11105078125,0.234677355402708,0.352708107021451,-0.0729223206087946,-0.4203247525695584,0.0901179067542937
1789141179446022700,4.121022705078125,1.4963152473211287,-0.3460539098292589,-0.8035328163366764,-0.5337750037818251,1.6490790945680778
1789141179455994600,4.13099462890625,1.2052794603586197,0.3300140446543693,0.3442486870381981,-0.9699182094857264,0.8598684042730186
1789141179465966600,4.140966552734375,0.7904910369992255,0.3214712572365999,0.0890145004928111,-0.7169798384724078,0.471257192334988
1789141179475938600,4.1509384765625,0.7466051335215568,-0.3303349471718073,0.6507427398953587,-0.17880058124921425,1.0286091912846218
1789141179485911600,4.16091162109375,0.1903448772013187,0.5517272890657187,0.9530007626179604,-0.5997185296553269,0.9429646401191611
1789141179495883800,4.1708837890625,-1.0134399606853723,0.4549684580564498,0.6257905233379453,0.1769638195325221,1.2626774874908766
1789141179505855500,4.18085546875,-0.8852747685432434,-0.0644727644324302,0.3171054632425308,0.543385914429623,0.7701660703968952
1789141179515827700,4.19082763671875,-0.3865758898317813,0.2976239331811666,0.0699099139850586,-0.02772305785483309,0.49207697806139733
1789141179525800700,4.20080078125,-0.3562462180197239,0.0420686249226331,-0.0888889013517647,0.17142365256917874,0.3274084683993423
1789141179535772700,4.210772705078125,0.0778355193525552,0.0050222120761871,-0.8990067951671779,-0.012414802937053639,0.902298554311052
1789141179545744600,4.22074462890625,0.5922586214184761,3.50713133811e-05,-0.3903632263507693,-0.32098481878899143,0.6325523460303433
1789141179555716900,4.230716796875,1.1067407601952552,0.3709229781478643,-0.6009929858855902,-0.9097501815518776,0.9465760097560342
1789141179565688600,4.2406884765625,1.4293191018909217,-0.6156120244771242,-0.5175751363560557,-0.2855947920965666,1.6150080173833203
1789141179575661600,4.25066162109375,0.9653478376895188,-0.7721931637644768,0.5085624664042144,0.065728545816084,1.3351008465267566
1789141179585633800,4.2606337890625,0.7854162179529667,-0.2684855169802904,-0.1701214061988517,-0.21886778542266908,0.8185360673806421
1789141179595605500,4.27060546875,0.5207277551680803,-0.2952291469991207,-0.4095200910350307,-0.0369013703404909,0.7243359980482472
1789141179605577700,4.28057763671875,-0.2884334955096244,0.1670961035609245,-0.2954540783287957,0.03839037038238033,0.4437727808464209
1789141179615549400,4.290549560546875,-1.1461036332905292,-0.1378103878438472,-0.2435952962758019,0.7742996443302422,0.8901370514685812
1789141179625522700,4.300522705078125,-1.1453121906518935,-0.1365916597038507,-0.2735125148294493,0.7740444189647687,0.8978093499147328
1789141179635494700,4.31049462890625,-0.7239128247201442,-0.5586603031992912,-0.8927044801525771,0.9062172079417588,0.9010231812110876
1789141179645466600,4.320466552734375,0.4720090247064828,-0.5664812060832977,-0.7436554168704896,0.2270773524471103,1.0223271156026261
1789141179655438600,4.3304384765625,0.9679331780076026,-0.5821008000195026,-0.6619899639662354,-0.045170117631182505,1.3084060345842359
1789141179665410800,4.340410888671875,0.998736897072196,-0.32236616024971,-0.9200186766009776,-0.26582626364708706,1.3700971110463607
1789141179675383600,4.350383544921875,1.87093766450882,0.2077232975035905,-0.576282359531708,-1.210880683817912,1.5522325986357786
1789141179685355800,4.360355712890625,1.3101625611126422,0.0236602770507335,-0.4921641066478565,-0.7442957239643765,1.1854683160726747
1789141179695327700,4.37032763671875,0.4720546174138784,-0.2875613888502121,-0.5946498274039477,-0.008141766614843837,0.8118307970551254
1789141179705299700,4.3802998046875,-2.6077842050820585,1.2874077084690332,-0.5321552311766893,0.44512552567034946,2.9228427129365624
1789141179715272700,4.390272705078125,-2.4984505546599625,0.4026064026564359,-0.8285005957894027,1.122033867213399,2.4149120745050263
1789141179725244700,4.40024462890625,-1.150236787572503,-0.3477525304406881,-1.21267607341595,0.9879396069285131,1.392312853496108
1789141179735216600,4.410216552734375,-1.195215162461996,0.0578396100282669,-0.8189872097738087,0.6644152070829545,1.2888666290339277
1789141179745188600,4.420188720703125,-0.6078811379641295,0.4115279602587223,-0.5810536655867472,0.03045131721013694,0.9357194128258923
1789141179755160600,4.43016064453125,0.3383388054072856,0.2188070015758275,-0.4966602855559438,-0.3522413197646178,0.5338044052665968
1789141179765133600,4.440133544921875,2.3935166005015374,-0.8010434106737375,0.0836923921545967,-0.7051605357208999,2.4249423288042586
1789141179775105800,4.450105712890625,2.164154887163639,-0.6310170988798142,0.6613339112102985,-0.7376557314516045,2.230465314387621
1789141179785077500,4.460077392578125,2.1704496033936738,-0.6353174264222383,0.6370570366311818,-0.7367278832744653,2.2310431208550767
1789141179795049700,4.4700498046875,-1.1376806728601454,1.335178344425559,-0.2948858865194022,-0.4390401935240955,1.7237226921292033
1789141179805021700,4.480021728515625,-0.259405553945899,0.5643143834382295,-0.0277551040497375,-0.3152701040213425,0.5358330636349641
1789141179814994700,4.48999462890625,-0.6496259377598762,0.0949830535084009,-0.6640290685784072,0.31764975791919736,0.8781052753942209
1789141179824966700,4.499966552734375,-1.5750059221982955,0.6614362025409937,-1.0162773760683834,0.3920501729144187,1.9486554010439523
1789141179834939000,4.50993896484375,-2.7284499813795087,0.4808090017557144,-0.4496862068045884,1.1733177425610615,2.549737193641902
1789141179844910600,4.51991064453125,-0.7566916432499885,-0.8856342495054006,-1.1295099336251615,1.203042347287915,1.0887663053434664
1789141179854882800,4.5298828125,0.0941810894757509,-0.5661141263365745,-0.5741281771725043,0.4347063806387391,0.6855718839830384
1789141179864855800,4.539855712890625,-0.7099222932904958,0.1030418568015098,0.0067095258423127,0.3184733953794477,0.6428273492443007
1789141179874827500,4.54982763671875,0.5976140109717846,-0.3466396007627249,-0.0065483804638497,-0.05445276899733026,0.6887519845067223
1789141179884799700,4.5597998046875,0.9592764088213444,-0.0361982715845108,-0.6491118507578969,-0.48942608184686043,1.050395091662777
1789141179894771500,4.569771484375,0.8002659965604543,-0.1388233642786741,-0.0394875589208677,-0.33909487994002036,0.7391018342749114
1789141179904743700,4.57974365234375,-0.985064345550537,-0.0222930803507566,-0.4836469285953789,0.5974433523372189,0.9207738802736763
1789141179914716700,4.589716552734375,-1.3413707693248986,-0.2513683779627084,-0.7233132513917983,0.9977745021890714,1.1790206548908289
1789141179924688600,4.599688720703125,-0.7727560583442449,-0.5044546657592058,-0.1835315256583504,0.8610690022285367,0.37930255710395644
1789141179934660600,4.60966064453125,-1.6786498365461826,0.6750964791029691,-0.7198809388555586,0.4278704334431894,1.8996778643092227
1789141179944632600,4.619632568359375,-0.4170452623754739,0.9142992029756308,-1.2460820108681916,-0.46461798322029163,1.5319008750272736
1789141179954605600,4.62960546875,0.5131716407001018,0.7877373543769121,-0.4850135407734662,-0.9196458169456547,0.5228431680796308
1789141179964577800,4.639577880859375,1.2969956210255622,0.4998217452615499,-0.5886602681329474,-1.1242976065572519,1.007221535295872
1789141179974549500,4.649549560546875,1.4411211833655833,0.2875795090287923,-0.5645672987533733,-1.0327279962564784,1.1881672271730188
1789141179984521700,4.659521728515625,1.4015595728278158,-0.4168395106703043,0.4133705193854868,-0.47040634311382296,1.4448935851807412
1789141179994493700,4.66949365234375,1.1546616182774303,-0.7572925317525864,0.2685632583916187,-0.04450368577895003,1.4060160301651285
1789141180004466400,4.679466552734375,-0.114072953903675,-0.4998024560391902,0.0653068041037768,0.47298551046753884,0.2082422133601336
1789141180014438700,4.689438720703125,-1.616488271665573,0.0928840354025363,0.458290734346956,0.8239420483791644,1.4672462896753327
1789141180024410600,4.69941064453125,-2.272923889440298,0.2632861947715282,0.3134463562130928,1.0627186337220424,2.050458570980868
1789141180034382600,4.709382568359375,-2.469316230112314,0.645071927717328,0.451981405069679,0.8550059003639493,2.4468127302874314
1789141180044354600,4.7193544921875,-1.0861071374893188,-0.0210620772510766,0.3411275228103622,0.6208748530842362,0.9544394841108234
1789141180054327800,4.729327880859375,-0.3523936342447996,0.180170689189434,-0.0922210688486229,0.05586573779821136,0.40252514900201847
1789141180064299500,4.739299560546875,0.0206786308914423,0.1794832914471626,-0.5019170735729858,-0.13919498121922633,0.5149634585402162
1789141180074271700,4.749271728515625,0.9548913256049156,-0.4388830001741647,-0.9591538784202188,-0.14358375562568831,1.4155548732445378
1789141180084243500,4.759243408203125,1.613271063184738,-0.7077075398504734,-0.4716752627074718,-0.3162741680319604,1.7960906684675688
1789141180094215700,4.769215576171875,0.8500006260663271,0.2112269217103719,-0.4236856137054041,-0.6396920071801183,0.7330903845905932
1789141180104188700,4.779188720703125,0.7822644759237766,-0.2420493454754352,-0.6369133173115551,-0.22014032586181498,1.0137664458028046
1789141180114160600,4.78916064453125,0.6835428204089403,-0.3700175537407398,-0.2169593826814554,-0.07565729135846733,0.8034246233510075
1789141180124132600,4.799132568359375,1.339984283402562,-0.5690472571790218,-0.942075610108301,-0.25612593718465004,1.7150156326200228
1789141180134104800,4.809104736328125,0.0358949047237634,-0.1401443837493658,-0.7107919887971132,0.12320151107781102,0.7148255252073175
1789141180144076500,4.81907666015625,0.4036918598055839,-0.4758090015113353,0.0697951650315895,0.15885560276290475,0.6074517150565353
1789141180154049500,4.829049560546875,-0.2760772872835397,-0.4461848476201295,-0.0242493472513742,0.5245619666582464,0.02687677021866286
1789141180164021800,4.839021728515625,-0.7162053190827369,0.0805453628331422,-0.0405250122098252,0.34242158763942526,0.6354741123676316
1789141180173993500,4.848993408203125,-0.0233446352303028,-0.6426122596055269,-0.1350698752303607,0.5468097235038525,0.36433293244742865
1789141180183965700,4.858965576171875,0.0567097292155027,-1.2732856596142053,-0.7733924565516411,1.0451698461009795,1.0631219351603625
1789141180193937400,4.8689375,-0.5218628966778517,-0.6711474492162466,-0.0756884791201911,0.851181406734221,0.06323559298332393
1789141180203910400,4.878910400390625,-0.4927952076256275,-0.3979360727578401,0.6350163245838135,0.5817033334532937,0.682691144660585
1789141180213882400,4.88888232421875,1.503733999145031,-0.8372183013826608,-0.143949283324508,-0.16068976791961065,1.7196076933447226
1789141180223854300,4.898854248046875,0.9604162265062332,-0.6189338623762131,0.2382783573030494,-0.04662143220063253,1.1662253091710069
1789141180233826300,4.908826416015625,0.26095161434412,0.3693313250422477,0.2274945677591487,-0.46092918101467806,0.2092831601809491
1789141180243799600,4.918799560546875,0.3524889113128185,0.600757569694519,-0.0724459900676272,-0.69115695055939,0.11273234369108323
1789141180253771300,4.928771240234375,0.4614554819881916,0.2254483392864465,-0.8249825046658515,-0.41453619516205426,0.8789334397150219
1789141180263743500,4.938743408203125,-0.191215230295062,0.0681745415598154,-0.4802097937535494,0.0718315745235788,0.5163842593766531
1789141180273715500,4.948715576171875,-0.3110276046335697,0.4583873265892267,-0.3257641321249306,-0.18696144858547434,0.6148372130439445
1789141180283687400,4.9586875,-0.4052940343052149,0.17394903819561,0.2529219458139501,0.07724124222233972,0.5025184805624954
1789141180293660400,4.968660400390625,-0.4073334311783314,0.1749924097687006,0.265426878328342,0.07704268038090026,0.5109390577857835
1789141180303632400,4.97863232421875,0.5592693750083446,-0.8318675880044698,0.7550866192061454,0.3356792780701374,1.2092399028203942
1789141180313604400,4.988604248046875,0.2536386609822511,-0.3508972582072019,-0.8562710846379399,0.17849184996288647,0.9427631123702611
1789141180323576600,4.99857666015625,-0.1146504615306854,0.5990683014333248,0.2942943321007303,-0.4389697956643164,0.5156958701719953
1789141180333548300,5.00854833984375,0.0058966568231582,0.8752619085729122,-0.5406184505522251,-0.7010864286711569,0.7529039166925607
1789141180343521300,5.018521240234375,-0.005108136793971,0.2673047827631234,-1.0349590609889476,-0.17540654347790965,1.0544433329381921
1789141180353493500,5.028493408203125,-0.7168366027235984,-0.1543932738542556,-1.2294561624988911,0.5834055437972505,1.3072461225755765
1789141180363465200,5.03846533203125,-0.5627180541574954,-0.457605236300826,-0.3445402173306793,0.7096438186884562,0.37572299998838254
1789141180373437400,5.0484375,-0.5621516524463892,0.1333405489534139,-2.0610636382624508,0.2922726530645779,2.1204608460383434
1789141180383409400,5.058409423828125,0.144485627824068,-0.082916183617711,-1.9038529688999053,0.06215992071388417,1.9101160858961606
1789141180393382400,5.06838232421875,-0.4269406334459781,0.2972083381175994,-0.3644538551989942,0.012923571124619837,0.6350359789906983
1789141180403354400,5.078354248046875,-0.5505822106838226,0.2833370491534471,-1.1195675085425376,0.1247772381626576,1.2732959990375814
1789141180413326600,5.08832666015625,0.3808692026227712,-0.050623687300086,-0.2785405355919152,-0.16369431735762005,0.4454358625604995
1789141180423298300,5.09829833984375,-0.0217395381212234,0.0309153627455234,0.1959945369934663,-0.02089076814833839,0.1985089456645897
1789141180433270500,5.1082705078125,-0.4030716820806264,0.1446919640511274,0.0822561122737824,0.10684747011410463,0.42279100214277376
1789141180443243500,5.118243408203125,-0.0098217213124036,-0.2986269727438688,-0.4176558685544878,0.2677126167165949,0.4382247305304243
1789141180453215500,5.128215576171875,0.2393225508600473,-0.0414081151872873,-0.3070796707253903,-0.08969032343369665,0.3811082331945829
1789141180463187500,5.1381875,-0.1932446902960538,0.2860118213206529,-0.7961493550218641,-0.09341684570482305,0.8627127915494625
1789141180473159400,5.148159423828125,-0.842671306091547,0.3360989175260067,-0.5022367339814081,0.222717381255145,1.0127665661539924
1789141180483132400,5.15813232421875,-0.1300350776672363,0.0804442405462265,-0.1020030518056824,0.011858915975507978,0.18342406044612003
1789141180493104400,5.1681044921875,-0.5113163682222366,0.3341390156298875,0.1612060956742614,0.009502530438563916,0.6316568826316162
1789141180503076400,5.178076416015625,-1.0781997253656386,0.6431997041046619,-0.0311040171854197,0.0853277470353011,1.2529593539336437
1789141180513048300,5.18804833984375,-0.99718148432374,0.4759375963270664,-0.2215988973166793,0.1843714165917104,1.11175571071689
1789141180523020500,5.1980205078125,0.2789642408967018,-0.0071767597615718,-0.0219446322392672,-0.15175166098944004,0.23521384706434936
1789141180532993300,5.2079931640625,1.1561235075235363,-0.0331400530576705,-0.3281465702820569,-0.616635108855136,1.0320664425705748
1789141180542965500,5.217965576171875,1.282590663576126,0.2480705054610967,0.3093528032891452,-0.9451098683069161,0.9534381362752948
1789141180552937500,5.2279375,0.3760819683462381,0.5810381392240523,-0.1611552422698587,-0.6848106055598648,0.18986419560285248
1789141180562909400,5.237909423828125,-0.7942693864941597,0.9593278467476368,0.5508095896989107,-0.35910407699218955,1.3136244675930546
1789141180572881400,5.24788134765625,-1.0777484744668009,0.2508803021848201,0.1327700190564617,0.40095444998904994,1.0398779290061382
1789141180582854400,5.2578544921875,-1.770755873313546,0.4126590101152658,0.6374411405779421,0.6416318564787558,1.8167288157445687
1789141180592826400,5.267826416015625,-2.103269918090105,-0.0238707049310207,-0.0537149313136935,1.216994537872298,1.716427612086128
1789141180602798300,5.27779833984375,-1.2762749045580626,-0.2226566627413034,0.1319562549881637,0.9029893269104503,0.9383370131163428
1789141180612770300,5.287770263671875,-0.3599468261033296,-0.5378232668757439,-0.3978152959223836,0.6624735103228292,0.3717545451035134
1789141180622742500,5.297742431640625,0.5807505544543266,-0.258594237563014,-0.7678992659628391,-0.08679083640270319,0.9931157130881529
1789141180632715500,5.307715576171875,1.040490464696288,-0.108515319776535,-0.8901746694140136,-0.4665042754540957,1.2919677568730183
1789141180642687200,5.317687255859375,1.5343676223397251,0.0878296746224164,-0.4214709333306178,-0.9272704002842718,1.29607307071321
1789141180652659500,5.327659423828125,0.0126730190902948,1.0235475132018328,-0.0791866051679477,-0.8452577898387291,0.5827691690107588
1789141180662631400,5.33763134765625,1.064823526442051,-0.0306809694677591,-0.2676189267462119,-0.5691930235704675,0.939377270442217
1789141180672603400,5.347603271484375,0.4531359819322824,-0.6995271560043096,-0.0823087923090905,0.32070646424347843,0.7736876379993666
1789141180682576400,5.357576416015625,-0.7747615529477596,0.7101841590970754,-0.4063440548148005,-0.12715694790119836,1.1196265472210944
1789141180692548600,5.367548583984375,-0.7725169888913631,0.1091711533367633,-0.5218037138365209,0.3701379546192092,0.8625415057668538
1789141180702520300,5.377520263671875,0.4196621668756008,-0.9060112671017646,-0.8690663418684155,0.5408881065836837,1.208175944615244
1789141180712492500,5.387492431640625,0.3312058847874403,-0.4544108241736889,-1.0054966004654764,0.22545362199739846,1.1297701594217855
1789141180722464300,5.39746435546875,-0.7143962238341569,-0.3539689207375049,-0.060159942734614,0.699292478883992,0.3876405669724086
1789141180732437200,5.407437255859375,-0.0604231967806816,0.204458742749691,-0.0988968659512698,-0.12974741936966727,0.19596055076947608
1789141180742409500,5.417409423828125,-0.7749965307474136,0.5382587356835603,-0.5754881038814783,0.021039584316064508,1.1050275936876408
1789141180752381400,5.42738134765625,-0.2308674417257308,-0.018480244064331,-0.1041839760413393,0.15054925487002913,0.20452510308400365
1789141180762353400,5.437353515625,1.5003081163495775,-0.7636059526830912,0.0217385152079164,-0.22586726253207756,1.668374969159265
1789141180772325600,5.44732568359375,2.0414625734746457,0.2519002928823232,0.0041673122799023,-1.367300640905423,1.5367268854039031
1789141180782298400,5.45729833984375,1.730138031721115,0.0687859514564275,0.8550530140850693,-1.0739082571327598,1.604975335662084
1789141180792270300,5.467270263671875,0.6338584597855806,-0.3147358115017414,0.3258302561637013,-0.11455951168570264,0.7706339287868429
1789141180802242300,5.4772421875,0.047552024769783,-0.5251958404928445,1.366122348743677,0.3499988807558442,1.4219292954072256
1789141180812214300,5.48721435546875,-1.3383137198418378,0.2644856336891651,1.5402435286357998,0.4815701888040697,2.0003691019170757
1789141180822187500,5.4971875,-1.611471320286393,-0.5797790790736675,1.1167505514256657,1.347605293453636,1.537554995374913
1789141180832159200,5.5071591796875,-1.0165081160843372,-0.9085095136582853,1.4483024731718004,1.2664218288561502,1.5337646793641913
1789141180842131500,5.51713134765625,-0.9371738826066256,-0.7174070960879325,1.6482964915975928,1.0562810083831398,1.7303524448213803
1789141180852103400,5.527103515625,-0.5121966581881046,-0.5109136326402426,1.133659235324338,0.6656444279014477,1.1685370829017911
1789141180862075400,5.537075439453125,0.3475491168230772,0.0482633879095315,0.6784556533377617,-0.26429476404772934,0.7166380498270595
1789141180872048400,5.54704833984375,1.0002069696247575,0.2284358306646347,-0.2133624724343419,-0.7476026950948323,0.7343096524951996
1789141180882020400,5.557020263671875,2.482692429035902,-0.596020604300499,0.7152426115304231,-0.9495894709019955,2.4756522550721556
1789141180891992300,5.566992431640625,0.655499213707447,0.2755547247141599,0.671360726640746,-0.6258140887788599,0.7514596310147695
1789141180901964500,5.576964599609375,0.2690788066983223,0.9084937315672637,0.264371907649003,-0.9101430414027111,0.37322434841714236
1789141180911936300,5.586936279296875,0.6263520296782255,0.154629420697689,0.8665336815856397,-0.5176692907556384,0.9482226793102202
1789141180921909200,5.5969091796875,-0.0873345845818519,0.0788870742321014,0.2864973763478919,-0.02665997182076839,0.3085781792378184
1789141180931881500,5.606881591796875,-0.9619032501935958,0.1316612175643444,-0.0416406087689101,0.4400787708534114,0.8664047291458681
1789141180941853200,5.616853271484375,-1.0782423954635858,-0.5949345626294612,-0.3899020751124247,1.1172820122256135,0.6482733455265758
1789141180951825400,5.626825439453125,-0.5845984620541333,-0.523076364120841,-0.964886942179501,0.8006895201686516,0.9514553841450154
1789141180961797400,5.63679736328125,-0.585538957774639,-0.5225006100594997,-0.9634867199927568,0.8006947982105139,0.9502932485845541
1789141180971770400,5.646770263671875,0.539128504255414,0.0680833561450243,-0.4045894296998157,-0.3461504781436514,0.5823807522492427
1789141180981742300,5.656742431640625,0.6219184311449527,-0.3869698575854301,-0.5945341286024078,-0.011608965970134666,0.9433261724661391
1789141180991714600,5.666714599609375,-0.0392833781182765,0.096394673871994,0.2446545595377683,-0.06668207922356754,0.2573800123558798
1789141181001686300,5.676686279296875,-0.1179454114228487,-0.1422211900234222,-0.61608607172966,0.2085448610488648,0.6084480879062542
1789141181011658500,5.686658447265625,-0.6547071865469217,-0.1743675558686256,-1.0554407810688018,0.5575578528293997,1.123445605157266
1789141181021631500,5.696631591796875,0.0756383015692234,-0.7652075426608324,-0.5318436444768682,0.6071818200858956,0.71095121881668
1789141181031603500,5.706603515625,-0.9702753572195768,0.0596393529266119,-0.9306942382637412,0.5395755020993664,1.2328994946534062
1789141181041575400,5.716575439453125,-0.1490706175267696,0.1571761825710535,-0.7193249124079942,-0.01570530105019871,0.7510712845709872
1789141181051547400,5.72654736328125,0.3914811975300312,-0.1177314764112234,0.4526747941613197,-0.14380677576140924,0.592749786226545
1789141181061519400,5.736519287109375,0.2386673018217086,-0.093293200725317,0.2104584215559065,-0.06736765777641389,0.3246845363579123
1789141181071492400,5.746492431640625,0.3499713755339383,0.3092489045232534,0.1404472026208415,-0.45865631431642206,0.165754790891981
1789141181081464300,5.75646435546875,1.1438222443550825,-0.0532721559822559,0.383743589015305,-0.6215618170120468,1.0354164857812174
1789141181091436300,5.766436279296875,0.5697054288268089,0.2927268087893724,0.5400594649625942,-0.5859233877224586,0.5988416064655736
1789141181101408500,5.776408447265625,-0.2280927163153886,0.4530202465981244,0.6716199620988219,-0.269557811521523,0.7972863919579387
1789141181111380200,5.786380126953125,-0.7043833638638257,0.1609317357122898,-0.1507804901845753,0.27404471108958395,0.6853387479134798
1789141181121353500,5.796353515625,-1.6503718365669249,-0.0384410820752382,0.3787257973859086,0.9543103794166246,1.3992604636263009
1789141181131325400,5.806325439453125,-2.1842308759868145,0.6200321790069341,0.7046247714042663,0.7034781216653554,2.2708850749064586
1789141181141297400,5.81629736328125,-1.864071870392561,0.1939817723989486,0.3988413875671103,0.8839245612109329,1.7000425549192513
1789141181151269400,5.826269287109375,-1.0090385108560322,-0.3149655286043882,0.3339938715381547,0.8189143593400706,0.7471901892365075
1789141181161241300,5.836241455078125,-0.9974304906487464,0.1151788693189621,0.5741286886291578,0.44919425058616413,1.0658245784184022
1789141181171214300,5.84621435546875,-0.4676163427054882,0.4316822750151157,-0.0132970327401533,-0.08852168098591984,0.6303612881535496
1789141181181186600,5.8561865234375,1.2827695272743702,-0.054704234611988,0.2911140032978728,-0.6956410536073111,1.1177303345800447
1789141181191158300,5.866158203125,0.9558616319417952,0.4860679451972245,0.6056685399485752,-0.9668892729947746,0.762819127197109
1789141181201130000,5.8761298828125,1.091770570078492,0.0576946485996246,0.5637989447293803,-0.6903815877731879,1.0181032184942176
1789141181211102000,5.88610205078125,0.352180283755064,0.3705553138792514,0.5823753061119467,-0.5279667946469419,0.5672338616736182
1789141181221075000,5.896074951171875,0.3564046234518289,0.3674339669883251,0.5860455555899068,-0.5279487731822784,0.571621782157247
1789141181231047000,5.906046875,-0.5735241103321314,0.4556201999634504,0.0141785648150369,-0.049109702893570195,0.7309643907393277
1789141181241019100,5.91601904296875,-0.5290998621940612,-0.0816191295444965,-0.0931796208156272,0.37147815308316734,0.3966040468762754
1789141181250990800,5.925990966796875,-1.3944751675248146,0.5821621748179197,-0.3529344631232321,0.3280904939565596,1.5167047021973377
1789141181260963800,5.9359638671875,-1.527576647025347,0.0612315905541181,-0.2839822517218068,0.8291081775745812,1.3154715007900903
1789141181270936000,5.94593603515625,0.1314630646437406,-0.4615168567866086,-0.7806007804952562,0.335810108855945,0.8525546878433529
1789141181280907800,5.95590771484375,0.6403560051113367,-0.5202057771205901,-0.7583350265428423,0.09396514487507285,1.116652330791517
1789141181290880000,5.9658798828125,0.5736895300269127,-0.7073188327938318,-0.3805359155477956,0.2705269153832104,0.9492325211255527
1789141181300851700,5.975851806640625,0.9477385312408207,0.3642401393830776,-0.3990868502281606,-0.8219740361432131,0.7172922700460267
1789141181310825000,5.985824951171875,1.3435925370275974,-0.0481634346663951,-0.2091509191539138,-0.7155788942827,1.1572603747796757
1789141181320797000,5.995796875,0.7133803247898817,0.1521720906734466,-0.5034122805668041,-0.5103315743479743,0.7246057144587209
1789141181330769000,6.005768798828125,-0.2110498115777969,0.1300584585428237,-0.168892923849821,0.01979530307111106,0.29931620622415894
1789141181340740900,6.015740966796875,-0.6031663844019174,-0.0882458542078733,0.4737549550583586,0.39634690615826,0.6625329467116949
1789141181350713000,6.025713134765625,-0.496813211095333,-0.6784504657059908,-0.0383597239347174,0.8414560137801379,0.023273298629975337
1789141181360685800,6.035685791015625,-0.1184293955475091,-1.0327677614897488,-0.2139190103385597,0.9246530426698725,0.5209729979258721
1789141181370658000,6.045657958984375,-0.3729997844219208,-0.5399164397627115,0.0604360562622547,0.6532894320070002,0.08662583927066211
1789141181380630000,6.055630126953125,0.5022118552684783,-0.3549433187276125,-0.697095398812741,0.034195892591986965,0.9289640160185485
1789141181390602000,6.06560205078125,0.6697983726948499,0.935984965083003,-0.1704753707356751,-1.1430684713174826,0.21714980274796158
1789141181400574000,6.075573974609375,1.7388433162242174,0.1639975530236959,-0.2182548110531643,-1.1141932150920322,1.3626004248370565
1789141181410546700,6.085546630859375,1.5804869839578866,-0.2788993589669465,-0.0850731059232726,-0.6655254421894546,1.4628866251498898
1789141181420519000,6.095518798828125,0.6005751988649368,0.1021048682123422,0.0020603665959089,-0.42528897284485434,0.43617600609317847
1789141181430491000,6.105490966796875,0.0784802469968795,-0.0921919614851474,-0.6701631143540143,0.05796641600212583,0.6785403461753106
1789141181440462800,6.115462890625,0.042320553857088,-0.5867781441807747,-0.2574481728004291,0.4684987170652156,0.43919031586947743
1789141181450434800,6.125434814453125,-0.806253254276514,-0.5232072970241308,0.2372377804752439,0.8786933205729872,0.45603727759471996
1789141181460408000,6.135407958984375,-1.126200662946701,-0.2529261287987232,-1.0691400014016776,0.8906067413520844,1.2969886409317923
1789141181470379800,6.1453798828125,-1.1244260544896123,-0.2549222710520029,-1.0591589978743343,0.8908397847084879,1.287455466046141
1789141181480352000,6.15535205078125,-0.1753004528045654,0.3478425468116998,0.3904367299783974,-0.20187344199312432,0.5132374106200832
1789141181490323700,6.16532373046875,0.4712058916300535,0.3862339445263147,-0.798115394397825,-0.5532960206188109,0.8378922058077722
1789141181500296000,6.1752958984375,0.1944581577390432,0.1853419543474912,-0.6299593334551901,-0.23764453813649944,0.6422923403356195
1789141181510269000,6.18526904296875,0.5037205062657595,0.1576046371161937,-0.2869016828324645,-0.4043093500581778,0.44431981178065205
1789141181520241000,6.195240966796875,0.1465326234817504,0.1546627384454011,-0.4709021594431251,-0.19155501963197352,0.48004988348073535
1789141181530212900,6.205212890625,-0.2198813528090715,-0.5851110877513885,0.1176855183776467,0.6011317096424021,0.2078300825698209
1789141181540185000,6.21518505859375,-0.646752428150177,0.0510521418452262,0.2907307396013289,0.3139486406021626,0.6378523642021913
1789141181550156800,6.22515673828125,-0.7539853069007396,0.1531944194585084,0.2819309086825698,0.2912902756271969,0.7658964589101083
1789141181560129800,6.2351298828125,-0.8802432041168212,0.1573053619086742,0.2745516851514578,0.35995541899192607,0.8633561254991586
1789141181570102000,6.24510205078125,-0.6038280631810427,-0.2090168444454669,0.2919927954263985,0.5032481716932111,0.4902014294300585
1789141181580073700,6.25507373046875,-0.295797302275896,-0.3141828537940979,0.3133056325681507,0.4137836403232208,0.33637840009681624
1789141181590046000,6.2650458984375,0.3900210618495941,-0.3964630775958299,-0.8667117415662854,0.13885620819013467,1.020395804087298
1789141181600017700,6.275017578125,0.6350865402758121,0.4785048164665699,-1.0738353926762938,-0.7112353391278673,1.1311801430192823
1789141181609991000,6.284990966796875,0.8668880479812622,0.1241378363221883,0.0135313164200633,-0.5951938209557053,0.642520429371491
1789141181619963000,6.294962890625,0.7793471271723509,-0.3887304375171661,-0.5288201684698463,-0.10225164174745649,1.0137498064239077
1789141181629934800,6.304934814453125,0.7822942865401507,-0.3914519714355468,-0.5215743620600551,-0.10197938866099526,1.0133405232895911
1789141181639906800,6.31490673828125,-0.8961118043780326,0.3932002764075994,0.4870036916773766,0.1666039792127239,1.0802955767430251
1789141181649879000,6.324879150390625,-0.7493418650090694,-0.5927005199670792,0.8286547634378075,0.8798202336711941,0.9085109853025722
1789141181659851800,6.334851806640625,0.0489478630423545,-0.5880833815604448,0.918177797974646,0.41880092227867577,1.0079157768167344
1789141181669824000,6.344823974609375,-0.5931430030375718,0.4526660263329744,0.8588030142683535,-0.06930306499076377,1.1355460606896621
1789141181679796000,6.3547958984375,0.1045358947515487,0.1526946532428264,0.3663985595259815,-0.1995493108974586,0.3587079415952726
1789141181689768000,6.364767822265625,1.3853952044904232,-0.4023907140791416,0.8491755734190344,-0.49052017247084445,1.6005396821987583
1789141181699741000,6.374740966796875,0.8511667472362517,-0.2118015067279338,1.2051632866330444,-0.35780604132483895,1.4469754987879282
1789141181709713000,6.384712890625,0.9325725262910128,-0.0094394439965486,1.2733803521603344,-0.573109250565344,1.4706542517125405
1789141181719684900,6.394684814453125,0.935738881367445,-0.0123918640613555,1.2806295926362274,-0.5727719392420401,1.4790893385966428
1789141181729656800,6.40465673828125,0.5844131686151027,-0.3514648289620876,1.9420697406999765,-0.12089594681158242,2.054771355999275
1789141181739628800,6.41462890625,-0.105523736745119,0.3071095544070005,0.7817889673665166,-0.2236955932874621,0.8164593121916697
1789141181749601800,6.424601806640625,-1.1019289759993554,0.7894546796888112,0.9457321598544716,-0.06044636636463341,1.6517389970591199
1789141181759574000,6.434573974609375,-2.1208932530641555,0.6583832447111606,1.1271231846190988,0.619073072986292,2.4122213603686253
1789141181769545700,6.444545654296875,-1.115948733523488,-0.3164700879484415,0.60975423835963,0.8698793617269247,0.980104596284428
1789141181779518000,6.45451806640625,-2.215983274078369,0.2970312279850244,0.3211063694469631,1.0023206378096443,2.0241719445031485
1789141181789490000,6.464489990234375,-1.4217688326418398,-0.241221662479639,0.4963191439680754,0.9863592515196216,1.1632036036447084
1789141181799463000,6.474462890625,-1.3671230502188203,0.0910766937196254,0.4675503647971898,0.6833500832639682,1.2763057650514718
1789141181809435000,6.484434814453125,-0.1535918943434953,-0.0783493140935897,0.6365561744369566,0.12622369572553133,0.647302423043635
1789141181819407000,6.494406982421875,0.6547463495135307,-0.168010880318284,0.7336414609216153,-0.2633234967752284,0.9621907125595671
1789141181829378800,6.50437890625,1.104057804721594,0.5276484943419695,0.2450241235025227,-1.0708592504426564,0.6408227965573513
1789141181839351000,6.51435107421875,1.2674550537645817,0.655911301639676,0.7394293966732919,-1.2888960318681075,0.9602941219393711
1789141181849324000,6.524323974609375,1.2847680076152086,-0.2886410007804632,0.1786599193003028,-0.5000151251010624,1.2311972637062105
1789141181859295700,6.534295654296875,-0.1954056677222251,0.6880775412291288,-0.2937372279409319,-0.44272191809173117,0.6339660401326663
1789141181869268000,6.54426806640625,-1.0141542464345692,0.7101631163090467,-0.0437985905203968,-0.005595075416599649,1.2388411919974656
1789141181879239700,6.55423974609375,-0.7771820580929517,-0.2812450453102588,-0.1133121986642479,0.6773275236270457,0.48700904204803586
1789141181889212000,6.5642119140625,-0.2568207981497049,-0.7961030316621065,-0.3922933906957507,0.8159213286892038,0.43347831451811014
1789141181899185000,6.574184814453125,-0.8430699500203133,-1.134977259120345,0.36356655097045,1.39735913718273,0.42250254208000837
1789141181909156900,6.584156982421875,-0.1716454374283552,-0.7093079607844353,0.1651109941583126,0.6738980094953445,0.3251200587664566
1789141181919128800,6.59412890625,0.5774889223098755,0.102625677216053,0.1490038359008729,-0.4184728988107772,0.4371590798425148
1789141181929101000,6.60410107421875,1.2095686819851397,0.1555909592062234,0.3241368231840431,-0.8281985726813351,0.9520592142185399
1789141181939072800,6.61407275390625,1.5812912860780954,0.0714285749197006,-0.1021769836004823,-0.9532223789284919,1.2678294069113463
1789141181949046000,6.6240458984375,0.4602542895048856,0.360761065095663,0.4459234932702034,-0.5758768983409381,0.45737962012329125
1789141181959018000,6.63401806640625,0.1422153448045253,0.239472188463807,0.7041426869757473,-0.3057850896755158,0.6927369889785568
1789141181968990000,6.643989990234375,0.6350894628852606,-0.5539373663306236,0.3174181824535131,0.08166966422976796,0.8968107939704366
1789141181978962000,6.6539619140625,0.1315185942232608,0.1579611954689025,0.6242533038333058,-0.2295208848955591,0.6158418876984455
1789141181988934000,6.663933837890625,-0.6372603771835565,0.1261953533738851,0.6534216767810285,0.232295413699748,0.8916416230766049
1789141181998907000,6.673906982421875,-0.3759463592678308,-0.4985340435385704,1.2028197191815824,0.5752776614100606,1.2270707994033132
1789141182008878800,6.68387890625,-0.2085463043242693,0.00372983417809,1.6396858996406196,0.049886802989428214,1.6521460677186106
1789141182018850800,6.693850830078125,-0.0846948837280273,-0.0737345137745141,0.8724779769428074,0.07384599411139674,0.8765697868710635
1789141182028822800,6.70382275390625,-0.2876899836659431,-0.6299895093977451,0.5381518412429839,0.6597383333131359,0.5779316953095249
1789141182038795000,6.713794921875,0.1179237841129303,-0.9273317030280828,0.0674462272852659,0.6924359533151376,0.6316102836655287
1789141182048767700,6.723767822265625,-0.5852659860521554,-0.0326274273604154,0.5374204582285136,0.33791804648175683,0.7198839949813162
1789141182058740000,6.733739990234375,0.1130138002395629,-0.4339467128157615,0.7443537013329565,0.26266381630002583,0.8283429367737564
1789141182068712000,6.7437119140625,0.8101397403210401,-0.4089730150789022,0.3944710269957781,-0.1400289080946861,0.9795839024540389
1789141182078684000,6.753683837890625,1.0366729522347449,0.16374737765491,0.3622771687470376,-0.7381753160814949,0.8293647950735044
1789141182088656000,6.76365576171875,0.3150882782012224,0.670592737942934,0.5402388035848736,-0.7517952552246915,0.5250115259325915
1789141182098629000,6.773629150390625,0.780066673618555,0.7504910350441932,-0.0408588107414543,-1.0584614464166964,0.23036843932427692
1789141182108600800,6.783600830078125,0.2914069583624601,0.4424865776240825,0.6478572475869209,-0.5551672652245885,0.6262752650659981
1789141182118573000,6.793572998046875,-1.7810662549257277,0.152193717983365,-0.1500170315314084,0.8930438617858673,1.555743456648569
1789141182128544800,6.803544677734375,-1.2101771692723036,-0.3352595440924167,-0.4578999814637005,0.9815566103599438,0.907274355758023
1789141182138517000,6.81351708984375,-1.400030463564396,-0.5782774423390626,-0.2951291937559843,1.2826657637661467,0.8581141408319819
1789141182148490000,6.823489990234375,-1.5428607253968716,-0.2960691049546003,-0.1714321600038558,1.1269480814343131,1.1079048425365272
1789141182158461700,6.833461669921875,-1.0366004715204238,-0.4886176296800374,-0.3898627294827252,1.0062379118564588,0.6728788436063188
1789141182168434000,6.843433837890625,0.6981336558192968,-0.8609329389691353,-0.5256858890321106,0.33186302088422504,1.1810202013880737
1789141182178406000,6.853406005859375,0.6817781488239765,-0.0536105941563844,0.2704680690996349,-0.35418815421278566,0.6445147537779672
1789141182188377900,6.8633779296875,1.0150918195456269,0.4060369616270065,0.0123267629358917,-0.9110498363964483,0.6044977758455568
1789141182198351400,6.873351318359375,0.9985194549292326,0.4115332209557295,-0.3917239202447235,-0.8899945002237896,0.7264696229613944
1789141182208323600,6.883323486328125,0.8314309501528739,0.1946884593635797,-0.2252270246859639,-0.6234818003787774,0.6254427858140225
1789141182218295300,6.89329541015625,0.8339245205342769,0.1939490391731262,-0.2375956540022045,-0.6237965903932806,0.6327525933245595
1789141182228267500,6.903267578125,-0.0769721805214881,1.2121224581211805,-0.1977669900260865,-0.944557779407685,0.7887255249834169
1789141182238239500,6.913239501953125,-0.4460884015083313,0.6198118142545223,-0.1538535774869844,-0.24975346847037888,0.7378723977371017
1789141182248212200,6.923212158203125,-1.302977033522725,0.1204097557097673,0.6643983402822167,0.6149193263527892,1.332496542511598
1789141182258184400,6.933184326171875,-0.7160498362600803,-0.4190682926356792,0.614945523392409,0.7267429693629452,0.73372219206084
1789141182268156400,6.943156494140625,-0.6282856280893087,-0.1578197411715984,-0.0335255452439188,0.488084411075168,0.42725574427543495
1789141182278128400,6.95312841796875,-0.8400169921904802,0.483411293208599,-0.0262866069663316,0.08110785282355676,0.9661405319551115
1789141182288101400,6.963101318359375,-0.8411451194375753,0.4852326634168624,-0.0421155693368986,0.08088488817752942,0.9686109671304339
1789141182298073600,6.973073486328125,0.296401697909832,-0.431476523309946,0.1091326479572802,0.18181723406881697,0.502870147192297
1789141182308045300,6.98304541015625,-0.4751175121158361,0.4325941291630268,-0.0621915946926921,-0.08305348037064869,0.6401907877767389
1789141182318017500,6.993017578125,-1.0729466271430252,0.7625286788403988,0.2803359311087057,-0.028182380088022096,1.3455327712377865
1789141182327989200,7.0029892578125,-1.1523866590827705,0.3951706996977329,-0.1083184454975649,0.3344206807949536,1.1764567938616335
1789141182337962500,7.01296240234375,-1.270923606657982,0.1779851618438959,0.1202696165867149,0.5711404318223332,1.1555037514473265
1789141182347934500,7.0229345703125,-1.3396926069796085,0.5602864430963993,0.3356935881281271,0.28740507381299335,1.462458781699614
1789141182357906400,7.032906494140625,-1.2092413497269152,0.907329363963008,-0.0573362270833924,-0.05623623385582166,1.5118320493813986
1789141182367878400,7.04287841796875,0.4043769194602966,0.1201437982499599,-0.0020541925834491,-0.32845621872194464,0.2647186380672472
1789141182377850600,7.0528505859375,0.2274175935328006,-0.3672136022359132,-0.0915629793992266,0.17622752340505937,0.40483605410870716
1789141182387823400,7.0628232421875,0.7327431969076394,-0.4325970517724752,-0.3778240262405947,-0.0457525370029912,0.9298981137625287
1789141182397795300,7.07279541015625,0.3806044142067432,-0.2436380759716034,-0.2216075920797884,-0.007187588473109463,0.5032668234804932
1789141182407767600,7.082767578125,0.3649637774825096,-0.9780372233927248,-0.1008136593580246,0.6004509217357222,0.8598706028908831
1789141182417739300,7.0927392578125,0.6162637663841247,-1.1523989340424536,-0.7786783610653132,0.6280495214604196,1.3855317107611904
1789141182427711500,7.10271142578125,-0.160869776391983,0.2236854212671518,-0.9902547538004814,-0.052829627261223824,1.026512425912011
1789141182437684500,7.1126845703125,-0.539296262037754,0.4612111518383026,-0.9022111441664398,-0.03651592858699515,1.147260964404112
1789141182447656400,7.122656494140625,0.1125719016909599,0.6285720438152551,-0.1500142915850505,-0.574577446418018,0.31644951108181607
1789141182457628400,7.13262841796875,0.3496142326593399,-0.0512321745872497,-0.4106563285233452,-0.14015059830124954,0.5233080138341022
1789141182467600400,7.142600341796875,-0.0748936206817627,-0.0865220991551876,-0.8815640774570405,0.14891685459680265,0.8763983803845836
1789141182477572400,7.152572265625,-0.5019114110171795,0.6331745691746473,-0.3214620510168373,-0.22231188210704828,0.8406785217172673
1789141182487545600,7.162545654296875,0.2841495345801115,-0.382212433925271,-0.9783611215848476,0.19177182865021292,1.0710935312166197
1789141182497517300,7.172517333984375,0.7037251922160387,0.29744974565804,-0.7697689322922379,-0.61359447019002,0.8942882827288379
1789141182507489500,7.182489501953125,0.134976041200757,0.6568950519800186,-0.5104620529478415,-0.5961752988118282,0.5957148324495641
1789141182517461500,7.19246142578125,1.3307611125051977,-0.7536883697807788,-1.097749936749041,-0.09290959093151707,1.8802643507880326
1789141182527433500,7.20243359375,0.5263982020199298,-0.3313759806573391,-1.257777563228458,0.023499665350161514,1.402981565073389
1789141182537406500,7.212406494140625,-0.3470557803481817,-0.1961830818355083,-0.24540269275764,0.36827052907081603,0.2890239009185313
1789141182547378400,7.22237841796875,0.0493090975701808,-0.5081956058531999,-0.5131728828091174,0.41016726414710336,0.596492568255789
1789141182557350400,7.232350341796875,0.2118599589169025,-0.2996259206533432,-0.3357585431231185,0.13928379057604437,0.47748733960447864
1789141182567322400,7.242322265625,-0.9220996475934982,0.7650871311515569,-0.8452177026387303,-0.07100472463942442,1.464574126590575
1789141182577294300,7.25229443359375,-0.6044044017642736,0.2014116301387548,-0.0994359412640333,0.18190746061965377,0.6186020593347175
1789141182587267300,7.262267333984375,-0.5281891770899295,-0.1634574547976255,-0.1172102198829408,0.439181836023346,0.35575229707765044
1789141182597239600,7.272239501953125,-0.3561491873860359,0.0412970560282468,0.4105683945115655,0.15203311013287893,0.5234501222728507
1789141182607211300,7.282211181640625,-0.6896633491158485,-0.4622919328123331,-0.6416722753416747,0.7975151299840613,0.6819547585036116
1789141182617183500,7.29218359375,0.498767852294445,-0.9566852232843636,-0.3968912033474072,0.5187032414455088,1.0259071895359448
1789141182627155500,7.302155517578125,0.495920061647892,-0.9547241523444652,-0.4029694272825494,0.5189528382106945,1.0249425474884908
1789141182637128400,7.31212841796875,0.9885235460937024,-0.8669634513050317,-1.00299769632183,0.19088312380337835,1.6426723468039395
1789141182647100400,7.322100341796875,0.4010720326960086,-0.2950602201730012,-0.2839579027318396,0.02593644192131475,0.5726069336322913
1789141182657072600,7.33207275390625,-0.2171311773180961,0.8023919026732445,-0.6767847244508564,-0.5090121995015277,0.9433572269547579
1789141182667044400,7.34204443359375,0.35947979311347,0.1851420478612184,-0.4132262155439704,-0.33992285155268326,0.4676661840974107
1789141182677016600,7.3520166015625,0.1953308489203453,0.1355909582287073,-0.946520752948895,-0.18459474920248692,0.9583138122886135
1789141182686989600,7.361989501953125,-0.320085355836153,0.2355155597925186,0.1038663888589944,-0.015820437109834384,0.41043897771703125
1789141182696961300,7.371961181640625,-0.172686470913887,-0.3365647814720869,-1.1632651959717273,0.42125521794011467,1.148401683593948
1789141182706933500,7.38193359375,-0.3682867844253778,-0.5932037933140992,0.0286016401597647,0.6956792201309501,0.06613903901965289
1789141182716905500,7.391905517578125,-0.8601403272867202,0.1541150414347648,0.2123188268666155,0.35364177646906614,0.8268068739428599
1789141182726878500,7.40187841796875,-1.067318265867233,-0.0583171644121408,-0.0133790770089079,0.6549905271137624,0.8448287290402455
1789141182736850400,7.411850341796875,-0.4521680136829614,-0.4989139827668666,-0.5668262931939214,0.6896593142987908,0.5468392374868277
1789141182746822400,7.421822509765625,0.4566846143245697,-0.693416564169526,-0.1672659254361875,0.3170645658150092,0.785388642228811
1789141182756794400,7.43179443359375,0.3922749782562255,-0.1458195067763328,-0.3798866213262081,-0.08788531881933909,0.558330549872636
1789141182766766600,7.4417666015625,0.6426350559592247,-0.1052215389281511,-1.4193370754502712,-0.22196424003181103,1.5457363932110009
1789141182776738300,7.45173828125,0.7016460478544235,0.4673521388113498,-0.1731491017232649,-0.7759048199593781,0.3723943070357732
1789141182786711600,7.461711669921875,0.7028916640013456,0.4665045820713043,-0.1731923563431017,-0.7759143578925306,0.37367862920964684
1789141182796683500,7.47168359375,0.4280512250363826,0.3053852148324251,-0.7012950424596667,-0.46619649194194746,0.7422691884841521
1789141182806655500,7.481655517578125,-0.285407425686717,0.0641296500831842,-0.0967481178190093,0.11335094224938376,0.28649916727559316
1789141182816627500,7.49162744140625,-1.5008569824039937,-0.0605979688256978,-0.3731138392556458,0.9176158140676615,1.2463703102503898
1789141182826600400,7.501600341796875,-0.9136322634994984,-0.0624158319026231,-1.1587546597447245,0.6168186587358098,1.3419637672809137
1789141182836572400,7.511572509765625,-1.0476187091410158,0.8810545204997062,-0.4812106048265471,-0.1095397449641764,1.4468333415794545
1789141182846544400,7.52154443359375,0.3667132514983415,0.1729091737538576,-0.5297651211697608,-0.32932008528852735,0.5801513218344814
1789141182856516400,7.531516357421875,0.6197457632809877,0.1142629235178232,-0.9669839144587516,-0.4074306142600064,1.0799069460751043
1789141182866488600,7.541488525390625,0.1210533143103122,0.4513064284175634,-0.0412321740984916,-0.4380574228656414,0.16774141912398813
1789141182876461600,7.551461669921875,0.5931131924211979,0.3570540272712707,-0.4571060180744156,-0.612224780788806,0.5598192270390904
1789141182886433300,7.561433349609375,-0.1642576652646064,0.2349994269639253,-0.6284566738072782,-0.07466859648397588,0.6867224350664347
1789141182896405500,7.571405517578125,-0.9453718021094798,0.1051198321193456,0.6234076467894017,0.4259077017966624,1.0545225208378954
1789141182906377500,7.58137744140625,-1.6006979973375797,-0.2085702697217464,0.4976764768611639,1.0611501480747605,1.3142974834314318
1789141182916349400,7.591349365234375,-1.9423019420206544,-0.1808013883084058,0.4447925530115142,1.2345659652856062,1.5744564994195211
1789141182926322400,7.601322509765625,-1.608205596488714,-0.6520639785617589,1.1338668136604129,1.4044738562078263,1.5246703942375697
1789141182936294700,7.611294677734375,-0.2383411386072635,-0.9879092135876416,0.1264970397341996,0.9423169361877729,0.40101297420303456
1789141182946266400,7.621266357421875,-0.4713911850690841,-0.0492079752832651,-0.3565272634508088,0.32257551635606835,0.4976824288877921
1789141182956238600,7.631238525390625,-0.1558557476222515,0.8275064701855183,0.2866036314676515,-0.6029928032948146,0.6539107683857893
1789141182966210300,7.641210205078125,-0.1581950042247772,0.8291086446851491,0.2856302381245419,-0.6029413296820219,0.6561197984710414
1789141182976183300,7.651183349609375,1.176746024313569,0.3385293595433234,-0.4730180921511724,-0.9280256103253877,0.9283576439568592
1789141182986155500,7.661155517578125,0.6377975528001785,0.0060959787875413,0.0075315051831072,-0.367753377462719,0.521188119828494
1789141182996127500,7.67112744140625,0.5317056607782841,0.3291378463417291,-0.3408805257793516,-0.559032165092675,0.44127678711387797
1789141183006099500,7.681099365234375,0.806557205659151,0.4947019180297851,-0.9643657678496091,-0.82636598944583,1.0688241667320342
1789141183016071700,7.69107177734375,0.1722638615876436,-0.1902647977024316,-0.7859558047223836,0.08990458114429695,0.8218997654944988
1789141183026044400,7.70104443359375,-0.2277887649327516,0.5135568406254053,-0.281887654062733,-0.28136011880781225,0.5620724891330131
1789141183036016400,7.711016357421875,-0.721809714961052,0.5497890144795179,0.169580504255183,-0.04845102221485453,0.921784828972734
1789141183045988400,7.72098828125,-0.6533990265578031,-0.078570847889781,-0.4788049684569239,0.45502678315527073,0.6747655077693332
1789141183055960300,7.730960205078125,-0.194451143476367,0.4051356288731098,-0.7742888208694756,-0.19150947611768693,0.8745246844213426
1789141183065932500,7.7409326171875,-0.1901286041021347,-0.1137859536558389,-0.9814767693873494,0.24080368472664487,0.9769372362727782
1789141183075905300,7.7509052734375,0.3861684780746698,-0.6620008506864309,-0.865251459755376,0.35922444639411855,1.0986305591461185
1789141183085877500,7.76087744140625,-0.1176595802187919,-0.0526280128598213,-1.6801307227537037,0.17729168352331376,1.6757148889501423
1789141183095849500,7.770849365234375,-0.1614589744567871,0.278766087976098,-0.5117220994789153,-0.1168968176425563,0.5932741131705368
1789141183105821400,7.780821533203125,-0.1589391005903482,0.1718698938339948,-0.4488444222182035,-0.03298810742842895,0.505147501456417
1789141183115793400,7.79079345703125,-0.2773006915986538,0.2690723769575357,0.1111142867611721,-0.06800284352737396,0.39625448337817626
1789141183125766400,7.800766357421875,0.0809609578967094,0.574863834503293,0.6598350509546697,-0.5448524962840804,0.6895949221715164
1789141183135738400,7.81073828125,-0.5396931524008513,0.0414268198877573,0.7124423863526433,0.2441595950322032,0.8607816948448316
1789141183145710600,7.820710693359375,1.068159977388382,-0.5571148273229599,0.1062988858360797,-0.15337942717076597,1.199631973802049
1789141183155682300,7.830682373046875,0.8078110051125288,-0.4084849393010139,0.359778191538155,-0.13771958384519783,0.9643091977932379
1789141183165654500,7.840654541015625,1.0753858369886875,-0.268963655886054,-0.6331686508905142,-0.3647425112223688,1.2233812110544962
1789141183175627500,7.85062744140625,1.4140800317049025,-0.5465215371161699,-0.2171720938503742,-0.34572905777195884,1.4919595381771678
1789141183185599200,7.86059912109375,0.9307207609444856,-0.4940741415202617,-0.4974988187393173,-0.10294652053632802,1.1607142114786677
1789141183195571500,7.870571533203125,-0.127708096024394,0.4521656755954027,-0.0837684804649557,-0.2956988933637963,0.37462311562376494
1789141183205543200,7.880543212890625,-0.5499667091339826,0.3708370534300804,-0.3432654116218909,0.02147544230316034,0.7465610822606524
1789141183215515400,7.890515380859375,-0.93662443203032,-0.0765729520708322,0.0631441598769044,0.5926652320338945,0.7320272203475302
1789141183225488400,7.90048828125,-1.3630407493412493,-0.8515735744714736,-0.1476575723910704,1.4803629528763262,0.6429509495588173
1789141183235460400,7.91046044921875,-1.894825320574641,-0.0839449421435594,-0.4144002277594059,1.1623356694411298,1.5550283242160463
1789141183245432300,7.920432373046875,-0.7541285147637128,-0.4708417344927788,-0.1190787445680238,0.8202810878475566,0.362933106849482
1789141183255404300,7.930404296875,-0.159950323459506,-0.6166320151746273,-0.4197043255168944,0.6144668621306675,0.45210766893960663
1789141183265376300,7.940376220703125,0.5714180779635906,-0.2415221067309379,0.1362640899836085,-0.1316691896258488,0.6213555138450836
1789141183275349500,7.950349609375,1.3003420088440178,0.1080365963488817,-0.6430026471626014,-0.8020303842829652,1.213573612542799
1789141183285321200,7.9603212890625,1.2995347841143607,0.1085878004908561,-0.6431459280908107,-0.8020189504692345,1.212841396657707
1789141183295293400,7.97029345703125,1.0768366203188895,0.1609112774461507,0.3370940660431981,-0.757661397011018,0.8514993616615393
1789141183305265400,7.980265380859375,0.3174287038475274,-0.0209925191462039,0.437106236292608,-0.18060915411325196,0.5095526107702814
1789141183315238100,7.990238037109375,-1.365693309676647,0.7894073334157466,0.5449705813471227,0.10550572527443769,1.665576065694464
1789141183325210400,8.00021044921875,-0.6084031160116196,0.353804670086503,0.0886942920951172,0.051410764325227176,0.7074996161902968
1789141183335182300,8.010182373046876,0.0233750303685665,-0.3287923939049244,0.6863012522716074,0.2295009581675941,0.7259404585805885
1789141183345154300,8.020154296875,-0.9715689041614533,-0.2496972298800945,0.8617082341905683,0.7228801296610073,1.1073753840303624
1789141183355126300,8.030126220703124,-1.24384738368392,0.0722989280134439,0.1414402596456464,0.6417675902005886,1.0772758031748337
1789141183365099500,8.040099609375,-0.6160311266720294,0.0371738386183977,0.4661351642370224,0.3008836506953288,0.7124796582281938
1789141183375071200,8.0500712890625,0.9623702831834554,-0.4801110826194286,0.1649897423988208,-0.15889577116890513,1.076400001212408
1789141183385043500,8.06004345703125,0.6601788959562778,0.1573953782796859,0.0360088088604388,-0.505958961468172,0.45377488184721254
1789141183395015200,8.07001513671875,-0.0832645586639642,0.7401327226370572,0.1427123345412314,-0.5666813870649068,0.5039528250065173
1789141183404987400,8.0799873046875,-0.092873514008522,0.2449041503846645,-0.0702939083339646,-0.14569128033067813,0.2287330690223805
1789141183414960400,8.08996044921875,-0.1267185004651546,-0.2698375161111355,-0.156207702865079,0.30002721332936416,0.15249387252399918
1789141183424932400,8.099932373046874,-0.6031506023108959,-0.3300853563249111,0.3787909715766087,0.5988952633381772,0.5074978376576462
1789141183434904300,8.109904296875,-0.769919373613596,-0.253234171834588,-0.1876037435333244,0.6531494325083458,0.515261458923569
1789141183444876500,8.11987646484375,-1.268615914237499,0.6142588563024998,-0.6750187376916408,0.2430667197173909,1.543784034897156
1789141183454848300,8.12984814453125,0.1526584128856659,0.4712883092164993,-0.546558690788783,-0.4522359932711756,0.5827746307928124
1789141183464821200,8.1398212890625,0.0436760601192712,0.4514297625362873,-1.1583668294709175,-0.3495217097182556,1.1938780150355581
1789141183474793200,8.149793212890625,0.0736339760094881,0.8611667477250099,-0.8104262291122227,-0.7172076576115793,0.9430980747019926
1789141183484765200,8.15976513671875,-0.6630512365221977,1.1357833148062229,0.0236643139050342,-0.557618352812868,1.191328020657907
1789141183494737400,8.1697373046875,0.1250572892546653,0.142077982160449,0.2165422715142369,-0.1964938961477727,0.2100147202929445
1789141183504709000,8.179709228515625,0.2558949154764414,-0.2966828529387712,-0.2963581327627412,0.11026583915384938,0.4787196575918933
1789141183514682400,8.189682373046875,-0.6802905406147242,0.6791881323307752,-0.0125756596630439,-0.17111127906131868,0.9460289721476824
1789141183524654300,8.199654296875,-0.4314338532119989,0.6715209587037563,-0.6164448951046914,-0.28208384314926704,0.9682502681696185
1789141183534626300,8.209626220703125,0.4279939418911934,-0.0356862304091453,-0.7537596814513206,-0.1837501670171307,0.8478454191886334
1789141183544598300,8.219598388671875,-1.016861167305708,0.645444852682948,-0.6176143772754817,0.07207570317648604,1.3516132225819024
1789141183554570200,8.2295703125,-1.634332555913925,0.5000374338388442,0.4916347855441272,0.4981224412590114,1.7072372812328875
1789141183564543200,8.239543212890625,-0.6269634395748377,-0.6437082381486893,-0.2796176267715171,0.8965091938944391,0.2861830408813201
1789141183574515500,8.249515380859375,-0.5352279896855354,-0.3404296402066946,0.4312120271548628,0.5667025057736943,0.5168688645942038
1789141183584487200,8.259487060546874,-0.1812275047659874,-0.1913239513665437,-0.4717292213844135,0.2790905731356659,0.46269338999489074
1789141183594459400,8.26945947265625,1.189632978415489,-1.30248311252594,-1.1603663327250628,0.4408305410067117,2.064898869675343
1789141183604431400,8.279431396484375,0.8330424770027398,-0.8994593612402677,-1.1999679099470375,0.3138213197289543,1.686542639603236
1789141183614404000,8.289404052734374,0.3317851459801197,0.171093648764491,0.5507098556514829,-0.35117936304094177,0.5650741719689831
1789141183624376300,8.299376220703126,0.2787596582353115,-0.2958978400409221,-0.8419936990909278,0.11844313253448441,0.9274627175604383
1789141183634348300,8.309348388671875,0.2807014399528503,-0.2974842324495315,-0.8349003798291087,0.11835987205073562,0.9221386836450437
1789141183644320300,8.3193203125,-0.2182178035110235,0.5937532438904046,-0.0149650938165374,-0.36338219548619494,0.5180147280108207
1789141183654292200,8.329292236328126,0.0958317792922258,0.2068979525953531,-0.1886172131584957,-0.21696013535649566,0.20123430491899572
1789141183664265500,8.339265380859375,0.3559077798455953,0.167111885651946,-0.2832516724249347,-0.3282712457704655,0.3564635033388397
1789141183674237200,8.3492373046875,1.3181664193481206,-0.0340758726030588,-0.1795259250124916,-0.7138925701878155,1.1230809544164353
1789141183684209400,8.35920947265625,1.4745219331860542,-0.3571230008542537,-0.6103371162815019,-0.5200175797990496,1.5504337720124146
1789141183694181000,8.36918115234375,0.8939742078274487,-0.3390110055804252,-0.3320379516974091,-0.21612164688314411,0.9887663936852294
1789141183704153300,8.3791533203125,-0.2315419799864292,-0.1817243483722209,-0.4027196172399446,0.29703406235274393,0.4007359270136108
1789141183714126300,8.389126220703124,-1.4676350962817668,0.3286988704025745,-0.183221199333854,0.5711933171733539,1.4033188965961214
1789141183724098300,8.399098388671876,-0.0058510641157627,-0.5411830986976623,0.2708520634485408,0.43727736767863934,0.41840497757276135
1789141183734070300,8.4090703125,-0.0883896465927362,0.0411339744210243,-0.3831240323448553,0.03174081003391219,0.394057455982032
1789141183744042500,8.41904248046875,-0.4940390702068805,-0.5069932443261146,-0.7052178419265895,0.725626771701789,0.6869605122890502
1789141183754014200,8.42901416015625,0.0630424393683671,-0.2231932538360357,-0.3588928235383704,0.16195985367960566,0.39542716434617375
1789141183763987200,8.4389873046875,0.1487614054471254,0.1143383268415927,-1.1458141488246618,-0.1326955402857975,1.1534665864127074
1789141183773959400,8.44895947265625,0.6469622715085744,0.3753969086915254,-0.8470581428736448,-0.6423098796276017,0.9297464900455457
1789141183783931100,8.45893115234375,0.6742243724435567,0.0653057081252336,-0.6876251943517476,-0.40932227618215267,0.874143593489643
1789141183793903400,8.4689033203125,-0.7378881585806608,0.6372410879611968,-0.3712573977340012,-0.08956423507899747,1.0394062929992607
1789141183803875300,8.478875244140625,0.1196615676909685,-0.4517904125422239,-0.3840271186644211,0.318666707565725,0.5141612830681159
1789141183813848300,8.488848388671874,-0.4274731328874826,-0.6943535527586937,0.5266687625896185,0.7925310538043363,0.5604771626147917
1789141183823820300,8.4988203125,0.4293663992881775,-0.6647007572948932,-0.8077734495811164,0.33459715801477774,1.0801505863918741
1789141183833792300,8.508792236328125,-0.1675683972477912,-0.2147363911360502,-0.6945026789058,0.2994774854600007,0.683255510145521
1789141183843764200,8.51876416015625,0.3682166417986154,-0.0041150341033935,-0.1128310640837997,-0.20135372877664523,0.32831075786995717
1789141183853736400,8.528736328125,2.024099935263396,0.062910337421298,-0.6223503197561949,-1.1770592140578733,1.7614737538748186
1789141183863709200,8.538709228515625,-0.0041091888844966,0.7779641483813524,-0.9525815873578192,-0.5989630624971667,1.0741973896529302
1789141183873681400,8.548681396484374,-1.2182757200539112,0.3546124793380498,0.5947375056874007,0.3770871988716559,1.3496161253088057
1789141183883653400,8.5586533203125,-1.1706050373405217,-0.1764969691127538,0.7699013995654881,0.7794963106561517,1.1775402329769198
1789141183893625300,8.568625244140625,-1.4732640420794487,-0.6544564266562461,0.6338263110816479,1.3497495496105063,1.0856942930777262
1789141183903597300,8.578597412109374,-2.037169844716787,-0.4149509204447269,-0.0533028799140825,1.500832051207592,1.439649121722544
1789141183913570300,8.5885703125,-0.9617956981658936,-0.4677162959486245,0.6218127788133919,0.9061010558953326,0.8422835074411201
1789141183923542300,8.598542236328125,0.026561259189248,0.1182359188020229,-0.84233688650541,-0.07858976185974989,0.8473725937762755
1789141183933514200,8.60851416015625,1.426811502984166,0.3101327016204595,-0.6239977216370404,-1.0407558124367078,1.1992388640924565
1789141183943486200,8.618486328125,2.0767834777027367,0.4197837474286556,-0.8087137991711497,-1.4928497526978342,1.70723918438635
1789141183953459200,8.628459228515625,2.2876035721778867,0.2382043604850769,0.0480468590820208,-1.4976736954097911,1.7461825287009256
1789141183963431400,8.638431396484375,1.1599456961601973,0.6519190171331167,-0.2173281611949205,-1.1862668748610443,0.6406831152731829
1789141183973403100,8.648403076171874,0.2745838338553905,0.438880662086606,-0.0599290200555697,-0.5143445365391611,0.08398632356186746
1789141183983375400,8.658375244140625,-0.9273714505165814,0.1475578748762607,-0.4738138456387445,0.4246697108799928,0.962261051197286
1789141183993347300,8.668347412109375,-2.5885551884770392,0.6648860507339239,0.1475781870119273,0.9186521709834631,2.5140701927911744
1789141184003320300,8.6783203125,-3.1157191141724585,0.8956815962672233,-0.0688669808033853,1.0371946552284386,3.0722827064777003
1789141184013292300,8.688292236328126,-1.715180701085925,-0.2469587448269128,0.1944060256930068,1.1698832053729329,1.2930585631115832
1789141184023264500,8.698264404296875,-0.0547831450670957,-0.794300366154313,0.480558314930275,0.6647287810874556,0.6503738973074864
1789141184033236200,8.708236328125,-0.4037485584288835,0.0785299313575029,0.4860628306306898,0.1454634688466352,0.619901042993346
1789141184043208400,8.71820849609375,-0.1891454382836818,0.4338672178387641,0.7353593707554041,-0.27849761284679936,0.8289808461810767
1789141184053181400,8.728181396484375,2.223208549156785,-0.4079635457754135,-0.1489538958119228,-0.9221377824251737,2.069043180077931
1789141184063153200,8.738153076171875,0.856612153160572,0.3070651307433843,0.626020898027718,-0.7641854678427731,0.7974936432136595
1789141184073125400,8.74812548828125,0.2807324196130037,-0.1002840825259685,1.328501643140614,-0.13022859226246797,1.3552950668450374
1789141184083097300,8.758097412109375,-0.0421393520712852,-0.6673556557178497,0.1954044621458277,0.56461288239941,0.4080863794182785
1789141184093069300,8.7680693359375,-0.4279541944026946,-0.2012730984508991,-0.0372176046948879,0.4101023654567518,0.2384467500572956
1789141184103042300,8.778042236328124,-0.6044879883944988,-0.1619762763291597,-0.1088363684244453,0.4809881315051036,0.4148949441120472
1789141184113014300,8.78801416015625,-0.6295487798929215,0.1047083287090063,-0.5048734391605482,0.29188414442312244,0.7596027489220144
1789141184122986200,8.797986328125,0.0362321738541126,-0.1209568681985139,-0.5568585510069504,0.10108558555420556,0.5619755195818684
1789141184132958500,8.80795849609375,0.2247743855476379,-0.1480705005735159,0.2393563069991767,-0.015608344167768157,0.35985583061975573
1789141184142930200,8.81793017578125,0.2195516824632883,0.1379378136157989,0.2694724821910262,-0.24890596692552108,0.27908962715341434
1789141184152903400,8.8279033203125,-0.2754395739018916,0.4937520699590444,0.5513318965399637,-0.27131876047691156,0.7416273025015478
1789141184162875400,8.83787548828125,-0.9359598306417464,-0.0025742344021797,0.1783770107056945,0.5268630001508311,0.7938898968232614
1789141184172847400,8.847847412109376,-0.4982850372135639,-0.4265969345748424,-0.1074257709741592,0.6380631872621174,0.1862487267872606
1789141184182819300,8.8578193359375,-1.6198071869552135,-0.1982283239275216,-0.1144169450357556,1.0879826296739303,1.2216606837244093
1789141184192791300,8.867791259765625,-0.8915496110290289,-0.6897451821804046,-0.2121141894062981,1.0820033579520831,0.38061829697874405
1789141184202765000,8.87776513671875,-0.3571697626054286,-0.0880459477216005,-1.0521731575749813,0.31740010734885615,1.0684792246955734
1789141184212736800,8.88773681640625,0.7931506115972995,0.4257090458244085,-1.1100123292118311,-0.7562209817801246,1.212671959802682
1789141184222709000,8.897708984375,0.3754956928908824,1.2939847487717866,-0.9293871011879294,-1.2397104839199469,1.0687711847477277
1789141184232681000,8.907680908203124,0.155813662046194,1.32670920676589,-0.9173195737101136,-1.1422491662419707,1.1494247513990858
1789141184242653000,8.91765283203125,0.4479904357373714,0.3080617405652999,-0.096592242270708,-0.5039046360540587,0.22584872269373565
1789141184252626000,8.9276259765625,1.7099053910315036,-0.0304658654123544,-0.2269404044751077,-0.9375778572192577,1.448155490294255
1789141184262598100,8.93759814453125,0.4500608122706413,-0.0349871422290802,-0.4684938927249982,-0.20827032689679276,0.6163512256157139
1789141184272569900,8.94756982421875,0.308512991464138,-0.9052157328099012,0.2249037110157311,0.559657572717678,0.8074409386184986
1789141184282542000,8.9575419921875,-0.1887713442742824,0.2099713686913251,-0.4159559693014249,-0.0486646834355383,0.5003735735156633
1789141184292513800,8.967513671875,-0.2811561979830265,0.0553518848657608,-0.0175969949563965,0.11498460888283825,0.26306051162046235
1789141184302486800,8.97748681640625,0.0955453635662794,-0.482462029659748,-0.2396267579710111,0.35180583330448945,0.41898945732684895
1789141184312459000,8.987458984375,-0.1578209102153778,0.0936304698556661,0.3084808062275871,0.0003993019960458477,0.35893502609154937
1789141184322431000,8.997430908203125,-0.1546329278290271,-0.5081716404557228,-0.1837596170594915,0.5128712493627632,0.22995746774429163
1789141184332403000,9.00740283203125,0.1541729091018438,-0.5728150852799415,-0.3874967675363645,0.3986600698811599,0.585756179104132
1789141184342375200,9.017375244140624,0.6557271772444248,-0.3328887233078479,0.3728540923409164,-0.11394768989040177,0.8165960636853937
1789141184352348000,9.027347900390623,0.0917050547510385,-0.1507844357073307,-0.0018174612181261,0.07188438011796397,0.16118840584485153
1789141184362320000,9.03731982421875,-0.3104530196160078,0.1610211675614118,0.1926205305157229,0.036381816774088666,0.3976027238034377
1789141184372292000,9.0472919921875,1.4217115494966506,-0.432485408091545,0.4404507974801585,-0.47008199183662436,1.4769316788992293
1789141184382263800,9.057263916015623,0.8801602020084858,-0.6719768857777119,0.13661635575369,0.04664489952650208,1.1147749540722163
1789141184392236000,9.067236083984374,-0.1410848794698715,-0.0331786315023899,0.725970341771841,0.07841692601297565,0.7361314336790671
1789141184402209000,9.077208984375,-1.1259610089719294,0.4687158283799886,0.9065997345142066,0.2183803379703919,1.5039002055017452
1789141184412181000,9.087180908203123,-0.1315706166714429,0.102157475182414,1.100727345124632,-0.05320203931342532,1.111987953273309
1789141184422153000,9.097153076171876,0.0032201310902833,-0.6801204447448254,0.699877649942413,0.5291572898045953,0.8199972415439627
1789141184432125000,9.107125,-0.9602788638621568,0.0995721348643302,0.9469625784322618,0.4260019189096904,1.283475982034013
1789141184442097000,9.117096923828123,-1.5340274305999275,-0.0190437231659889,0.3860933670118451,0.8719585080026137,1.3199845717270478
1789141184452070000,9.12706982421875,0.2070575270712375,-0.7779267389804124,0.6500551960226147,0.49569831593606856,0.9082388277274325
1789141184462041900,9.137041748046874,0.7612655270367861,-0.5211515335381031,0.8517625211723149,-0.03834265963055877,1.255051137001989
1789141184472013800,9.147013916015624,0.0834592044532299,0.1663216120570897,1.054487718127668,-0.22628310383765254,1.0465985964279378
1789141184481986000,9.156986083984377,-0.7307464701324701,0.5454477704048156,1.7688322117745876,-0.10374660206967246,1.9873368385407206
1789141184491958000,9.1669580078125,0.2319371167838573,-0.2961602903693914,0.7812744419731199,0.08036449316100677,0.8633869617113032
1789141184501931000,9.176930908203126,0.5319195957899093,-1.090455980348587,0.4014349111916497,0.5778870711809442,1.1398373666223864
1789141184511903000,9.186903076171877,-1.5719710845470427,0.2515846510618925,0.6053265581104904,0.66233420308813,1.5691149010430834
1789141184521875000,9.196875,-1.3369050220876932,0.822249280309677,0.0390498250907287,0.08238233543789208,1.5678478742213775
1789141184531847000,9.206846923828126,-0.3806464997828006,0.6887474033147096,0.1823453663473948,-0.35704033063712204,0.7245942163007879
1789141184541819000,9.21681884765625,0.3024836481720209,-0.0578781884729862,0.4937729300839826,-0.1440667845827843,0.5638286177342088
1789141184551791900,9.2267919921875,-0.281104760056734,0.5386030190765857,-0.1304291915513575,-0.2777025238754153,0.5558832436105015
1789141184561764000,9.23676416015625,-0.234550514152646,0.2568763277292251,0.1700344585677608,-0.08462876617025133,0.3778214928691264
1789141184571735800,9.24673583984375,-0.2768564549624919,0.0434866750270128,-0.3325680034535005,0.134886153586579,0.41345832927995135
1789141184581708000,9.2567080078125,-0.006380056425929,0.1842693566799163,0.0243836228892207,-0.148794617287492,0.11158236358269519
1789141184591680000,9.266679931640626,-0.3909060279905796,0.6186316645592451,0.6325885859802365,-0.3115860006745136,0.9157484056283425
1789141184601652700,9.27665283203125,-0.2118506065666675,0.0294067117482423,0.3114968295805156,0.083765775953907,0.36845488708397095
1789141184611625000,9.286625,-0.15337795933187,0.1658890658587217,0.2361607988934964,-0.058621081086437946,0.32152678328027323
1789141184621597000,9.296596923828124,0.0224655143082141,0.5518278268307447,0.1746811883950605,-0.4732809750724681,0.33397198387205995
1789141184631569000,9.30656884765625,0.1067120697468519,0.6336112070262432,0.1845869347291067,-0.5887671841887869,0.3166641229978609
1789141184641541000,9.316541015625,0.1145855796009302,0.514682045263052,-0.4201503157187253,-0.47131838020844447,0.4820920400140124
1789141184651514000,9.32651416015625,-0.9724965404003858,0.9389701183736324,0.3715419868290424,-0.23392372122259142,1.3822943047396092
1789141184661485800,9.33648583984375,-0.8481541214168071,0.2822457467854022,-0.0259770295605063,0.25105133515370825,0.8582983796076358
1789141184671458000,9.3464580078125,-1.5260533829808234,0.6815501852869987,0.1247645899184048,0.30207911430145273,1.648533892394183
1789141184681429800,9.3564296875,-1.5738737032979726,0.6624491789758205,-0.3570638910781591,0.36421725427223917,1.7060943006354836
1789141184691402000,9.366402099609376,-0.8100719357818364,-0.0098328272283077,0.160280249533616,0.4620136679263518,0.6845044592056582
1789141184701375000,9.376375,-0.3696159872025251,-0.2082569659888744,-1.1552056620262563,0.42739016505288063,1.1540471005432063
1789141184711347000,9.386346923828125,-0.7373065593004227,0.0589233136117458,0.5373239755840972,0.34907949208811295,0.8449576807245559
1789141184721319000,9.39631884765625,-0.7426344763249159,0.0630786797255277,0.5305341693134978,0.3489635011622856,0.8456807109825908
1789141184731291100,9.406291015625,0.8768664211601018,-0.7013117013335227,-0.2701387275474146,0.08888911073315825,1.15143670303645
1789141184741262800,9.416262939453125,0.5252589688569307,-0.2306622745424509,-0.9942584364838898,-0.06916257443372209,1.1458047155073294
1789141184751235800,9.42623583984375,0.4448462924927472,-0.1362725107520818,-0.8749144103094935,-0.10581404973100003,0.9852598811369279
1789141184761208000,9.4362080078125,0.3968646441340446,-0.4977542913377284,-1.391971368010342,0.23921649391206076,1.5118269208840576
1789141184771180000,9.446179931640623,-0.1271755965828895,0.5085626855999231,0.1032317168178036,-0.34982918959166237,0.4038390310725451
1789141184781152000,9.456152099609374,0.2897159365355968,-0.3340875777035951,-1.2187269709527493,0.15866668334136771,1.2867284666096679
1789141184791124700,9.466124755859376,0.0182972887128591,-0.1095236200362443,-0.3432506159115582,0.09334026411535014,0.34848069464265313
1789141184801097000,9.476096923828123,-0.1917716951340436,0.7886410252183675,-0.081054043007642,-0.5359406255722745,0.6148727132188793
1789141184811069000,9.48606884765625,0.7786281652480364,-0.2332774254769086,-0.9004777445025741,-0.21474533071711607,1.1939115495857713
1789141184821041000,9.496041015625,0.2306558448016643,-0.086661215364933,-0.1249245297204703,-0.054856164205089264,0.2707567623611305
1789141184831012900,9.506012939453123,0.0102829090833663,-0.0135895494133234,-0.6866794379342347,0.03278048111432699,0.6861082309753059
1789141184840984800,9.51598486328125,0.2743862654566765,-0.2639063724964857,-0.5201402376037091,0.08176711267477574,0.6393703169328312
1789141184850957800,9.525957763671874,0.7342763978242873,-0.5231967756301165,0.2897469161957502,0.0011461803881689936,0.9470209375441635
1789141184860930000,9.535929931640624,1.0822966392904518,-0.3830307645708322,-0.0776113186752423,-0.2971340313727881,1.11167147404878
1789141184870901800,9.54590185546875,0.8822738331615925,0.3352607131361961,-0.862161457850784,-0.7424401568539898,1.0406305085611571
1789141184880874000,9.5558740234375,0.5418044454663992,0.337978155401349,-0.2536166318135336,-0.5755256189697887,0.37533045239832835
1789141184890846000,9.565845947265624,0.3607639877051115,0.3794096514642238,0.2074072538243606,-0.5251296306480004,0.20336906943671412
1789141184900819000,9.57581884765625,0.5601350519269704,-0.0355108738422393,-0.3556348811883479,-0.2749043188267058,0.6049099790601445
1789141184910791000,9.585791015625,-0.8569324711561203,0.2509936994314193,0.2245254522878676,0.27170920974595647,0.8797254579357721
1789141184920763100,9.59576318359375,-1.0280202747017144,0.1917155810326337,0.1236242607768624,0.42168666331395677,0.964906143127007
1789141184930734800,9.60573486328125,-0.939420200228691,-0.2038707137286663,0.1599958065690472,0.6950037265539711,0.683112039646296
1789141184940707000,9.61570703125,-0.52747956751585,-0.5022551098883151,0.0786257929474115,0.7093959287656415,0.18285054313010327
1789141184950680000,9.62568017578125,-0.2140349648684263,-0.1993658035248517,-0.2917856554817408,0.29714888064346934,0.28705243646166917
1789141184960651800,9.63565185546875,-0.3593435995131731,0.2251385426849126,0.1417772091155871,0.013501685326960444,0.44691572743785446
1789141184970624000,9.6456240234375,-0.360671633246541,0.2261690547764301,0.1400430422667413,0.01347875914220903,0.44795853056561147
1789141184980595700,9.655595703125,1.3981418733388185,-0.3918862711995839,-0.6567699642956256,-0.4461856111815826,1.529915270174623
1789141184990569000,9.66556884765625,0.666639031881094,0.3328986601799726,0.0056268269058316,-0.6526560634729375,0.35958426101544017
1789141185000541000,9.675541015625,0.2838233713656664,-0.0288520004749298,0.3937489597989246,-0.1533192064458763,0.4614321275575859
1789141185010513000,9.685512939453124,1.1620996593236923,-0.388687767419219,0.383099299762398,-0.35625483844462547,1.2334509971234415
1789141185020484900,9.69548486328125,0.5909679970860481,-0.2312754380047321,-1.4354219488106668,-0.0883603977745758,1.5669588740731861
1789141185030457000,9.70545703125,-1.4475421563237905,0.3140449066281318,-0.0485983920175582,0.5664361627614233,1.3694942040536016
1789141185040429800,9.715429931640625,-2.5388205589711665,0.5789250925928354,0.4188300634330138,0.9501927444175375,2.4603488500576214
1789141185050402000,9.725402099609376,-2.122322993606329,0.0206330381840467,0.5332057631429284,1.1677790692338594,1.8507514805513374
1789141185060374000,9.7353740234375,-1.4075976839482784,-0.5211076943963766,-0.0056512672273442,1.2284059060139323,0.8625168612305675
1789141185070346000,9.745345947265625,-0.9675824648737908,-0.5986205576658249,0.2565493242645636,1.0315798193405428,0.5442637508610334
1789141185080318000,9.75531787109375,-0.1304313835084438,-0.1559820043504238,-0.3603322086917236,0.2167242032475425,0.35243815320205635
1789141185090291000,9.765291015625,1.0822820262432098,-0.2729863355308771,-0.3780163339423015,-0.3755569197441448,1.117009074482008
1789141185100263000,9.775262939453125,1.73950967117846,0.2307517063915729,-0.7705962499618529,-1.1473510970136804,1.535103998679826
1789141185110235000,9.78523486328125,0.8671861541450023,0.6100134738177061,-0.7454111014313995,-0.9643450504652733,0.8659125810151085
1789141185120206800,9.795206787109375,0.0008487257838249,0.406912575417757,0.2874767062414437,-0.3464052351085792,0.35808495373216565
1789141185130178800,9.8051787109375,-0.954241337263584,0.4244429714113473,0.634621406982094,0.16805780689707311,1.2104665503284118
1789141185140152000,9.815152099609374,-1.1098515856921671,0.8295382682740687,0.2973570624059066,-0.0629640077443272,1.4157545822232047
1789141185150123800,9.825123779296876,0.1091764140337705,-0.1850128685235977,0.2528297557521611,0.07990577675843999,0.32200497377359116
1789141185160096000,9.835095947265623,0.3360463105559348,0.0195458274692297,-0.2789022450437769,-0.1958784457934404,0.39080335077084216
1789141185170068000,9.84506787109375,0.653824558493495,0.2754249608546495,-0.1863613970557227,-0.5904619405265953,0.4352364063967157
1789141185180040000,9.8550400390625,0.0648234775662422,0.6150999833017587,0.2635281868338585,-0.5529055536674401,0.38248219132561906
1789141185190013000,9.865012939453123,0.3720569506138563,0.2995464256763458,0.4758753082131967,-0.476643989066515,0.47688809199781973
1789141185199984400,9.874984375,-0.377428706780076,0.3639671676605939,0.7478884513303637,-0.114553850168365,0.9061672466391009
1789141185209956000,9.8849560546875,-2.155015887418389,0.0140092361301183,1.2172918966483324,1.1644499602423368,2.184066296031311
1789141185219928300,9.89492822265625,-2.158082289251685,0.0161123458892107,1.2175173029020427,1.164455015538373,2.1872292231326007
1789141185229900300,9.904900390625,-0.5902332530707121,-1.2069511929631231,0.6262351983655243,1.3023302748735215,0.7079638790540851
1789141185239873300,9.914873291015626,-0.1618897670894861,-0.7719634466618299,0.4573035864731297,0.7081661741950451,0.5742500323007743
1789141185249845200,9.92484521484375,1.5210358470797538,-0.6183569392710924,-0.5737262453081086,-0.33321378129621226,1.7070576243806057
1789141185259817500,9.9348173828125,2.1190140151888133,-0.0355874462097883,-0.5039429899100214,-1.1547781018873295,1.8471418287114012
1789141185269789200,9.9447890625,1.8135574886858463,0.5275789362370967,0.1746732242843136,-1.4711777084767264,1.1972790752755293
1789141185279761400,9.954761474609375,0.3810626793682575,1.180494563192129,-0.2216625371374189,-1.1778965274639908,0.44773902029191154
1789141185289734400,9.964734375,-1.3373749776870012,1.617597694212198,0.7849263886094093,-0.6008449266506096,2.158770238102601
1789141185299706000,9.9747060546875,-1.2114829911738634,0.6796960818529129,0.3507327152952552,0.1158068045320626,1.428033621170114
1789141185309678300,9.98467822265625,-1.4640116450875995,-0.0555488687425851,-0.1013953317034989,0.881663986006902,1.1744638788998
1789141185319650000,9.994650146484377,-2.1190584388524294,-0.4492793065041303,0.2534119760869071,1.563317230735607,1.5206963629317827
1789141185329622300,10.004622314453124,-0.9427613273501396,-1.226767069545388,0.3840674506748095,1.5286304419682712,0.45227551539267663
1789141185339595300,10.01459521484375,-0.1265828913867473,-1.1245102256417274,-0.2205328389877453,1.0049511821659134,0.5650259555984712
1789141185349567200,10.024567138671877,0.4200029431372881,-0.0451671754598617,0.0906536460019648,-0.20517873607487125,0.3802135134094708
1789141185359539200,10.034539306640625,0.9084943160891532,0.8385165244996547,0.1965183051392436,-1.213279568900703,0.30829209553312203
1789141185369511400,10.044511474609376,1.3029448848187923,-0.0633347003132104,0.1019946493035182,-0.6924515629364711,1.110220878299722
1789141185379483100,10.054483154296875,1.5507716446518898,-0.2909422634601593,0.4033490742499008,-0.6582696910047443,1.4896011493438162
1789141185389456400,10.064456298828125,0.0623474428415298,0.4270955317467451,-0.3530732870720326,-0.3723301865310628,0.41512501142247105
1789141185399428400,10.074428466796874,-0.4532528863102197,0.1742389610528945,-1.0019108509331942,0.15442791303107525,1.1026217698702856
1789141185409400300,10.084400390625,-0.2230640744984149,0.8295803538501262,-0.6231937848430127,-0.5301287508378248,0.9193993396930529
1789141185419372300,10.094372314453125,0.5344073209524154,-0.2283113275021314,-0.5524707278441637,-0.09395725224030474,0.7963122420441842
1789141185429344300,10.10434423828125,0.0692319416582584,0.4488572816997766,-0.7354010179400443,-0.37884135903026706,0.7768911139638803
1789141185439317200,10.114317138671876,0.2674783857643604,1.005067853659391,0.5419273777263238,-0.9997022123668419,0.6131776631848022
1789141185449289200,10.124289306640623,-0.4111421758115291,0.610199936300516,0.7373856889512389,-0.29734664366304087,0.9983508795832307
1789141185459261200,10.13426123046875,-0.6337322030574083,-0.34909167008996,0.4160574934471398,0.6304046107067955,0.5469692532229979
1789141185469233200,10.144233154296876,-0.6335989320665597,-0.3489005314320326,0.4111005286268889,0.630369977281966,0.5429700948747371
1789141185479205400,10.154205322265623,-1.367526954844594,-0.5818553008258343,-0.1990785110160708,1.2632951361306994,0.8077148109961486
1789141185489178000,10.16417822265625,0.0545195256948471,-1.71496618155241,-0.7273805008307099,1.4075784111375518,1.2214281771920381
1789141185499150300,10.174150390625,0.1449070681065321,-0.8398480653643607,-0.2797235348314046,0.6190827189427629,0.6490952736913917
1789141185509122300,10.184122314453123,0.23223054677248,0.167024207368493,0.6425019310988486,-0.2949308492452456,0.6384768111141909
1789141185519094300,10.19409423828125,0.0542991609424352,0.3013841624975204,-0.1272666723998263,-0.2734665822109915,0.1875996977634773
1789141185529066200,10.204066162109376,0.5066653275460005,0.6992138522714376,0.6228986743539572,-0.887490783091125,0.588194384354168
1789141185539039500,10.21403955078125,0.8485293844699859,-0.4762941546797752,0.5999572496296838,-0.11473132281920728,1.1373845713031736
1789141185549011200,10.22401123046875,0.1657546258240938,-0.2222200248897075,0.8518126439243554,0.05438459871631712,0.8941383736401953
1789141185558983400,10.2339833984375,-0.9627321022331714,0.668047145113349,0.2538308225534856,-0.012102950479011998,1.1989260585341697
1789141185568955100,10.243955078125,-0.6619342151910066,-0.1523573841124773,0.6345521411381662,0.47600521079560787,0.7984016137587591
1789141185578927400,10.25392724609375,0.5739736076653004,-1.5502186869442462,-0.0156065152589231,0.948528114478127,1.353943004343447
1789141185588900400,10.263900390625,-0.9378525125205516,0.0675911887139081,0.8319163955822586,0.44414164651699606,1.1742908460430999
1789141185598872000,10.2738720703125,-0.867108412733674,-0.0214373403042554,0.1376455161383375,0.5048682543832356,0.7186034322363385
1789141185608844300,10.28384423828125,-0.1594564024627208,-0.2205056221872568,-0.7734680060058832,0.302766451466361,0.7619936390047669
1789141185618816300,10.293816162109374,0.5332628270924091,0.1851812108278274,-0.1293156773515045,-0.4500624201626048,0.364455327809193
1789141185628788200,10.303788330078126,0.9364508290290832,0.4145791645228862,0.2481369582934305,-0.882809250149021,0.5753571210719395
1789141185638761200,10.31376123046875,0.9354209014594554,0.4155436256408691,0.2423163989137858,-0.8827839122761022,0.5719253177706187
1789141185648733400,10.3237333984375,0.7619044094622135,0.0656061523765325,-0.2122002237219363,-0.4784039253982667,0.633214904672013
1789141185658705200,10.333705078125,0.5138578693985939,0.0406470676869153,-0.246042799025774,-0.31557994192655864,0.4760761002827955
1789141185668677400,10.343677490234375,0.1195148526966571,-0.1001128176122903,0.9160689891271292,-0.022263933904852533,0.9289742118879598
1789141185678649000,10.353649169921876,-0.1521136384844779,-0.158717566794157,-0.5799680257745087,0.24007546486895492,0.57188854430805
1789141185688622300,10.363622314453124,-0.526890369451046,0.6860100873053073,-0.7521086993739008,-0.23432262396271886,1.122044430884099
1789141185698594300,10.37359423828125,-0.9533622163414954,0.4772697217136621,0.9755917299367488,0.11050871756526748,1.4409208686375747
1789141185708566300,10.383566162109377,-0.1374503223598003,0.3650029404491186,0.4145665607696399,-0.2384509597779615,0.516842636343648
1789141185718538200,10.393538330078124,-0.1383458098948001,0.365446008041501,0.4183458601126447,-0.23845732904245143,0.5204245467003314
1789141185728510500,10.403510498046876,-0.6465116051316261,0.0556634350329637,1.2702552058771253,0.27085811016960704,1.4004498726419405
1789141185738483200,10.413483154296877,-0.1924842273175716,-0.5834492920190095,0.7370576260406524,0.559432905643838,0.7795845190299131
1789141185748455200,10.423455078125,0.0149123224496841,-0.3961848451763391,0.6926485024064779,0.2894440732614237,0.7437532421764731
1789141185758427400,10.433427490234376,-0.4324924223542213,-0.372381944784522,0.9424510923571884,0.5141408326850926,0.9744697398310849
1789141185768399400,10.4433994140625,-1.2205576935112477,0.6845932062447071,0.7103210833497345,0.10256167581290399,1.5660351481788313
1789141185778371300,10.453371337890625,0.3248492092370987,-0.0256388836473226,-0.0984716628091409,-0.15959358989187095,0.3006840792899946
1789141185788344300,10.46334423828125,0.3265472453266382,-0.0270119255661964,-0.0940887350171804,-0.1596053147617327,0.301233432922295
