time,seconds_elapsed,z,y,x,vertical,horizontal
1789141176863219500,1.538219482421875,-5.622459942793846,-8.026084680333733,-0.3745532609416171,9.80645072460495,0.06249348275046567
1789141176873191400,1.54819140625,-5.626793588083983,-8.022744137734174,-0.3809788004770875,9.806424831468949,0.06638112392256551
1789141176883163400,1.558163330078125,-5.630143483033776,-8.020059428694843,-0.3879541193824261,9.806400892000426,0.06984857524544583
1789141176893136400,1.568136474609375,-5.634222276780009,-8.016775584718584,-0.3965329279616474,9.806362865847465,0.07508093093362929
1789141176903108400,1.5781083984375,-5.635217133036256,-8.015604787373542,-0.4059589644873514,9.80634284815497,0.07768442005023672
1789141176913080600,1.58808056640625,-5.63401477150917,-8.015973036164045,-0.4152764626046642,9.80633476922953,0.07873433994167336
1789141176923052500,1.598052490234375,-5.630702870482206,-8.017861626389623,-0.4236229602653533,9.806338597966946,0.07809987244202009
1789141176933024500,1.6080244140625,-5.625847831666469,-8.021055453994869,-0.4276589743157848,9.80636589615536,0.07466277627477326
1789141176942997500,1.61799755859375,-5.621573223087191,-8.0240178109318,-0.4282920480549335,9.806396739754708,0.07045845326850828
1789141176952969500,1.627969482421875,-5.621289145448803,-8.024184399670363,-0.4289032387558371,9.806396657594679,0.07049481388682342
1789141176962941400,1.63794140625,-5.6190118481665845,-8.025747411203383,-0.4295063922807574,9.806411241083003,0.06848335597213442
1789141176972913400,1.647913330078125,-5.616973035815358,-8.026974322649837,-0.4332244994884356,9.806409661963878,0.06867219419176908
1789141176982885400,1.657885498046875,-5.618215729352832,-8.025640443697572,-0.4417478880859911,9.806360361296601,0.07543324254576111
1789141176992858400,1.6678583984375,-5.618004716950654,-8.025168150010705,-0.4528647637754678,9.806296765384483,0.0832531026766755
1789141177002830600,1.67783056640625,-5.616370393747091,-8.025758517119288,-0.4625713708082213,9.806241324693003,0.08955182771024088
1789141177012802300,1.68780224609375,-5.613819540220499,-8.027067261630297,-0.4707532159591093,9.806194494480211,0.09453454215396916
1789141177022774500,1.6977744140625,-5.610690594545006,-8.029014888566731,-0.4748183465061709,9.80617963238717,0.0960338902468177
1789141177032747500,1.70774755859375,-5.606517108252644,-8.031894243395328,-0.4754325328817591,9.806198968859526,0.09411216009296915
1789141177042719500,1.717719482421875,-5.604829009035229,-8.033072639524937,-0.4754187600847333,9.806207607021504,0.09316446662258217
1789141177052691500,1.72769140625,-5.603179488262533,-8.03420310485959,-0.4757712267842143,9.806213418526088,0.09260970994509293
1789141177062663700,1.73766357421875,-5.60163751951754,-8.035345260632038,-0.4746290344791486,9.80623019664596,0.09076567846897336
1789141177072635400,1.747635498046875,-5.601816967737674,-8.035171657630801,-0.4754507626581937,9.806222347708388,0.09161660681263477
1789141177082608400,1.7576083984375,-5.604868172001838,-8.032948720884322,-0.4770435848075896,9.806192981796773,0.0946687036040324
1789141177092580600,1.76758056640625,-5.608099993529915,-8.030593682190775,-0.4787080108884721,9.806160547906181,0.09796476024453464
1789141177102552300,1.77755224609375,-5.61044100369811,-8.028810305905342,-0.4811917174629866,9.80612447989662,0.1015447581910568
1789141177112524500,1.787524658203125,-5.613417973682284,-8.026545283582806,-0.4842545025670901,9.806077112659136,0.10604065495796634
1789141177122496300,1.797496337890625,-5.613386409500241,-8.026562234717607,-0.484323439617455,9.806075863523066,0.10608318976230288
1789141177132469500,1.807469482421875,-5.613719586977362,-8.026254776203633,-0.485569713351503,9.80606233719212,0.10739049944661942
1789141177142441500,1.81744140625,-5.6099488362669945,-8.028688725352287,-0.4888877518583089,9.806052578266582,0.10822504479438597
1789141177152413400,1.827413330078125,-5.601921597155928,-8.034231746432186,-0.4898702235570177,9.806085847100057,0.10515955159930185
1789141177162385400,1.837385498046875,-5.592738173747063,-8.040603035029768,-0.4902729956716298,9.80611963910982,0.10199353296708903
1789141177172358400,1.8473583984375,-5.584031720200181,-8.046531256034969,-0.4922551824647933,9.806123484771579,0.10165073843433267
1789141177182330400,1.857330322265625,-5.5744800480008125,-8.053067964327335,-0.4936045512471347,9.806121812111673,0.10174430044933987
1789141177192302600,1.867302490234375,-5.567674459639191,-8.05772134309113,-0.4944897000512108,9.806114249406368,0.10254522159017743
1789141177202274600,1.877274658203125,-5.562145467084646,-8.061462867707014,-0.4957193514440208,9.806096488920776,0.10418776224203992
1789141177212246800,1.887246826171875,-5.5579000845998525,-8.064401259246468,-0.4955565620977431,9.806092423890295,0.10463604011318335
1789141177222219800,1.8972197265625,-5.555799312928318,-8.06568662288189,-0.4981629452038556,9.806059225645008,0.10758943808408805
1789141177232191500,1.90719140625,-5.556724611079693,-8.064944280081987,-0.4998782246891409,9.806043518614043,0.10910267994797009
1789141177242163700,1.917163818359375,-5.5596203325212,-8.062773365783691,-0.5026788151931018,9.806016841446938,0.11141044061023153
1789141177252135700,1.9271357421875,-5.564912009188532,-8.058978065153957,-0.5049814295796677,9.805996773912012,0.11316642121625882
1789141177262107600,1.937107666015625,-5.568786220273375,-8.05617294460535,-0.5070289366940036,9.80597479979792,0.1150610658350579
1789141177272080600,1.94708056640625,-5.572732327550649,-8.053328076568246,-0.5088772314418107,9.80595305000266,0.11695948526685404
1789141177282052900,1.957052978515625,-5.575791130599379,-8.051019215103983,-0.5118883959565311,9.805914092203603,0.12014857586342502
1789141177292024600,1.967024658203125,-5.576807029643654,-8.050157629838585,-0.5143714084113017,9.805882565221232,0.1227174560221935
1789141177301996800,1.976996826171875,-5.576923349499702,-8.049730344337224,-0.5197721714762971,9.805813429487912,0.1281357056177089
1789141177311969800,1.9869697265625,-5.576027277442813,-8.049995132753253,-0.5252317885890603,9.80574012766388,0.13353208080531587
1789141177321941500,1.99694140625,-5.574872846710681,-8.050315450748801,-0.5325338552307337,9.80563931169032,0.14076970397501984
1789141177331913700,2.006913818359375,-5.573014651623368,-8.051001679447293,-0.5415495939224958,9.805507814064509,0.14970912019426538
1789141177341885400,2.016885498046875,-5.571160548189282,-8.051523657494783,-0.5527477546872571,9.805330907664885,0.16086930223765666
1789141177351857700,2.026857666015625,-5.570368521028756,-8.051120337390898,-0.5664325811685994,9.80509649789419,0.17456426670380487
1789141177361830700,2.03683056640625,-5.570435741046071,-8.050061768248677,-0.5806493225695565,9.804833112060217,0.18881233590667426
1789141177371802600,2.046802734375,-5.571991738316417,-8.047899621778726,-0.5954940962083637,9.804533869949262,0.20373773761708786
1789141177381774600,2.056774658203125,-5.573845841750503,-8.045525878384709,-0.6100466454349458,9.804218444225672,0.21840726835200497
1789141177391746800,2.066746826171875,-5.575317083346843,-8.043430367410183,-0.6240549317169934,9.803892358720631,0.23253350652107171
1789141177401718500,2.076718505859375,-5.577157742777467,-8.041060715669394,-0.6379998704392462,9.80354836219438,0.24663589702354127
1789141177411691800,2.08669189453125,-5.577825851297378,-8.039464970910549,-0.652102483941242,9.803180392957664,0.26082576289899745
1789141177421663700,2.096663818359375,-5.578396344661712,-8.03793235451579,-0.6659699735131114,9.802799434236427,0.2747754931975164
1789141177431635700,2.1066357421875,-5.580178551903367,-8.03558316104114,-0.6792561560656875,9.802412696324943,0.28824237303178596
1789141177441607700,2.116607666015625,-5.581990569761395,-8.033115309622882,-0.693414810603857,9.801980261206355,0.30260098659534707
1789141177451580700,2.12658056640625,-5.583960408529639,-8.030391437616943,-0.7089408079724758,9.801481765509276,0.3183594744559336
1789141177461552600,2.136552734375,-5.584793936744332,-8.02854960914254,-0.7230944210093468,9.80100759003218,0.3326377972894021
1789141177471524600,2.146524658203125,-5.584797443875671,-8.027330881002545,-0.7364562991466372,9.800542188703272,0.3460408216054111
1789141177481496600,2.15649658203125,-5.583732444992661,-8.027129805472493,-0.7466659968633205,9.800179931274757,0.35618023061361864
1789141177491468500,2.166468505859375,-5.584839529451728,-8.025671423357725,-0.7540196475617588,9.799904473527022,0.3636650987950721
1789141177501441800,2.17644189453125,-5.588205206492543,-8.022843506455422,-0.7591695046056062,9.79969881798642,0.36918392763364355
1789141177511413500,2.18641357421875,-5.5904158682793375,-8.02071818486452,-0.7653227665383369,9.799454360255238,0.37561011645366765
1789141177521385700,2.1963857421875,-5.5920162892133,-8.018848299339414,-0.7731878738902509,9.799141498877821,0.38369206396140326
1789141177531357700,2.206357666015625,-5.5938540260344745,-8.01650553560555,-0.7841060852024704,9.798696923932267,0.3948731603292393
1789141177541329700,2.21632958984375,-5.594988583022356,-8.014626882252097,-0.7951384974788874,9.798238756000632,0.40608350920549807
1789141177551302700,2.226302734375,-5.594126413235068,-8.014149912390112,-0.8059382700432092,9.797788604157454,0.41680224193164667
1789141177561274600,2.236274658203125,-5.591974788159131,-8.014858937442302,-0.813779046671465,9.797462116387555,0.42440338506934133
1789141177571246600,2.24624658203125,-5.589678786176443,-8.015856716307997,-0.8197031760234386,9.79721426892597,0.43008568279735365
1789141177581218800,2.25621875,-5.5870209651440375,-8.017465905070305,-0.8220786729831248,9.797121425915686,0.4321896740568029
1789141177591190500,2.2661904296875,-5.585048203766346,-8.018662421378492,-0.8238174794744699,9.797053263541276,0.4337430774596756
1789141177601163500,2.27616357421875,-5.583690359416604,-8.019381383302807,-0.8260170353453606,9.796960475636018,0.4358272389514027
1789141177611135700,2.2861357421875,-5.582563401213288,-8.020005652680993,-0.827571205984801,9.796895264766398,0.43728945765249494
1789141177621107500,2.296107421875,-5.581882433211804,-8.020557441344856,-0.8268199492260814,9.796931751080226,0.43647756096417467
1789141177631079700,2.30607958984375,-5.582935157135129,-8.02019854490459,-0.8231909450739622,9.797089921615914,0.4329227047508903
1789141177641052700,2.316052734375,-5.583688605850934,-8.020224263867735,-0.8178074984699487,9.797323979208675,0.42758348988086686
1789141177651024600,2.326024658203125,-5.5821372847557065,-8.022055570948124,-0.8104057708460837,9.79765156325053,0.4200161994432236
1789141177660996600,2.33599658203125,-5.580093211707473,-8.024284937435388,-0.8023734902337193,9.79800107211269,0.41178540188390117
1789141177670968600,2.345968505859375,-5.578537798959016,-8.026298030823469,-0.792991694708541,9.798396567561639,0.40224940856166497
1789141177680940500,2.3559404296875,-5.577539435571432,-8.027906635063886,-0.7836809916581958,9.798779023559309,0.39283156797499585
1789141177690913800,2.365913818359375,-5.576239458888769,-8.029678320911525,-0.774732253788039,9.79913858533099,0.3837622841310611
1789141177700885500,2.375885498046875,-5.575224144366383,-8.031203338521719,-0.7661803332157433,9.799473049197713,0.3751154297846594
1789141177710857700,2.385857666015625,-5.5731952688872815,-8.033386527779697,-0.7580065983060746,9.799787587072696,0.3667994836302201
1789141177720829700,2.39582958984375,-5.570894590729475,-8.035661486974359,-0.7507753318782895,9.800060772330713,0.3594364086226998
1789141177730802400,2.405802490234375,-5.568495128372311,-8.038123493173718,-0.7421648860517889,9.800376406528791,0.3507111270825283
1789141177740774700,2.415774658203125,-5.5653585839122535,-8.041181711700558,-0.7325109955869614,9.800721467047378,0.34095538142957355
1789141177750746600,2.42574658203125,-5.562503779003023,-8.044213626742362,-0.7208145664438604,9.80112334836974,0.3292049716052631
1789141177760718600,2.435718505859375,-5.55702680889666,-8.049111335656047,-0.7082691192559898,9.80153462066294,0.31670881550775104
1789141177770690600,2.445690673828125,-5.555034173774719,-8.05147338861227,-0.6969622739523649,9.80189148599778,0.3054637578725462
1789141177780663800,2.455663818359375,-5.554236301395297,-8.052958074212073,-0.6860915550436825,9.802223657132545,0.2946313530635137
1789141177790635500,2.465635498046875,-5.555434571269155,-8.053278392207622,-0.672493676193431,9.802624182552657,0.2809857971582908
1789141177800607700,2.475607666015625,-5.558107589870691,-8.052666397789121,-0.6575652063265442,9.80304332646228,0.2659504366133404
1789141177810579500,2.485579345703125,-5.562964382252097,-8.050454566958546,-0.6434292750768363,9.803420278117883,0.2516814166405055
1789141177820551700,2.4955517578125,-5.567664522767067,-8.048267870569228,-0.6299893632672727,9.803756694779175,0.23821255617283305
1789141177830524700,2.505524658203125,-5.572645818310976,-8.045779560884833,-0.6175999103587121,9.804046997082956,0.22592540130479186
1789141177840496600,2.51549658203125,-5.575818603128194,-8.044488936552405,-0.6056575436305255,9.804311790616364,0.21411846684019886
1789141177850468600,2.525468505859375,-5.575822694781422,-8.045180425947905,-0.5963668239222839,9.80451096377524,0.20480468642382887
1789141177860440800,2.53544091796875,-5.574995596307516,-8.046421950441598,-0.5872756819067523,9.804697831798823,0.19564063247461683
1789141177870412500,2.54541259765625,-5.573441352602839,-8.048173178023099,-0.5779655633782967,9.804881637970322,0.18622640037710428
1789141177880385500,2.555385498046875,-5.568389914432168,-8.05231159300208,-0.5689522723719478,9.80505191193576,0.1770647407806988
1789141177890357800,2.565357666015625,-5.56381719968915,-8.056213276615738,-0.5583619413072243,9.805236614613708,0.16654482524408656
1789141177900329500,2.57532958984375,-5.562213856145739,-8.05809485257864,-0.5470518811332061,9.805419685477386,0.15532606657589934
1789141177910301700,2.5853017578125,-5.56172753393352,-8.059237592872977,-0.5350508430203422,9.805602674434924,0.14338527059188302
1789141177920274700,2.595274658203125,-5.56396566824913,-8.058518630948662,-0.5224308692915365,9.805779072071433,0.13064182223280138
1789141177930246700,2.60524658203125,-5.567288675191998,-8.0568445602566,-0.512784906404838,9.805905905684625,0.12085193483545084
1789141177940218600,2.615218505859375,-5.570103148090839,-8.055455736246705,-0.5039677224924788,9.806011325987043,0.11198901253915403
1789141177950190600,2.625190673828125,-5.570938429871201,-8.055355198481678,-0.496273916586861,9.806095746614124,0.10428984438784603
1789141177960162600,2.63516259765625,-5.572402072682976,-8.054653772214055,-0.4911917544843628,9.806147815093981,0.09923012689994759
1789141177970135800,2.6451357421875,-5.572725897809863,-8.05469936492145,-0.4867395243158564,9.80619129580045,0.09478093735293035
1789141177980107500,2.655107421875,-5.572338359797,-8.055273949939012,-0.4816462562974542,9.80623966133359,0.08966618830205535
1789141177990079700,2.665079833984375,-5.570909788298606,-8.056646407335997,-0.4751848782636225,9.806297483548486,0.08317171924567346
1789141178000051700,2.6750517578125,-5.569260267525911,-8.058110634669662,-0.4696737501593306,9.806343162806668,0.07767968127351105
1789141178010023700,2.685023681640625,-5.569247408044338,-8.058350873166322,-0.4656817579137161,9.806373690074624,0.07368878703597091
1789141178019996700,2.69499658203125,-5.568682759898901,-8.058952346190809,-0.4620089511524886,9.806400300932088,0.07004289681100641
1789141178029968600,2.70496875,-5.568132140278816,-8.059608764272928,-0.4571515011839568,9.806432676499705,0.0652274563701629
1789141178039940600,2.714940673828125,-5.568135062888264,-8.05991972991824,-0.4516080417126417,9.80646826926661,0.059699568655899954
1789141178049912600,2.72491259765625,-5.5717690354764455,-8.057716082394123,-0.4460874151276424,9.80650151400393,0.0540433801765425
1789141178059885800,2.7348857421875,-5.572522484192252,-8.057465322503447,-0.4411661426752805,9.806526821008841,0.0491277360661373
1789141178069857500,2.744857421875,-5.571297326311469,-8.05859871044755,-0.4359070165706798,9.80655182255486,0.04385604671802338
1789141178079829800,2.754829833984375,-5.5704000852108,-8.059482507544756,-0.4310101844398304,9.806572524232235,0.03899365077369031
1789141178089801500,2.764801513671875,-5.569011261200904,-8.060678439331054,-0.4265849518761038,9.806589262957791,0.03471424040847774
1789141178099773700,2.774773681640625,-5.564610395893454,-8.0638553158015,-0.4239675724519416,9.806594704338911,0.03316955815872611
1789141178109746700,2.78474658203125,-5.560278504168987,-8.06704446723163,-0.4201005217602476,9.806599464918797,0.031541452943078294
1789141178119718700,2.79471875,-5.557797208747267,-8.068971635901928,-0.4158837808480486,9.806604700373725,0.02960818010565556
1789141178129690600,2.804690673828125,-5.557341866195202,-8.069478416380285,-0.4121307849900796,9.806612395439217,0.027122679581472853
1789141178139662800,2.814662841796875,-5.558881496852636,-8.068526814743876,-0.4099860645789653,9.806619480365004,0.02431865058189333
1789141178149634600,2.824634521484375,-5.560751966899633,-8.067334974610805,-0.4080875740138813,9.80662697213673,0.021422590454996157
1789141178159607600,2.834607666015625,-5.561953159382939,-8.066607244858146,-0.4060862806614488,9.806631460271095,0.018996308337280485
1789141178169579800,2.844579833984375,-5.564811471423506,-8.064747880727053,-0.4038630516540258,9.80663871322457,0.015086581938024538
1789141178179551500,2.854551513671875,-5.566180421689152,-8.064008460536598,-0.3997296416437253,9.806643678040766,0.010977101309482349
1789141178189523700,2.864523681640625,-5.564389446619153,-8.065558028066159,-0.3933731122238561,9.80664531010964,0.010314304355409039
1789141178199496000,2.874495849609375,-5.560485424917936,-8.068562470579147,-0.3868974499363452,9.806637111741969,0.016021789396998377
1789141178209468200,2.88446826171875,-5.5587248449862,-8.070045987135172,-0.3812101980801671,9.806628490605071,0.020566942324705927
1789141178219439900,2.89443994140625,-5.558032771068811,-8.070622325718402,-0.3790949229592457,9.806624305756026,0.02248766390235292
1789141178229412000,2.904412109375,-5.557901838165521,-8.07075735027492,-0.3781484724219888,9.806623031422744,0.023195613042634844
1789141178239383800,2.9143837890625,-5.559124073436856,-8.06995655528605,-0.3772776444042101,9.80662462629289,0.022608140624872004
1789141178249357000,2.924357177734375,-5.561362792274355,-8.06848239108026,-0.3757884287597611,9.806625713711304,0.021754466939599638
1789141178259329000,2.9343291015625,-5.5630701807141305,-8.067311593735218,-0.3756631949448958,9.806628724444545,0.020544656258267596
1789141178269301000,2.944301025390625,-5.562393304365873,-8.06781252899468,-0.374933382833004,9.806626598492393,0.021635035520289638
1789141178279273000,2.95427294921875,-5.561104433599114,-8.068736658102273,-0.3741489909896627,9.80662232131974,0.023235611702272063
1789141178289245200,2.9642451171875,-5.556596016263962,-8.071779094538092,-0.3755074563939124,9.806615115888848,0.026131544357507606
1789141178299218000,2.974218017578125,-5.55126459210813,-8.075311944839358,-0.3783843635370955,9.806603986237953,0.029909224830072093
1789141178309190100,2.984190185546875,-5.544693981546163,-8.07959590576887,-0.3832603720756247,9.806585905971435,0.035534928131190475
1789141178319162000,2.994162109375,-5.540052293220162,-8.082534297308325,-0.3883818798078224,9.80656791083528,0.04007958979541227
1789141178329134000,3.004134033203125,-5.538213387355208,-8.083578253403305,-0.3928537279922515,9.806559703923568,0.04202056348036888
1789141178339106000,3.01410595703125,-5.537420775672793,-8.084023074561356,-0.3948744566975161,9.806555663821213,0.043008903978035314
1789141178349079000,3.0240791015625,-5.539741327574848,-8.082309840902685,-0.3973848686158657,9.806566685770811,0.040384553087708205
1789141178359051000,3.034051025390625,-5.543138568797708,-8.079809840780497,-0.4008299675684422,9.806580311525448,0.03687156856534355
1789141178369023000,3.04402294921875,-5.545189071586727,-8.078308788567782,-0.4027228321103379,9.806587566595415,0.03493853596740521
1789141178378995000,3.053994873046875,-5.54609858764708,-8.077617883694172,-0.4040662460759281,9.806590298200138,0.03429975716635808
1789141178388968000,3.063968017578125,-5.547226714894175,-8.076804813745618,-0.4048271474458277,9.806593566309193,0.03328468585233051
1789141178398940200,3.073940185546875,-5.54270485355556,-8.079922068983317,-0.4045688983684405,9.806575572079456,0.03833115043334229
1789141178408912000,3.083911865234375,-5.540449768105149,-8.081496770954132,-0.4039986972650513,9.806565472323967,0.040771022230387026
1789141178418884000,3.093884033203125,-5.539164988991618,-8.082424991714953,-0.4030366838324815,9.80655978137667,0.04202790464926892
1789141178428856000,3.10385595703125,-5.537335435476899,-8.083749518316983,-0.4016195105109363,9.806552023822654,0.043882059671933094
1789141178438829000,3.1138291015625,-5.534835435354709,-8.085387348651885,-0.4030961954673752,9.806536468843472,0.047126449488404526
1789141178448801000,3.123801025390625,-5.535851918920875,-8.084533946692943,-0.4062449783544987,9.806538618775264,0.046700153726867706
1789141178458773200,3.133773193359375,-5.537357647308707,-8.08336548743546,-0.408985764962621,9.806543544003732,0.04583004660384169
1789141178468745000,3.143744873046875,-5.538338475039601,-8.082527867567538,-0.4122200341761112,9.806541820509384,0.045963825846945694
1789141178478717200,3.15371728515625,-5.540321173289418,-8.081155994692445,-0.4124938096161931,9.806551977544494,0.04393595842282377
1789141178488690200,3.163690185546875,-5.539989164856076,-8.081524828004836,-0.4097059689959511,9.806554974628124,0.04315093288251406
1789141178498662000,3.173661865234375,-5.539655402857065,-8.081896583926678,-0.4068742527013644,9.806557622955635,0.042527883220374596
1789141178508634000,3.183634033203125,-5.541355777034164,-8.080869578966498,-0.4041105966743081,9.806569335601463,0.03975223668761315
1789141178518605800,3.193605712890625,-5.540367350518703,-8.08168323343694,-0.4013994014868512,9.806567958288252,0.0402569658272675
1789141178528579000,3.2035791015625,-5.539227532833814,-8.082596841150522,-0.3987222912320867,9.80656406098169,0.04115993766077012
1789141178538551000,3.213551025390625,-5.538949300414323,-8.082873904526233,-0.3969689082261174,9.806563554717844,0.041297341433304095
1789141178548523000,3.22352294921875,-5.538809015160799,-8.083105375194549,-0.3941859629767015,9.806562804220572,0.04130802840837957
1789141178558495000,3.233494873046875,-5.539188954389095,-8.083068550315499,-0.3895869447486474,9.8065645675484,0.0409979456620451
1789141178568467200,3.24346728515625,-5.539782828629017,-8.082919497233629,-0.3841891042931005,9.806563728261334,0.041115672670934314
1789141178578440000,3.25343994140625,-5.543132139056921,-8.080915756195783,-0.3779850620212033,9.806572179953122,0.039091639255203016
1789141178588412200,3.263412109375,-5.548506233310699,-8.077583981424569,-0.3702816115044057,9.806579838505513,0.03721210676625913
1789141178598383900,3.2733837890625,-5.553654117593169,-8.074307736232877,-0.3645148646712303,9.806582020612568,0.036601049360106316
1789141178608356000,3.283356201171875,-5.554727299782633,-8.073734320259094,-0.3608231705464422,9.80657300350591,0.03873675763772771
1789141178618328000,3.293328125,-5.554802703106403,-8.073824921151996,-0.3576137800458818,9.806561995817038,0.041368656358406954
1789141178628300800,3.30330078125,-5.555314159759879,-8.073670022851228,-0.353170792629756,9.806547694335329,0.04488851755576894
1789141178638273000,3.31327294921875,-5.552041421699523,-8.07614605757594,-0.3479927689373493,9.806515837160102,0.05143145270609651
1789141178648245000,3.323244873046875,-5.546331227359175,-8.080333572393656,-0.3417667705619707,9.80646355524948,0.060479663984429506
1789141178658217000,3.333217041015625,-5.542393887910246,-8.083262611582875,-0.3363212185071781,9.806415638030133,0.06774033344080221
1789141178668189000,3.34318896484375,-5.540146985766292,-8.08504423430264,-0.3304714695656672,9.806369161088796,0.07419004764262056
1789141178678162200,3.353162109375,-5.538872143524885,-8.086112740316986,-0.3256581875324249,9.80633042991493,0.07912411682928785
1789141178688134000,3.3631337890625,-5.537580350148677,-8.087183584418892,-0.321016608804278,9.806290852617419,0.08393949873135523
1789141178698106000,3.373106201171875,-5.539004829993844,-8.086322583675384,-0.3181063108481466,9.80627635302941,0.08557538764923683
1789141178708077800,3.383077880859375,-5.5428813791662455,-8.083750102838874,-0.3159669241992756,9.806279504679267,0.08524718148254264
1789141178718051000,3.393051025390625,-5.54583730636239,-8.081820596081018,-0.313445406365022,9.80627265515673,0.08602448126484535
1789141178728023000,3.40302294921875,-5.54716241748631,-8.080990574997664,-0.3113994701532647,9.806261707696166,0.0872955288501466
1789141178737995000,3.4129951171875,-5.546424750861525,-8.081584449237585,-0.3091187753375619,9.806239411941663,0.08976491562025755
1789141178747967000,3.422967041015625,-5.543877404466271,-8.083416925361751,-0.3068959481889382,9.806209009205514,0.09303685166599664
1789141178757939200,3.432939208984375,-5.541840930202603,-8.084827961203455,-0.3064800608644262,9.806194797648315,0.09443344856920759
1789141178767912000,3.442911865234375,-5.538807846117019,-8.08690944365263,-0.3063957070492207,9.806178516088778,0.09611423381901467
1789141178777884000,3.4528837890625,-5.535663118350506,-8.089104907870292,-0.3052707946725189,9.806150864621536,0.09889311785760145
1789141178787856100,3.462856201171875,-5.534170249444246,-8.090129574742912,-0.3051850343515165,9.806141223023372,0.09984540689263194
1789141178797827800,3.472827880859375,-5.536417151588201,-8.088639628446101,-0.3039300475880503,9.806143355014125,0.09965886818481119
1789141178807800000,3.482800048828125,-5.5403498148620125,-8.085904066002369,-0.3050751442362554,9.80617568468315,0.09648792875232584
1789141178817773000,3.49277294921875,-5.544583506909013,-8.082838833212852,-0.3093388478290289,9.806232824097954,0.09043335192949277
1789141178827745000,3.5027451171875,-5.5488423333972685,-8.079705211362242,-0.3148233801873401,9.80629685157478,0.08332684395171094
1789141178837717000,3.512717041015625,-5.551722857269644,-8.077505655491352,-0.3204237209450453,9.806349939339823,0.07678884410605218
1789141178847689000,3.52268896484375,-5.550951288375258,-8.0778826721102,-0.3242550792688504,9.806374524219272,0.07354398322120748
1789141178857661000,3.532660888671875,-5.548588650897145,-8.07939541476071,-0.3270011631065979,9.80638497648978,0.07217851806187238
1789141178867634200,3.54263427734375,-5.545982267791032,-8.081208601662516,-0.3264129879551008,9.806370529066154,0.07412330001681093
1789141178877606000,3.55260595703125,-5.541379742431641,-8.084442176756262,-0.3244919202320278,9.806335811898824,0.0785347675478466
1789141178887578000,3.562578125,-5.541440532708168,-8.084419964924454,-0.3240017986275255,9.806332505791216,0.07892590314050633
1789141178897550000,3.572550048828125,-5.543434921395779,-8.083028802827,-0.3245999471837654,9.806346422186486,0.07720316614701925
1789141178907522800,3.582522705078125,-5.5459770070940255,-8.081178791046142,-0.327208083855547,9.806374829025547,0.07341293390243295
1789141178917495000,3.5924951171875,-5.550030666399001,-8.078136939132213,-0.3335292497010901,9.80643113939284,0.06547422465609014
1789141178927467000,3.602467041015625,-5.555030666643381,-8.074352744418382,-0.3418189756732434,9.806493827528362,0.05528988536360823
1789141178937439000,3.61243896484375,-5.558343736714124,-8.071699015039204,-0.3505273654488846,9.806543715196305,0.04560570936179657
1789141178947411000,3.622410888671875,-5.560954795995355,-8.069404766622185,-0.3617453634252771,9.80659045679294,0.03398310441842201
1789141178957384200,3.63238427734375,-5.56146625264883,-8.068526814743876,-0.3733057816311717,9.806621755390378,0.023638800650533743
1789141178967356000,3.64235595703125,-5.560260968512297,-8.068810892382263,-0.3849311182994395,9.80663511101675,0.017059314075739712
1789141178977328000,3.652328125,-5.557713037595152,-8.070002732515334,-0.3965640537522732,9.806631844615083,0.018794253640462243
1789141178987299800,3.6622998046875,-5.556196203291416,-8.070578486576675,-0.4059969949427991,9.806620217666627,0.02422444672197804
1789141178997272000,3.67227197265625,-5.554266696533561,-8.071473389589785,-0.4145076701892539,9.806599504960737,0.03136834435253262
1789141179007245000,3.6822451171875,-5.555363844120502,-8.070229527008532,-0.4239282633548602,9.806577348808698,0.03778800689286028
1789141179017217000,3.692217041015625,-5.55902353567183,-8.067054988625646,-0.4361880254691466,9.806538167311277,0.0467763433063918
1789141179027189000,3.70218896484375,-5.562043175753951,-8.064204275369644,-0.4501908683910965,9.806471097373727,0.05925637685164153
1789141179037161200,3.7121611328125,-5.565480748987198,-8.060973038363457,-0.4653165413305163,9.80637367968776,0.07360047916029545
1789141179047134000,3.722134033203125,-5.569420426523685,-8.057245542272925,-0.4824186289094388,9.806232755427132,0.09042397781050127
1789141179057106000,3.73210595703125,-5.571887108898163,-8.054348067265748,-0.5019406736442819,9.806033694624952,0.10998346562829839
1789141179067078100,3.742078125,-5.572050775027275,-8.053125831994414,-0.51943216239959,9.805821536673475,0.127511833425519
1789141179077049900,3.7520498046875,-5.57094076795876,-8.052752322506905,-0.5368325388053432,9.805579485246483,0.14491770415931138
1789141179087022000,3.76202197265625,-5.569665341195464,-8.052437265208363,-0.5545020510086789,9.805302231290108,0.16259951002507858
1789141179096995000,3.7719951171875,-5.569128165578842,-8.051749282944202,-0.5696763488627969,9.805038244055611,0.17779543047153504
1789141179106967000,3.781967041015625,-5.56890663178265,-8.050960762915015,-0.5828359458936379,9.804790445476932,0.1909773275022358
1789141179116939000,3.79193896484375,-5.569263190135359,-8.04967949093282,-0.59695116314888,9.804504390579481,0.20512614176072613
1789141179126911000,3.801910888671875,-5.571475605487823,-8.04703219129443,-0.6118101845087484,9.804180009361168,0.2200762508455438
1789141179136883000,3.811883056640625,-5.574382432845234,-8.043699247479438,-0.6289370046701281,9.803777405034506,0.23737615696017134
1789141179146856200,3.821856201171875,-5.576248226717114,-8.040888281711936,-0.6480484593100846,9.803291559315548,0.2566516191353662
1789141179156828000,3.831827880859375,-5.576529381746053,-8.039103736382723,-0.6674691260296851,9.802761154931497,0.27614779261949146
1789141179166800100,3.841800048828125,-5.576334735956788,-8.037708482632041,-0.6856528713654726,9.802230858106032,0.2943752768473494
1789141179176772000,3.851772216796875,-5.575750798588991,-8.036601398172975,-0.7031571100044995,9.801689007091841,0.31189987285413445
1789141179186744000,3.861744140625,-5.574126996779442,-8.03636700489521,-0.7185410685539245,9.801188694750634,0.32724280081433843
1789141179196717800,3.8717177734375,-5.57051172889173,-8.037499223795532,-0.7337490129493176,9.800672827999628,0.3423367154542173
1789141179206689500,3.881689453125,-5.567181707686186,-8.038615660604835,-0.7466792216710746,9.800215018510018,0.3552032606311628
1789141179216661800,3.891661865234375,-5.566607122668624,-8.037869226151704,-0.7588960944917053,9.799763487399687,0.367444455835662
1789141179226633500,3.901633544921875,-5.566710583043098,-8.036765648823977,-0.7697446015685796,9.799349034792087,0.37833061658350814
1789141179236605700,3.911605712890625,-5.567748109397292,-8.035120219704508,-0.7793665625251829,9.798971013614839,0.3880145202435683
1789141179246578700,3.92157861328125,-5.5701645228892565,-8.032406284570694,-0.7900000386118888,9.798538845364181,0.398773230496777
1789141179256550700,3.931550537109375,-5.576320707431435,-8.027230927759408,-0.799123256266117,9.798148531852119,0.4082552218592273
1789141179266522600,3.941522705078125,-5.581438196575641,-8.022839414802194,-0.807453423846513,9.797780466388861,0.41699350357948045
1789141179276494800,3.951494873046875,-5.586019679147005,-8.018746592530608,-0.8163860142994671,9.797377374698753,0.4263748035749803
1789141179286467600,3.961467529296875,-5.590548554748296,-8.014618114423751,-0.8258598720222711,9.79693672473357,0.4363622380899707
1789141179296439600,3.971439453125,-5.594889214301109,-8.010489051795005,-0.836459372774139,9.796433642534952,0.4475179761100323
1789141179306411800,3.981411865234375,-5.594015938597917,-8.009856014588475,-0.848277820861712,9.795889641730398,0.45927016464356957
1789141179316383500,3.991383544921875,-5.591655639207363,-8.01029382148385,-0.8596292359594255,9.795362028420874,0.47038819018822
1789141179326355700,4.001355712890625,-5.589176681873202,-8.01105837611556,-0.8685862302012741,9.794939794243568,0.4791124640055265
1789141179336328700,4.01132861328125,-5.58660653912425,-8.012059662112593,-0.8758453344840555,9.794592418391002,0.4861451015618619
1789141179346300700,4.02130078125,-5.583960993051528,-8.013546101278067,-0.8791158075220883,9.794441450125555,0.48918582596752613
1789141179356272600,4.031272705078125,-5.582663354456424,-8.014469061341881,-0.8789411085423081,9.794455606665734,0.4888980524983125
1789141179366244600,4.04124462890625,-5.583465318489075,-8.014298965471982,-0.8753959102161228,9.794629797642,0.48540498298033524
1789141179376216600,4.051216552734375,-5.583560595557094,-8.014884656405448,-0.8694034648682921,9.794925709498719,0.47939306405849275
1789141179386189800,4.06118994140625,-5.582782596921921,-8.015873667442799,-0.8652674610421061,9.795131065148599,0.4751708877827907
1789141179396161500,4.07116162109375,-5.583157859975099,-8.015878928139806,-0.8627995365586131,9.79524996634772,0.4727238274597999
1789141179406133800,4.0811337890625,-5.582817668235301,-8.01663705303073,-0.8579362413711845,9.795485278060784,0.46780927560064833
1789141179416105700,4.091105712890625,-5.579472449460625,-8.019723328608274,-0.8508221715822816,9.795836362423902,0.4603948413954998
1789141179426077700,4.10107763671875,-5.576372145357728,-8.022660551103948,-0.8434301616348325,9.796193009942673,0.4527533227561221
1789141179436050700,4.11105078125,-5.573448366865516,-8.025675515010953,-0.8340311957791448,9.796633622164677,0.44313866787676653
1789141179446022700,4.121022705078125,-5.569301184058189,-8.029611685416102,-0.8237761245507746,9.797101890644742,0.4326443632221473
1789141179455994600,4.13099462890625,-5.568562348389626,-8.031412597358226,-0.811118083833903,9.79765604581808,0.4199089075904569
1789141179465966600,4.140966552734375,-5.567671537029743,-8.03334444220364,-0.7979974671065807,9.798212952332353,0.40670894948393266
1789141179475938600,4.1509384765625,-5.566731041309237,-8.035455150747298,-0.7831720192227513,9.798820463858448,0.3918033878228299
1789141179485911600,4.16091162109375,-5.568469409409165,-8.035552181380986,-0.7696946249470115,9.79934921596081,0.3783321061487948
1789141179495883800,4.1708837890625,-5.570165107411146,-8.035608880004286,-0.7567232804972678,9.799840805344791,0.3653761204157729
1789141179505855500,4.18085546875,-5.569043994426727,-8.037655291140078,-0.7431237211465835,9.800341847214767,0.35169039468587576
1789141179515827700,4.19082763671875,-5.567503779247403,-8.04002260479331,-0.728913774812594,9.800844060378733,0.3373911865653382
1789141179525800700,4.20080078125,-5.564764125150441,-8.04349057316482,-0.7113730766206979,9.801436089158706,0.31975398892085133
1789141179535772700,4.210772705078125,-5.559509857884049,-8.048791017660498,-0.6922394101489335,9.802041499867922,0.3006069555293519
1789141179545744600,4.22074462890625,-5.554540837299824,-8.054129456079005,-0.6696694856181741,9.802702844111643,0.2782074379389198
1789141179555716900,4.230716796875,-5.549480631300806,-8.059601165488361,-0.6453384696990251,9.803351488838898,0.2542981531152352
1789141179565688600,4.2406884765625,-5.543904292473196,-8.065463920041918,-0.6195210146144032,9.803968786460771,0.22931500442071567
1789141179575661600,4.25066162109375,-5.539320471814275,-8.070641030418873,-0.5925091255808249,9.804538837619223,0.20347770603728968
1789141179585633800,4.2606337890625,-5.538356010696291,-8.073062120085954,-0.5680409296806901,9.80500228218396,0.17977775207823027
1789141179595605500,4.27060546875,-5.537627696421742,-8.075199716636538,-0.5442701049275696,9.805394810622682,0.15695070141819809
1789141179605577700,4.28057763671875,-5.539053345310688,-8.075892959597706,-0.5188737978644669,9.805759314398601,0.13218677419726535
1789141179615549400,4.290549560546875,-5.540901603525876,-8.076396232944726,-0.4905267512369901,9.806089867000399,0.10480794564632764
1789141179625522700,4.300522705078125,-5.541693046164513,-8.077614961084723,-0.4606096057485789,9.806345095287202,0.07734570765326047
1789141179635494700,4.31049462890625,-5.538570530229807,-8.081414937889576,-0.4305408498950302,9.806491519540142,0.05586069539924561
1789141179645466600,4.320466552734375,-5.534547850584984,-8.08571409638822,-0.4004735553462058,9.806536726912384,0.046998416954248105
1789141179655438600,4.3304384765625,-5.531281542265415,-8.089398337858915,-0.3700605891648679,9.806492556376284,0.05558371839155842
1789141179665410800,4.340410888671875,-5.52916440398097,-8.0922046274513,-0.3390320118358358,9.80635525115048,0.07598771004144769
1789141179675383600,4.350383544921875,-5.528678666290641,-8.093774068725109,-0.3080758421558887,9.806131391866066,0.10081825550590605
1789141179685355800,4.360355712890625,-5.531439363175631,-8.093017697399855,-0.276823557339888,9.805829035634122,0.1269058104626532
1789141179695327700,4.37032763671875,-5.535491268914938,-8.091246011552213,-0.2458644650504924,9.805437703404616,0.15416350903794604
1789141179705299700,4.3802998046875,-5.543873897334933,-8.086341872897744,-0.2166314293687231,9.805001942901272,0.17980197669556738
1789141179715272700,4.390272705078125,-5.549059191018342,-8.083504019123316,-0.1878379906806163,9.804465020308342,0.2069877022941834
1789141179725244700,4.40024462890625,-5.550684161871671,-8.082979118466376,-0.1603984690858051,9.803859945636283,0.23388871210492956
1789141179735216600,4.410216552734375,-5.550897512361407,-8.083353212475776,-0.1316604960451368,9.803139628107834,0.2623933467586041
1789141179745188600,4.420188720703125,-5.5498558943539855,-8.084495952770114,-0.10204205037551,9.802302671013972,0.29197634207108636
1789141179755160600,4.43016064453125,-5.547673289617896,-8.086303294453025,-0.073608640638832,9.801410919762212,0.3205341045262721
1789141179765133600,4.440133544921875,-5.5445852604746815,-8.088627353486418,-0.0455348671279381,9.800443694855907,0.34884807914798194
1789141179775105800,4.450105712890625,-5.544468356096744,-8.088814985013007,-0.0181915724492166,9.799438217813686,0.3760302675182306
1789141179785077500,4.460077392578125,-5.550763072326779,-8.084514657470583,0.0060853946030896,9.79851036593924,0.39947412002788346
1789141179795049700,4.4700498046875,-5.558003544974326,-8.079494783481955,0.027483426951908,9.797643694301474,0.4202055931694317
1789141179805021700,4.480021728515625,-5.562544695535302,-8.076272314304113,0.048105754228984,9.796751321141562,0.4405175364546268
1789141179814994700,4.48999462890625,-5.567217948043346,-8.072911897960305,0.0675735343262087,9.795866804862243,0.4597628923525117
1789141179824966700,4.499966552734375,-5.57228458378315,-8.06924577666819,0.0855313528184778,9.79501495955595,0.477577680943006
1789141179834939000,4.50993896484375,-5.575239341935515,-8.066986015042662,0.1040233695189934,9.794097479570517,0.49601664169259346
1789141179844910600,4.51991064453125,-5.573727183806896,-8.067782133856415,0.1218503099068999,9.793179703829574,0.5138307750666824
1789141179854882800,4.5298828125,-5.57241434764266,-8.06842510793507,0.1382338100208435,9.792307044430217,0.5302044115301763
1789141179864855800,4.539855712890625,-5.571565037336946,-8.068699833223222,0.1553479442305863,9.791365928673343,0.5473026571499274
1789141179874827500,4.54982763671875,-5.569622671097517,-8.069727422705292,0.1708504145931452,9.790486854574361,0.5628093724686266
1789141179884799700,4.5597998046875,-5.568264242225885,-8.070418327578901,0.1820929259562864,9.789833228360507,0.5740573559712109
1789141179894771500,4.569771484375,-5.568766931051016,-8.0698460806489,0.1918186943472363,9.789259719819274,0.583754612107428
1789141179904743700,4.57974365234375,-5.570260384479165,-8.06861215493977,0.2002332522754557,9.788757846562351,0.5921283935267522
1789141179914716700,4.589716552734375,-5.572185799583792,-8.067136821690202,0.2060160734605975,9.78840826269511,0.5978774040548567
1789141179924688600,4.599688720703125,-5.573374132585525,-8.06618814266324,0.2109152071463875,9.788107988969866,0.6027583226172716
1789141179934660600,4.60966064453125,-5.573985542482137,-8.065697728797794,0.2135072877325117,9.787948741972645,0.6053424374391495
1789141179944632600,4.619632568359375,-5.572349465712905,-8.066827025088667,0.2135825083931908,9.787944132526984,0.6054287465539449
1789141179954605600,4.62960546875,-5.569276049616932,-8.068953515723347,0.2134212168842554,9.787951743781294,0.6053063959401486
1789141179964577800,4.639577880859375,-5.564061529839038,-8.072531958732009,0.2141173276559449,9.787901660747696,0.6061189999656706
1789141179974549500,4.649549560546875,-5.560494777268171,-8.075020268416404,0.212918911651615,9.787967757671169,0.6050422638881455
1789141179984521700,4.659521728515625,-5.558941118085384,-8.076141965922712,0.2109175087013281,9.78808676710223,0.6031078205705384
1789141179994493700,4.66949365234375,-5.558945209738612,-8.076264130997657,0.2060872572669759,9.788382621316421,0.5982907109706034
1789141180004466400,4.679466552734375,-5.562729404452443,-8.073833104458451,0.1991028965386562,9.788814337354165,0.5911812395777275
1789141180014438700,4.689438720703125,-5.568959238752722,-8.069765416628123,0.1896400168675929,9.789389816412578,0.5815765131191348
1789141180024410600,4.69941064453125,-5.5739224141180514,-8.066587371113895,0.1787116860201582,9.79003525127646,0.5706054152444056
1789141180034382600,4.709382568359375,-5.576847361654043,-8.064852510145306,0.165273655640427,9.79080887227024,0.5571799650990664
1789141180044354600,4.7193544921875,-5.575010793876648,-8.066401493152975,0.1510305559555068,9.791607738751814,0.5429608824118785
1789141180054327800,4.729327880859375,-5.570860688459873,-8.069513487693667,0.1372619875803124,9.792357505869848,0.5292561466497636
1789141180064299500,4.739299560546875,-5.565649091291427,-8.073315218064188,0.124531091689784,9.793029441429294,0.5166727878613396
1789141180074271700,4.749271728515625,-5.559688721582293,-8.077590995687245,0.1129532291587442,9.793619374631,0.5053641769325506
1789141180084243500,4.759243408203125,-5.553678667512536,-8.08185508287251,0.1032674274520017,9.794095816371296,0.49606413279623146
1789141180094215700,4.769215576171875,-5.551015001261234,-8.0838108931154,0.0928368900588713,9.794606589532513,0.4858667968904031
1789141180104188700,4.779188720703125,-5.54971794718802,-8.084834390944241,0.0804110780621413,9.79520750655669,0.47359504569428745
1789141180114160600,4.78916064453125,-5.54841095624268,-8.085853797119855,0.0670224900144385,9.79583790809129,0.4603775193477275
1789141180124132600,4.799132568359375,-5.547943338730931,-8.086291019493341,0.0511332214245339,9.796566806039039,0.4446022524177007
1789141180134104800,4.809104736328125,-5.550190240874886,-8.08483614450991,0.0345796300072688,9.797309792827102,0.4279062603682441
1789141180144076500,4.81907666015625,-5.55227230784595,-8.083461933547257,0.0174435488271992,9.798048693135172,0.41064668016237427
1789141180154049500,4.829049560546875,-5.554700996297598,-8.081811243730783,8.0626611857e-06,9.798769310041711,0.39305997788191654
1789141180164021800,4.839021728515625,-5.557052527859807,-8.080171075308323,-0.0197789284056285,9.799548747049542,0.37313933570577734
1789141180173993500,4.848993408203125,-5.557539434593916,-8.07976366355121,-0.0395572174904402,9.800281387743542,0.35337645707097015
1789141180183965700,4.858965576171875,-5.556639855405688,-8.080261091679334,-0.0593408083714544,9.800970000034175,0.33372770690812864
1789141180193937400,4.8689375,-5.556865480855107,-8.079958893862367,-0.076792275643628,9.801547602062634,0.3163089580195224
1789141180203910400,4.878910400390625,-5.556454561966658,-8.0800816434592,-0.0921311620754655,9.80202825910627,0.3010595005541432
1789141180213882400,4.88888232421875,-5.554124073192477,-8.081482157906889,-0.108339771413384,9.80250300855574,0.2851672532201554
1789141180223854300,4.898854248046875,-5.553841164597869,-8.08144474850595,-0.124404076909786,9.802953784492574,0.26921065764694513
1789141180233826300,4.908826416015625,-5.554680538031459,-8.08060595959425,-0.1404054915041197,9.803381177636178,0.25317926816545366
1789141180243799600,4.918799560546875,-5.555836722329259,-8.079494783481955,-0.1575469703785143,9.803810321285802,0.23597006933059292
1789141180253771300,4.928771240234375,-5.556166977196932,-8.078878697410225,-0.176392357960809,9.804245138509724,0.21717277434762608
1789141180263743500,4.938743408203125,-5.555765995180606,-8.078723799109458,-0.1951046937479637,9.804638130949952,0.19862270300101925
1789141180273715500,4.948715576171875,-5.555664288371801,-8.07838302284777,-0.2114348105737008,9.80495317861119,0.18241653787291448
1789141180283687400,4.9586875,-5.55507041413188,-8.078405234679579,-0.2256878105981275,9.80520382204858,0.16837885139837958
1789141180293660400,4.968660400390625,-5.553031601780653,-8.07944919077456,-0.2381928892429917,9.805403202300312,0.15640680767471374
1789141180303632400,4.97863232421875,-5.550132957729697,-8.08114664234221,-0.2479647800642997,9.805541772940671,0.1474583832274808
1789141180313604400,4.988604248046875,-5.549163820436597,-8.08148098886311,-0.2585291364375501,9.805688217923384,0.13736799723376902
1789141180323576600,4.99857666015625,-5.549731391191482,-8.080798851817846,-0.2675092558266594,9.8058091720445,0.1284378500197546
1789141180333548300,5.00854833984375,-5.549371325707435,-8.080762026938796,-0.2759539714311249,9.805911932374377,0.12032794964726062
1789141180343521300,5.018521240234375,-5.54854130462408,-8.081081175890564,-0.2831985722645185,9.80599221072308,0.11358598075146083
1789141180353493500,5.028493408203125,-5.547292765867709,-8.081661021605134,-0.291011492771469,9.806071638870845,0.10652981102905724
1789141180363465200,5.03846533203125,-5.546236534813046,-8.082212810268997,-0.2957590891573577,9.80611473157441,0.10242519509292511
1789141180373437400,5.0484375,-5.545157507404685,-8.082688611087203,-0.3029112442006357,9.806178557863067,0.0961471731001519
1789141180383409400,5.058409423828125,-5.543709646683931,-8.083406403967738,-0.3101850163295865,9.806236535070264,0.09008607579221761
1789141180393382400,5.06838232421875,-5.542253018134832,-8.084199600172042,-0.3154994528179988,9.806273162379242,0.08601315001511417
1789141180403354400,5.078354248046875,-5.539966953024268,-8.085590762269497,-0.3199461665611714,9.806295200600028,0.08337747708398668
1789141180413326600,5.08832666015625,-5.538129216203093,-8.086669205155967,-0.3244990440925583,9.806319241406028,0.08060157707531736
1789141180423298300,5.09829833984375,-5.5369981663465495,-8.087254311567545,-0.3291720408722758,9.806344216873176,0.07744886560136331
1789141180433270500,5.1082705078125,-5.536044811144471,-8.087755246827006,-0.3328991716366261,9.806363175417156,0.07510135735213588
1789141180443243500,5.118243408203125,-5.534401135590672,-8.088711524638533,-0.3369667133364826,9.806377687074836,0.07316613140765026
1789141180453215500,5.128215576171875,-5.534249159899353,-8.088702172288299,-0.3396540161916986,9.806391082196187,0.07124176841141185
1789141180463187500,5.1381875,-5.535481332042813,-8.087817790669202,-0.3406475572736933,9.806404168695533,0.06948547277786772
1789141180473159400,5.148159423828125,-5.536080466979742,-8.087476429885625,-0.3390259108886122,9.80639924866901,0.0702444644644718
1789141180483132400,5.15813232421875,-5.536590754589438,-8.087252558001875,-0.3359861413339153,9.80638369969346,0.07222563442424167
1789141180493104400,5.1681044921875,-5.536137165603042,-8.087761092045902,-0.3311944866105913,9.806352304325255,0.07640988024347058
1789141180503076400,5.178076416015625,-5.535034172797203,-8.08871795437932,-0.3262305805929005,9.80631345146525,0.08126698503607435
1789141180513048300,5.18804833984375,-5.53405100697875,-8.08949887562394,-0.3235308931801468,9.806288621335908,0.08419216390713995
1789141180523020500,5.1980205078125,-5.530495360323786,-8.091958543735743,-0.3228204433558508,9.806261168657134,0.08733232412178167
1789141180532993300,5.2079931640625,-5.526439362931251,-8.094725670361518,-0.3229267167419195,9.806234726207943,0.09032092484498638
1789141180542965500,5.217965576171875,-5.526611796888709,-8.094616949290037,-0.3226704769585281,9.806233115912068,0.09038706950177236
1789141180552937500,5.2279375,-5.528254303398728,-8.093443229335547,-0.3239697595214471,9.806253809762342,0.08809979074832368
1789141180562909400,5.237909423828125,-5.531959003135562,-8.090906404334307,-0.3241086200028658,9.806279698637802,0.08521575977942608
1789141180572881400,5.24788134765625,-5.536982384255528,-8.087401611083745,-0.3258024913739413,9.806321586414686,0.08026798688662153
1789141180582854400,5.2578544921875,-5.540537446388602,-8.08487764556408,-0.3279905029375106,9.806354939422045,0.07604150620669992
1789141180592826400,5.267826416015625,-5.542613083618879,-8.08334502916932,-0.3307040727451443,9.806383349865136,0.07237012171886961
1789141180602798300,5.27779833984375,-5.543159611585736,-8.082830065384506,-0.3341167672654613,9.8064071411773,0.06908936990465585
1789141180612770300,5.287770263671875,-5.5395157021254295,-8.08519328738451,-0.3373542878819629,9.806408114748649,0.06893845810533666
1789141180622742500,5.297742431640625,-5.536149440562725,-8.087443112137914,-0.3386708503732457,9.806396865365649,0.07046406282123145
1789141180632715500,5.307715576171875,-5.535304806432127,-8.088034063768387,-0.338350020921044,9.806389741265487,0.07138134103995439
1789141180642687200,5.317687255859375,-5.535228234064578,-8.088204744160175,-0.3355458136878907,9.806374385222712,0.07362062599686778
1789141180652659500,5.327659423828125,-5.53804153791964,-8.08644241066277,-0.331568653685227,9.806365681319345,0.07473174049640965
1789141180662631400,5.33763134765625,-5.54063447702229,-8.084764832839369,-0.3291358005151152,9.806363153676502,0.07499922453501534
1789141180672603400,5.347603271484375,-5.543507986631989,-8.082852861738205,-0.3276981689274311,9.8063672170453,0.07442631752109166
1789141180682576400,5.357576416015625,-5.548474084606767,-8.079386646932363,-0.3291246580665931,9.806397568280229,0.07030669638770891
1789141180692548600,5.367548583984375,-5.553262487927078,-8.076026815110444,-0.3308313889192417,9.806425578361132,0.06633371812091
1789141180702520300,5.377520263671875,-5.55372835187316,-8.075686623370647,-0.3313265154924243,9.806430518824175,0.06565656577642603
1789141180712492500,5.387492431640625,-5.555353907248377,-8.07463389944732,-0.3297197378829121,9.806424831301655,0.0664588478949738
1789141180722464300,5.39746435546875,-5.558112266045809,-8.072872150471806,-0.3263539512442425,9.806409828301307,0.06862871644168107
1789141180732437200,5.407437255859375,-5.559965200436115,-8.071656344941259,-0.3248768644290045,9.806404507396795,0.06946074603764744
1789141180742409500,5.417409423828125,-5.5612581628561015,-8.070716433742643,-0.3260784587711096,9.806414819707362,0.06790915192795091
1789141180752381400,5.42738134765625,-5.560107823777199,-8.071376943477988,-0.3293161620507016,9.806433418762207,0.0650961881225025
1789141180762353400,5.437353515625,-5.556384419339895,-8.073691065639258,-0.3353788961557671,9.806461822947735,0.06066925021412734
1789141180772325600,5.44732568359375,-5.553008220905065,-8.07570240546167,-0.342797209588252,9.806492886323737,0.05546927439662802
1789141180782298400,5.45729833984375,-5.552779672846198,-8.075594268912077,-0.3489786016369238,9.806521282146532,0.0501128573033534
1789141180792270300,5.467270263671875,-5.554092509010434,-8.074397168081997,-0.3557578134482726,9.806554518776506,0.04342025644751799
1789141180802242300,5.4772421875,-5.556908735474944,-8.072232683524488,-0.3608569997508078,9.806579854802518,0.03720909847484811
1789141180812214300,5.48721435546875,-5.561176329791546,-8.06913354846537,-0.3643911286937072,9.806599226490231,0.03147855897219117
1789141180822187500,5.4971875,-5.563352504786849,-8.067478182473778,-0.3678142350101843,9.806612254582038,0.027179348153421896
1789141180832159200,5.5071591796875,-5.562608408421277,-8.067800838556884,-0.3719591527951881,9.806620310945789,0.02396589977310356
1789141180842131500,5.51713134765625,-5.560688838535547,-8.068863499352336,-0.3775738508718088,9.8066273317394,0.02099808177409706
1789141180852103400,5.527103515625,-5.557403240993619,-8.070803527504205,-0.3844237898318097,9.806628547144445,0.020458521476132512
1789141180862075400,5.537075439453125,-5.553142660939693,-8.073478884193301,-0.3898047887504101,9.806621319826556,0.024099151842086875
1789141180872048400,5.54704833984375,-5.549340346047282,-8.075881269159913,-0.3941662718955427,9.806609401732254,0.028559439642692117
1789141180882020400,5.557020263671875,-5.545474902790785,-8.078471285653114,-0.3954669792305678,9.806593440811062,0.0333080907221224
1789141180891992300,5.566992431640625,-5.545656104576588,-8.078407572767137,-0.3942319210102781,9.806594668293094,0.03302061958747291
1789141180901964500,5.576964599609375,-5.547396226242184,-8.077182414886355,-0.3948559346601367,9.80660155989285,0.030946872520980852
1789141180911936300,5.586936279296875,-5.548830642959476,-8.076144888532161,-0.3959234542937949,9.806606669120724,0.029305010273262242
1789141180921909200,5.5969091796875,-5.549962277337908,-8.075221928468347,-0.398875253304094,9.806609212411532,0.028420004108229834
1789141180931881500,5.606881591796875,-5.551971279072761,-8.073677037113905,-0.4021845970477908,9.80661348790037,0.027024661001709024
1789141180941853200,5.616853271484375,-5.553247290357947,-8.072673997551203,-0.4046735643193125,9.806613756444904,0.026613233017566976
1789141180951825400,5.626825439453125,-5.553087131360173,-8.072706146255134,-0.4062425306690856,9.806611895819145,0.027519643279547815
1789141180961797400,5.63679736328125,-5.552146635639668,-8.073281900316477,-0.4076426067253574,9.806606611934628,0.029191765968927193
1789141180971770400,5.646770263671875,-5.549892719233036,-8.074891673600673,-0.4064463826781138,9.806600970607398,0.030996784599650985
1789141180981742300,5.656742431640625,-5.547987762394548,-8.076233151337505,-0.4057932159990072,9.80659484197605,0.03280039515213175
1789141180991714600,5.666714599609375,-5.547586780378222,-8.076568082380295,-0.4046171214243397,9.806595221681915,0.0328062217647619
1789141181001686300,5.676686279296875,-5.546286803695559,-8.077371799978613,-0.4063876016955822,9.806587820898658,0.03490985177950143
1789141181011658500,5.686658447265625,-5.545975253528356,-8.07739751894176,-0.4101099101543426,9.806580740499767,0.03683083248121247
1789141181021631500,5.696631591796875,-5.544892718988657,-8.077925926730035,-0.4143148510308936,9.806567972960094,0.04004909897634631
1789141181031603500,5.706603515625,-5.543748225128651,-8.078568316286802,-0.4170915857352316,9.806556570612205,0.04270881412285539
1789141181041575400,5.716575439453125,-5.542845138809085,-8.078990925613045,-0.4209136647740378,9.806543518123396,0.04581647414346726
1789141181051547400,5.72654736328125,-5.540959471192956,-8.080164645567535,-0.4231962227532639,9.806527853550566,0.04898021408679431
1789141181061519400,5.736519287109375,-5.5385313672631975,-8.081708367878198,-0.4254875850934535,9.806508383448028,0.05265795308448792
1789141181071492400,5.746492431640625,-5.537757460281252,-8.082024594220519,-0.4295470896173268,9.80649079985096,0.055929644404305354
1789141181081464300,5.75646435546875,-5.537481565949321,-8.081925810021161,-0.4349196129685267,9.806467635985584,0.059786838240417396
1789141181091436300,5.766436279296875,-5.537673873651027,-8.081513722088932,-0.4401015456510707,9.80644542301352,0.06335224676785935
1789141181101408500,5.776408447265625,-5.540736183831095,-8.07915108461082,-0.4449190289353951,9.806436482437089,0.06477781270675949
1789141181111380200,5.786380126953125,-5.544183693936467,-8.076461114874482,-0.4507627134623005,9.806418445745377,0.06738889361968774
1789141181121353500,5.796353515625,-5.546747991466522,-8.074460880967974,-0.4550410483686253,9.806402790634516,0.06970267323431202
1789141181131325400,5.806325439453125,-5.549339761525392,-8.07243375905454,-0.4593687753746285,9.806382623771555,0.07237465820727453
1789141181141297400,5.81629736328125,-5.549572985759377,-8.071952113017439,-0.4649812449615448,9.806343708759739,0.07747169128918165
1789141181151269400,5.826269287109375,-5.545836721840501,-8.07416745097935,-0.4710619531147181,9.806284336227046,0.08468679064246191
1789141181161241300,5.836241455078125,-5.54233075954616,-8.076198664546013,-0.4774628331329673,9.806217312630901,0.09212975582123004
1789141181171214300,5.84621435546875,-5.538388743922114,-8.078463102346658,-0.4848465867087245,9.806133469879954,0.10069040829592571
1789141181181186600,5.8561865234375,-5.532925802341103,-8.081840469825268,-0.4908802043171599,9.806046029139623,0.10880240485847038
1789141181191158300,5.866158203125,-5.53043281648159,-8.083318725684284,-0.4946374744914472,9.805994494230394,0.11343266244425813
1789141181201130000,5.8761298828125,-5.530170950675011,-8.083357304129004,-0.4969108993161469,9.805968286915576,0.11559605430412923
1789141181211102000,5.88610205078125,-5.531735715773701,-8.082129223638772,-0.4994761101616546,9.805950740218181,0.11712933790879368
1789141181221075000,5.896074951171875,-5.535960639992356,-8.079007876747847,-0.5031462500417605,9.805933046538641,0.11858210586269063
1789141181231047000,5.906046875,-5.539172003254294,-8.076513721844554,-0.5078330561511218,9.805895493663394,0.12168960946322203
1789141181241019100,5.91601904296875,-5.540948949798941,-8.074976429274678,-0.5128526378788054,9.80584252353708,0.12581664989497537
1789141181250990800,5.925990966796875,-5.543023417985439,-8.073170256635546,-0.5188542894463986,9.805776907798808,0.13090306763555565
1789141181260963800,5.9359638671875,-5.543697956246137,-8.07237998304069,-0.5239111709771678,9.805712913703829,0.13558314711001632
1789141181270936000,5.94593603515625,-5.5404135277479885,-8.074261559003592,-0.5296260414926335,9.80562137056204,0.14203894768767686
1789141181280907800,5.95590771484375,-5.537545863357186,-8.075876008462906,-0.5349828923506662,9.80553280502609,0.14805606207150143
1789141181290880000,5.9658798828125,-5.534924282681942,-8.077455386608838,-0.5382389350045472,9.805471262333185,0.1520092510054906
1789141181300851700,5.975851806640625,-5.534131086477637,-8.077759337991475,-0.5418344387458637,9.805414076917646,0.15569888895859216
1789141181310825000,5.985824951171875,-5.533295804697275,-8.078056275111436,-0.5459204659504816,9.80534682299848,0.1598702036181335
1789141181320797000,5.995796875,-5.533655870181322,-8.077427914080022,-0.5515327163416892,9.805259398954904,0.16512253980945696
1789141181330769000,6.005768798828125,-5.535183225879073,-8.075964855790138,-0.557597642403841,9.805167399775897,0.17049659585107482
1789141181340740900,6.015740966796875,-5.536614135465026,-8.074635068491101,-0.5626396916916594,9.80508922721273,0.17497497935762618
1789141181350713000,6.025713134765625,-5.537772073328495,-8.07340464991331,-0.5688696721224114,9.804985097106215,0.18072666312569693
1789141181360685800,6.035685791015625,-5.536825147867202,-8.073579421958327,-0.575569096695818,9.804858485615084,0.18747603275288255
1789141181370658000,6.045657958984375,-5.536038965925574,-8.073672945460677,-0.5817734677612781,9.804736650950199,0.1937055389369771
1789141181380630000,6.055630126953125,-5.534823744916916,-8.074143485581875,-0.5867953510439023,9.804633585191226,0.19888679495457878
1789141181390602000,6.06560205078125,-5.534366648799181,-8.074146992713212,-0.5910303217325359,9.804546037458465,0.20311992478645352
1789141181400574000,6.075573974609375,-5.532904759553075,-8.074888750991224,-0.5945765795046464,9.804466703882486,0.20692361036102352
1789141181410546700,6.085546630859375,-5.532116824045777,-8.075218421337008,-0.5974239682924002,9.804403734117724,0.20988550092740707
1789141181420519000,6.095518798828125,-5.53352844440937,-8.074048793035745,-0.6001619053563103,9.804354105708175,0.21221649307664134
1789141181430491000,6.105490966796875,-5.536062931323051,-8.072035699647664,-0.60385144405663,9.80428739974225,0.2152632474440046
1789141181440462800,6.115462890625,-5.538808430638909,-8.069756648799776,-0.6091031175071373,9.804184481856375,0.2198737265987286
1789141181450434800,6.125434814453125,-5.541972447627782,-8.067188259616493,-0.6143245419498533,9.804080387934711,0.22447141491853045
1789141181460408000,6.135407958984375,-5.54494298787117,-8.06453043858409,-0.6223633984334767,9.80390549328269,0.23198537040533884
1789141181470379800,6.1453798828125,-5.546717011806368,-8.06253429633081,-0.6323444750260562,9.8036721206805,0.24166376199293121
1789141181480352000,6.15535205078125,-5.54788897819519,-8.06106188569069,-0.6407805141337215,9.803465280421097,0.24991799092178074
1789141181490323700,6.16532373046875,-5.547511961576342,-8.060697728553414,-0.6485810318168252,9.803263626994116,0.2577138906336238
1789141181500296000,6.1752958984375,-5.547742263200878,-8.060020852205156,-0.654978623899445,9.803093988500859,0.2640560684223196
1789141181510269000,6.18526904296875,-5.548153766611218,-8.059217719128727,-0.6613518121931702,9.802922579576123,0.2703619437133619
1789141181520241000,6.195240966796875,-5.549945910724997,-8.057472336766123,-0.6675405838306993,9.802753970297417,0.2763785422273923
1789141181530212900,6.205212890625,-5.551192111393809,-8.056161254167556,-0.672990665930137,9.802602519898887,0.2817237726080295
1789141181540185000,6.21518505859375,-5.553631321239471,-8.053820828521252,-0.6808360456682742,9.802378807148964,0.2894101456633475
1789141181550156800,6.22515673828125,-5.556382081252337,-8.051067145898937,-0.6908905528232455,9.802080822649158,0.2993414820390401
1789141181560129800,6.2351298828125,-5.556867818942666,-8.04979171913564,-0.7017671169508248,9.80174349136956,0.3102068575858539
1789141181570102000,6.24510205078125,-5.556601861482858,-8.049033009722828,-0.7124743889261037,9.801396898528374,0.3209287008612352
1789141181580073700,6.25507373046875,-5.5556321396678685,-8.048763545131683,-0.723013391662389,9.801045743902868,0.33150228837511075
1789141181590046000,6.2650458984375,-5.552667444643378,-8.04983088210225,-0.7338119951829314,9.800669958395087,0.34240530389575896
1789141181600017700,6.275017578125,-5.55232783742547,-8.049120103484391,-0.7441118554010987,9.800304616016248,0.3527190683893301
1789141181609991000,6.284990966796875,-5.552191643825173,-8.048495834106207,-0.751843253370747,9.80002327363086,0.3604571476884078
1789141181619963000,6.294962890625,-5.550989866819977,-8.048585265955328,-0.7597091644402593,9.799728337801856,0.36836911476000433
1789141181629934800,6.304934814453125,-5.553938195231557,-8.045864316558838,-0.7669550439152866,9.799457232371473,0.37552638687092094
1789141181639906800,6.31490673828125,-5.557608408176899,-8.042524943003057,-0.7753554271876811,9.799134249474156,0.3838784660760166
1789141181649879000,6.324879150390625,-5.55863132148385,-8.041089941763877,-0.7828657297525554,9.79883643901007,0.3913985335523602
1789141181659851800,6.334851806640625,-5.559053346288204,-8.039871213623881,-0.7923326462779193,9.79845313918694,0.40088694173224615
1789141181669824000,6.344823974609375,-5.561152364394069,-8.037346663582325,-0.8031377526044845,9.79800311616263,0.41173073231135987
1789141181679796000,6.3547958984375,-5.5603235123544925,-8.036800720137357,-0.8142639075789601,9.797528260154849,0.42288187463570165
1789141181689768000,6.364767822265625,-5.559087248557805,-8.03672122516036,-0.8234379055723547,9.79712719124821,0.4320739182817867
1789141181699741000,6.374740966796875,-5.559513949537277,-8.035624662095309,-0.8312189879026264,9.796779548672923,0.4398801492767789
1789141181709713000,6.384712890625,-5.560265060165524,-8.034329946109652,-0.8386832593686878,9.796440736190277,0.44737426625682025
1789141181719684900,6.394684814453125,-5.563431415241956,-8.031377526044846,-0.8459324998445809,9.796103424866974,0.4547016181653534
1789141181729656800,6.40465673828125,-5.567045514085889,-8.028091343981027,-0.8533063896134495,9.7957512286389,0.46220779351013774
1789141181739628800,6.41462890625,-5.572025640586018,-8.023771142694354,-0.8613960995014757,9.79535409867783,0.47054692798326436
1789141181749601800,6.424601806640625,-5.578343153169751,-8.018596954926847,-0.8686687939181923,9.794982435618547,0.4782405456769685
1789141181759574000,6.434573974609375,-5.584096602129936,-8.013969295126198,-0.8743852718688547,9.794677184421623,0.48444523093562336
1789141181769545700,6.444545654296875,-5.585571935379505,-8.012360106363893,-0.8797005486074835,9.794405549414655,0.4899196956302907
1789141181779518000,6.45451806640625,-5.587767399597167,-8.010251151385903,-0.8849408604137599,9.794129404561211,0.49539635991737496
1789141181789490000,6.464489990234375,-5.587256527465581,-8.010095084041357,-0.8895667666487396,9.79389577867613,0.49999326780072706
1789141181799463000,6.474462890625,-5.58504002045989,-8.01124542312026,-0.8931197098899633,9.793723684624448,0.503353220933357
1789141181809435000,6.484434814453125,-5.581119047623872,-8.013752437505126,-0.8951298076033591,9.793636314125724,0.5050376941053974
1789141181819407000,6.494406982421875,-5.576625827857852,-8.016717132529616,-0.8965968844812363,9.793578194324105,0.5061831011067037
1789141181829378800,6.50437890625,-5.573433753818273,-8.018656576159596,-0.899090016471222,9.793457880206011,0.5084906104712013
1789141181839351000,6.51435107421875,-5.572080001121759,-8.019278507450222,-0.9019358343563972,9.793313510128893,0.5112749363866881
1789141181849324000,6.524323974609375,-5.571136582791805,-8.019537450647354,-0.905449614631012,9.793130699419805,0.5147561123225579
1789141181859295700,6.534295654296875,-5.5726744598835705,-8.017925923797488,-0.9102469319101424,9.792871975398427,0.5196582587147348
1789141181869268000,6.54426806640625,-5.57513705060482,-8.015919260150193,-0.9128344641853124,9.792725636355476,0.5224041427325692
1789141181879239700,6.55423974609375,-5.575832047131657,-8.015411895149946,-0.9130521255239844,9.792712298034541,0.5226671011060378
1789141181889212000,6.5642119140625,-5.5751551707834,-8.01590581614673,-0.9128458623621613,9.7927253400511,0.5224167057059805
1789141181899185000,6.574184814453125,-5.574288324820995,-8.01670894922316,-0.9110906161926686,9.792822627481405,0.5205994644569971
1789141181909156900,6.584156982421875,-5.573391083720326,-8.017557090485095,-0.9091090869866312,9.79293058570964,0.5185554423544105
1789141181919128800,6.59412890625,-5.572691411018371,-8.018155640900135,-0.908115399774164,9.792985181751764,0.5175173943298447
1789141181929101000,6.60410107421875,-5.571354609456658,-8.019196674385666,-0.90712492743209,9.793041507375154,0.516450535470873
1789141181939072800,6.61407275390625,-5.570779439917207,-8.01957953622341,-0.9072783644281328,9.79303545206718,0.5165754263728851
1789141181949046000,6.6240458984375,-5.572174109145998,-8.018764128187298,-0.9059094141624868,9.793103110069689,0.5152725379369852
1789141181959018000,6.63401806640625,-5.573312173265219,-8.018233382311463,-0.9036096127875148,9.79322168404704,0.5130248856664514
1789141181968990000,6.643989990234375,-5.574326318743824,-8.01775348984003,-0.901603314466402,9.793323368416079,0.5110683613514004
1789141181978962000,6.6539619140625,-5.575484841129184,-8.017377057743072,-0.8977908435061573,9.79351991372919,0.5073087795017793
1789141181988934000,6.663933837890625,-5.57689003175199,-8.017035112437606,-0.8920936547778546,9.793809621541934,0.5016757979011011
1789141181998907000,6.673906982421875,-5.576337658566236,-8.01823922753036,-0.8846901005230844,9.794189336385385,0.4942001712353121
1789141182008878800,6.68387890625,-5.575096718594431,-8.019964736148715,-0.8768332495428621,9.794588151718125,0.48622759740491045
1789141182018850800,6.693850830078125,-5.57340218963623,-8.021959124836325,-0.8693355872638523,9.794964550859723,0.4785958406332767
1789141182028822800,6.70382275390625,-5.57122075394392,-8.024301304048299,-0.8616683405715971,9.795343312705425,0.4707800151952397
1789141182038795000,6.713794921875,-5.5672764002323145,-8.02787974705696,-0.8537918350428342,9.795727938961662,0.46270335337311425
1789141182048767700,6.723767822265625,-5.5655877164930105,-8.029846663215755,-0.8462724723886698,9.796084213315423,0.45509916270002493
1789141182058740000,6.733739990234375,-5.563264241981506,-8.032399854829906,-0.837278653267771,9.796502643512353,0.4460133998603093
1789141182068712000,6.7437119140625,-5.560834384486079,-8.035076965084672,-0.8276718898802995,9.796937957185955,0.436335085529572
1789141182078684000,6.753683837890625,-5.559170250666141,-8.037378812286256,-0.8164272961579263,9.79743450815576,0.4250442757994849
1789141182088656000,6.76365576171875,-5.560335202792286,-8.037850521451235,-0.8037506238058209,9.797977355887934,0.4123389035497241
1789141182098629000,6.773629150390625,-5.560837891617417,-8.038740163767338,-0.7912759037666023,9.798495419205402,0.39983315658731855
1789141182108600800,6.783600830078125,-5.560894590240717,-8.040036048796772,-0.7775929769814014,9.799045610301246,0.3861143286732277
1789141182118573000,6.793572998046875,-5.563147337603569,-8.03974144976437,-0.7644184381097555,9.799556910016651,0.37292196879780587
1789141182128544800,6.803544677734375,-5.563768099850416,-8.040406635674834,-0.7528179436217993,9.79999255097827,0.36129654430450864
1789141182138517000,6.81351708984375,-5.56200810444057,-8.042793823072314,-0.740213386657834,9.800450390341926,0.3486468679724971
1789141182148490000,6.823489990234375,-5.560735015764832,-8.044880566218495,-0.7269920860350132,9.800913340113105,0.3353989162529626
1789141182158461700,6.833461669921875,-5.557180538153648,-8.04865657762587,-0.7122182222079485,9.801406123857769,0.32065718367495355
1789141182168434000,6.843433837890625,-5.551779555892944,-8.053727889540792,-0.6968534798156469,9.801890534473083,0.3055092118679826
1789141182178406000,6.853406005859375,-5.548741211110353,-8.057196442434192,-0.6807744516741484,9.802371747423274,0.289664494232236
1789141182188377900,6.8633779296875,-5.546866649410128,-8.059701118731498,-0.6662431644313037,9.802784007121494,0.2753496204729948
1789141182198351400,6.873351318359375,-5.545108407565951,-8.061905935299396,-0.6540932924322783,9.803111137446741,0.2634475722924582
1789141182208323600,6.883323486328125,-5.544566555774211,-8.063232215467094,-0.6422221643093973,9.803418610413777,0.25172387506821575
1789141182218295300,6.89329541015625,-5.547060126155615,-8.062492795276642,-0.6298535349931568,9.80373340042828,0.23915059260562407
1789141182228267500,6.903267578125,-5.549550773927569,-8.061783770224451,-0.6168600517768412,9.804046527238313,0.22596319496540707
1789141182238239500,6.913239501953125,-5.551387341704964,-8.061589124435185,-0.6027141105897724,9.804364633404454,0.2117051326863874
1789141182248212200,6.923212158203125,-5.552520145127177,-8.061976662448048,-0.586886061534658,9.804694034476912,0.19585149327137089
1789141182258184400,6.933184326171875,-5.551670250299573,-8.063737242379784,-0.5705030820105225,9.80500299804559,0.17969656954028118
1789141182268156400,6.943156494140625,-5.551747407189011,-8.064766585427522,-0.5549991868758574,9.805272945557554,0.16433475350068918
1789141182278128400,6.95312841796875,-5.552052527615428,-8.065549260237812,-0.5403910350045189,9.805505523242093,0.14985340538554623
1789141182288101400,6.963101318359375,-5.5509244003683325,-8.067370045924186,-0.5245620361013338,9.805728006026934,0.13447958215720562
1789141182298073600,6.973073486328125,-5.549728468582034,-8.069285524156689,-0.5074678761005401,9.805939198058347,0.11804674756804609
1789141182308045300,6.98304541015625,-5.550938428893685,-8.069498290124535,-0.4905696770632639,9.806126018204393,0.10134702186207968
1789141182318017500,6.993017578125,-5.552556970006227,-8.069481923511624,-0.4721713025961071,9.806296725453137,0.08317265420791789
1789141182327989200,7.0029892578125,-5.553173056077957,-8.070082812014222,-0.4543188715739175,9.806426897217506,0.06606610412926073
1789141182337962500,7.01296240234375,-5.55315025972426,-8.071069484964013,-0.4367531485386192,9.806522537963273,0.05009454431007443
1789141182347934500,7.0229345703125,-5.552166509383916,-8.072692702251672,-0.418892168883793,9.80658344705896,0.036223720586902965
1789141182357906400,7.032906494140625,-5.550338709434866,-8.074820946452022,-0.4017519777841866,9.806608591795094,0.02873474718139533
1789141182367878400,7.04287841796875,-5.545327018752694,-8.079068082502484,-0.3852078894142061,9.806589707816654,0.03429646090262299
1789141182377850600,7.0528505859375,-5.540449768105149,-8.08327079488933,-0.3667770009169355,9.8065352729237,0.0473464435001298
1789141182387823400,7.0628232421875,-5.536109693074226,-8.087019333767891,-0.3492650173628702,9.806449568481327,0.06265103089323894
1789141182397795300,7.07279541015625,-5.533973850089311,-8.089231164598464,-0.3314529914163053,9.80634149681379,0.07781350249197651
1789141182407767600,7.082767578125,-5.532099288389087,-8.091198080757259,-0.3142810169389471,9.806206206858885,0.09328078481364967
1789141182417739300,7.0927392578125,-5.531260499477386,-8.092361863839626,-0.2987123677386902,9.80606355159831,0.10728443065039293
1789141182427711500,7.10271142578125,-5.5341877851009365,-8.09088185441494,-0.2842086991551332,9.805930778025655,0.11874251178906066
1789141182437684500,7.1126845703125,-5.537037329313159,-8.089436916303635,-0.269451293272525,9.805772505216934,0.13115481097272547
1789141182447656400,7.122656494140625,-5.538580467101931,-8.08890383234024,-0.2532589957485907,9.805563893228994,0.14593030577331656
1789141182457628400,7.13262841796875,-5.538896693444252,-8.08920310754776,-0.2362269959975033,9.805308579455044,0.16220465810608745
1789141182467600400,7.142600341796875,-5.538610862240195,-8.089825623360277,-0.2211153881160542,9.805053577035242,0.1769329421891464
1789141182477572400,7.152572265625,-5.538658793035149,-8.090213745895028,-0.2051125487496145,9.804759967799928,0.19249106840828767
1789141182487545600,7.162545654296875,-5.536729286277294,-8.091915289115905,-0.1895604122927412,9.804440117407898,0.20820991767834168
1789141182497517300,7.172517333984375,-5.534775229600071,-8.093568901541829,-0.1754918471908196,9.804126239986685,0.22248699969779134
1789141182507489500,7.182489501953125,-5.533451287519932,-8.094781199941039,-0.160662526849471,9.803777319452344,0.2373363528841453
1789141182517461500,7.19246142578125,-5.530490099626779,-8.097076617401838,-0.1463370735101867,9.803408326846142,0.2521313275906987
1789141182527433500,7.20243359375,-5.529681121331453,-8.097860461255907,-0.132954316981649,9.803057749134785,0.26542978565663045
1789141182537406500,7.212406494140625,-5.530109575876593,-8.09777979723513,-0.1192640928059816,9.802687563515017,0.2787292981591778
1789141182547378400,7.22237841796875,-5.530833213976026,-8.097462986370921,-0.1066261541622225,9.802333113440229,0.29095966451054306
1789141182557350400,7.232350341796875,-5.532374598199128,-8.096540026307105,-0.0962453011297155,9.802035433649358,0.30082155485273687
1789141182567322400,7.242322265625,-5.533566438332199,-8.095833339342475,-0.0867253575091715,9.801751287394662,0.30994834011145184
1789141182577294300,7.25229443359375,-5.533281191650032,-8.096141966900229,-0.0753408027602592,9.801387658814111,0.32123463741958924
1789141182587267300,7.262267333984375,-5.5315352247655385,-8.097436098363994,-0.0635520191585877,9.800987737836213,0.33321394303593604
1789141182597239600,7.272239501953125,-5.529397628214955,-8.098982743284106,-0.0512884941846365,9.800553816590643,0.34573834711993134
1789141182607211300,7.282211181640625,-5.525833798253536,-8.101467545837163,-0.04202187687119,9.800200274169836,0.35560650510249125
1789141182617183500,7.29218359375,-5.521054747283459,-8.104769509992003,-0.0325687947916449,9.799820300932375,0.3659468929026772
1789141182627155500,7.302155517578125,-5.518206956636905,-8.1067305809319,-0.0264905092077096,9.799570701702317,0.3725648098090442
1789141182637128400,7.31212841796875,-5.514611562493443,-8.10919726330638,-0.0190271818814973,9.799256429811095,0.3807313972583686
1789141182647100400,7.322100341796875,-5.515086194267869,-8.108886882182956,-0.0127734883566619,9.799021018777452,0.3867459551247653
1789141182657072600,7.33207275390625,-5.517281073963642,-8.107401027539371,-0.00765772766195,9.798842587459287,0.39126008926412814
1789141182667044400,7.34204443359375,-5.51793690752387,-8.10695679090321,-0.0020181602909651,9.7986246907853,0.3966539639149119
1789141182677016600,7.3520166015625,-5.519286568567156,-8.106037922492623,0.0024571111139448,9.798457542666629,0.40076283361712245
1789141182686989600,7.361989501953125,-5.520868869322538,-8.104957141518593,0.0082121991899562,9.798238355895082,0.40609838634247103
1789141182696961300,7.371961181640625,-5.521323627352714,-8.104641499698161,0.0124024094299005,9.798069830712922,0.4101339401048414
1789141182706933500,7.38193359375,-5.522646400389075,-8.103733737203479,0.015990364619001,9.797932007602157,0.41340998220422615
1789141182716905500,7.391905517578125,-5.5236991243124,-8.103014190757275,0.0172252424594888,9.797889494074752,0.4144263051746701
1789141182726878500,7.40187841796875,-5.523619629335403,-8.103067382249236,0.01771852756039,9.797868313043143,0.41492803874274914
1789141182736850400,7.411850341796875,-5.521963094300031,-8.104200185671449,0.0155613620845891,9.797944216441218,0.41312026305271216
1789141182746822400,7.421822509765625,-5.51907380259931,-8.106171778005361,0.0131391992718505,9.79801954939411,0.4113174945427771
1789141182756794400,7.43179443359375,-5.517213269424438,-8.10744252859354,0.0111795884950319,9.798085002270344,0.40978273053430564
1789141182766766600,7.4417666015625,-5.5169303608298295,-8.107637758904694,0.0081049234401783,9.798207619835146,0.4068215385786785
1789141182776738300,7.45173828125,-5.5172834120512,-8.107398689451813,0.0072010391112358,9.798247904476524,0.40585664464931503
1789141182786711600,7.461711669921875,-5.518528443676233,-8.106550548189878,0.0072442954435391,9.798256629773572,0.4056321867603137
1789141182796683500,7.47168359375,-5.520667209270596,-8.105096257728338,0.006228350162669,9.798317412730109,0.4041861629165367
1789141182806655500,7.481655517578125,-5.522925801852345,-8.103559549680352,0.0030749359099674,9.798464014738856,0.40062350789806694
1789141182816627500,7.49162744140625,-5.525675977343321,-8.101684403458238,-0.0012794841671944,9.798659836554158,0.39579315861660264
1789141182826600400,7.501600341796875,-5.528116940754652,-8.100015593463182,-0.0076705015201994,9.798930951520598,0.38902515205381216
1789141182836572400,7.511572509765625,-5.529852386245131,-8.098824337852001,-0.0130424460577312,9.799152882970898,0.3834005093987282
1789141182846544400,7.52154443359375,-5.528611446273327,-8.099661373198032,-0.0177588059134955,9.799324197408708,0.37897167916394336
1789141182856516400,7.531516357421875,-5.527260031664371,-8.100570889258384,-0.0228688161457888,9.79950804103749,0.3741888907066929
1789141182866488600,7.541488525390625,-5.526711750131845,-8.100930370220542,-0.0277507863509352,9.799687107785989,0.3694838668238804
1789141182876461600,7.551461669921875,-5.526216660091281,-8.101248934650421,-0.0329571844711666,9.79987574513131,0.3644536067050766
1789141182886433300,7.561433349609375,-5.5267596809268,-8.100849706199766,-0.0393759974383283,9.800112854755115,0.3580182067894532
1789141182896405500,7.571405517578125,-5.527801298934221,-8.100107363399863,-0.0455072256357641,9.80033980947266,0.3517627404288021
1789141182906377500,7.58137744140625,-5.528037445777654,-8.09990804143548,-0.0517564770225668,9.800560048851938,0.34555714924188946
1789141182916349400,7.591349365234375,-5.5280561504781245,-8.099844328549503,-0.0591763887570938,9.800814980867148,0.3382462200394702
1789141182926322400,7.601322509765625,-5.52696426358819,-8.100538740554452,-0.0657535066916607,9.801028177876711,0.33201210567299544
1789141182936294700,7.611294677734375,-5.52390370697379,-8.102575214818119,-0.0717296584918163,9.801201607546327,0.32684777472441723
1789141182946266400,7.621266357421875,-5.522492671132087,-8.103497590360044,-0.0760750809847144,9.80133156884234,0.32293249331721857
1789141182956238600,7.631238525390625,-5.521394939023256,-8.10423350341916,-0.0774102979441173,9.801365968521505,0.32190100333721094
1789141182966210300,7.641210205078125,-5.519055097898841,-8.105835677918792,-0.0764368543686578,9.801314160733188,0.32345714767375794
1789141182976183300,7.651183349609375,-5.516086311221122,-8.107863384354115,-0.0757029871361563,9.801264251563687,0.3249720995289978
1789141182986155500,7.661155517578125,-5.51448705933094,-8.10897222237885,-0.0733720417042495,9.801173565202252,0.32768617933112754
1789141182996127500,7.67112744140625,-5.51388967795968,-8.109395416226983,-0.0715207421486033,9.80110788088096,0.3296557618549514
1789141183006099500,7.681099365234375,-5.514904992482066,-8.10871152561605,-0.0708272023599129,9.80109505711727,0.3300482626946025
1789141183016071700,7.69107177734375,-5.516570295345783,-8.10758865906596,-0.0695223348730011,9.801066380005086,0.330866828023998
1789141183026044400,7.70104443359375,-5.5193420981466765,-8.105718773540854,-0.0675160913508152,9.801024500629925,0.33210117848330917
1789141183036016400,7.711016357421875,-5.522417852330207,-8.103644889876247,-0.0649837781279114,9.800966654810153,0.33381875272671085
1789141183045988400,7.72098828125,-5.523790894249081,-8.102715500071644,-0.0642298773209564,9.800952935717905,0.33423247519293253
1789141183055960300,7.730960205078125,-5.524099521806836,-8.102493966275453,-0.065627035334357,9.801002109969778,0.33278904502907924
1789141183065932500,7.7409326171875,-5.5231853295713655,-8.103114144000411,-0.0659864797638962,9.801006677032639,0.3326519919753022
1789141183075905300,7.7509052734375,-5.521581401506066,-8.104218890371918,-0.0645966556735802,9.800947598877094,0.3344007902327094
1789141183085877500,7.76087744140625,-5.521284464386105,-8.104417043292521,-0.0650927366614108,9.800961548299318,0.3339873371940635
1789141183095849500,7.770849365234375,-5.520729753112793,-8.10481276461184,-0.0627366796211339,9.800877351906715,0.33643124137296593
1789141183105821400,7.780821533203125,-5.520406512507796,-8.105058263805509,-0.0594745816858019,9.800765005012511,0.33970585130265396
1789141183115793400,7.79079345703125,-5.519660078054666,-8.10559427037835,-0.0555988316644215,9.800626392868466,0.34368501677155416
1789141183125766400,7.800766357421875,-5.517593793174624,-8.107021672832966,-0.0523064116560621,9.800493681149996,0.3474208351580307
1789141183135738400,7.81073828125,-5.515392483738064,-8.108539091658592,-0.0492485538888256,9.80036759888442,0.3509712202252878
1789141183145710600,7.820710693359375,-5.511199708223343,-8.111391558480262,-0.0488380185928661,9.800312904524677,0.35248739604855456
1789141183155682300,7.830682373046875,-5.508077776810526,-8.113526232421398,-0.0464370492652058,9.800197226024357,0.35569572692555806
1789141183165654500,7.840654541015625,-5.506902887812257,-8.114333457151055,-0.0446897717730375,9.80012314279712,0.3577295505677807
1789141183175627500,7.85062744140625,-5.507565735635161,-8.113904418084024,-0.0406535019942792,9.799985826324038,0.36146334422494103
1789141183185599200,7.86059912109375,-5.509032885578274,-8.112931189137697,-0.0358095462615601,9.799826025640014,0.3657704264401664
1789141183195571500,7.870571533203125,-5.514677028945088,-8.10912127546072,-0.0295071650315891,9.799650195967526,0.3704555346679657
1789141183205543200,7.880543212890625,-5.5205316001921885,-8.105155294439196,-0.0236459242983954,9.79948331739834,0.37482974463586366
1789141183215515400,7.890515380859375,-5.52427838550508,-8.102618469437957,-0.0179536594820267,9.799299979571582,0.37963138185997725
1789141183225488400,7.90048828125,-5.527621266192197,-8.100346432852744,-0.0138014774142415,9.799166312003708,0.38306561469396694
1789141183235460400,7.91046044921875,-5.530491853192448,-8.098390038087963,-0.0116180701021978,9.799102386149073,0.3846930627797505
1789141183245432300,7.920432373046875,-5.5293041047126055,-8.099203108036518,-0.0097592379773559,9.799021339021932,0.38674398216231143
1789141183255404300,7.930404296875,-5.527176445034146,-8.100656813976169,-0.0088578344415116,9.798970966500766,0.3880292917614327
1789141183265376300,7.940376220703125,-5.525470225638151,-8.101821766102313,-0.007725414040967,9.798913531987075,0.3894745418709487
1789141183275349500,7.950349609375,-5.523265409070253,-8.103323987358808,-0.0083698060418624,9.79892099135873,0.3892786686925798
1789141183285321200,7.9603212890625,-5.522457599818706,-8.103874606978893,-0.0082266432738397,9.798908749701699,0.3895851384636581
1789141183295293400,7.97029345703125,-5.524065619537234,-8.102777459391952,-0.0093877788830373,9.798967254705769,0.388113896916887
1789141183305265400,7.980265380859375,-5.526612965932488,-8.101037337726353,-0.0113872558793635,9.799064630636018,0.3856408389476509
1789141183315238100,7.990238037109375,-5.531702398025989,-8.09755826343894,-0.0143556144404632,9.799216148052862,0.381772468259229
1789141183325210400,8.00021044921875,-5.535417034634947,-8.095006240868567,-0.0203098889105953,9.799467707913205,0.3752504765908873
1789141183335182300,8.010182373046876,-5.53707123158276,-8.093859408921002,-0.0259505936447298,9.799690724268384,0.36939558335092315
1789141183345154300,8.020154296875,-5.539761785840988,-8.0920006293118,-0.0307705702802399,9.799884730349314,0.36419902321182085
1789141183355126300,8.030126220703124,-5.54281708175838,-8.089881152939796,-0.0371428452585125,9.800133814781937,0.3574284177909901
1789141183365099500,8.040099609375,-5.543800832098722,-8.089173296931385,-0.0438578418603865,9.800379569083077,0.35062245501096523
1789141183375071200,8.0500712890625,-5.542627696666121,-8.089933759909869,-0.0514148468109313,9.80064005841653,0.34328989995867626
1789141183385043500,8.06004345703125,-5.543602679178118,-8.089235840773583,-0.0559106421265285,9.800800267893065,0.33868460404472134
1789141183395015200,8.07001513671875,-5.546102094778418,-8.087488704845308,-0.0605613403094699,9.80097064365899,0.3337126230467509
1789141183404987400,8.0799873046875,-5.546818134093284,-8.0869620506227,-0.0651281596012413,9.801127300171036,0.3290774132827784
1789141183414960400,8.08996044921875,-5.547390381023288,-8.086524828249216,-0.070493253131234,9.801307661821175,0.3236684328495451
1789141183424932400,8.099932373046874,-5.5487505634605885,-8.085533479124306,-0.0768223328551743,9.801518907583212,0.3171958900401161
1789141183434904300,8.109904296875,-5.549575323846936,-8.084872384867072,-0.0862331170128192,9.801820528689767,0.307730772693627
1789141183444876500,8.11987646484375,-5.5512680992394685,-8.08356948557496,-0.0986077102789655,9.802206438564054,0.2952042581879146
1789141183454848300,8.12984814453125,-5.550685915437341,-8.083803294330835,-0.1113979260081425,9.802579144618388,0.28256228460298005
1789141183464821200,8.1398212890625,-5.549741328063607,-8.084294292718171,-0.1222317743720021,9.802879062912785,0.27192959431644276
1789141183474793200,8.149793212890625,-5.549471863472461,-8.084322934290766,-0.1321410278373863,9.803145669830293,0.26212877884286745
1789141183484765200,8.15976513671875,-5.549453158771992,-8.084205445390939,-0.1399327594258356,9.803350012574615,0.2543968411887004
1789141183494737400,8.1697373046875,-5.548073687112331,-8.084991627332567,-0.1489060654816683,9.803571011742589,0.2457227822639799
1789141183504709000,8.179709228515625,-5.547379275107383,-8.08526693714261,-0.1594379717568866,9.803823757380817,0.2354112737227896
1789141183514682400,8.189682373046875,-5.549271956986188,-8.083705679175257,-0.1722267261813394,9.804127490558512,0.22240268480759284
1789141183524654300,8.199654296875,-5.551076960581541,-8.082173062780498,-0.1854629686449654,9.80442282996755,0.20896488457064988
1789141183534626300,8.209626220703125,-5.552183460518718,-8.08110631033182,-0.1983844278046861,9.804691523082612,0.19596146695146485
1789141183544598300,8.219598388671875,-5.555072167697548,-8.078842457053065,-0.2094326952373608,9.804914238640414,0.18450219768881826
1789141183554570200,8.2295703125,-5.55754937146604,-8.076937500214576,-0.2170498191775754,9.805060888914195,0.17653891170294841
1789141183564543200,8.239543212890625,-5.556810535797476,-8.07717130897045,-0.2270553360916674,9.80523323507309,0.1667183753251776
1789141183574515500,8.249515380859375,-5.555770671355724,-8.07758339690268,-0.237580949623417,9.805401832070594,0.15646375255912487
1789141183584487200,8.259487060546874,-5.55363307480514,-8.078697495624423,-0.2493743363349698,9.805574268948702,0.14523901380678284
1789141183594459400,8.26945947265625,-5.550671302390098,-8.080393193626403,-0.2601433667011559,9.80571539243132,0.13537460860504852
1789141183604431400,8.279431396484375,-5.549021197095513,-8.081190481483937,-0.2703711480638012,9.805841882844794,0.1258625051162355
1789141183614404000,8.289404052734374,-5.549498166957497,-8.080637523776293,-0.2770226235759444,9.80592441466818,0.11925017196429165
1789141183624376300,8.299376220703126,-5.550192578962445,-8.079917392808198,-0.2840292509349994,9.806007317952524,0.11223116243931613
1789141183634348300,8.309348388671875,-5.552135529723763,-8.078331000399588,-0.2911225884631276,9.80609124350083,0.10472620535380384
1789141183644320300,8.3193203125,-5.554052761521935,-8.076680895105003,-0.3001716814352199,9.806186385953087,0.0953307998895244
1789141183654292200,8.329292236328126,-5.554312289240956,-8.076189312195778,-0.3084789065314456,9.806261994607,0.08719943657854418
1789141183664265500,8.339265380859375,-5.554018859252333,-8.076057794770598,-0.3170943938592448,9.806331624976627,0.07901840928394747
1789141183674237200,8.3492373046875,-5.552162417730688,-8.077031023716927,-0.3247528361905366,9.806382732461454,0.07252434103415503
1789141183684209400,8.35920947265625,-5.551099172413349,-8.077499225750564,-0.3311827231075614,9.806420403998843,0.0670568422256262
1789141183694181000,8.36918115234375,-5.552790778762102,-8.076158332535623,-0.335495325609669,9.806452085281137,0.06223710694752323
1789141183704153300,8.3791533203125,-5.554944157403707,-8.074529854550958,-0.3390339845972135,9.806478877359655,0.05790539283232056
1789141183714126300,8.389126220703124,-5.55770017811358,-8.072443695926665,-0.3435030928352847,9.806509181772071,0.052445555744512894
1789141183724098300,8.399098388671876,-5.557973734357953,-8.071956789192557,-0.3504592686487361,9.806542587366884,0.04585432963338306
1789141183734070300,8.4090703125,-5.55773641847074,-8.071735255396366,-0.35922815643996,9.806576257426705,0.03809338602283302
1789141183744042500,8.41904248046875,-5.556557437819242,-8.072179492032527,-0.3673844652907923,9.806597490050308,0.032083092913171164
1789141183754014200,8.42901416015625,-5.555789960578084,-8.07241680791974,-0.373732884469442,9.806610222659646,0.02806094450579173
1789141183763987200,8.4389873046875,-5.5544198412686585,-8.073114727056026,-0.3789931796178221,9.806615540712116,0.026241877758451305
1789141183773959400,8.44895947265625,-5.55298074837625,-8.073951762402057,-0.3822146989475935,9.806614483097,0.02631937378275627
1789141183783931100,8.45893115234375,-5.552260032886267,-8.07435858963728,-0.3840792141778394,9.806613827716513,0.026460983320378533
1789141183793903400,8.4689033203125,-5.551678433606028,-8.074678323110938,-0.3857591666214168,9.806613269156724,0.026641616236004625
1789141183803875300,8.478875244140625,-5.549261435592174,-8.07620567880869,-0.3885517564820125,9.806606699324004,0.028950979449520405
1789141183813848300,8.488848388671874,-5.548005298051238,-8.076953866827488,-0.3909474925121292,9.806603572287935,0.030213770952149804
1789141183823820300,8.4988203125,-5.546224844375252,-8.077876242369413,-0.3971086089577526,9.806596199879511,0.032570404028672485
1789141183833792300,8.508792236328125,-5.546342917796969,-8.077431421211362,-0.4044359561711549,9.806590678205612,0.03414438378483783
1789141183843764200,8.51876416015625,-5.546425919905305,-8.077063172420859,-0.4106012008026242,9.806581695253387,0.03658929756749333
1789141183853736400,8.528736328125,-5.546718180850148,-8.076602569171786,-0.4156857740579173,9.806572516944815,0.03900988057740683
1789141183863709200,8.538709228515625,-5.550438078156113,-8.073844210374356,-0.4195951660539954,9.806575725492674,0.03815542418235483
1789141183873681400,8.548681396484374,-5.553723675698041,-8.071573342832922,-0.4198111834248527,9.806585117708389,0.035674270965476304
1789141183883653400,8.5586533203125,-5.555455614057183,-8.07033064929545,-0.4207968699939549,9.806587407525925,0.03517517686762463
1789141183893625300,8.568625244140625,-5.556411307346821,-8.06956551014185,-0.4228372532477602,9.806583236012875,0.036203822558716306
1789141183903597300,8.578597412109374,-5.556937961569428,-8.068902077797055,-0.4285301311271265,9.806564879250432,0.0407871566161742
1789141183913570300,8.5885703125,-5.554473617282509,-8.070306099376081,-0.4340176226275041,9.806537788168383,0.04696390838745789
1789141183923542300,8.598542236328125,-5.550583039584756,-8.072671659463644,-0.4397581025082617,9.806500583288983,0.054159943758801676
1789141183933514200,8.60851416015625,-5.545886406201124,-8.075726370859146,-0.4429184297027066,9.80646855132577,0.05969702425758218
1789141183943486200,8.618486328125,-5.542091105571389,-8.07823630785346,-0.4446507699206471,9.806443893330977,0.06362501173293549
1789141183953459200,8.628459228515625,-5.539976305374503,-8.079813347911834,-0.4423419815216213,9.806445922287574,0.06329299385439452
1789141183963431400,8.638431396484375,-5.5413353187680245,-8.079033011189102,-0.4395809923756867,9.806466484988636,0.06015013351422911
1789141183973403100,8.648403076171874,-5.545118928959965,-8.076533595588803,-0.4377656135167926,9.80648982676144,0.0559898828969729
1789141183983375400,8.658375244140625,-5.550290778639912,-8.072964504930377,-0.4380777482058852,9.806507995695773,0.05288354327237661
1789141183993347300,8.668347412109375,-5.556967772185802,-8.068355549830198,-0.4383240511171519,9.806524230299,0.04962452955673014
1789141184003320300,8.6783203125,-5.5619151654601096,-8.064819776919483,-0.4406490599986165,9.806522709553784,0.05002282529378853
1789141184013292300,8.688292236328126,-5.561995244958997,-8.064663125053048,-0.4425052457919344,9.806513683982432,0.051794632497973614
1789141184023264500,8.698264404296875,-5.559619163477421,-8.066191065272688,-0.4444956158915534,9.806498771528581,0.05442187929080865
1789141184033236200,8.708236328125,-5.557663937756419,-8.06753195848763,-0.4446132143892347,9.806494413212897,0.05521395015038895
1789141184043208400,8.71820849609375,-5.555142310324311,-8.069424640366435,-0.4417703556461259,9.806503316695128,0.05360840683545737
1789141184053181400,8.728181396484375,-5.550400084233283,-8.072896115869284,-0.4379246765360235,9.80650778390277,0.052686803355274384
1789141184063153200,8.738153076171875,-5.548798494255543,-8.074304229101537,-0.4322401646262034,9.806527650102915,0.048995118355158976
1789141184073125400,8.74812548828125,-5.548275347164273,-8.075016761285067,-0.425588268988952,9.80655000962277,0.04424145628583609
1789141184083097300,8.758097412109375,-5.548770437204838,-8.074922653260826,-0.4209084040770307,9.80656689817128,0.04048181390737075
1789141184093069300,8.7680693359375,-5.55081626381874,-8.07353675186038,-0.4205238982714712,9.806575079938419,0.03850232282749426
1789141184103042300,8.778042236328124,-5.552351218301057,-8.072431420966982,-0.4214793723654002,9.806577115592725,0.03798993086114596
1789141184113014300,8.78801416015625,-5.554225195479392,-8.071115662193298,-0.4219819515926763,9.806580756133323,0.03698912685624948
1789141184122986200,8.797986328125,-5.554418672224879,-8.070954918673634,-0.4225196751985698,9.806580092816468,0.03728062134927046
1789141184132958500,8.80795849609375,-5.554117643451691,-8.071224383264779,-0.4213156697036698,9.80658235229281,0.03654180546064949
1789141184142930200,8.81793017578125,-5.553982034373283,-8.071423705229163,-0.4192596504893153,9.806586901394843,0.03505805750474981
1789141184152903400,8.8279033203125,-5.554441468578577,-8.071250686749815,-0.416508452085033,9.806595786510467,0.03265037332266718
1789141184162875400,8.83787548828125,-5.554421010312438,-8.071421951663494,-0.4134576862122863,9.8066029408901,0.030513924841435718
1789141184172847400,8.847847412109376,-5.553957484453917,-8.071771495753525,-0.4128642138311639,9.806603083396542,0.030522820326064914
1789141184182819300,8.8578193359375,-5.553520262080431,-8.072092398270964,-0.4124570943349972,9.806602084644219,0.030649562488616597
1789141184192791300,8.867791259765625,-5.55109741884768,-8.073780497488379,-0.412024182810448,9.80659533980389,0.03264726203419334
1789141184202765000,8.87776513671875,-5.549625008207559,-8.074685337373614,-0.4141256486017257,9.806586292628138,0.03530392877448865
1789141184212736800,8.88773681640625,-5.546538148108125,-8.076679726061224,-0.416590577410534,9.80656979860698,0.039715488462509975
1789141184222709000,8.897708984375,-5.544427439564466,-8.07810479042828,-0.4170520209098234,9.806560009283615,0.04202154447460415
1789141184232681000,8.907680908203124,-5.543066088083386,-8.078956438821553,-0.4186449526570737,9.806550024969619,0.04426060765416373
1789141184242653000,8.91765283203125,-5.539111212977767,-8.081585618281364,-0.4202560776481405,9.806527840576727,0.049051178803110974
1789141184252626000,8.9276259765625,-5.534492905527353,-8.084531024083494,-0.42443212122377,9.806491094948484,0.05593416597852618
1789141184262598100,8.93759814453125,-5.534298259738088,-8.084348653253912,-0.4303791199946776,9.806468373977534,0.05962040098967841
1789141184272569900,8.94756982421875,-5.533258979818225,-8.084861863473057,-0.4340970810718834,9.806448225740242,0.06292663069986418
1789141184282542000,8.9575419921875,-5.534268449121713,-8.083902078530192,-0.4390733351144939,9.806432023563973,0.06539451839719607
1789141184292513800,8.967513671875,-5.536753251674771,-8.08191295053959,-0.4443342513173818,9.806419607353138,0.06723779773603406
1789141184302486800,8.97748681640625,-5.536667911478877,-8.081746361801027,-0.4484069441163912,9.806397033082764,0.07044029785144512
1789141184312459000,8.987458984375,-5.537087013673782,-8.081285758551955,-0.4515344284871593,9.806381685809534,0.0726201122148568
1789141184322431000,8.997430908203125,-5.537431881588697,-8.080877177751065,-0.4545944005796685,9.806364209652541,0.07486562506938763
1789141184332403000,9.00740283203125,-5.536487878736853,-8.081325506040454,-0.4581052947774529,9.806336601153363,0.0783766034167701
1789141184342375200,9.017375244140624,-5.535110160642862,-8.082131561726332,-0.4605417646767571,9.806313571649882,0.0812891320637897
1789141184352348000,9.027347900390623,-5.535969992342591,-8.081378697532415,-0.4634058854036033,9.806297948191911,0.08313227389018289
1789141184362320000,9.03731982421875,-5.535887574756146,-8.081189312440156,-0.4676543731609359,9.806265327851602,0.08679214450933127
1789141184372292000,9.0472919921875,-5.534052176022529,-8.082193521046637,-0.472024331873469,9.806222372915256,0.0916260956540588
1789141184382263800,9.057263916015623,-5.534188369622826,-8.081823518690467,-0.4767427021648734,9.80618432637322,0.0956287560651409
1789141184392236000,9.067236083984374,-5.537064217320085,-8.079573693937062,-0.4814625337610021,9.806158237433984,0.0982752069825314
1789141184402209000,9.077208984375,-5.540094378796219,-8.077188844627141,-0.4865668711626902,9.806124241579754,0.1014890957371183
1789141184412181000,9.087180908203123,-5.541788907754421,-8.075596606999635,-0.4936474405407905,9.806061681597775,0.10736363139471028
1789141184422153000,9.097153076171876,-5.541906396654248,-8.075025529113411,-0.5016077518954872,9.805977368707282,0.11481283148168159
1789141184432125000,9.107125,-5.543270086222886,-8.07360981709659,-0.5092725143697112,9.805895240574472,0.12163779142730663
1789141184442097000,9.117096923828123,-5.544579415255785,-8.072160787332058,-0.5179241324568167,9.805794294985471,0.12955431305444579
1789141184452070000,9.12706982421875,-5.5426855643332,-8.072987885805963,-0.5252574710195884,9.805691045195859,0.1371685330720475
1789141184462041900,9.137041748046874,-5.541887691953778,-8.073134016278386,-0.5313883749900385,9.8056028658406,0.1433111213868445
1789141184472013800,9.147013916015624,-5.542987177628278,-8.071975493893026,-0.5374898702029138,9.805519471132031,0.14892443447068224
1789141184481986000,9.156986083984377,-5.54520368463397,-8.0701237285465,-0.5424024844247848,9.805453558369226,0.1531726734829183
1789141184491958000,9.1669580078125,-5.545418788689375,-8.069629223027825,-0.5475405414329841,9.805374809183418,0.1581481426946722
1789141184501931000,9.176930908203126,-5.5459758380502455,-8.068861745786666,-0.5531674048714339,9.805285574397994,0.1635446458046761
1789141184511903000,9.186903076171877,-5.549881028795242,-8.065809957000612,-0.5584899516010656,9.80520942026078,0.1680742309224268
1789141184521875000,9.196875,-5.553008220905065,-8.063212341722846,-0.564876328169927,9.80510695743671,0.17394363599698268
1789141184531847000,9.206846923828126,-5.554130502933264,-8.061990690973401,-0.5712535350516438,9.804995657619846,0.18013966892511882
1789141184541819000,9.21681884765625,-5.553117526498436,-8.062356601676344,-0.575924011080712,9.804907479861846,0.18489460129154264
1789141184551791900,9.2267919921875,-5.553115772932768,-8.062082460910082,-0.5797508028272539,9.80483418006337,0.18869575763260793
1789141184561764000,9.23676416015625,-5.553132724067568,-8.06182351771295,-0.5831838460158556,9.804768256990116,0.1921049370332851
1789141184571735800,9.24673583984375,-5.551827486687898,-8.062416222909093,-0.5874039844615384,9.804682385474146,0.1964447869130233
1789141184581708000,9.2567080078125,-5.550262721589207,-8.063138107442855,-0.5922583291575312,9.804580557401696,0.20145083826361568
1789141184591680000,9.266679931640626,-5.549407566064596,-8.063401726815105,-0.596675634143129,9.804487872271523,0.20593959590256422
1789141184601652700,9.27665283203125,-5.548897278454899,-8.06344965761006,-0.6007462811155244,9.804400037704815,0.2100413830270851
1789141184611625000,9.286625,-5.54796379699707,-8.06376179229915,-0.6051670932324603,9.804302855648658,0.21454431053921208
1789141184621597000,9.296596923828124,-5.54723548272252,-8.063934810778498,-0.6095280649209395,9.80420553635712,0.21896208816065743
1789141184631569000,9.30656884765625,-5.54723606724441,-8.063716784113645,-0.6124008804108947,9.804141541359728,0.22181035919421177
1789141184641541000,9.316541015625,-5.54717936862111,-8.063601048779487,-0.6144442228067666,9.804095899701947,0.22384394993267806
1789141184651514000,9.32651416015625,-5.548561178368329,-8.062618467482924,-0.6148528036076575,9.804089925543252,0.2240812447714678
1789141184661485800,9.33648583984375,-5.548853439313173,-8.062503316670655,-0.6137237265124916,9.80411622691682,0.2229260951383549
1789141184671458000,9.3464580078125,-5.549261435592174,-8.062275353133678,-0.6130321640517562,9.804133072989199,0.22219242016468999
1789141184681429800,9.3564296875,-5.547679134836793,-8.063375423330069,-0.6128871295578777,9.80413221156298,0.22223683861540627
1789141184691402000,9.366402099609376,-5.54518614897728,-8.065210237541795,-0.6112878776676952,9.804159554043295,0.22098396051180277
1789141184701375000,9.376375,-5.540770086100697,-8.068348535567521,-0.6099194753913209,9.80417458982389,0.22032616080727152
1789141184711347000,9.386346923828125,-5.536099756202101,-8.072016410425304,-0.603763035120815,9.80428893824636,0.21516890749998924
1789141184721319000,9.39631884765625,-5.5307724236994975,-8.076172945582867,-0.5969733019154518,9.804406225061676,0.20978261818167884
1789141184731291100,9.406291015625,-5.527303286284208,-8.078973389956355,-0.5911752831611782,9.804504593098997,0.20511107603547807
1789141184741262800,9.416262939453125,-5.525399498489499,-8.08065856656432,-0.5859146592192351,9.804597386833429,0.20062043087494735
1789141184751235800,9.42623583984375,-5.526239456444978,-8.080477364778519,-0.5804608507927507,9.804707730134986,0.19513610276316518
1789141184761208000,9.4362080078125,-5.526591923144459,-8.080520619398355,-0.5765112729167565,9.804785662703106,0.19124623326817897
1789141184771180000,9.446179931640623,-5.527330174291134,-8.080375073447824,-0.5714477789821103,9.804883119092498,0.18617134114770828
1789141184781152000,9.456152099609374,-5.528827719372511,-8.079585968896746,-0.5680956920752301,9.804951565848864,0.1824907833490831
1789141184791124700,9.466124755859376,-5.530198423203825,-8.078945332905649,-0.5638525380801409,9.805034327020309,0.17799950206919532
1789141184801097000,9.476096923828123,-5.530669547846913,-8.078985664916038,-0.5586467861305922,9.805127062580015,0.17287145430947723
1789141184811069000,9.48606884765625,-5.530370272639393,-8.079540376189351,-0.5535508512310683,9.80520914510096,0.1681077294315093
1789141184821041000,9.496041015625,-5.530221219557523,-8.079960062906146,-0.5488936365423723,9.805283163162416,0.16373047927295373
1789141184831012900,9.506012939453123,-5.529516870680451,-8.080757350763678,-0.5442395271262154,9.8053520853609,0.15957233487097944
1789141184840984800,9.51598486328125,-5.529509271895885,-8.080933876374363,-0.5416882717408239,9.805390842679838,0.1571677713442809
1789141184850957800,9.525957763671874,-5.528365947079658,-8.081863266178965,-0.5394921134034172,9.805417152825552,0.15553166089858506
1789141184860930000,9.535929931640624,-5.52772998726368,-8.082416808408498,-0.5376984349196776,9.805438978623652,0.15409841122261395
1789141184870901800,9.54590185546875,-5.530017221418023,-8.080802358949184,-0.5384464768080041,9.805441790846867,0.15392572325428636
1789141184880874000,9.5558740234375,-5.532667443665861,-8.079030088579655,-0.5378165814066306,9.805466077383342,0.15237419366806781
1789141184890846000,9.565845947265624,-5.535082103592157,-8.077515592363476,-0.5357120468754321,9.805509397503847,0.14954895858026268
1789141184900819000,9.57581884765625,-5.538577544492483,-8.075145940622686,-0.5353073750646784,9.805532033344301,0.14804967939466634
1789141184910791000,9.585791015625,-5.5441153048753735,-8.07135414712429,-0.535173117693141,9.805557258439316,0.14638783905523792
1789141184920763100,9.59576318359375,-5.547504947313666,-8.068938902676106,-0.5364744095500559,9.80555050941574,0.1468678146780362
1789141184930734800,9.60573486328125,-5.5500633996248245,-8.067048558884858,-0.5384293064774945,9.805528951165881,0.14827102610731008
1789141184940707000,9.61570703125,-5.551099756935239,-8.066293356603383,-0.5390606997162103,9.805522450636301,0.1487041837889387
1789141184950680000,9.62568017578125,-5.550752550932764,-8.066465206038952,-0.540049674220942,9.805505922758629,0.14973994555642373
1789141184960651800,9.63565185546875,-5.551192111393809,-8.06615014874041,-0.5402622940583154,9.805505277609795,0.14987220146987348
1789141184970624000,9.6456240234375,-5.549864077660441,-8.06717949178815,-0.5385279810789972,9.805527237150844,0.1484055966971312
1789141184980595700,9.655595703125,-5.546544577848911,-8.069521671000123,-0.5376373889148235,9.805530216946657,0.14821565136976952
1789141184990569000,9.66556884765625,-5.549014767354726,-8.067965673729777,-0.5354935818191617,9.805569414292016,0.14559134065329915
1789141185000541000,9.675541015625,-5.552114486935735,-8.06594439703524,-0.5338098665159196,9.805602352403387,0.14335191745059367
1789141185010513000,9.685512939453124,-5.554113551798462,-8.06463974417746,-0.5327369400547817,9.805623211722828,0.1419634694541946
1789141185020484900,9.69548486328125,-5.559086079514026,-8.061042011946439,-0.5353052927054465,9.805594781190555,0.14387182246410468
1789141185030457000,9.70545703125,-5.5670192106008525,-8.055546337139607,-0.5355867765279486,9.805597481945414,0.14366940613658238
1789141185040429800,9.715429931640625,-5.573482853657007,-8.051078836336732,-0.5355474674308672,9.805597313008278,0.14371490498320189
1789141185050402000,9.725402099609376,-5.576681357437372,-8.048839532977341,-0.5358992034779861,9.805588580318961,0.14426829109391034
1789141185060374000,9.7353740234375,-5.576886524620652,-8.04848823532164,-0.5390296104582026,9.805541611633318,0.14742050767941842
1789141185070346000,9.745345947265625,-5.575471397125721,-8.04923583881855,-0.5425068581147119,9.805490896237416,0.15080074268608318
1789141185080318000,9.75531787109375,-5.572706608587503,-8.050892373853921,-0.5463220324886963,9.805433740932552,0.1544793712381299
1789141185090291000,9.765291015625,-5.569314628061652,-8.053148628348112,-0.5476418463829904,9.805413290601425,0.15572427239600833
1789141185100263000,9.775262939453125,-5.566641024938225,-8.055002731782198,-0.5475614015579223,9.805414572303928,0.15565944645233004
1789141185110235000,9.78523486328125,-5.566106187409162,-8.055531139570475,-0.5452131944639608,9.805451034372068,0.15332145985969994
1789141185120206800,9.795206787109375,-5.567217948043346,-8.055040141183138,-0.5411124811468646,9.805515323175097,0.14919558076205996
1789141185130178800,9.8051787109375,-5.568760501310229,-8.054164527392388,-0.5382547901608049,9.805558014686909,0.14632154659929458
1789141185140152000,9.815152099609374,-5.56967177093625,-8.053443227380514,-0.5396203063603491,9.805537645667457,0.14769227142937136
1789141185150123800,9.825123779296876,-5.568405112001299,-8.054033594489097,-0.5438749315975233,9.805473154445613,0.15194996277653514
1789141185160096000,9.835095947265623,-5.567226715871692,-8.054486598953604,-0.549192254162766,9.805388415588386,0.15728264403991163
1789141185170068000,9.84506787109375,-5.56657614300847,-8.054634482991695,-0.553596480471082,9.805316346726489,0.16170038440969334
1789141185180040000,9.8550400390625,-5.566698892605304,-8.054483091822267,-0.5545733626792207,9.80530073623861,0.16267613191808997
1789141185190013000,9.865012939453123,-5.56627745232284,-8.054813931211829,-0.5539861008431762,9.805309670273317,0.16209568980643854
1789141185199984400,9.874984375,-5.566475605243444,-8.054740865975617,-0.5530601816372945,9.805325204331552,0.16116539207002759
1789141185209956000,9.8849560546875,-5.565985191377997,-8.055234202450514,-0.550805899904482,9.805361842435895,0.15891974464949374
1789141185219928300,9.89492822265625,-5.562918789544701,-8.057337896731495,-0.5510314522886648,9.805357273383038,0.15926030233778501
1789141185229900300,9.904900390625,-5.55702856246233,-8.06130270870924,-0.5524637866467237,9.805325850385012,0.1611490266572047
1789141185239873300,9.914873291015626,-5.551273359936475,-8.065183934056758,-0.5536701302291825,9.80529342504812,0.16309282241654482
1789141185249845200,9.92484521484375,-5.544191877242922,-8.06990102570653,-0.555887988941744,9.805234728143208,0.16658186771008796
1789141185259817500,9.9348173828125,-5.538981449118256,-8.07342393913567,-0.5566883820718154,9.8052011661372,0.16858719109272802
1789141185269789200,9.9447890625,-5.5371396206438535,-8.074850172546505,-0.5543037884902209,9.805231342922912,0.16676777049254507
1789141185279761400,9.954761474609375,-5.537275229722261,-8.07489751881957,-0.5522631495080887,9.805265728368877,0.16475888902733074
1789141185289734400,9.964734375,-5.539071465489268,-8.073861161509155,-0.5493968002915383,9.805320124086512,0.16149570730533158
1789141185299706000,9.9747060546875,-5.539565971007943,-8.073588774308561,-0.5484039167966693,9.805337572895642,0.16040193673810976
1789141185309678300,9.98467822265625,-5.538130385246872,-8.07471105633676,-0.5463858549725265,9.805363452394218,0.1588454478025352
1789141185319650000,9.994650146484377,-5.53655100710094,-8.075874254897236,-0.54520530341845,9.80537473254055,0.15816830426285464
1789141185329622300,10.004622314453124,-5.533554163372516,-8.078148045048117,-0.5419351591739803,9.805409721375492,0.15598534994009086
1789141185339595300,10.01459521484375,-5.529867583814263,-8.080895882451534,-0.5385786883529275,9.805438906292455,0.15410585990197348
1789141185349567200,10.024567138671877,-5.527133774936199,-8.083146876248717,-0.5328327285794541,9.805505645512316,0.1498030090532769
1789141185359539200,10.034539306640625,-5.526161130511761,-8.084268573755025,-0.5258707075471059,9.805596449312228,0.14378277808442094
1789141185369511400,10.044511474609376,-5.523323276737332,-8.086676803940534,-0.5185857381707057,9.805671757136697,0.13847133228248842
1789141185379483100,10.054483154296875,-5.52140546041727,-8.088464271879195,-0.5110881489569321,9.805751209577306,0.13276613901636233
1789141185389456400,10.064456298828125,-5.524419839802384,-8.086745193001628,-0.5056969574378803,9.805835784340871,0.12639765124048288
1789141185399428400,10.074428466796874,-5.526714672741294,-8.085429434227944,-0.5016477916449308,9.805896595239304,0.12160049387232465
1789141185409400300,10.084400390625,-5.529155051630736,-8.084011384123563,-0.4975918673176318,9.805955775434494,0.11672463431771325
1789141185419372300,10.094372314453125,-5.531106185698509,-8.08301009812653,-0.4921494570679962,9.806024022211068,0.11086860601446426
1789141185429344300,10.10434423828125,-5.533548902675509,-8.081721227359772,-0.4857914298107847,9.806098655851848,0.10394190703015012
1789141185439317200,10.114317138671876,-5.536217829623818,-8.080382672232389,-0.4775832081096247,9.806187028795414,0.09525578045950502
1789141185449289200,10.124289306640623,-5.538897862488031,-8.079061652761697,-0.4687862267350777,9.80627258486969,0.08605369142967767
1789141185459261200,10.13426123046875,-5.538968589636683,-8.07939541476071,-0.4621458754051476,9.806321588207167,0.0802435284257909
1789141185469233200,10.144233154296876,-5.539101276105642,-8.079586553418636,-0.4571888740522786,9.80635588800422,0.07594527964634276
1789141185479205400,10.154205322265623,-5.538547733876109,-8.080216668015717,-0.4527428909614682,9.806381436170739,0.07260617153704253
1789141185489178000,10.16417822265625,-5.535894004496932,-8.082256064888835,-0.4487711377862841,9.806390714440186,0.0712896718236609
1789141185499150300,10.174150390625,-5.53455369580388,-8.083490575119853,-0.443026018263027,9.80641395714299,0.0679841437177968
1789141185509122300,10.184122314453123,-5.534938311207294,-8.083601634278892,-0.4361516755141317,9.806448946068269,0.0628079835447356
1789141185519094300,10.19409423828125,-5.53507567385137,-8.08388629643917,-0.4290860114442184,9.806478457763042,0.05809846525249231
1789141185529066200,10.204066162109376,-5.534787504559755,-8.08442814823091,-0.4225338498543948,9.806498059122136,0.05460654947538368
1789141185539039500,10.21403955078125,-5.534131670999527,-8.085221344435215,-0.415902997005172,9.806512153321965,0.05207907581084961
1789141185549011200,10.22401123046875,-5.534602795642615,-8.085211992084979,-0.409783235483244,9.806527510485981,0.04920923342769888
1789141185558983400,10.2339833984375,-5.535429894116521,-8.084834390944241,-0.406012192511931,9.80653641263791,0.04712461934819492
1789141185568955100,10.243955078125,-5.535756057330966,-8.0848934276551,-0.4003694008519873,9.806544669647574,0.04554297050548219
1789141185578927400,10.25392724609375,-5.533711984282732,-8.086593217310309,-0.394250917971693,9.806535453977226,0.04748013745362041
1789141185588900400,10.263900390625,-5.53472145358622,-8.086221461388469,-0.3876423500195145,9.806539345044401,0.046602114027597764
1789141185598872000,10.2738720703125,-5.535135879606008,-8.086226722085476,-0.3815547372015193,9.806535777395808,0.04724267993990397
1789141185608844300,10.28384423828125,-5.534253836074472,-8.08707427882552,-0.3763473047515377,9.806522912020835,0.04981549106950871
1789141185618816300,10.293816162109374,-5.532205671373009,-8.088739581689238,-0.3706235202772542,9.80649880856309,0.054318709403471756
1789141185628788200,10.303788330078126,-5.531072867950797,-8.089791136568785,-0.3645550140185281,9.806476675430039,0.05833760691866405
1789141185638761200,10.31376123046875,-5.530042940381169,-8.090755013164877,-0.3587344181062653,9.806450855695932,0.062478820945734474
1789141185648733400,10.3237333984375,-5.529508102852105,-8.091269976949691,-0.355375316936709,9.806435850520034,0.06494016413466679
1789141185658705200,10.333705078125,-5.530159260237217,-8.090851459276676,-0.3547521435370668,9.806437001903788,0.06466212727221048
1789141185668677400,10.343677490234375,-5.5314580678761,-8.090001564449071,-0.3538805483343079,9.80644172634785,0.0639201039832401
1789141185678649000,10.353649169921876,-5.532918203556537,-8.089007877236604,-0.3537706216864287,9.806450403768991,0.0625812785945305
1789141185688622300,10.363622314453124,-5.535976422083378,-8.086786694055796,-0.3567059444859624,9.806480141542934,0.05779572109292525
1789141185698594300,10.37359423828125,-5.536719933927059,-8.086192235293984,-0.3586358896352351,9.806491254733512,0.055870072879656896
1789141185708566300,10.383566162109377,-5.535311236172914,-8.087051482471823,-0.3609963351562619,9.806491297178976,0.05584759440748514
1789141185718538200,10.393538330078124,-5.534416333159804,-8.087494550064205,-0.3647756344992667,9.806497998610578,0.054685581603481775
1789141185728510500,10.403510498046876,-5.532773242127895,-8.088508695542812,-0.3671923402521759,9.806494397604833,0.05523143274436853
1789141185738483200,10.413483154296877,-5.528610861751437,-8.091193404582143,-0.3707448816346004,9.806477554539871,0.05829674599438054
1789141185748455200,10.423455078125,-5.526214322003722,-8.092606778511405,-0.3755664200395345,9.806470054808251,0.059366693845849756
1789141185758427400,10.433427490234376,-5.525628046548366,-8.092766937509179,-0.3807114913104101,9.806474233543893,0.05870570755156799
1789141185768399400,10.4433994140625,-5.525404174664616,-8.092702055579423,-0.3853082445161417,9.806477478583044,0.05813569571471546
1789141185778371300,10.453371337890625,-5.523558254536986,-8.09369691183567,-0.3908433745505288,9.806467444646142,0.05983554501598821
1789141185788344300,10.46334423828125,-5.525256875148416,-8.092325038960576,-0.3952263754077255,9.80648046540549,0.05773077170419197
1789141185798316300,10.47331640625,-5.525294284549355,-8.092077786201239,-0.3997275958171114,9.806478484544723,0.05798027099347117
1789141185808288300,10.483288330078125,-5.524426269543171,-8.092343159139157,-0.4062957952262833,9.80646593099003,0.060046901963377794
1789141185818260200,10.49326025390625,-5.524579998800158,-8.091836963182688,-0.414210331210494,9.80645370670668,0.062012084086272436
1789141185828232200,10.503232177734375,-5.5251884860873215,-8.09106714785397,-0.4210795228602364,9.806441452363199,0.06394844656949673
1789141185838205400,10.513205322265623,-5.523988462647796,-8.091510799968242,-0.4282483915762975,9.806410766284456,0.06855748869858441
1789141185848177200,10.52317724609375,-5.524769968414306,-8.090752675077319,-0.4324741925777867,9.806400752155843,0.07000191802031497
1789141185858149400,10.5331494140625,-5.523782710942625,-8.091137290480733,-0.4378316279577091,9.806370028892365,0.07403703126282789
1789141185868121300,10.543121337890623,-5.522491502088308,-8.091705445757508,-0.4435848942548036,9.806333250788231,0.07877273916449261
1789141185878093300,10.55309326171875,-5.522154232957959,-8.091455270388723,-0.4522606238698586,9.806282855953048,0.08480557895235011
1789141185888066300,10.56306640625,-5.522887223407626,-8.09039494768083,-0.462164360909909,9.806223922734544,0.09133436167564889
1789141185898038300,10.573038330078123,-5.52267445743978,-8.089904533815384,-0.4731864344554021,9.806140647481937,0.09999766327086773
