time,seconds_elapsed,z,y,x,vertical,horizontal
1789141176863219500,1.538219482421875,0.1134564653038978,0.0659568235278129,-0.0559179596602916,-0.11644621474394817,0.08240005687807457
1789141176873191400,1.54819140625,0.1295864284038543,0.0606147907674312,-0.0591355897486209,-0.12109331174838522,0.09643766437949595
1789141176883163400,1.558163330078125,0.1460566222667694,0.0455256588757038,-0.0659338906407356,-0.11777974784209672,0.11781481849632205
1789141176893136400,1.568136474609375,0.1533153355121612,0.0409948229789733,-0.0479184053838253,-0.11890121654233982,0.11551987661681497
1789141176903108400,1.5781083984375,0.1266070902347564,0.0364252291619777,0.0022665751166641,-0.10197459344175738,0.08344143019125516
1789141176913080600,1.58808056640625,0.1267580837011337,0.0186851136386394,0.0348261147737503,-0.0887821551105394,0.09872857974991352
1789141176923052500,1.598052490234375,0.08200603723526,0.0170764736831188,0.0647770836949348,-0.0632262657474149,0.08494177999158574
1789141176933024500,1.6080244140625,0.0622986406087875,0.008510947227478,0.0607996545732021,-0.044828344954849636,0.07510375709138314
1789141176942997500,1.61799755859375,0.0150218345224857,0.0363657586276531,0.0303243305534124,-0.03963681733829767,0.029943474210397086
1789141176952969500,1.627969482421875,0.0662812888622284,0.0340908877551555,0.0141267208382487,-0.06624883622982959,0.036960165327116726
1789141176962941400,1.63794140625,0.0123531892895698,0.0135336704552173,0.0485733449459075,-0.020084953417561807,0.04787197517402905
1789141176972913400,1.647913330078125,0.0713499262928962,0.0134053062647581,0.0057933940552175,-0.0517951695757512,0.051199004300395236
1789141176982885400,1.657885498046875,0.1356081962585449,0.0083054490387439,-0.011680644005537,-0.08342124057099902,0.10786981710474343
1789141176992858400,1.6678583984375,0.1562032252550125,0.0104985628277063,0.0254446193575859,-0.09841161993404499,0.12438749582544457
1789141177002830600,1.67783056640625,0.1394784301519394,0.0176376793533563,0.0321418866515159,-0.09504258907998517,0.10846809369170837
1789141177012802300,1.68780224609375,0.093375913798809,-0.0031552161090075,0.0173536166548728,-0.05116353313607514,0.080077821864079
1789141177022774500,1.6977744140625,0.0189257003366947,-0.0024515348486602,0.0340704955160617,-0.010102316837159904,0.037721797618620684
1789141177032747500,1.70774755859375,-0.034280527383089,0.0001277369447052,0.0308355540037155,0.018142781292807053,0.04238917022149859
1789141177042719500,1.717719482421875,0.0141597855836153,0.000388947315514,-0.0203127190470695,-0.007554113486485935,0.023583738726221434
1789141177052691500,1.72769140625,-0.0221643988043069,-0.0196220446377992,0.0069021233357489,0.02844618523145529,0.01071163210924321
1789141177062663700,1.73766357421875,-0.0106304362416267,-0.0214190334081649,0.0137236211448907,0.02309591279560985,0.01505648552263944
1789141177072635400,1.747635498046875,0.0131942024454474,-0.0033878344111144,-0.0324364192783832,-0.0034166442970207204,0.03501445754997907
1789141177082608400,1.7576083984375,0.0374530032277107,0.0157287195324897,-0.040614902973175,-0.032586539170582955,0.047305474073421075
1789141177092580600,1.76758056640625,0.0244155004620552,0.0279979016631841,-0.0446322821080684,-0.035100736212042086,0.04625989714537619
1789141177102552300,1.77755224609375,0.0652944892644882,0.0119010107591748,-0.0268685724586248,-0.04581179760226362,0.05502911749077904
1789141177112524500,1.787524658203125,0.0673099756240844,0.0570474490523338,-0.0198404900729656,-0.08434260700069551,0.03263455151453953
1789141177122496300,1.797496337890625,0.0576869659125804,0.0648940429091453,0.0036673406139016,-0.08626289965396838,0.010544400019012903
1789141177132469500,1.807469482421875,0.0706480368971824,0.0514059327542781,0.0217371545732021,-0.08326532015694241,0.034250626094484315
1789141177142441500,1.81744140625,0.0659826695919036,0.0574122928082942,0.0760617777705192,-0.08772259928267123,0.07576294387550796
1789141177152413400,1.827413330078125,0.0320627838373184,0.0591497384011745,0.1013050824403762,-0.0708841383704227,0.0988173684939048
1789141177162385400,1.837385498046875,0.0474078767001628,0.0402228385210037,0.0860217586159706,-0.06343781636607318,0.08509271368333053
1789141177172358400,1.8473583984375,0.0270575955510139,0.032968919724226,0.1185621246695518,-0.0472126038327378,0.1168204202623668
1789141177182330400,1.857330322265625,0.0324836820363998,0.0029327874071896,0.1154655888676643,-0.025486515573495076,0.11724559939330843
1789141177192302600,1.867302490234375,0.0134442131966352,-0.0003652710001915,0.051836010068655,-0.009412289010840631,0.05271869731693181
1789141177202274600,1.877274658203125,0.0170466750860214,-0.0154347736388444,0.0702016800642013,0.00019138970859690872,0.07387192039325002
1789141177212246800,1.887246826171875,-0.0081960968673229,-0.0270642656832933,0.0397151485085487,0.025312984369251734,0.04166768921133644
1789141177222219800,1.8972197265625,-0.0237059593200683,-0.057235237210989,0.0138826947659254,0.05995623320993935,0.020876402925842648
1789141177232191500,1.90719140625,0.0005722185596823,-0.062653437256813,-0.0076742623932659,0.05147458917850181,0.036538221171242134
1789141177242163700,1.917163818359375,-0.0049150204285979,-0.0534648559987545,-0.0630550682544708,0.049255279703024554,0.06657707793778485
1789141177252135700,1.9271357421875,-0.0168664865195751,-0.058884922415018,-0.0569985099136829,0.06025938630651037,0.05804781606297223
1789141177262107600,1.937107666015625,-0.0169264078140258,-0.0456844307482242,-0.0423228926956653,0.048857593397366283,0.04216317478348181
1789141177272080600,1.94708056640625,0.0202364064753055,-0.0339886248111724,-0.0561976954340934,0.018681352699656286,0.06613566962693126
1789141177282052900,1.957052978515625,0.0084100440144538,-0.0141316875815391,-0.0139033403247594,0.007391100091980723,0.020226417029312927
1789141177292024600,1.967024658203125,0.0568436235189437,-0.0209501795470714,0.0205339957028627,-0.015905302333668676,0.06195783965744542
1789141177301996800,1.976996826171875,0.0597868859767913,0.0135972909629344,0.0101188197731971,-0.04555495113481933,0.042266949227963084
1789141177311969800,1.9869697265625,0.0918148532509803,0.0068730772472918,0.0132078202441334,-0.05835261301020686,0.07243359399359295
1789141177321941500,1.99694140625,0.1063060760498046,0.0087437434121966,0.0378116220235824,-0.06910872485797481,0.0896166154377868
1789141177331913700,2.006913818359375,0.1479121148586273,0.0445392914116382,0.0181737374514341,-0.12138633621084019,0.09724908388085261
1789141177341885400,2.016885498046875,0.1830317974090576,0.0264027118682861,0.0277839954942464,-0.12682219590446614,0.1374257002470191
1789141177351857700,2.026857666015625,0.2125995457172393,0.0386620387434959,0.0132468622177839,-0.15311903618342765,0.15304692154974966
1789141177361830700,2.03683056640625,0.2321776896715164,0.0728858932852745,0.0180640183389186,-0.19256486964963865,0.1498796609168898
1789141177371802600,2.046802734375,0.2492900937795639,0.0797683000564575,-0.0072786221280694,-0.20693253753409985,0.16043826164697247
1789141177381774600,2.056774658203125,0.2442601919174194,0.085207849740982,-0.0145172029733657,-0.20825536975398037,0.15415534101619424
1789141177391746800,2.066746826171875,0.234261617064476,0.0913176760077476,-0.0196163579821586,-0.20739106604356194,0.14349623830232722
1789141177401718500,2.076718505859375,0.2401323169469833,0.0898681581020355,-0.0070698345080018,-0.21003754407917355,0.14722101792929795
1789141177411691800,2.08669189453125,0.2439933717250824,0.103374645113945,-0.0058509055525064,-0.2233809724619642,0.14266834594940758
1789141177421663700,2.096663818359375,0.2299492210149765,0.1139171198010444,0.0048126587644219,-0.22449097281085123,0.1244215384890431
1789141177431635700,2.1066357421875,0.249033436179161,0.0907002165913581,-0.0160880964249372,-0.21541906710863035,0.15523412639476222
1789141177441607700,2.116607666015625,0.2475267350673675,0.0849285423755645,-0.0117295123636722,-0.20999355764317146,0.15659702772339695
1789141177451580700,2.12658056640625,0.2684996724128723,0.0993527546525001,-0.0161365121603012,-0.2335904923056945,0.16630968965139242
1789141177461552600,2.136552734375,0.2385013699531555,0.0891450345516204,-0.0060647306963801,-0.20855659700243048,0.14618709744682312
1789141177471524600,2.146524658203125,0.2021262943744659,0.0768769159913063,0.0420332886278629,-0.17972596802614973,0.1273988730712491
1789141177481496600,2.15649658203125,0.185642659664154,0.1030023172497749,0.0079063810408115,-0.19046597296488554,0.09411640903533336
1789141177491468500,2.166468505859375,0.1734374016523361,0.1356731653213501,-0.0322977639734745,-0.20877377538292352,0.07709991148033195
1789141177501441800,2.17644189453125,0.1726766228675842,0.1641757637262344,-0.0523997917771339,-0.230963125009216,0.07856634485777284
1789141177511413500,2.18641357421875,0.2027247995138168,0.1668141484260559,-0.0269378405064344,-0.2512250850006452,0.08084496502934557
1789141177521385700,2.1963857421875,0.2283655256032943,0.1855549812316894,-0.0183902103453874,-0.281540246156392,0.08749145086639758
1789141177531357700,2.206357666015625,0.2597942948341369,0.1822617202997207,-0.0220472626388072,-0.29654747142692606,0.11514377662358095
1789141177541329700,2.21632958984375,0.2746667861938476,0.1704451739788055,0.0374528132379055,-0.2976663881757454,0.13149462095675996
1789141177551302700,2.226302734375,0.2430028766393661,0.1802570521831512,0.0609112679958343,-0.2886746987491593,0.10917922782154452
1789141177561274600,2.236274658203125,0.2246488332748413,0.1655192226171493,0.0569804683327674,-0.265974888700097,0.10182260898211863
1789141177571246600,2.24624658203125,0.1587568819522857,0.1525972932577133,0.0773206278681755,-0.21872348691995602,0.081413741102453
1789141177581218800,2.25621875,0.1118770241737365,0.133761927485466,0.0557551495730876,-0.1757405538729726,0.05130902660288995
1789141177591190500,2.2661904296875,0.0867293328046798,0.1075425669550895,0.0198224503546953,-0.13846427644303744,0.017548634226209323
1789141177601163500,2.27616357421875,0.1043842136859893,0.0912328362464904,0.0049044867046177,-0.13449611973486306,0.03397561246721476
1789141177611135700,2.2861357421875,0.0602878667414188,0.0830904841423034,0.00220697093755,-0.1026376223554003,0.0030074289988065565
1789141177621107500,2.296107421875,0.0124330706894397,0.0522373430430889,-0.0290552675724029,-0.04883592028576186,0.03664127070008072
1789141177631079700,2.30607958984375,-0.0403340049088001,0.0496372990310192,-0.0339445658028125,-0.016517514519115203,0.07049892672041339
1789141177641052700,2.316052734375,-0.0669250786304473,0.0509194731712341,-0.0011590813519433,-0.00377118971623161,0.08401714405662808
1789141177651024600,2.326024658203125,-0.0776424333453178,0.0267592724412679,0.0308518465608358,0.020895825779799298,0.08520332750874081
1789141177660996600,2.33599658203125,-0.0770119577646255,0.0070323785766959,0.0294415187090635,0.03680685885222631,0.07411041865024687
1789141177670968600,2.345968505859375,-0.0981968715786933,0.0172567870467901,0.0119307013228535,0.04114264035331691,0.09159720009822028
1789141177680940500,2.3559404296875,-0.0808448791503906,0.0057192272506654,0.0256895385682582,0.040214250711690436,0.0749090814036145
1789141177690913800,2.365913818359375,-0.106467418372631,0.0253946613520383,0.0211182218044996,0.03878694842014371,0.10450718599481429
1789141177700885500,2.375885498046875,-0.1275548934936523,0.0018000830896198,-0.0289383810013532,0.07216340157285717,0.10910254131650898
1789141177710857700,2.385857666015625,-0.1061697006225586,-0.0262501947581768,-0.0062112314626574,0.08215577795959628,0.07245747441956663
1789141177720829700,2.39582958984375,-0.0921613425016403,0.0129323387518525,-0.015337161719799,0.04235718837440587,0.08427369435317097
1789141177730802400,2.405802490234375,-0.0952921584248542,0.0147411571815609,0.0350551716983318,0.04063492017001844,0.09421021971046849
1789141177740774700,2.415774658203125,-0.1078614369034767,0.0256471503525972,0.0329099744558334,0.03890015317259775,0.10891147962415831
1789141177750746600,2.42574658203125,-0.1399320214986801,0.0180531460791826,0.053670909255743,0.06253615617292979,0.13739243936809808
1789141177760718600,2.435718505859375,-0.1381298750638961,0.0199333429336547,0.0689526796340942,0.05935576916001352,0.14390470889384907
1789141177770690600,2.445690673828125,-0.1267198175191879,0.0176273118704557,0.0046594464220106,0.05733761647294076,0.11446721126172389
1789141177780663800,2.455663818359375,-0.1689676791429519,-0.0006329186726361,-0.0191633272916078,0.09730588456809239,0.1394606579731649
1789141177790635500,2.465635498046875,-0.1804453730583191,0.0121635701507329,-0.0114593356847763,0.09300326630589348,0.15553197075758796
1789141177800607700,2.475607666015625,-0.1542589515447616,0.0346517860889434,-0.0612614043056964,0.06163110782873285,0.15795928784390015
1789141177810579500,2.485579345703125,-0.145865187048912,0.0128753818571567,-0.0512132979929447,0.0743567783121393,0.1361480799024915
1789141177820551700,2.4955517578125,-0.1726281344890594,0.0208666399121284,-0.042853906750679,0.08266340008177159,0.15886821296002568
1789141177830524700,2.505524658203125,-0.1346067190170288,0.0441626384854316,-0.0699592903256416,0.04299439125023456,0.15203648268232672
1789141177840496600,2.51549658203125,-0.122014507651329,0.0099292583763599,-0.0018858308903872,0.061252212282624244,0.10600874066760821
1789141177850468600,2.525468505859375,-0.0972644165158271,0.0053787156939506,0.0033363616093993,0.05071859628905943,0.08323492417210897
1789141177860440800,2.53544091796875,-0.0953638032078743,0.0021156501024961,0.0099232103675603,0.0520569865796188,0.08054359806883855
1789141177870412500,2.54541259765625,-0.1293356120586395,-0.0318811982870101,0.0358807742595672,0.09826531076897961,0.09682701075495635
1789141177880385500,2.555385498046875,-0.1505048871040344,-0.016747910529375,0.0770289003849029,0.09621241976886616,0.14003155118052815
1789141177890357800,2.565357666015625,-0.1425462961196899,0.0018143225461244,0.0448137111961841,0.07772209491529522,0.12763339287544048
1789141177900329500,2.57532958984375,-0.1629065126180648,-0.0076512438245117,-0.0060025453567504,0.09910344122489928,0.12965960000549367
1789141177910301700,2.5853017578125,-0.1353278756141662,-0.005467718001455,0.0005451025208458,0.0813749250236817,0.1082679480388129
1789141177920274700,2.595274658203125,-0.1126209646463394,0.0227884668856859,0.0044851182028651,0.045090816496804284,0.10578152227027755
1789141177930246700,2.60524658203125,-0.0792171955108642,0.0219924468547105,-0.0295183900743722,0.02812217577520019,0.08270133230798213
1789141177940218600,2.615218505859375,-0.0597772262990474,0.0459911227226257,-0.0085000582039356,-0.0034891406316768167,0.07581937114232627
1789141177950190600,2.625190673828125,-0.066042847931385,0.0569026246666908,-0.0086912726983428,-0.008888748493618481,0.0871555782964033
1789141177960162600,2.63516259765625,-0.0443556420505046,0.0488282293081283,-0.0143234590068459,-0.014351683525983584,0.06596066719621974
1789141177970135800,2.6451357421875,-0.0143135879188776,0.041470717638731,0.0148783680051565,-0.02654437460016089,0.037966580464482064
1789141177980107500,2.655107421875,-0.020442159846425,0.0594061017036438,-0.0275799557566642,-0.0361046330926864,0.058344462013052364
1789141177990079700,2.665079833984375,-0.048783253878355,0.0250113792717456,0.0204799808561801,0.006347209690834587,0.05817660609768519
1789141178000051700,2.6750517578125,-0.0476337447762489,0.0272456631064414,-0.0106178037822246,0.005101053385811554,0.05565983121633989
1789141178010023700,2.685023681640625,-0.0526873581111431,0.0237492006272077,-0.0079551748931407,0.010740053938722408,0.05734037220089339
1789141178019996700,2.69499658203125,-0.0559028983116149,0.0235363282263278,0.0058882073499262,0.012188814479045625,0.059709267064730606
1789141178029968600,2.70496875,-0.0598041638731956,0.0200563762336969,0.0059513244777917,0.017263334085113085,0.06096057581343348
1789141178039940600,2.714940673828125,-0.0260666459798812,0.0489464700222015,-0.0675203874707222,-0.022715032521155983,0.08436976343474012
1789141178049912600,2.72491259765625,-0.0331844761967659,0.0348413027822971,-0.0336804017424583,-0.008430576406690562,0.05812418328893548
1789141178059885800,2.7348857421875,-0.0611761324107646,0.011073799803853,0.0527396015822887,0.023554776917720188,0.07804989608096992
1789141178069857500,2.744857421875,-0.058084737509489,0.0031141443178057,0.0417937412858009,0.02877746330307554,0.0655904645728551
1789141178079829800,2.754829833984375,-0.0492578446865081,0.0165459439158439,0.0311972070485353,0.013145885407782061,0.05916548780920385
1789141178089801500,2.764801513671875,-0.019008595496416,-0.0057351263239979,0.0636030882596969,0.012972558090160836,0.06535506062629563
1789141178099773700,2.774773681640625,-0.0351904369890689,-0.0008070894982665,0.0458444319665432,0.018828070134727502,0.0546464451385141
1789141178109746700,2.78474658203125,-0.0711399093270301,-0.0281380452215671,0.0675641074776649,0.06085119355802877,0.08194313363403789
1789141178119718700,2.79471875,-0.0783665925264358,-0.0131786353886127,0.0372288115322589,0.05387611338158256,0.06927010949832353
1789141178129690600,2.804690673828125,-0.0411206856369972,-0.0096310377120971,0.0019872041884809,0.031203712140160204,0.028529721411701854
1789141178139662800,2.814662841796875,-0.0191319733858108,-0.0171506144106388,-0.0057837925851345,0.025198966189594104,0.007657698083715112
1789141178149634600,2.824634521484375,-0.0363764725625515,-0.0201288275420665,0.0231591742485761,0.03628901362304607,0.030787534757667816
1789141178159607600,2.834607666015625,-0.0331398174166679,-0.0260445233434438,0.0054853218607604,0.04001828697174871,0.014324460142015057
1789141178169579800,2.844579833984375,-0.0296910256147384,-0.0291319265961647,-0.0138012897223234,0.041367004728620066,0.014473170593937415
1789141178179551500,2.854551513671875,-0.0891594737768173,-0.038375936448574,0.0090430378913879,0.08184522146110705,0.05296471014507095
1789141178189523700,2.864523681640625,-0.1127436310052871,-0.0476155057549476,0.0444670729339122,0.10142480227021902,0.08166206451169739
1789141178199496000,2.874495849609375,-0.1079497784376144,-0.0267886742949485,0.0557070262730121,0.08113426085989833,0.09429364891715085
1789141178209468200,2.88446826171875,-0.0688750743865966,-0.0172564219683408,0.0128008387982845,0.05281045195968889,0.049157681074901274
1789141178219439900,2.89443994140625,-0.0234207436442375,-0.0238407868891954,-0.0059655541554093,0.03314186577315391,0.0073565563819285385
1789141178229412000,2.904412109375,0.0003213388845324,-0.0142030734568834,-0.0112567236647009,0.011940532044614677,0.013637011272830481
1789141178239383800,2.9143837890625,-0.0176840424537658,0.0103770596906542,-0.0329019650816917,0.002836252805557757,0.03866398455397241
1789141178249357000,2.924357177734375,-0.007608238607645,0.0092052686959505,-0.0300244186073541,-0.002041531537449219,0.03224779260921184
1789141178259329000,2.9343291015625,0.0244984440505504,0.04871466755867,-0.0117218941450119,-0.05349018024835849,0.01579544287428077
1789141178269301000,2.944301025390625,0.0404566377401351,0.0614472366869449,0.0184035170823335,-0.0742277605527313,0.015538064165914621
1789141178279273000,2.95427294921875,0.0538269430398941,0.0675979182124137,0.0171665381640195,-0.08683132167638806,0.014893956900049627
1789141178289245200,2.9642451171875,0.0872421562671661,0.0689358934760093,0.0687823221087455,-0.10898360063246629,0.07222834531771197
1789141178299218000,2.974218017578125,0.0962374508380889,0.0628836303949356,0.1224129274487495,-0.1112654849658059,0.12578121710874512
1789141178309190100,2.984190185546875,0.0932038426399231,0.0811329409480094,0.1007361263036727,-0.12367342594541604,0.10060895212312829
1789141178319162000,2.994162109375,0.1081032529473304,0.0755967125296592,0.0509103536605834,-0.12559812328311448,0.06494730002618807
1789141178329134000,3.004134033203125,0.1201529949903488,0.0913253426551818,0.0032741231843829,-0.14346791047364538,0.04695464794021712
1789141178339106000,3.01410595703125,0.0918155461549758,0.1002678051590919,0.0016070108395069,-0.1346474258192432,0.018878042039570785
1789141178349079000,3.0240791015625,0.1274467855691909,0.1141748279333114,-0.0540557168424129,-0.16409986312946778,0.07260736828833327
1789141178359051000,3.034051025390625,0.1104889884591102,0.1223004087805748,-0.0256911348551511,-0.16227548104490447,0.03862524071644726
1789141178369023000,3.04402294921875,0.1036489233374595,0.1198095604777336,-0.0267987437546253,-0.15629703082210328,0.03724031302101036
1789141178378995000,3.053994873046875,0.0964288562536239,0.1211574748158454,-0.0154685918241739,-0.153754889285269,0.024007694100680377
1789141178388968000,3.063968017578125,0.0792085900902748,0.1277016550302505,0.0114296013489365,-0.1504230192610192,0.009233878109924244
1789141178398940200,3.073940185546875,0.0622151978313922,0.1046995818614959,0.0421078875660896,-0.12308805773943478,0.03814626482872685
1789141178408912000,3.083911865234375,0.0522648282349109,0.1007240191102027,-0.0114022102206945,-0.11202668876579486,0.021376896365606014
1789141178418884000,3.093884033203125,0.030144702643156,0.0932412818074226,0.0263836234807968,-0.09481739195509523,0.03617177769125798
1789141178428856000,3.10385595703125,0.0518140420317649,0.0813792943954467,0.0241492316126823,-0.09729312099513239,0.020603846788398123
1789141178438829000,3.1138291015625,0.0943782851099968,0.0661239102482795,-0.0047990628518164,-0.10778581193313863,0.04104731363921544
1789141178448801000,3.123801025390625,0.108238972723484,0.0762583017349243,-0.0417320467531681,-0.12251491765894988,0.06528906858700938
1789141178458773200,3.133773193359375,0.065725602209568,0.0756143480539321,-0.020689345896244,-0.09866787540799195,0.027020063166450257
1789141178468745000,3.143744873046875,0.0535056889057159,0.0770785510540008,-0.0128977354615926,-0.09323855838714375,0.01663984939186254
1789141178478717200,3.15371728515625,0.0300575587898492,0.0873547717928886,0.0108945723623037,-0.089310639094258,0.026011813603160246
1789141178488690200,3.163690185546875,0.0075434623286128,0.0680617690086364,0.0180739220231771,-0.06094724420865689,0.036075037147013524
1789141178498662000,3.173661865234375,0.0360686331987381,0.041818518191576,0.0140716731548309,-0.05542874631863513,0.01324389789620356
1789141178508634000,3.183634033203125,0.0167082510888576,0.0503768548369407,0.0020110164768993,-0.05097841188674242,0.014907678105141205
1789141178518605800,3.193605712890625,-0.0089230705052614,0.0121613442897796,0.0422723069787025,-0.00661445843562588,0.04439275119973371
1789141178528579000,3.2035791015625,-0.0324307903647422,0.0119040813297033,0.0296510569751262,0.007460373184448839,0.04491092659561795
1789141178538551000,3.213551025390625,-0.0348063595592975,-0.0032057180069386,-0.0028152740560472,0.022526703475127266,0.02687438729097749
1789141178548523000,3.22352294921875,-0.0546618215739727,-0.0158980786800384,-0.0071983044035732,0.04441670037060519,0.036326793940229585
1789141178558495000,3.233494873046875,-0.080391027033329,-0.0183042176067829,-0.0052503887563943,0.06093752270949826,0.05578482336435736
1789141178568467200,3.24346728515625,-0.0738625526428222,-0.0398798175156116,0.0163880623877048,0.07409473895877552,0.042715509776267216
1789141178578440000,3.25343994140625,-0.0840715914964675,-0.0187917444854974,-0.0323528200387954,0.06451338767385714,0.06561928019159023
1789141178588412200,3.263412109375,-0.110484555363655,-0.0221931338310241,-0.0782641172409057,0.08415426511445195,0.10836375719626494
1789141178598383900,3.2733837890625,-0.0910327285528183,-0.0685076415538787,-0.0341499410569667,0.1094010198677081,0.04666786844441758
1789141178608356000,3.283356201171875,-0.0881466567516326,-0.0436531566083431,-0.0065326960757374,0.08622960718104354,0.04777616708970639
1789141178618328000,3.293328125,-0.1042773202061653,-0.0542646422982215,-0.0335966199636459,0.10519953824184118,0.06229125893589008
1789141178628300800,3.30330078125,-0.1227495372295379,-0.0960560292005539,0.0302776992321014,0.1474899723933618,0.05880184308368525
1789141178638273000,3.31327294921875,-0.1251817941665649,-0.1210426092147827,0.0871457681059837,0.16713412921828497,0.0999117740084237
1789141178648245000,3.323244873046875,-0.1335073709487915,-0.113800935447216,0.0533454678952693,0.16726502767778137,0.07512004038361458
1789141178658217000,3.333217041015625,-0.1639278531074524,-0.1179657056927681,0.0433390773832798,0.1883750961576302,0.08474283167353304
1789141178668189000,3.34318896484375,-0.1532387286424636,-0.1200333833694458,0.0304901264607906,0.1845138649075938,0.06909705165585701
1789141178678162200,3.353162109375,-0.1427708715200424,-0.1262316405773162,0.0325156897306442,0.18357844989603006,0.060614945763099524
1789141178688134000,3.3631337890625,-0.1314194053411483,-0.1021508052945137,-0.0041416594758629,0.1588020903151625,0.050048941819859374
1789141178698106000,3.373106201171875,-0.0864808410406112,-0.1325880289077758,-0.0299651809036731,0.15931269012737675,0.02399791882036743
1789141178708077800,3.383077880859375,-0.0870044231414794,-0.0903476476669311,-0.0488081127405166,0.12564754639726347,0.04824306207910126
1789141178718051000,3.393051025390625,-0.1103492379188537,-0.0886088237166404,-0.0156390871852636,0.136158473541463,0.04164047406749152
1789141178728023000,3.40302294921875,-0.0901917666196823,-0.1191539466381073,0.0099299233406782,0.14878534073776303,0.017138947590667943
1789141178737995000,3.4129951171875,-0.1120854243636131,-0.1046489402651786,0.0191380940377712,0.14893749885343327,0.04121202654660759
1789141178747967000,3.422967041015625,-0.1170386299490928,-0.1208316385746002,0.0145015306770801,0.16523770638151747,0.034714846431133865
1789141178757939200,3.432939208984375,-0.0759105086326599,-0.1234298422932624,0.0273908860981464,0.143485803868294,0.03405019851513145
1789141178767912000,3.442911865234375,-0.0756260901689529,-0.1115097999572753,0.042473167181015,0.13292443491193964,0.04784146250358697
1789141178777884000,3.4528837890625,-0.0977946668863296,-0.1201563030481338,0.033210664987564,0.15299883655380864,0.04117812909422063
1789141178787856100,3.462856201171875,-0.0722932964563369,-0.1162193417549133,0.0057382946833968,0.13636988113581344,0.013016898837540586
1789141178797827800,3.472827880859375,-0.052183598279953,-0.0700991451740264,-0.0465624034404754,0.08912845608362771,0.04314155553379117
1789141178807800000,3.482800048828125,-0.0367460511624813,-0.0763690248131752,-0.0563247501850128,0.08589908194761207,0.05455570942543584
1789141178817773000,3.49277294921875,0.0045421672984957,-0.1043428629636764,-0.0352663174271583,0.08458503271446371,0.07069052072796089
1789141178827745000,3.5027451171875,0.0003964249044656,-0.1008975282311439,-0.0440590120851993,0.08446087898496354,0.07062595006702879
1789141178837717000,3.512717041015625,-0.0054773995652794,-0.1307216584682464,0.0063114590011537,0.1102964038009275,0.07065898189184848
1789141178847689000,3.52268896484375,-0.0402689352631568,-0.1215007305145263,0.0337824970483779,0.12139068477438841,0.05281641240770322
1789141178857661000,3.532660888671875,-0.0658408030867576,-0.1680105477571487,0.0261623673141002,0.17445210431494038,0.053042325291538524
1789141178867634200,3.54263427734375,-0.1372633278369903,-0.1537048369646072,0.0285421684384346,0.20318691435384367,0.04467808511712797
1789141178877606000,3.55260595703125,-0.1233681440353393,-0.13443523645401,0.0038246545009315,0.1804418541872748,0.027347705620025448
1789141178887578000,3.562578125,-0.1040125489234924,-0.1236499771475792,-0.0284533910453319,0.16186910522016423,0.026756595810392955
1789141178897550000,3.572550048828125,-0.0855854973196983,-0.1430658251047134,-0.0157319512218236,0.16684619001146883,0.014232035422075384
1789141178907522800,3.582522705078125,-0.0143432701006531,-0.1056878268718719,-0.0713182464241981,0.09786391715802642,0.08297344236313596
1789141178917495000,3.5924951171875,0.0600517317652702,-0.0812370479106903,-0.1017597019672393,0.03670914291078602,0.13861148658198788
1789141178927467000,3.602467041015625,0.0501482412219047,-0.0825417339801788,-0.0510472543537616,0.04138168688250943,0.1011007522915657
1789141178937439000,3.61243896484375,0.0772070288658142,-0.0561617463827133,-0.0602209046483039,0.004690836347932811,0.1127812948766767
1789141178947411000,3.622410888671875,0.0653660893440246,-0.0644974336028099,-0.0225795228034257,0.016765553774948427,0.0930666193333013
1789141178957384200,3.63238427734375,0.0670331045985221,-0.0820870622992515,0.0191980693489313,0.0286042392774876,0.10383682521687676
1789141178967356000,3.64235595703125,0.113299936056137,-0.0948822200298309,0.0451215468347072,0.011791580316477188,0.15406629680274242
1789141178977328000,3.652328125,0.1181121319532394,-0.0508638694882392,-0.0065474226139485,-0.02505452623914483,0.12630418992129164
1789141178987299800,3.6622998046875,0.0798094794154167,-0.0699217170476913,0.0284656882286071,0.010974925527239297,0.10930894718849432
1789141178997272000,3.67227197265625,0.0727497488260269,-0.0492702014744281,0.0220584906637668,-0.0017298995391906921,0.09057407557092999
1789141179007245000,3.6822451171875,0.1082941591739654,-0.0313814841210842,-0.0185999888926744,-0.03500533315749793,0.10877963363690007
1789141179017217000,3.692217041015625,0.1474680453538894,-0.015393266454339,-0.0409465208649635,-0.06951348894287314,0.13721614146508057
1789141179027189000,3.70218896484375,0.1729049533605575,0.0133856507018208,-0.066710740327835,-0.1065909460406714,0.15219721297898406
1789141179037161200,3.7121611328125,0.2167960405349731,-0.0019929050467908,-0.0290857311338186,-0.12039817813494244,0.18263283746233225
1789141179047134000,3.722134033203125,0.2561522126197815,0.0105338059365749,-0.0781510174274444,-0.15109673463055226,0.221364575771392
1789141179057106000,3.73210595703125,0.2601230144500732,0.0241662934422492,-0.0441647134721279,-0.16591620531610488,0.20656797214212366
1789141179067078100,3.742078125,0.2317363917827606,0.0274113565683364,-0.0109585551545023,-0.15377957880299603,0.17585524962211677
1789141179077049900,3.7520498046875,0.1953142583370208,0.0193080753087997,-0.023455960676074,-0.12592240542460867,0.15236203984322602
1789141179087022000,3.76202197265625,0.215365469455719,0.017104310914874,-0.0116581581532955,-0.13597743576832275,0.1682881234643545
1789141179096995000,3.7719951171875,0.1938316524028778,0.0511194393038749,-0.0095822308212518,-0.15177936809494091,0.13129641699675118
1789141179106967000,3.781967041015625,0.201286643743515,0.0291387718170881,-0.020615441724658,-0.13750945901497344,0.15126640767681754
1789141179116939000,3.79193896484375,0.2388429343700409,0.0571181811392307,-0.0192831438034772,-0.18190031005894128,0.16611005613915206
1789141179126911000,3.801910888671875,0.2650844156742096,0.0904742777347564,-0.0193555820733308,-0.22422404651032185,0.16897798048532078
1789141179136883000,3.811883056640625,0.2672716677188873,0.084248162806034,-0.0275416038930416,-0.22002265021443476,0.1757284002062416
1789141179146856200,3.821856201171875,0.3065612912178039,0.0720226541161537,0.0016538322670385,-0.23346935890268927,0.2113335789546873
1789141179156828000,3.831827880859375,0.3002012073993683,0.1137185543775558,0.018536752089858,-0.2647987005315542,0.1824224051716257
1789141179166800100,3.841800048828125,0.2952927350997925,0.1031444668769836,0.021208968013525,-0.25342568096611034,0.18455845957613365
1789141179176772000,3.851772216796875,0.2927227318286896,0.1086853146553039,0.010013997554779,-0.25607147096312394,0.17896026725723904
1789141179186744000,3.861744140625,0.268189936876297,0.1167477667331695,0.0613142028450965,-0.250807572779642,0.1625142337944863
1789141179196717800,3.8717177734375,0.2585562467575073,0.1410707682371139,0.0785251483321189,-0.26601148265611063,0.14885020794079384
1789141179206689500,3.881689453125,0.271319180727005,0.1396049708127975,0.0496916361153125,-0.27090676542252734,0.1489376676805959
1789141179216661800,3.891661865234375,0.2510873079299927,0.15590700507164,0.0266414992511272,-0.27188610761160703,0.1189098162646667
1789141179226633500,3.901633544921875,0.2680172920227051,0.193007230758667,-0.0090003861114382,-0.31057341615182865,0.11273961184185158
1789141179236605700,3.911605712890625,0.2693481743335724,0.203934371471405,0.0075733447447419,-0.32097305724928515,0.10569446037960233
1789141179246578700,3.92157861328125,0.2834112644195556,0.2470530867576599,-0.033936284482479,-0.36274299596573784,0.10452924355727229
1789141179256550700,3.931550537109375,0.2985677719116211,0.2845813930034637,-0.0424887016415596,-0.40185741814891257,0.10220170700109248
1789141179266522600,3.941522705078125,0.3243969678878784,0.3033969104290008,-0.0220289677381515,-0.43281733756318763,0.10216411188394185
1789141179276494800,3.951494873046875,0.3624642789363861,0.3226823806762695,-0.0097197582945227,-0.4707921903273061,0.11812476256865319
1789141179286467600,3.961467529296875,0.3808248937129974,0.3486649990081787,-0.0265442766249179,-0.5019076313122726,0.12404922191184055
1789141179296439600,3.971439453125,0.3748398423194885,0.3443318903446197,0.0388886183500289,-0.4975614170334569,0.11408031826406731
1789141179306411800,3.981411865234375,0.3944676220417022,0.3533490896224975,0.0956168845295906,-0.5183944180165793,0.14446487445978057
1789141179316383500,3.991383544921875,0.3621490895748138,0.3556374013423919,0.0781206712126731,-0.5012098693077168,0.1118991979090828
1789141179326355700,4.001355712890625,0.340538889169693,0.3123139142990112,0.0876103118062019,-0.4537025896110768,0.12383958582247166
1789141179336328700,4.01132861328125,0.2916537523269653,0.3042863309383392,0.0666306689381599,-0.41848612003689223,0.08343318177997158
1789141179346300700,4.02130078125,0.2252510339021682,0.2700540721416473,0.0799973458051681,-0.3531513440257187,0.0731500765753659
1789141179356272600,4.031272705078125,0.1629245281219482,0.2737257182598114,0.0315926596522331,-0.3188152433575218,0.028724683590861538
1789141179366244600,4.04124462890625,0.1251092404127121,0.2834284007549286,0.0212177820503711,-0.30488541678273173,0.058983534138767994
1789141179376216600,4.051216552734375,0.1227902397513389,0.2707687318325043,0.0484385974705219,-0.2942513583863294,0.06446382651600134
1789141179386189800,4.06118994140625,0.1562443375587463,0.2545865774154663,0.0401889234781265,-0.2996329115373847,0.03258659714135826
1789141179396161500,4.07116162109375,0.1607725322246551,0.2533786296844482,-0.0204207561910152,-0.2987900562707464,0.034497052857216576
1789141179406133800,4.0811337890625,0.0808760896325111,0.2371978014707565,0.0457883551716804,-0.24273586668606142,0.07732794701982562
1789141179416105700,4.091105712890625,0.0610233731567859,0.2383340001106262,0.0744461789727211,-0.23353375126338372,0.10738327739762263
1789141179426077700,4.10107763671875,0.039855770766735,0.2087540030479431,0.0865952521562576,-0.19767966881623697,0.11656844549302298
1789141179436050700,4.11105078125,0.0268193893134593,0.2172336429357528,0.047233298420906,-0.1956668320694035,0.10888163561375835
1789141179446022700,4.121022705078125,0.0041854488663375,0.196075364947319,0.0965686216950416,-0.16738782060472546,0.14060541572328344
1789141179455994600,4.13099462890625,-0.0049000633880496,0.2099108248949051,0.0324918664991855,-0.17103377495163147,0.12605448918488377
1789141179465966600,4.140966552734375,-0.0361051186919212,0.1890079528093338,0.0405287556350231,-0.13644274070061474,0.14161053761765507
1789141179475938600,4.1509384765625,-0.0289417076855897,0.2258032709360122,0.0255877189338207,-0.17015706113513712,0.15338202474621881
1789141179485911600,4.16091162109375,-0.0394183173775672,0.2224538177251815,-0.0406810492277145,-0.15880110203189463,0.16576085944851518
1789141179495883800,4.1708837890625,-0.0258026458323001,0.1823704689741134,0.0188357736915349,-0.13597485994167763,0.12565981187390443
1789141179505855500,4.18085546875,-0.0323122106492519,0.1675150990486145,0.041663322597742,-0.1209791909220968,0.1272998632364824
1789141179515827700,4.19082763671875,-0.0762419700622558,0.1454253047704696,0.0258611403405666,-0.07722843089063447,0.1471934961485828
1789141179525800700,4.20080078125,-0.1591363102197647,0.0982119888067245,0.1035687178373336,0.005574286480669724,0.21369456385325764
1789141179535772700,4.210772705078125,-0.2029804140329361,0.1210026517510414,0.0543104670941829,0.013728162463165994,0.24208233021668313
1789141179545744600,4.22074462890625,-0.2332211434841156,0.0893365964293479,0.0905395746231079,0.05548993212257934,0.2597910915246777
1789141179555716900,4.230716796875,-0.2557867169380188,0.0767058134078979,0.0522261634469032,0.08022601934971488,0.26000381601080247
1789141179565688600,4.2406884765625,-0.2820945084095001,0.0660382509231567,0.0769296437501907,0.10295562151804474,0.2815256157886023
1789141179575661600,4.25066162109375,-0.2822660803794861,0.0686592683196067,0.0167981926351785,0.10330319091183929,0.2720273245139593
1789141179585633800,4.2606337890625,-0.266540378332138,0.0197979882359504,0.0225468911230564,0.1342944559365774,0.23218332201870945
1789141179595605500,4.27060546875,-0.2835755944252014,0.0507408082485199,-0.0133085818961262,0.11997772328327479,0.2622445645636287
1789141179605577700,4.28057763671875,-0.3096274435520172,0.0221485793590545,-0.0163986478000879,0.1584048658555219,0.2674631329569505
1789141179615549400,4.290549560546875,-0.353944182395935,0.0123603790998458,0.0043369373306632,0.1908043645074034,0.29839867079756716
1789141179625522700,4.300522705078125,-0.3682815730571747,-0.0058668293058872,0.0136071350425481,0.21356162998086875,0.30040359695508334
1789141179635494700,4.31049462890625,-0.3615637123584747,-0.0345939584076404,0.0429835021495819,0.23217946387422447,0.28260456129523487
1789141179645466600,4.320466552734375,-0.4104425609111786,-0.0452055893838405,0.0392135344445705,0.2688280239238223,0.315873132690508
1789141179655438600,4.3304384765625,-0.4426047503948211,-0.0714879035949707,0.0499073714017868,0.30827793657119656,0.32934016605343924
1789141179665410800,4.340410888671875,-0.445753663778305,-0.0706556662917137,0.0082837622612714,0.3110475983102571,0.32711857827633456
1789141179675383600,4.350383544921875,-0.444890022277832,-0.0860491544008255,-0.0001658289693295,0.32354608429796217,0.31725312879492606
1789141179685355800,4.360355712890625,-0.4583291113376617,-0.1047682464122772,-0.005736363120377,0.34679050354284635,0.3175078145026075
1789141179695327700,4.37032763671875,-0.4302399754524231,-0.1098988205194473,-0.0852458029985427,0.33822389274019793,0.3000927065714873
1789141179705299700,4.3802998046875,-0.4210733771324157,-0.0881908535957336,-0.1134843677282333,0.31630271487305184,0.3129084688375428
1789141179715272700,4.390272705078125,-0.4218182563781738,-0.0848262310028076,-0.0273226145654916,0.3105157700477421,0.29908629640693435
1789141179725244700,4.40024462890625,-0.4351042211055755,-0.1198217645287513,-0.0115793384611606,0.3461981000904878,0.289747985414235
1789141179735216600,4.410216552734375,-0.448319137096405,-0.1406229585409164,-0.0229362268000841,0.3712576963043301,0.28889212275569603
1789141179745188600,4.420188720703125,-0.4628030061721802,-0.1445428729057312,0.0033273347653448,0.38166004084436767,0.29904171784078176
1789141179755160600,4.43016064453125,-0.4676817953586578,-0.1747389137744903,0.0521628633141517,0.40729714816073864,0.2934108844372451
1789141179765133600,4.440133544921875,-0.4812183678150177,-0.1961818784475326,0.0511990673840045,0.43265144268800215,0.29239104055140663
1789141179775105800,4.450105712890625,-0.4683218002319336,-0.1938650608062744,-0.0563932843506336,0.4277203771853063,0.27774890068947217
1789141179785077500,4.460077392578125,-0.414116621017456,-0.1974688470363617,-0.0985593795776367,0.4015648653948299,0.24278824422929987
1789141179795049700,4.4700498046875,-0.3857001960277557,-0.1701463609933853,-0.1047041788697242,0.3632067969574727,0.23823982264058405
1789141179805021700,4.480021728515625,-0.3979765474796295,-0.2110032439231872,-0.0665277689695358,0.4022357231019893,0.21340119117427056
1789141179814994700,4.48999462890625,-0.4009294509887695,-0.2487239092588424,-0.0715870037674903,0.4351175066589859,0.19597311605021495
1789141179824966700,4.499966552734375,-0.3923567235469818,-0.2536853849887848,-0.044974036514759,0.43325950230472887,0.18057945811337503
1789141179834939000,4.50993896484375,-0.4122045636177063,-0.2231735736131668,-0.0206061992794275,0.4184874602266781,0.2121600982944325
1789141179844910600,4.51991064453125,-0.3709407448768616,-0.2825735211372375,0.0375207513570785,0.4415333366974733,0.15459932220062644
1789141179854882800,4.5298828125,-0.3946789503097534,-0.2646637260913849,-0.0007320422446355,0.44183301389120583,0.17493566088092466
1789141179864855800,4.539855712890625,-0.3862854838371277,-0.2766157388687134,0.0084883542731404,0.4465175831099248,0.1625633480988437
1789141179874827500,4.54982763671875,-0.3455182313919067,-0.2504040896892547,0.0098535753786563,0.4017535852957347,0.14413953658542536
1789141179884799700,4.5597998046875,-0.297942191362381,-0.2386387586593628,-0.017665134742856,0.3661481819602321,0.10938725867759602
1789141179894771500,4.569771484375,-0.3022982180118561,-0.2443948090076446,-0.0114881247282028,0.37310733591670314,0.10970837788399729
1789141179904743700,4.57974365234375,-0.2576926648616791,-0.2346364557743072,-0.062118012458086,0.34176349044507315,0.09228293435075322
1789141179914716700,4.589716552734375,-0.2113654166460037,-0.2260565906763076,-0.0032148510217666,0.3060304170963769,0.046180522095838034
1789141179924688600,4.599688720703125,-0.1880635619163513,-0.2032261043787002,-0.0044718631543219,0.27407522338295337,0.03964243066794513
1789141179934660600,4.60966064453125,-0.1698959767818451,-0.2293618470430374,0.00629872828722,0.28480062960054087,0.01999437828047388
1789141179944632600,4.619632568359375,-0.1427091062068939,-0.2233534902334213,0.0138061791658401,0.26411285711198623,0.02622365125462848
1789141179954605600,4.62960546875,-0.1651679277420044,-0.2029317766427993,0.0748039409518241,0.2576527471500994,0.08759247566955679
1789141179964577800,4.639577880859375,-0.1294983327388763,-0.2011554390192031,0.0528730750083923,0.23679966683142945,0.06288726960621
1789141179974549500,4.649549560546875,-0.0988845527172088,-0.1779053211212158,0.0350586846470832,0.20100643702727267,0.04747611707069204
1789141179984521700,4.659521728515625,-0.0631598383188247,-0.1593414843082428,0.0454540699720382,0.16503242277444755,0.06487869995794476
1789141179994493700,4.66949365234375,-0.0327101275324821,-0.1421007812023162,-0.0249340143054723,0.1363734072287313,0.05732873042124598
1789141180004466400,4.679466552734375,0.0229430142790079,-0.1535164266824722,-0.0582088828086853,0.11545989280339902,0.11895781755405775
1789141180014438700,4.689438720703125,0.0238509811460971,-0.1334272623062133,-0.0805004015564918,0.09932452594975828,0.12242000173082318
1789141180024410600,4.69941064453125,0.0489845648407936,-0.1551866084337234,-0.0236943736672401,0.10065391852274465,0.13004838737678825
1789141180034382600,4.709382568359375,0.0592283755540847,-0.161299929022789,0.0010047496762126,0.09886947119426659,0.14054004682370932
1789141180044354600,4.7193544921875,0.0563945025205612,-0.2049193084239959,0.0714419037103653,0.1335130530373389,0.18014014864521505
1789141180054327800,4.729327880859375,0.0385891795158386,-0.2051049023866653,0.0896319150924682,0.1430565626518558,0.1764251848351822
1789141180064299500,4.739299560546875,0.0105831138789653,-0.1806805282831192,0.1010060086846351,0.1384432062844712,0.1542502772254174
1789141180074271700,4.749271728515625,-0.0048021534457802,-0.1915170848369598,0.098170094192028,0.15620583337866445,0.1481180592443496
1789141180084243500,4.759243408203125,0.0103222047910094,-0.1714336425065994,0.0721281021833419,0.13214635283693232,0.1312853619079281
1789141180094215700,4.769215576171875,0.0564697124063968,-0.1332984417676925,0.0267072618007659,0.07639593186857836,0.12583418622847392
1789141180104188700,4.779188720703125,0.0803108587861061,-0.1220631003379821,0.066712200641632,0.052014211933026334,0.15196800312736147
1789141180114160600,4.78916064453125,0.1142055615782737,-0.094670757651329,0.0459482446312904,0.011070091348443306,0.15490047421463746
1789141180124132600,4.799132568359375,0.1624268889427185,-0.0873542502522468,-0.0093823904171586,-0.020133670185289304,0.18356449510608622
1789141180134104800,4.809104736328125,0.1864005923271179,-0.0534802973270416,-0.0350710824131965,-0.06057010245933218,0.18752750873348795
1789141180144076500,4.81907666015625,0.181309700012207,-0.0408910028636455,-0.0359318181872367,-0.06798943232160867,0.17667431642583814
1789141180154049500,4.829049560546875,0.2017285227775573,-0.039272915571928,-0.0704561248421669,-0.07954235608619861,0.2021727922237971
1789141180164021800,4.839021728515625,0.1992416530847549,-0.035040620714426,-0.0491899885237216,-0.08245780412018128,0.19116863480874616
1789141180173993500,4.848993408203125,0.1994934231042862,-0.0494696907699108,0.0211447104811668,-0.07355422423500207,0.19308482862528517
1789141180183965700,4.858965576171875,0.2103908210992813,-0.0310217048972845,-0.0031433198601007,-0.0939376403235539,0.1908199254998008
1789141180193937400,4.8689375,0.203922837972641,-0.0071107470430433,0.007215148769319,-0.11032790630648617,0.17179900474716595
1789141180203910400,4.878910400390625,0.1803559958934784,-0.0095986723899841,0.0167612489312887,-0.09527246975359077,0.1543519217216501
1789141180213882400,4.88888232421875,0.1992339193820953,-0.0395390130579471,0.0324693210422992,-0.08202125935841742,0.18863790183352572
1789141180223854300,4.898854248046875,0.1869250535964965,-0.0032217500265687,0.0005081918789073,-0.10359663654034175,0.15562567426938556
1789141180233826300,4.908826416015625,0.1930879056453704,-0.0176485329866409,-0.0102147534489631,-0.09481315158952774,0.16943794585859553
1789141180243799600,4.918799560546875,0.2049983590841293,-0.021139670163393,-0.0001440100022591,-0.09911491752998473,0.18068610002904967
1789141180253771300,4.928771240234375,0.2332514226436615,-0.0363354794681072,0.0125904735177755,-0.10319051619146126,0.21268928187619335
1789141180263743500,4.938743408203125,0.2106475830078125,-0.0107398368418216,-0.0109923500567674,-0.11043876941424921,0.18003293668787113
1789141180273715500,4.948715576171875,0.1862301528453827,-0.0266028642654418,0.0163897443562746,-0.08462051074427035,0.16881165569172937
1789141180283687400,4.9586875,0.1229403838515281,-0.0140641685575246,0.0311066396534442,-0.05954832591247501,0.11284395743825373
1789141180293660400,4.968660400390625,0.1117700040340423,-0.0440855510532856,0.0900596752762794,-0.030883956300815002,0.14694555443265347
1789141180303632400,4.97863232421875,0.095364935696125,-0.0428564995527267,0.0427680611610412,-0.02068070848580452,0.11105208627593925
1789141180313604400,4.988604248046875,0.1052662953734397,-0.0748631581664085,0.0228774640709161,0.0007931924080813585,0.1311801608491801
1789141180323576600,4.99857666015625,0.0766181349754333,-0.0307375118136405,0.0161069110035896,-0.018921680579661655,0.0819544741043844
1789141180333548300,5.00854833984375,0.0730448588728904,-0.0396785885095596,-0.0061570089310407,-0.008652528104777506,0.08290346380124525
1789141180343521300,5.018521240234375,0.0678418427705764,-0.0390719212591648,0.0135743506252765,-0.006983311908580064,0.07914939678276399
1789141180353493500,5.028493408203125,0.0667823702096939,-0.0140581373125314,-0.0005421231617219,-0.02637489049886067,0.06294581196726422
1789141180363465200,5.03846533203125,0.0587574690580368,-0.0321612395346164,0.0420117266476154,-0.008637594050060305,0.07859492759363956
1789141180373437400,5.0484375,0.0816846936941146,-0.0163092426955699,-0.0015584486536681,-0.03295270644127265,0.07651750441308024
1789141180383409400,5.058409423828125,0.1189324632287025,-0.0027484267484396,0.0375588610768318,-0.06682877403934691,0.10534262036338793
1789141180393382400,5.06838232421875,0.0453629046678543,0.0409665629267692,0.0003286672290414,-0.0594607406644063,0.01416265299036319
1789141180403354400,5.078354248046875,0.073164977133274,0.0065611856989562,0.0208816137164831,-0.047804903602353566,0.059555822718377345
1789141180413326600,5.08832666015625,0.0816505700349807,0.0441721752285957,0.013803094625473,-0.08325532026408312,0.04332520883305428
1789141180423298300,5.09829833984375,0.075651541352272,0.0239188373088836,-0.0101722795516252,-0.06224205485996236,0.05024607810833808
1789141180433270500,5.1082705078125,0.0683974176645279,0.012517912313342,-0.0029114943463355,-0.049039978572681706,0.04938078748643094
1789141180443243500,5.118243408203125,0.0588076412677764,0.0395548567175865,-0.0223483089357614,-0.06503408177241185,0.03595748158222095
1789141180453215500,5.128215576171875,0.0175923518836498,0.0133778108283877,-0.0260379742830991,-0.01995097972728583,0.027719869769662408
1789141180463187500,5.1381875,-0.0201520957052707,0.0077971573919057,0.0009014976676553,0.005007573626193049,0.02103900019325023
1789141180473159400,5.148159423828125,-0.0233049653470516,0.0107871666550636,0.0279522594064474,0.0032603070429261267,0.03781776802222159
1789141180483132400,5.15813232421875,-0.0304635427892208,-0.0098978728055953,0.01970418356359,0.02465849703564636,0.028393814453100515
1789141180493104400,5.1681044921875,-0.0440072640776634,-0.0005799264181405,0.000391976092942,0.025469024085580726,0.035895098044680246
1789141180503076400,5.178076416015625,-0.0224471129477024,0.0081315394490957,-0.0091629130765795,0.006439348041384244,0.02474850674990273
1789141180513048300,5.18804833984375,-0.050926424562931,0.0015721740201115,0.0130774108693003,0.02712504567890163,0.045069091646885995
1789141180523020500,5.1980205078125,-0.0553118474781513,-0.024447975680232,0.054178774356842,0.04935898173698786,0.06446808899761794
1789141180532993300,5.2079931640625,-0.0009362092241644,-0.0068309688940644,0.0059164632111787,0.005909629004477476,0.006900684437195738
1789141180542965500,5.217965576171875,0.0068745762109756,-0.0203859265893697,0.0044115111231803,0.01267155607151101,0.01793708164959334
1789141180552937500,5.2279375,0.0226772278547287,-0.0097583020105957,-0.0572131611406803,-0.002579251037143713,0.06225893022773619
1789141180562909400,5.237909423828125,0.0306643154472112,0.0049008019268512,-0.0677172020077705,-0.018745973297379658,0.07210080467142811
1789141180572881400,5.24788134765625,-0.0118314856663346,-0.0038542828988283,-0.0453390292823314,0.011703977973736346,0.045535524874445885
1789141180582854400,5.2578544921875,-0.0040891440585255,0.0146807841956615,-0.0488504059612751,-0.007788780683935745,0.0505761167130286
1789141180592826400,5.267826416015625,0.0570151545107364,-0.0148511789739131,-0.0328301377594471,-0.01888172973486606,0.06475016284398127
1789141180602798300,5.27779833984375,0.0560825169086456,-0.0404444225132465,0.0300676021724939,0.00016775317595389694,0.07539915499867247
1789141180612770300,5.287770263671875,0.0118238814175128,-0.0499486029148101,0.0292364861816167,0.033163095950517,0.048884029049797516
1789141180622742500,5.297742431640625,-0.0636868625879287,-0.0601173490285873,0.0283033140003681,0.08446838687319447,0.03655518188933659
1789141180632715500,5.307715576171875,-0.0780291557312011,-0.0496796071529388,-0.0323013924062252,0.08646336982020889,0.04608772224474863
1789141180642687200,5.317687255859375,-0.0846092998981475,-0.0584251657128334,-0.0385441072285175,0.09763998210467756,0.050242568748705606
1789141180652659500,5.327659423828125,-0.0717819854617118,-0.0148208644241094,-0.061348732560873,0.05542533919370446,0.07787175496411752
1789141180662631400,5.33763134765625,-0.0325887799263,-0.0290365517139434,-0.0348129943013191,0.043775429791758344,0.03465265114377016
1789141180672603400,5.347603271484375,-0.0039813378825783,-0.017430992797017,-0.0500996969640255,0.018591585524834888,0.04983997536902328
1789141180682576400,5.357576416015625,0.0238806530833244,0.0004950105212628,-0.0863277465105056,-0.010525932021363735,0.08895063349839614
1789141180692548600,5.367548583984375,0.0480101779103279,0.0038627632893621,-0.027705417945981,-0.029349769641751282,0.047181345135006506
1789141180702520300,5.377520263671875,0.0321686305105686,0.0386740081012249,-0.0670171380043029,-0.04738597999495443,0.06911125362590852
1789141180712492500,5.387492431640625,0.0120998881757259,0.042165283113718,-0.0322763286530971,-0.04023988064151644,0.036699206956068015
1789141180722464300,5.39746435546875,0.0006879763677716,0.0862565785646438,-0.0535070486366748,-0.06914323694326704,0.07431613348375907
1789141180732437200,5.407437255859375,0.0467728897929191,0.0848769694566726,-0.020564017817378,-0.09551526361275842,0.026296699593450837
1789141180742409500,5.417409423828125,0.1240983009338378,0.1496122777462005,-0.0307426210492849,-0.19225407739929198,0.04204402953331894
1789141180752381400,5.42738134765625,0.1617841273546219,0.1263428926467895,0.0855956003069877,-0.19919695530472215,0.09891314460422747
1789141180762353400,5.437353515625,0.1647556871175766,0.0813320055603981,0.0905879661440849,-0.16409215438216346,0.12263472610318635
1789141180772325600,5.44732568359375,0.1523849070072174,0.0786680653691291,0.0445710234344005,-0.15303291209459247,0.08931589073820229
1789141180782298400,5.45729833984375,0.1223939731717109,0.0972265750169754,0.0076841143891215,-0.1497677577050645,0.045408764839304186
1789141180792270300,5.467270263671875,0.1350989043712616,0.1004722490906715,-0.0292510278522968,-0.15817836924496734,0.064665392081637
1789141180802242300,5.4772421875,0.1212081089615821,0.096640758216381,-0.0144971162080764,-0.147725539971277,0.04917492293054346
1789141180812214300,5.48721435546875,0.0966805145144462,0.0964153334498405,-0.0916090309619903,-0.13051881412290586,0.10000046062277523
1789141180822187500,5.4971875,0.1001069396734237,0.065717875957489,-0.0224118512123823,-0.11000333320299166,0.05236216525450372
1789141180832159200,5.5071591796875,0.1083791255950927,0.0506625659763813,0.0450382456183433,-0.10502750606304766,0.07287247075969618
1789141180842131500,5.51713134765625,0.1102595776319503,0.0157820805907249,0.0393025949597358,-0.07719959214410772,0.08939331893771861
1789141180852103400,5.527103515625,0.0657461136579513,-0.0024487134069204,0.0442841984331607,-0.03711970972293634,0.07008398561316258
1789141180862075400,5.537075439453125,0.0172659344971179,-0.0361667275428772,0.0327766798436641,0.018602088262719592,0.04831581241228925
1789141180872048400,5.54704833984375,-0.0216938517987728,-0.0472134426236152,0.0220986921340227,0.05024771007967331,0.02575368315453027
1789141180882020400,5.557020263671875,-0.0594204552471637,-0.0731848552823066,0.0555663704872131,0.0916936458188825,0.05972194228284865
1789141180891992300,5.566992431640625,-0.0546973794698715,-0.0747696235775947,-0.0261364951729774,0.09357881038275614,0.022548227382248237
1789141180901964500,5.576964599609375,-0.0221887044608593,-0.0881112590432167,-0.0314891822636127,0.08628415040481374,0.04245640781298737
1789141180911936300,5.586936279296875,-0.0110536338761448,-0.0928985327482223,0.0101435650140047,0.08222634051895547,0.045760693227862165
1789141180921909200,5.5969091796875,-0.0346905179321765,-0.0891783535480499,-0.016493372619152,0.0936660170320278,0.025591392491494377
1789141180931881500,5.606881591796875,-0.0323815867304801,-0.0847615972161293,-0.017670227214694,0.08877097496654768,0.025788494626876202
1789141180941853200,5.616853271484375,-0.0499693676829338,-0.0721885487437248,-0.0224223732948303,0.08862221060556655,0.018894202494751863
1789141180951825400,5.626825439453125,-0.025543563067913,-0.084573321044445,-0.0316654220223426,0.08528994514990898,0.03915921928320061
1789141180961797400,5.63679736328125,-0.0523671880364418,-0.0700665488839149,-0.0208378061652183,0.08817746233495774,0.017623647672726863
1789141180971770400,5.646770263671875,-0.0582270473241806,-0.072023369371891,0.0176341384649276,0.0915775006306691,0.022411581680288745
1789141180981742300,5.656742431640625,-0.0657102614641189,-0.0545226745307445,-0.0077412584796547,0.08246128689257556,0.023465373351760983
1789141180991714600,5.666714599609375,-0.0384588725864887,-0.063508428633213,0.0176608394831419,0.07334457604163179,0.021092268834961264
1789141181001686300,5.676686279296875,-0.0038452353328466,-0.0421554706990718,0.008179984986782,0.036504363521009255,0.022939336148530113
1789141181011658500,5.686658447265625,0.0541180744767189,-0.0443695485591888,-0.0001440390478819,0.005717965605221219,0.06974774864466042
1789141181021631500,5.696631591796875,0.002572591882199,-0.028019867837429,0.0289022587239742,0.020411151681305577,0.03479161779810798
1789141181031603500,5.706603515625,0.0306206345558166,-0.0127103589475154,-0.0130202360451221,-0.0064339996970062905,0.035032937069922845
1789141181041575400,5.716575439453125,0.0415907278656959,0.0123550463467836,-0.0120958527550101,-0.033305433818834,0.030323151990512102
1789141181051547400,5.72654736328125,0.0446719527244567,0.0182048678398132,0.0367393605411052,-0.04181674592386733,0.043910601756172764
1789141181061519400,5.736519287109375,0.0388683937489986,0.0220803003758192,0.0396035909652709,-0.041818366457542465,0.04263754614750677
1789141181071492400,5.746492431640625,0.0716015622019767,0.01915929839015,-0.0139058446511626,-0.05587957181791518,0.05064295008661197
1789141181081464300,5.75646435546875,0.0783366933465004,0.0109623549506068,0.0065200682729482,-0.05378681779588662,0.05836351833296835
1789141181091436300,5.766436279296875,0.0841666758060455,0.0249088741838932,-0.0243063159286975,-0.06732953006976605,0.0613352484625204
1789141181101408500,5.776408447265625,0.0729283988475799,0.0116244945675134,-0.0391172207891941,-0.04943293938887677,0.06738116723586819
1789141181111380200,5.786380126953125,0.0480347350239753,-0.0026127467863261,-0.0392772369086742,-0.023579032837577577,0.05745339645501852
1789141181121353500,5.796353515625,0.0467470958828926,0.000302349217236,-0.0469514019787311,-0.02493629979940925,0.06138401655655889
1789141181131325400,5.806325439453125,0.0543368831276893,0.0033269310370087,-0.0555141679942607,-0.031392809460746934,0.0711328313819534
1789141181141297400,5.81629736328125,0.0670763775706291,-0.0141511280089616,0.0100091826170682,-0.026887407468781932,0.06384940021795917
1789141181151269400,5.826269287109375,0.0645061731338501,-0.0199420768767595,0.0469259321689605,-0.02214345371564859,0.07918613117207862
1789141181161241300,5.836241455078125,0.0487280115485191,-0.0332895740866661,0.0498151965439319,-0.0023227980335170477,0.07719309080708127
1789141181171214300,5.84621435546875,0.040770623832941,-0.0504308268427848,0.0564805939793586,0.016020526642833616,0.08449208416249145
1789141181181186600,5.8561865234375,0.0288793444633483,-0.0603947751224041,0.0606489740312099,0.030800401299743076,0.08491865948972371
1789141181191158300,5.866158203125,0.0173045136034488,-0.0553785376250743,-0.0027137731667608,0.035788754974214854,0.04574667422600201
1789141181201130000,5.8761298828125,-0.0079355956986546,-0.0758430659770965,-0.0061846710741519,0.06708992903121673,0.036774120176837316
1789141181211102000,5.88610205078125,-0.0128288986161351,-0.0475265197455883,-0.0407635569572448,0.04798070591102972,0.04222404711674008
1789141181221075000,5.896074951171875,-0.0184364505112171,-0.0655143111944198,-0.0652071163058281,0.06692824261259164,0.06636720603162155
1789141181231047000,5.906046875,-0.009773313999176,-0.094976358115673,-0.034830916672945,0.08500466229949176,0.05570840521025581
1789141181241019100,5.91601904296875,0.009440061636269,-0.0745778754353523,-0.0118765998631715,0.05640359492046823,0.05109464132866673
1789141181250990800,5.925990966796875,0.0403872542083263,-0.0714335069060325,-0.0305969063192605,0.03698141267092772,0.07938779506041413
1789141181260963800,5.9359638671875,0.0170632898807525,-0.0854915305972099,0.028429128229618,0.05942960640385735,0.06983047243136
1789141181270936000,5.94593603515625,0.0168147478252649,-0.1013527363538742,0.0420964397490024,0.0720602291108146,0.0844662449199885
1789141181280907800,5.95590771484375,-0.0050636529922485,-0.0652735605835914,0.0265968404710292,0.05546044977937566,0.04379279308512317
1789141181290880000,5.9658798828125,-0.0254512503743171,-0.0598739832639694,0.0014611672377213,0.0636133795904494,0.013716157052478323
1789141181300851700,5.975851806640625,0.0082502532750368,-0.0797840431332588,0.0183637179434299,0.06014943551599845,0.05615008247193009
1789141181310825000,5.985824951171875,0.0301614068448543,-0.0482919439673423,0.0146689759567379,0.02196329141061275,0.054540031179287116
1789141181320797000,5.995796875,0.0461393073201179,-0.0504019670188427,-0.0240624416619539,0.016166246696928305,0.07061761484090058
1789141181330769000,6.005768798828125,0.0332064479589462,-0.0302549805492162,-0.0198213662952184,0.006787865916478002,0.048629656303461465
1789141181340740900,6.015740966796875,0.0112787783145904,-0.0424570553004741,-0.0177355781197547,0.029193849121689527,0.03731061899458571
1789141181350713000,6.025713134765625,0.0407846234738826,-0.0629623085260391,-0.0174859892576932,0.029269175515510167,0.07125105607495887
1789141181360685800,6.035685791015625,0.0617711320519447,-0.0506012514233589,-0.0045198565348982,0.006665551771907162,0.07970043239067688
1789141181370658000,6.045657958984375,0.0345596671104431,-0.0550246052443981,-0.0108795575797557,0.026018745577260624,0.06052658444686505
1789141181380630000,6.055630126953125,0.0157697331160306,-0.084547609090805,0.0440742410719394,0.05876338771799785,0.07672278459163284
1789141181390602000,6.06560205078125,0.000952580012381,-0.0465259552001953,0.0163322687149047,0.03704392007780459,0.032558607197109166
1789141181400574000,6.075573974609375,-0.0110636036843061,-0.0656019151210784,0.0372830927371978,0.05871265239178813,0.048671018555276946
1789141181410546700,6.085546630859375,-0.0005136812105774,-0.0530817434191703,-0.0184725038707256,0.04465673518003512,0.03413128704164136
1789141181420519000,6.095518798828125,-0.0113871013745665,-0.0537177063524723,-0.034112986177206,0.05198381292084651,0.038427035712136015
1789141181430491000,6.105490966796875,0.0283519979566335,-0.0423518903553485,-0.0289862025529146,0.01985502132930688,0.055167893482131185
1789141181440462800,6.115462890625,0.0574718005955219,-0.0330641157925128,-0.017599057406187,-0.004781553386318235,0.06843323158840432
1789141181450434800,6.125434814453125,0.052755132317543,-0.0316398367285728,-0.0471843108534812,-0.0020888852192053504,0.07749954195549251
1789141181460408000,6.135407958984375,0.1035466790199279,-0.0531717613339424,-0.04283457249403,-0.013429760215508325,0.12330285106480697
1789141181470379800,6.1453798828125,0.1107018962502479,0.0050929202698171,-0.0079774027690291,-0.06677548720288495,0.08880045570847045
1789141181480352000,6.15535205078125,0.0957455784082412,0.0092594362795352,-0.0216383524239063,-0.06115437119110657,0.07733895606216161
1789141181490323700,6.16532373046875,0.095741219818592,-0.0074161505326628,-0.0089474041014909,-0.04795415889247068,0.08367696903058883
1789141181500296000,6.1752958984375,0.0933797881007194,0.0472870431840419,0.0092020379379391,-0.09229675263598153,0.05021788758887023
1789141181510269000,6.18526904296875,0.0986828058958053,0.0547579303383827,-0.0152111165225505,-0.10047430023546688,0.053600561307398896
1789141181520241000,6.195240966796875,0.124855026602745,0.038882028311491,-0.004996296018362,-0.10270772570198206,0.08109670676801409
1789141181530212900,6.205212890625,0.1188236474990844,0.0705486312508583,-0.0113593339920043,-0.12505165994985362,0.05989395118778133
1789141181540185000,6.21518505859375,0.1658825129270553,0.0715790092945098,-0.0423217788338661,-0.15140275177758644,0.10727955249913854
1789141181550156800,6.22515673828125,0.187537744641304,0.0635749250650405,0.0227300617843866,-0.15973142463677598,0.11922543543388904
1789141181560129800,6.2351298828125,0.1919737756252288,0.0992165356874466,0.01070455648005,-0.19106422630250036,0.10152290597931858
1789141181570102000,6.24510205078125,0.2009398937225341,0.0889578983187675,0.0268593989312648,-0.18837406792097677,0.11630557341919409
1789141181580073700,6.25507373046875,0.191385805606842,0.0928402543067932,0.0640134289860725,-0.18762105046648603,0.11892812922070711
1789141181590046000,6.2650458984375,0.2164215445518493,0.0909918174147605,0.0480623431503772,-0.19969120966079323,0.13248096239068818
1789141181600017700,6.275017578125,0.2228283137083053,0.1196948364377021,0.0062416596338152,-0.22525002652855391,0.11524189830007726
1789141181609991000,6.284990966796875,0.1819581538438797,0.1346019506454467,0.0350876599550247,-0.21542971244800818,0.07776655928816842
1789141181619963000,6.294962890625,0.1955157816410064,0.1558398604393005,-0.0050389855168759,-0.23898454690796583,0.07364958035635992
1789141181629934800,6.304934814453125,0.2067999392747879,0.1884524077177047,-0.0565202981233596,-0.2701419095349808,0.0921868627918516
1789141181639906800,6.31490673828125,0.2131952494382858,0.1572287082672119,-0.0125927878543734,-0.24987071566340757,0.08886104234269764
1789141181649879000,6.324879150390625,0.2563331425189972,0.2094010561704635,-0.0056966710835695,-0.3175393177639984,0.09357732639041874
1789141181659851800,6.334851806640625,0.2804637551307678,0.2175396680831909,-0.0064514111727476,-0.337910754333019,0.10881804971605637
1789141181669824000,6.344823974609375,0.2661285996437073,0.2035376727581024,0.0191464312374591,-0.31928015083489447,0.10333821602912832
1789141181679796000,6.3547958984375,0.2633242905139923,0.2052791118621826,0.0364186279475688,-0.3198083620004667,0.10260664597279165
1789141181689768000,6.364767822265625,0.2465368807315826,0.1940588951110839,0.0586491785943508,-0.301935837803723,0.10350731535572355
1789141181699741000,6.374740966796875,0.2366943806409835,0.2035730332136154,0.0043265526182949,-0.30199005042446336,0.0792902149133139
1789141181709713000,6.384712890625,0.2360590696334839,0.1861264258623123,-0.0219046995043754,-0.2862414025293324,0.09440659986951405
1789141181719684900,6.394684814453125,0.2217491120100021,0.1894985288381576,-0.0362982861697673,-0.28030539837395196,0.0884805647039671
1789141181729656800,6.40465673828125,0.190310001373291,0.1610850691795349,-0.0265993494540452,-0.23947508949591023,0.07433372745653066
1789141181739628800,6.41462890625,0.1958829313516616,0.1595297753810882,-0.0505696609616279,-0.240405386548631,0.09264131236245268
1789141181749601800,6.424601806640625,0.186111643910408,0.1663031429052353,-0.0609505623579025,-0.24000441068112874,0.09169042068036481
1789141181759574000,6.434573974609375,0.1737924069166183,0.142246276140213,-0.011463969014585,-0.21521073828484252,0.06521935671324543
1789141181769545700,6.444545654296875,0.1828961372375488,0.1303710341453552,0.0194609016180038,-0.21186068555578727,0.07708034878075681
1789141181779518000,6.45451806640625,0.1919261217117309,0.1515729874372482,0.010665544308722,-0.23406573993031976,0.07167279778431686
1789141181789490000,6.464489990234375,0.1432812064886093,0.1409260183572769,0.0620187073945999,-0.19972503259490898,0.06592327513652961
1789141181799463000,6.474462890625,0.1199726834893226,0.1457780301570892,0.0880662873387336,-0.19150862924657996,0.08200484589239082
1789141181809435000,6.484434814453125,0.126209408044815,0.1512706726789474,0.0824775472283363,-0.19934356387003238,0.07665716164951994
1789141181819407000,6.494406982421875,0.1371850967407226,0.1654072701930999,0.0560382157564163,-0.21614205882667245,0.0510118401140805
1789141181829378800,6.50437890625,0.1559507995843887,0.1434074342250824,0.0559532605111599,-0.20872168859960177,0.06672606800937768
1789141181839351000,6.51435107421875,0.1459237188100814,0.1562886089086532,0.0383638814091682,-0.21290695843629015,0.04315408940239854
1789141181849324000,6.524323974609375,0.1561340689659118,0.1387911885976791,0.0315847769379615,-0.20405757345496106,0.054762636661345884
1789141181859295700,6.534295654296875,0.1586137413978576,0.1856180876493454,-0.0074526364915072,-0.2423914736045612,0.03023753854582684
1789141181869268000,6.54426806640625,0.1476260423660278,0.1830470710992813,0.0107402503490448,-0.234761834855413,0.017375629357279203
1789141181879239700,6.55423974609375,0.1265862584114074,0.1849294006824493,0.0318109169602394,-0.22519501166584918,0.022849621748265166
1789141181889212000,6.5642119140625,0.132558673620224,0.1951697915792465,0.039454985409975,-0.237310855106973,0.030055006556948077
1789141181899185000,6.574184814453125,0.1128017380833625,0.2229343056678772,0.0347574353218078,-0.2487145309961818,0.04210817188794824
1789141181909156900,6.584156982421875,0.1226869150996208,0.208156555891037,0.0352235957980155,-0.2422052562908889,0.03096040088704892
1789141181919128800,6.59412890625,0.1227979734539985,0.2196457087993621,0.039426065981388,-0.25187897330013276,0.03788109246606878
1789141181929101000,6.60410107421875,0.140725240111351,0.2130690664052963,0.0601943433284759,-0.257491754622951,0.0502332114557928
1789141181939072800,6.61407275390625,0.1399244219064712,0.198450967669487,0.0375050120055675,-0.2441153324579998,0.027856072933454552
1789141181949046000,6.6240458984375,0.1345946192741394,0.1970702409744262,0.0195095501840114,-0.23923227814325648,0.0100464450448392
1789141181959018000,6.63401806640625,0.1315359771251678,0.198526456952095,0.019769474864006,-0.23870135052777414,0.01126786496369008
1789141181968990000,6.643989990234375,0.1153089255094528,0.202104777097702,0.0473484024405479,-0.2335235644626965,0.043024473060866965
1789141181978962000,6.6539619140625,0.0692761838436126,0.2150874137878418,0.0072190919890999,-0.21643003108008163,0.06536009603495291
1789141181988934000,6.663933837890625,0.0313192829489707,0.1904365569353103,0.0248340144753456,-0.17530471580495166,0.08445095969448888
1789141181998907000,6.673906982421875,0.0264901742339134,0.1817309558391571,0.0446165092289447,-0.16619655871942918,0.08998447869912121
1789141182008878800,6.68387890625,0.0282295905053615,0.1735403388738632,0.0465345978736877,-0.16053009365642765,0.08549103360282909
1789141182018850800,6.693850830078125,0.0259997248649597,0.15242600440979,0.0390226170420646,-0.1416093565191784,0.07334321577639467
1789141182028822800,6.70382275390625,-0.0036991890519857,0.1197254061698913,0.0565336644649505,-0.09855683214431203,0.08848990302684985
1789141182038795000,6.713794921875,-0.0097914366051554,0.103206880390644,0.055146686732769,-0.08146325974606243,0.08457202114120957
1789141182048767700,6.723767822265625,-0.0337988138198852,0.1350093185901641,0.0241212416440248,-0.09271752224483343,0.10656064606147969
1789141182058740000,6.733739990234375,-0.0496568754315376,0.1043059900403022,0.0503746829926967,-0.05952139615056416,0.11108715912657571
1789141182068712000,6.7437119140625,-0.0599979385733604,0.0940987467765808,0.0636705607175827,-0.04578744831020626,0.12004905937702043
1789141182078684000,6.753683837890625,-0.0424240007996559,0.1146932318806648,0.0398190207779407,-0.07174654497904921,0.10673481616775517
1789141182088656000,6.76365576171875,-0.06204529479146,0.0977244302630424,0.0205874685198068,-0.045881263665896066,0.10825172691680246
1789141182098629000,6.773629150390625,-0.098465085029602,0.0657752826809883,0.0317852608859539,0.0006253683056855544,0.122603721418728
1789141182108600800,6.783600830078125,-0.1378540694713592,0.1131879836320877,-0.0193090829998254,-0.013915155477234445,0.17886998977707416
1789141182118573000,6.793572998046875,-0.1021112501621246,0.0667712166905403,-0.0120317302644252,0.003630763558385347,0.12254257577326366
1789141182128544800,6.803544677734375,-0.1128785610198974,0.0582282543182373,0.0344505570828914,0.014912240354349258,0.13075383401570945
1789141182138517000,6.81351708984375,-0.0909506231546402,0.0783862546086311,0.0102533437311649,-0.013148556055883588,0.1197859227751793
1789141182148490000,6.823489990234375,-0.1042939648032188,0.0915317386388778,0.0318900570273399,-0.017234872831144443,0.14133373683707703
1789141182158461700,6.833461669921875,-0.131225436925888,0.0706360414624214,0.0587680079042911,0.014168397191996765,0.15956973686736395
1789141182168434000,6.843433837890625,-0.1507605910301208,0.0763029679656028,0.0687742382287979,0.020212122000816124,0.18130710051260185
1789141182178406000,6.853406005859375,-0.1351475566625595,0.101399265229702,0.0258028041571378,-0.00756808944972992,0.1707488851660112
1789141182188377900,6.8633779296875,-0.1072717607021331,0.0778093934059143,0.0258373171091079,-0.004022700397432931,0.13495524140707224
1789141182198351400,6.873351318359375,-0.0889670550823211,0.0967513918876648,-0.0045767822302877,-0.02877655649811181,0.12833092165926224
1789141182208323600,6.883323486328125,-0.0901987180113792,0.0926830098032951,-0.0235905777662992,-0.02397274144926332,0.12925854735315795
1789141182218295300,6.89329541015625,-0.0960163921117782,0.0918670147657394,-0.0248246882110834,-0.019946739301978586,0.1337052306087078
1789141182228267500,6.903267578125,-0.1048770472407341,0.0915725007653236,-0.0145658068358898,-0.015079605131312436,0.13917430140731626
1789141182238239500,6.913239501953125,-0.1037161722779274,0.0931773260235786,-0.0275151617825031,-0.01654050659535939,0.14114727856524603
1789141182248212200,6.923212158203125,-0.1415325403213501,0.0842887088656425,-0.0281541850417852,0.012280286597531817,0.16666703065843946
1789141182258184400,6.933184326171875,-0.1524144858121872,0.0584113076329231,-0.0275310054421424,0.03970710788906838,0.1606964784571291
1789141182268156400,6.943156494140625,-0.1684053391218185,0.0575718730688095,-0.0203918945044279,0.04919871976555682,0.17225038214266963
1789141182278128400,6.95312841796875,-0.171227753162384,0.0320294946432113,-0.0174717381596565,0.0716783555808122,0.15972572415139666
1789141182288101400,6.963101318359375,-0.1810888051986694,0.0206020735204219,0.0269983373582363,0.08489593225675773,0.16352122708684536
1789141182298073600,6.973073486328125,-0.193824827671051,0.0316017270088195,0.018433878198266,0.08343560246915988,0.17873175732837573
1789141182308045300,6.98304541015625,-0.196851298213005,0.0088657103478908,-0.0222775712609291,0.10546923448142159,0.16793321645019132
1789141182318017500,6.993017578125,-0.2111591249704361,0.0011819582432508,-0.0192642044275999,0.11979452139390771,0.17495700986185717
1789141182327989200,7.0029892578125,-0.2277554124593734,-0.0107222758233547,-0.021275945007801,0.13908987543160858,0.18191802409812494
1789141182337962500,7.01296240234375,-0.2342564463615417,-0.0105989724397659,0.0012115197023376,0.14178378410785936,0.18678128177834594
1789141182347934500,7.0229345703125,-0.2475014179944992,-0.0350213199853897,0.0224102716892957,0.16853491996239528,0.18596140941943826
1789141182357906400,7.032906494140625,-0.2422219663858413,-0.0601825974881649,0.0444596484303474,0.1853324482914298,0.172979680856165
1789141182367878400,7.04287841796875,-0.2528551518917084,-0.0429887101054191,0.0470367558300495,0.1771408191129648,0.19135658765171962
1789141182377850600,7.0528505859375,-0.2512055933475494,-0.065253272652626,0.0664354860782623,0.19372637074402044,0.1850567664522906
1789141182387823400,7.0628232421875,-0.2767879664897918,-0.0666156113147735,0.0240058284252882,0.21108020975659608,0.19253738055736314
1789141182397795300,7.07279541015625,-0.2590542435646057,-0.0833434537053108,0.0018925372278317,0.21563488277995607,0.16601328684774808
1789141182407767600,7.082767578125,-0.2740442156791687,-0.0696320608258247,-0.0217615347355604,0.21383003309269524,0.18627704470408035
1789141182417739300,7.0927392578125,-0.2374169528484344,-0.0810724645853042,-0.0535160042345523,0.20368794164033177,0.15593184137092894
1789141182427711500,7.10271142578125,-0.2381735891103744,-0.0854536145925521,-0.0650128349661827,0.20817832015675486,0.1578525721162049
1789141182437684500,7.1126845703125,-0.2669264078140259,-0.097503088414669,-0.0035918173380196,0.23196505440282178,0.16420010391770173
1789141182447656400,7.122656494140625,-0.248840644955635,-0.0757526159286499,-0.0219410024583339,0.20454503406381286,0.16218157118082246
1789141182457628400,7.13262841796875,-0.2570708692073822,-0.1000406444072723,-0.0028898147866129,0.2284219042607148,0.15467820470858554
1789141182467600400,7.142600341796875,-0.2608663141727447,-0.0828254297375679,-0.0096918065100908,0.2167020534365478,0.16746771877319686
1789141182477572400,7.152572265625,-0.2691231667995453,-0.1203411146998405,0.0376221798360347,0.2503354426773707,0.16017758067393778
1789141182487545600,7.162545654296875,-0.2718517780303955,-0.1171947494149208,0.0320362709462642,0.2495234723291512,0.16248802393302492
1789141182497517300,7.172517333984375,-0.2321027666330337,-0.08427195250988,-0.0008718809694983,0.20119276017670087,0.1431631575770857
1789141182507489500,7.182489501953125,-0.2460652142763137,-0.1059873029589653,0.0139466607943177,0.22638191620845433,0.14396921694051057
1789141182517461500,7.19246142578125,-0.2485752552747726,-0.1319171637296676,0.0104174399748444,0.249260361096267,0.13103278621469655
1789141182527433500,7.20243359375,-0.2371990382671356,-0.1107207313179969,-0.0184065084904432,0.22652733950047982,0.13246368601276812
1789141182537406500,7.212406494140625,-0.2585336565971374,-0.0938299000263214,-0.0221751481294631,0.22491982031121044,0.15983276684764133
1789141182547378400,7.22237841796875,-0.2143157720565796,-0.1140650063753128,-0.0314545556902885,0.21679368180118508,0.11371879544019056
1789141182557350400,7.232350341796875,-0.2169051617383957,-0.1241378784179687,-0.0290992576628923,0.22644957050291453,0.10966047994811488
1789141182567322400,7.242322265625,-0.2036903351545334,-0.1227008178830146,-0.0404101982712745,0.21821112506184243,0.10277223539504986
1789141182577294300,7.25229443359375,-0.2318580597639084,-0.0931570380926132,-0.0146869886666536,0.2089084401915049,0.13787445331358356
1789141182587267300,7.262267333984375,-0.1956993043422699,-0.1098509281873703,0.0053896745666861,0.2012779304168621,0.09940667715357338
1789141182597239600,7.272239501953125,-0.2043295502662658,-0.1166063025593757,0.0348889790475368,0.21055483214313314,0.11059610494379814
1789141182607211300,7.282211181640625,-0.2273533940315246,-0.1250552237033844,0.051152229309082,0.2299322887570011,0.13067542960868037
1789141182617183500,7.29218359375,-0.1992072165012359,-0.1495951861143112,0.0420428849756717,0.23447047175287616,0.0940927035843213
1789141182627155500,7.302155517578125,-0.2150951772928238,-0.1370174288749694,0.0363530740141868,0.2333893682501922,0.10904430241051442
1789141182637128400,7.31212841796875,-0.138286143541336,-0.1391961574554443,0.0229789465665817,0.19206634617888613,0.0462296268284519
1789141182647100400,7.322100341796875,-0.1657571941614151,-0.1289050430059433,-0.0033265734091401,0.2002711701343628,0.06320191478340402
1789141182657072600,7.33207275390625,-0.1314793825149536,-0.14380943775177,-0.0070645860396325,0.19319098530321827,0.02636539372884045
1789141182667044400,7.34204443359375,-0.157450333237648,-0.102929763495922,-0.0035676965489983,0.17421197723661525,0.0710496945521065
1789141182677016600,7.3520166015625,-0.127935841679573,-0.1135480552911758,-0.0053778472356498,0.16623895475192693,0.04067273792782415
1789141182686989600,7.361989501953125,-0.1520038694143295,-0.0955276787281036,0.0006275868508964,0.16486562418828835,0.07106640237390527
1789141182696961300,7.371961181640625,-0.081987515091896,-0.1072330698370933,0.002570629119873,0.13461994017854373,0.010245181210113077
1789141182706933500,7.38193359375,-0.0588376447558403,-0.0687220990657806,-0.0229851249605417,0.09083533150600365,0.021490785468836697
1789141182716905500,7.391905517578125,-0.0868053659796714,-0.0998153015971183,-0.009698879905045,0.13175191747342652,0.015289424752955133
1789141182726878500,7.40187841796875,-0.0777250230312347,-0.1036698743700981,0.0044531603343784,0.12919393880645058,0.010834152932125097
1789141182736850400,7.411850341796875,-0.0745105892419815,-0.104461632668972,0.0187857598066329,0.1274449369484174,0.023974015658227602
1789141182746822400,7.421822509765625,-0.0440302565693855,-0.1151182800531387,0.0279174167662858,0.11851709740363521,0.04386298756216374
1789141182756794400,7.43179443359375,-0.0242464318871498,-0.1093868911266326,-0.0046423911117017,0.10386588361882398,0.04227069226926484
1789141182766766600,7.4417666015625,-0.0163588039577007,-0.0968978181481361,-0.0123961484059691,0.08942919989760222,0.042577932427177015
1789141182776738300,7.45173828125,-0.0589760392904281,-0.0603709630668163,-0.0098325898870825,0.08352456521188183,0.015593371093342004
1789141182786711600,7.461711669921875,-0.0600613914430141,-0.090366393327713,-0.0037948875688016,0.10855225719556716,0.0020650458922704283
1789141182796683500,7.47168359375,-0.0104536237195134,-0.0643893927335739,-0.0446616262197494,0.06064583486039468,0.05071504427826064
1789141182806655500,7.481655517578125,0.0203219130635261,-0.047834038734436,-0.0299066789448261,0.02896070114279671,0.05250488212571812
1789141182816627500,7.49162744140625,0.0294735990464687,-0.0326681360602378,-0.0404828861355781,0.01171853397197228,0.05862968689849983
1789141182826600400,7.501600341796875,0.0311324335634708,-0.0363484360277652,-0.0117321731522679,0.012651066507309041,0.04762385562248085
1789141182836572400,7.511572509765625,0.0561738722026348,0.0004734951071441,-0.0139524508267641,-0.031753306605184314,0.04839552168914872
1789141182846544400,7.52154443359375,0.0533083193004131,-0.0199704803526401,0.0528954267501831,-0.0159953640046517,0.07604387873848005
1789141182856516400,7.531516357421875,0.0990739464759826,0.0108039434999227,0.0122068533673882,-0.06566838526606383,0.07595421325480314
1789141182866488600,7.541488525390625,0.0729942694306373,0.021490866318345,0.0107317734509706,-0.05957232399150463,0.04854204240119699
1789141182876461600,7.551461669921875,0.0784766525030136,0.0024391445331275,0.0271778590977191,-0.04768733797644181,0.0680374032131468
1789141182886433300,7.561433349609375,0.0971139147877693,0.0297240149229764,-0.0131864063441753,-0.07908909367256332,0.06506478373800725
1789141182896405500,7.571405517578125,0.1016444861888885,0.0524716675281524,-0.019902367144823,-0.10009076197689765,0.05884573944339096
1789141182906377500,7.58137744140625,0.1068003177642822,0.0270892214030027,-0.0139119606465101,-0.082399135100398,0.07445843790000538
1789141182916349400,7.591349365234375,0.101928062736988,0.0151534657925367,-0.0138555010780692,-0.06982299935777325,0.07704337200337037
1789141182926322400,7.601322509765625,0.0662251859903335,-0.0004993106704205,0.0210986137390136,-0.03806709016514151,0.058155590605434834
1789141182936294700,7.611294677734375,0.0494078546762466,-0.0346634052693843,0.0184711404144763,-0.00032681151366430183,0.0631170657669106
1789141182946266400,7.621266357421875,0.0158897284418344,-0.0261516608297824,-0.0055433316156268,0.012685200613308198,0.02839378532200575
1789141182956238600,7.631238525390625,-0.0387886948883533,-0.0363539643585681,0.0255695804953575,0.050898376581136995,0.029821674732300612
1789141182966210300,7.641210205078125,-0.0540132820606231,-0.0651947781443595,0.0542466975748539,0.08210686923498531,0.05804274251324939
1789141182976183300,7.651183349609375,-0.0431521087884902,-0.0527791194617748,0.0373800992965698,0.0664050952810284,0.04043977111944312
1789141182986155500,7.661155517578125,-0.035592146217823,-0.0308375246822834,0.0074293594807386,0.04527336811041961,0.01494226633258193
1789141182996127500,7.67112744140625,-0.0552936792373657,-0.0456846468150615,-0.0140069564804434,0.0695286558832657,0.02250419425647254
1789141183006099500,7.681099365234375,-0.0467970222234725,-0.0509913228452205,-0.0011238362640142,0.0685465427294935,0.0096286438438505
1789141183016071700,7.69107177734375,-0.0579101294279098,-0.0325191058218479,-0.0104843145236372,0.060054313674875424,0.030240297516394045
1789141183026044400,7.70104443359375,-0.0565893314778804,-0.0292996913194656,-0.0640894398093223,0.05880106912438164,0.06863464805352928
1789141183036016400,7.711016357421875,-0.0354563519358634,-0.0379405841231346,-0.0505616478621959,0.053352608830031074,0.049057315272799495
1789141183045988400,7.72098828125,-0.0309426635503768,-0.0323425531387329,-0.0101530542597174,0.04457112441517512,0.010953928532326867
1789141183055960300,7.730960205078125,-0.0102552287280559,-0.0281363576650619,-0.0005912405322305,0.028975798199214142,0.00758795249104798
1789141183065932500,7.7409326171875,-0.014689058996737,-0.0374255590140819,0.0124467741698026,0.038608633783819554,0.016755193413002436
1789141183075905300,7.7509052734375,-0.0294211320579051,-0.0406791418790817,0.0179627146571874,0.04943392917863258,0.01998352720128813
1789141183085877500,7.76087744140625,-0.0392957031726837,-0.0276948381215333,0.0074077281169593,0.04479598152707627,0.018956550880743828
1789141183095849500,7.770849365234375,-0.0586608834564685,-0.0114879049360752,0.0321178697049617,0.041492709925058345,0.053693424040319335
1789141183105821400,7.780821533203125,-0.0692906230688095,-0.0120935076847672,0.0113007370382547,0.04886333407722837,0.051841340779828535
1789141183115793400,7.79079345703125,-0.043304294347763,-0.0185791030526161,0.0243709981441497,0.03890377459875264,0.036067809078304494
1789141183125766400,7.800766357421875,-0.0410138368606567,-0.0170904286205768,0.0307182911783456,0.036124896940582726,0.040159965119724576
1789141183135738400,7.81073828125,-0.0211533121764659,-0.0407656654715538,0.0018187335226684,0.0454521501830943,0.006834612844453832
1789141183145710600,7.820710693359375,-0.0753488764166832,-0.0631647855043411,0.0267190411686897,0.09366351383054061,0.040103573942434086
1789141183155682300,7.830682373046875,-0.0948900803923606,-0.0660175681114196,0.0529772788286209,0.10606296766956344,0.07014047061023448
1789141183165654500,7.840654541015625,-0.0852720662951469,-0.0676105171442031,-0.0339339636266231,0.10538144565652745,0.043460005953794394
1789141183175627500,7.85062744140625,-0.1092210784554481,-0.0878017991781234,-0.0083838636055588,0.1345640224273708,0.04001515906515082
1789141183185599200,7.86059912109375,-0.1112646460533142,-0.0722882747650146,-0.0475819110870361,0.12454247045032622,0.06601990189856208
1789141183195571500,7.870571533203125,-0.1255647540092468,-0.0851561352610588,-0.0789438262581825,0.1444984382133095,0.09148991135747639
1789141183205543200,7.880543212890625,-0.1524626761674881,-0.0991513133049011,-0.0506442785263061,0.1701544798448739,0.08178108883115627
1789141183215515400,7.890515380859375,-0.1228427365422248,-0.0719202309846878,-0.0340471938252449,0.13027833381114587,0.06670550721521235
1789141183225488400,7.90048828125,-0.0739807784557342,-0.0717988237738609,-0.0229677315801382,0.10196871210651814,0.02753407201090416
1789141183235460400,7.91046044921875,-0.0487428046762943,-0.0939430072903633,-0.0119811268523335,0.10538704201672681,0.015435945130927211
1789141183245432300,7.920432373046875,-0.0628391504287719,-0.0735221207141876,0.0171259958297014,0.09545052155883615,0.02316805404488044
1789141183255404300,7.930404296875,-0.0640927031636238,-0.0789206102490425,0.0187364090234041,0.10053534367046657,0.02408391614864865
1789141183265376300,7.940376220703125,-0.0952347964048385,-0.0814536660909652,0.0408011004328727,0.1194321466178779,0.05572305013823792
1789141183275349500,7.950349609375,-0.0714282691478729,-0.0793756023049354,0.0066340751945972,0.10556176155330946,0.017412906884895607
1789141183285321200,7.9603212890625,-0.0225083641707897,-0.0804454684257507,0.0070331008173525,0.07862531124468468,0.02907962837910501
1789141183295293400,7.97029345703125,-0.0161942765116691,-0.066737376153469,-0.0277893282473087,0.06516322327167591,0.03524390819515332
1789141183305265400,7.980265380859375,-0.0150925628840923,-0.0719936341047287,-0.0195334870368242,0.06852701839294416,0.03311304383481996
1789141183315238100,7.990238037109375,7.866602391e-05,-0.0661434680223465,-0.0433456115424633,0.05604963800083835,0.055787495644916675
1789141183325210400,8.00021044921875,0.0145290717482566,-0.0843258276581764,-0.0395769029855728,0.06263072337975614,0.0704674596885709
1789141183335182300,8.010182373046876,0.0087516093626618,-0.0879416018724441,-0.0249827802181243,0.06830207485579494,0.061394477635603184
1789141183345154300,8.020154296875,-0.0123156895861029,-0.0969392508268356,-0.0257278736680746,0.08769870076835215,0.050197170516602094
1789141183355126300,8.030126220703124,0.0210284180939197,-0.127079576253891,-0.012022447772324,0.09297362345239493,0.08995475340954319
1789141183365099500,8.040099609375,0.0179436840116977,-0.1230058446526527,-0.004191196989268,0.0910654027202546,0.08471760250517528
1789141183375071200,8.0500712890625,-0.0361182205379009,-0.1394604444503784,-0.0050154449418187,0.1353437244562875,0.0496081884308071
1789141183385043500,8.06004345703125,-0.0331538096070289,-0.1515454202890396,-0.0276190135627985,0.14449514970016206,0.0628422718029082
1789141183395015200,8.07001513671875,-0.0618365854024887,-0.1288763284683227,-0.0252349525690078,0.1420684044292372,0.02976982747355201
1789141183404987400,8.0799873046875,-0.0206069834530353,-0.1324125081300735,-0.0127522703260183,0.12104598667594113,0.05889150689569915
1789141183414960400,8.08996044921875,-0.0151379145681858,-0.1370858252048492,-0.0149605637416243,0.12186721911693227,0.06628634325214343
1789141183424932400,8.099932373046874,0.0052886037155985,-0.1297781616449356,-0.0237499438226223,0.10460488918282466,0.08057429838246416
1789141183434904300,8.109904296875,0.0528209693729877,-0.1304753720760345,-0.0297676231712102,0.07840721930791293,0.12063290128959746
1789141183444876500,8.11987646484375,0.0714066401124,-0.1262885630130767,-0.0215740017592906,0.06407690244298775,0.1319367178812303
1789141183454848300,8.12984814453125,0.0357735455036163,-0.1246821507811546,0.0256928466260433,0.08111606789078073,0.10443031733649724
1789141183464821200,8.1398212890625,0.0580821894109249,-0.1277936100959777,-0.0064056632108986,0.07227929193138255,0.1205051201700524
1789141183474793200,8.149793212890625,0.0347206741571426,-0.1016397625207901,-0.0228773150593042,0.06471851056485728,0.08871895216805821
1789141183484765200,8.15976513671875,0.0514025129377841,-0.0928503572940826,-0.0064855786040425,0.04735957436610851,0.09519737723093064
1789141183494737400,8.1697373046875,0.0299084074795246,-0.0761147886514663,0.0257112383842468,0.04453230531343777,0.07325240919001226
1789141183504709000,8.179709228515625,0.0971651673316955,-0.0781693384051323,-0.0142886517569422,0.00960007270759667,0.12515398268665884
1789141183514682400,8.189682373046875,0.1074990257620811,-0.0662269219756126,-0.0381686836481094,-0.005132685717270276,0.13180496835445027
1789141183524654300,8.199654296875,0.1420253068208694,-0.074081540107727,-0.0096073057502508,-0.0194394718056314,0.15929114734344693
1789141183534626300,8.209626220703125,0.0959582105278968,-0.0624041147530078,0.0047282236628234,-0.0034313409903622347,0.11451128199368074
1789141183544598300,8.219598388671875,0.0952901318669319,-0.0326247066259384,-0.0406895130872726,-0.02571055568283718,0.10554233518074571
1789141183554570200,8.2295703125,0.0763657093048095,-0.0485674552619457,0.0203173831105232,-0.004292698399046925,0.09265467103801275
1789141183564543200,8.239543212890625,0.1016948148608207,-0.042598433792591,0.0468597449362278,-0.024653490094236258,0.11723695259098166
1789141183574515500,8.249515380859375,0.1348186731338501,-0.0379978232085704,0.0284706205129623,-0.046522691287416096,0.13515222758774853
1789141183584487200,8.259487060546874,0.0974948108196258,-0.0537246838212013,0.0534547790884971,-0.013386111388723927,0.12275913496653264
1789141183594459400,8.26945947265625,0.092143714427948,-0.0744563192129135,0.0554228574037551,0.006614767475862725,0.13062214801997302
1789141183604431400,8.279431396484375,0.0551191568374633,-0.050502274185419,0.0066515491344034,0.00991767287739119,0.07439411279769763
1789141183614404000,8.289404052734374,0.0199446566402912,-0.0468643978238105,0.00096756441053,0.027143739027684344,0.04310701479310504
1789141183624376300,8.299376220703126,0.0702172741293907,-0.0640933662652969,-0.0359257794916629,0.014210289556061517,0.10063376415595301
1789141183634348300,8.309348388671875,0.08078283816576,-0.0563970990478992,-0.0315467417240142,0.0017057714706030028,0.10343494080931094
1789141183644320300,8.3193203125,0.0656956359744072,-0.0508689917623996,-0.0253173038363456,0.005486948800161796,0.08668581299965493
1789141183654292200,8.329292236328126,0.070291981101036,-0.0572672374546527,-0.0008766746614128,0.0071563014293465135,0.09038835655719311
1789141183664265500,8.339265380859375,0.0576489567756652,-0.0354776121675968,-0.0114470468834042,-0.003144620430178491,0.06857994916254959
1789141183674237200,8.3492373046875,0.0505063608288764,-0.0395652987062931,0.0148692457005381,0.0032216665062104674,0.06578009333012982
1789141183684209400,8.35920947265625,0.0314889438450336,-0.0324142575263977,-0.0282185394316911,0.009874257329206455,0.05235477710121424
1789141183694181000,8.36918115234375,0.0229564402252435,-0.057100161910057,-0.0560480393469333,0.03612431142762597,0.07499228944688364
1789141183704153300,8.3791533203125,0.016398400068283,-0.0406490638852119,-0.0536042004823684,0.02623269749548024,0.0640820552963782
1789141183714126300,8.389126220703124,0.0635139793157577,-0.0348779931664466,-0.0297950040549039,-0.0062367573139236535,0.07809830408325236
1789141183724098300,8.399098388671876,0.060419276356697,-0.0389400981366634,-0.011618347838521,-0.0018663544888952652,0.07278957978844601
1789141183734070300,8.4090703125,0.0719696655869484,-0.0526095703244209,0.0023390129208564,0.0022463570612016384,0.08915057215640791
1789141183744042500,8.41904248046875,0.0540510825812816,-0.0173389632254838,-0.0159154571592807,-0.015828989577007176,0.05678823856665304
1789141183754014200,8.42901416015625,0.0550044924020767,-0.0401103198528289,0.0187700856477022,0.0009574775715040645,0.0706097110532857
1789141183763987200,8.4389873046875,0.0238371491432189,-0.0416136160492897,0.0023161992430686,0.02056236917279134,0.04338728469159133
1789141183773959400,8.44895947265625,0.0088163865730166,-0.0253664664924144,0.0109325898811221,0.015400704093064498,0.024566768803860422
1789141183783931100,8.45893115234375,0.0228013396263122,-0.0031295407097786,-0.007448892109096,-0.010087452694713764,0.02198691441729515
1789141183793903400,8.4689033203125,0.0265028662979602,0.0103841368108987,-0.0228576771914958,-0.022681318551107853,0.02860530396078347
1789141183803875300,8.478875244140625,0.0366918072104454,0.0107702193781733,0.0158058609813451,-0.03033457570366466,0.028141163800786875
1789141183813848300,8.488848388671874,0.0553672239184379,0.0302901230752468,0.0004572647158056,-0.056376414696407556,0.028371288256740197
1789141183823820300,8.4988203125,0.0838377475738525,0.0025906865485012,-0.0176018793135881,-0.049068038956558584,0.07026829500832765
1789141183833792300,8.508792236328125,0.1027102395892143,0.0245175566524267,-0.0167203731834888,-0.07784900113895252,0.07327760777851075
1789141183843764200,8.51876416015625,0.0859817266464233,0.027931235730648,0.010202738456428,-0.07222471435618281,0.055323573228049545
1789141183853736400,8.528736328125,0.0806394219398498,0.0246899016201496,-0.0089637655764818,-0.06575855843992741,0.05355808713927867
1789141183863709200,8.538709228515625,0.0793027430772781,0.047557633370161,-0.0461770147085189,-0.08230536855234716,0.06252036905045032
1789141183873681400,8.548681396484374,0.0546685010194778,0.0634492486715316,-0.0460478514432907,-0.08137242464608586,0.05013367421662756
1789141183883653400,8.5586533203125,0.0467198826372623,0.0648692771792411,-0.0198004450649023,-0.07907196513591927,0.023031554652453556
1789141183893625300,8.568625244140625,0.0752844139933586,0.0540659017860889,-0.0030270582064986,-0.0870960533849714,0.03184815995334993
1789141183903597300,8.578597412109374,0.0836391001939773,0.0449994951486587,0.0181380789726972,-0.08523861729729684,0.04564889565977583
1789141183913570300,8.5885703125,0.0964518338441848,0.0337934494018554,0.0353799164295196,-0.08399919577955858,0.06812361609111173
1789141183923542300,8.598542236328125,0.0826883763074874,0.005835507530719,0.0656137391924858,-0.054408867544912046,0.09064358017978706
1789141183933514200,8.60851416015625,0.0485511794686317,0.0093551408499479,0.0704431161284446,-0.03809544104898415,0.0771732186013163
1789141183943486200,8.618486328125,0.0051984898746013,0.0239252820611,0.0427789501845836,-0.024328012967410384,0.04286758428733912
1789141183953459200,8.628459228515625,-0.0202520079910755,0.0236738789826631,0.0132194617763161,-0.00847673965116814,0.03276424008424673
1789141183963431400,8.638431396484375,-0.0103194834664464,0.0397913306951522,-0.0471077971160411,-0.0249555144721256,0.057325461917570646
1789141183973403100,8.648403076171874,0.013619671575725,0.0522101819515228,-0.0766478478908538,-0.04758504040873765,0.0807586222569454
1789141183983375400,8.658375244140625,0.054013580083847,0.0492041893303394,-0.0863512977957725,-0.06768124566530011,0.09063285661026864
1789141183993347300,8.668347412109375,0.0534766875207424,0.0505560114979743,-0.0876434668898582,-0.06843550180978294,0.0917258185424982
1789141184003320300,8.6783203125,0.0251185558736324,0.0402994230389595,-0.0459179878234863,-0.04555909808686194,0.04783111470287246
1789141184013292300,8.688292236328126,0.0536852180957794,0.0182364676147699,0.0344165340065956,-0.04687182603940512,0.04692761585479116
1789141184023264500,8.698264404296875,0.0491811707615852,0.0329709537327289,0.0425181835889816,-0.05674604827030199,0.04575536349912275
1789141184033236200,8.708236328125,0.0300050787627697,0.021306574344635,0.0431773141026496,-0.036288582097370986,0.04360841804450949
1789141184043208400,8.71820849609375,-0.0406106673181057,-0.0051126265898346,0.0570616461336612,0.024998328785146597,0.06562377822178349
1789141184053181400,8.728181396484375,-0.0886354595422744,-0.0316646099090576,0.0456348210573196,0.07456857720891506,0.07335500252153637
1789141184063153200,8.738153076171875,-0.1036033034324646,-0.0114090889692306,-0.0199842490255832,0.06905059941643701,0.08059278331571891
1789141184073125400,8.74812548828125,-0.1331915408372879,-0.0260892305523157,-0.0079813804477453,0.09745000218761703,0.09480418771820105
1789141184083097300,8.758097412109375,-0.0545198954641819,-0.050163097679615,-0.0094563718885183,0.07258769379099839,0.017584227297158417
1789141184093069300,8.7680693359375,0.0087573444470763,-0.0319843590259552,-0.020229922607541,0.022119251834606078,0.031932409415049066
1789141184103042300,8.778042236328124,-0.0016836076974868,-0.0354725494980812,-0.0121927326545119,0.030598036646533436,0.021761415067376833
1789141184113014300,8.78801416015625,-0.0231529474258422,-0.0756229013204574,0.0069607216864824,0.07503098416692126,0.025955447211853777
1789141184122986200,8.797986328125,-0.0566952377557754,-0.0663182213902473,-0.0149594256654381,0.08732130256988935,0.014533788435482295
1789141184132958500,8.80795849609375,-0.0821502655744552,-0.0700370669364929,0.008213804103434,0.10391655040988368,0.030375549505811422
1789141184142930200,8.81793017578125,-0.1096994876861572,-0.0731187686324119,-0.0345889963209629,0.12381610421931588,0.056976336556228614
1789141184152903400,8.8279033203125,-0.093627855181694,-0.0812400802969932,-0.026184057816863,0.1210216596027287,0.03748984800374975
1789141184162875400,8.83787548828125,-0.0647256672382354,-0.0682403743267059,-0.0078598065301775,0.09318066453817526,0.015010030066578488
1789141184172847400,8.847847412109376,-0.0558109991252422,-0.0642240568995475,0.0002444593701511,0.08448979701637802,0.010056394408981524
1789141184182819300,8.8578193359375,-0.0486877560615539,-0.062825359404087,0.0125623662024736,0.07879981464173907,0.016307226361177922
1789141184192791300,8.867791259765625,-0.0301409717649221,-0.0616085641086101,0.0404232926666736,0.06614621135786926,0.04430366422175695
1789141184202765000,8.87776513671875,-0.0151138799265027,-0.0745929777622222,-0.0240741893649101,0.07085700113599655,0.03676130685189324
1789141184212736800,8.88773681640625,-0.0474609024822711,-0.0695667937397956,0.0361635871231555,0.08269957095673794,0.03950521551456764
1789141184222709000,8.897708984375,-0.0206828359514474,-0.0357013344764709,0.0116960518062114,0.04062765494838085,0.013731579211591826
1789141184232681000,8.907680908203124,0.0140708833932876,-0.0323614627122879,0.0053516034968197,0.01838683680124826,0.03059114121404647
1789141184242653000,8.91765283203125,0.0543114878237247,-0.0047369613312184,0.0713236033916473,-0.02982219959767453,0.08467508089281946
1789141184252626000,8.9276259765625,0.0642565339803695,0.0193673092871904,0.066624991595745,-0.05509638052854076,0.07685878730492304
1789141184262598100,8.93759814453125,0.0818560123443603,0.0370505526661872,-0.0125970086082816,-0.07646348413589851,0.04883820665694322
1789141184272569900,8.94756982421875,0.0650807619094848,0.0248210541903972,0.0258337371051311,-0.0584160958636251,0.04589697178148544
1789141184282542000,8.9575419921875,0.0933776646852493,0.0524136275053024,-0.030760558322072,-0.09491112467563995,0.05834952417480517
1789141184292513800,8.967513671875,0.0997727066278457,0.0476955734193325,-0.0196144301444292,-0.09511327096207259,0.05972982729282877
1789141184302486800,8.97748681640625,0.0801838263869285,0.0396051555871963,0.0279791876673698,-0.07923511410685641,0.05002645298374114
1789141184312459000,8.987458984375,0.060252197086811,0.068569429218769,-0.0076320692896842,-0.0902895558496329,0.015431735589176331
1789141184322431000,8.997430908203125,0.0806839764118194,0.0416012406349182,0.0177780892699956,-0.08075199085776989,0.045119216555542935
1789141184332403000,9.00740283203125,0.0881269797682762,0.0495803393423557,0.0285638906061649,-0.09197065545019983,0.05081209496766387
1789141184342375200,9.017375244140624,0.082480639219284,0.0746970251202583,0.0173982623964548,-0.10895820173901488,0.028522118014870826
1789141184352348000,9.027347900390623,0.0908368453383445,0.0627045482397079,0.0054278848692774,-0.10337194304831954,0.03907551874943302
1789141184362320000,9.03731982421875,0.0740939825773239,0.0725096240639686,0.0227251760661602,-0.10260752966065553,0.027123648726572733
1789141184372292000,9.0472919921875,0.1107430756092071,0.0797297209501266,0.046911209821701,-0.13033515579600324,0.06192144998898875
1789141184382263800,9.057263916015623,0.1279970854520797,0.0946847423911094,-0.0366328060626983,-0.14909089316741117,0.06680061661742795
1789141184392236000,9.067236083984374,0.1264884173870086,0.0862987190485,-0.0253732297569513,-0.1417915316261133,0.06313280438806752
1789141184402209000,9.077208984375,0.1591908484697342,0.1046420037746429,-0.0281640402972698,-0.17533958698801402,0.07962987875932724
1789141184412181000,9.087180908203123,0.1480979770421981,0.0953699424862861,0.0008503007702529,-0.1625754680198374,0.0678113334433093
1789141184422153000,9.097153076171876,0.1536563336849212,0.0863033831119537,-0.0279957521706819,-0.1571292616847484,0.08457363702755491
1789141184432125000,9.107125,0.1437509655952453,0.0833198428153991,-0.0270343516021966,-0.1490866829673187,0.07817002906934092
1789141184442097000,9.117096923828123,0.1530726253986358,0.067087784409523,-0.031088501214981,-0.140881192957301,0.09513665877111369
1789141184452070000,9.12706982421875,0.1168954446911811,0.0433289259672164,0.0155493076890707,-0.10266075428190156,0.07241886021542952
1789141184462041900,9.137041748046874,0.0999655127525329,0.0571036711335182,0.000436371890828,-0.10375674307729532,0.04988648798242919
1789141184472013800,9.147013916015624,0.1112903356552124,0.0636835470795631,-0.0481841601431369,-0.11365614555823894,0.07645342925224896
1789141184481986000,9.156986083984377,0.095248207449913,0.0457606129348278,-0.030227106064558,-0.09052752189976285,0.06232736508403662
1789141184491958000,9.1669580078125,0.0850653350353241,-0.0076136635616421,-0.0053481222130358,-0.0418689364372521,0.07463024635039552
1789141184501931000,9.176930908203126,0.0697337463498115,0.0122670708224177,-0.03752027079463,-0.04820947312646821,0.06400698264965132
1789141184511903000,9.186903076171877,0.0785360261797905,0.0348607972264289,-0.0836992114782333,-0.069934297238002,0.09745734791835728
1789141184521875000,9.196875,0.0676430538296699,0.0052576442249119,-0.0226728338748216,-0.04185419761756298,0.05801300795429084
1789141184531847000,9.206846923828126,0.0773534700274467,0.0180312301963567,0.0258616786450147,-0.05981109586451383,0.058310752194642865
1789141184541819000,9.21681884765625,0.0793951153755188,0.0221036933362483,0.0123691614717245,-0.06377887255651593,0.05364148744701383
1789141184551791900,9.2267919921875,0.0813927501440048,0.0045151128433644,-0.003250278532505,-0.04983405563104165,0.0645933218676189
1789141184561764000,9.23676416015625,0.0519688054919242,0.0176073815673589,0.0062611885368824,-0.044253691321014345,0.03303921785204348
1789141184571735800,9.24673583984375,0.0644678175449371,0.0271055437624454,-0.0217440798878669,-0.05804305046041236,0.04466116103601771
1789141184581708000,9.2567080078125,0.0594014637172222,0.0397071205079555,-0.0178017038851976,-0.06567845949872084,0.033293091323469984
1789141184591680000,9.266679931640626,0.0799024701118469,0.0466358661651611,-0.0124910939484834,-0.08323545024482601,0.042275240904344216
1789141184601652700,9.27665283203125,0.0820549428462982,0.0319732390344142,0.0399021506309509,-0.07450268863796602,0.06161844423993873
1789141184611625000,9.286625,0.0894540101289749,0.0474728345870971,9.58831515163e-05,-0.08985445477771672,0.046710556644795335
1789141184621597000,9.296596923828124,0.0785067304968833,0.0187497772276401,0.0034077772870659,-0.06015925032694466,0.0539197405922418
1789141184631569000,9.30656884765625,0.0316289700567722,0.0032110312022268,0.0249237213283777,-0.02160940053629319,0.034131043956353684
1789141184641541000,9.316541015625,0.0084299622103571,0.0057056988589465,0.0170757044106721,-0.010162573691498946,0.017085696925280287
1789141184651514000,9.32651416015625,-0.0056357895955443,0.0148853491991758,-0.0133218830451369,-0.008498509571747151,0.01893630502695489
1789141184661485800,9.33648583984375,0.0063557503744959,-0.0439818203449249,0.0172891952097415,0.03184424622926972,0.03549163756106985
1789141184671458000,9.3464580078125,-0.0352401658892631,-0.0298404358327388,-0.005157524254173,0.04475712571841865,0.012478808294409931
1789141184681429800,9.3564296875,-0.0421432480216026,-0.0456952527165412,0.020007075741887,0.06070439299582899,0.024070089850028148
1789141184691402000,9.366402099609376,-0.0930069610476493,-0.0469834208488464,0.0567539036273956,0.08919826702109275,0.07824583934855778
1789141184701375000,9.376375,-0.0807739496231079,-0.0780286118388176,0.0357274189591407,0.10860237172854108,0.045769733707188946
1789141184711347000,9.386346923828125,-0.1118999123573303,-0.0347887314856052,0.0415565483272075,0.09051978058570577,0.08523474793499983
1789141184721319000,9.39631884765625,-0.0910889506340026,-0.0577209703624248,0.0575279593467712,0.09690222873076555,0.07448712318782248
1789141184731291100,9.406291015625,-0.1117430999875068,-0.043281577527523,0.021288463845849,0.0982210448356314,0.07187238963887198
1789141184741262800,9.416262939453125,-0.123387262225151,-0.0710750967264175,0.0105669517070055,0.12810939913350128,0.06305337561240659
1789141184751235800,9.42623583984375,-0.1280712336301803,-0.0684809163212776,-0.0280914958566427,0.13018474937223512,0.07023489128709572
1789141184761208000,9.4362080078125,-0.0667982250452041,-0.0569335408508777,2.16095941141e-05,0.0847505837051904,0.022820385001405343
1789141184771180000,9.446179931640623,-0.0749192684888839,-0.0150934178382158,-0.0447482578456401,0.05676844306061296,0.0679739546123534
1789141184781152000,9.456152099609374,-0.065876118838787,-0.0701798051595687,-0.0087954951450228,0.09546580290998982,0.015116523909090766
1789141184791124700,9.466124755859376,-0.0993200913071632,-0.0206420812755823,-0.0033908765763044,0.07354144008516782,0.0699552048871732
1789141184801097000,9.476096923828123,-0.0814188122749328,-0.0271166805177927,-0.0196471065282821,0.06933989155176559,0.05424320776915612
1789141184811069000,9.48606884765625,-0.0647729858756065,-0.0141020789742469,-0.0288030542433261,0.049550320814077266,0.05261929276989023
1789141184821041000,9.496041015625,-0.0993097648024559,-0.0082398662343621,0.0174943227320909,0.06250753193949088,0.0795561723524163
1789141184831012900,9.506012939453123,-0.0431303828954696,-0.0351053029298782,0.0080470256507396,0.05303999251464131,0.01855063444679958
1789141184840984800,9.51598486328125,-0.0490014217793941,-0.0074163051322102,0.0218166932463645,0.03306905745321697,0.0428782749370579
1789141184850957800,9.525957763671874,-0.0164589248597621,0.0060750031843781,0.024199690669775,0.0033927163902239743,0.02969707688035642
1789141184860930000,9.535929931640624,0.0001977542415261,-0.0193418487906456,0.0119523629546165,0.015306206334878343,0.01681443573877099
1789141184870901800,9.54590185546875,0.0029245647601783,-0.005569577217102,-0.055530808866024,0.005135775466035383,0.05564950865094047
1789141184880874000,9.5558740234375,-0.0144129749387502,0.0042403875850141,-0.0475995726883411,0.006608586611405629,0.04947484852496672
1789141184890846000,9.565845947265624,-0.026904797181487,0.0073392423801124,-0.0637039765715599,0.01180437324088128,0.0685316422793939
1789141184900819000,9.57581884765625,-0.0251016467809677,-0.0087913135066628,-0.0392458997666835,0.02305900688881493,0.04142345608573784
1789141184910791000,9.585791015625,0.002409872598946,0.0126503286883234,-0.0325808078050613,-0.010463716193894478,0.03343438323806411
1789141184920763100,9.59576318359375,0.041096992790699,0.0090677365660667,-0.0230025518685579,-0.029887043024222494,0.03751091460634249
1789141184930734800,9.60573486328125,0.0405161529779434,8.67587514221e-05,0.0010521842632442,-0.023137547032771683,0.033276526084360984
1789141184940707000,9.61570703125,0.0372590459883213,-0.0216634515672922,0.0174479540437459,-0.004066341865132491,0.046318868789261204
1789141184950680000,9.62568017578125,-0.0105002196505665,0.0087767448276281,-0.0070597855374217,-0.0009640931882775811,0.015368700616452414
1789141184960651800,9.63565185546875,-0.0417225807905197,-0.0021083441097289,0.0386378020048141,0.023897700937234104,0.05164299077691191
1789141184970624000,9.6456240234375,-0.0260813049972057,-0.0072682187892496,0.0261286664754152,0.01975009812011987,0.03202658756025674
1789141184980595700,9.655595703125,0.003970393911004,0.0003301720134913,-0.0150839081034064,-0.001924528027483313,0.01548203852567455
1789141184990569000,9.66556884765625,0.0138973267748951,0.0193755030632019,-0.0221058670431375,-0.022937736068288077,0.023045073925478984
1789141185000541000,9.675541015625,0.0038061197847127,0.0425620749592781,-0.0440203882753849,-0.03538332328557463,0.050118178237431435
1789141185010513000,9.685512939453124,0.0076264240778982,0.0446689017117023,-0.0439165234565734,-0.03928998195379904,0.04938047665755743
1789141185020484900,9.69548486328125,0.0374288894236087,0.0260282643139362,-0.0675065964460372,-0.03996251829265699,0.07098260351746778
1789141185030457000,9.70545703125,0.0365130305290222,0.0510926023125648,-0.0528000891208648,-0.06062967094032406,0.05527700988948751
1789141185040429800,9.715429931640625,0.0558054596185684,0.0669221356511116,-0.0673623532056808,-0.08402057831968385,0.07121130957634624
1789141185050402000,9.725402099609376,0.0921016857028007,0.0408255532383918,-0.0285872612148523,-0.08474903495546467,0.06151649278365821
1789141185060374000,9.7353740234375,0.0679699331521987,0.0327654667198658,-0.0004207010497339,-0.06553748019414883,0.03739656804119582
1789141185070346000,9.745345947265625,0.0373246781527996,0.0417746752500534,0.0095168845728039,-0.05592437601515354,0.01006431074367701
1789141185080318000,9.75531787109375,0.0331576727330684,0.0298165790736675,0.0097955483943223,-0.04373953675328343,0.013086838490759041
1789141185090291000,9.765291015625,0.032686561346054,0.0458139218389987,0.0387909784913063,-0.057778849115141764,0.03651946514041385
1789141185100263000,9.775262939453125,0.0344950184226036,0.0457759983837604,0.0099198520183563,-0.057621036894699024,0.007972947714090284
1789141185110235000,9.78523486328125,0.0199019592255353,0.0618308633565902,-0.0247369278222322,-0.061137553015662226,0.033064465121571456
1789141185120206800,9.795206787109375,-0.0022030854597687,0.0956441238522529,-0.0331464074552059,-0.07602973161226453,0.06686416268197555
1789141185130178800,9.8051787109375,0.0322520956397056,0.0835922509431839,-0.0062181185930967,-0.08678122438559922,0.023141870794623303
1789141185140152000,9.815152099609374,0.0825282335281372,0.0892848074436187,-0.0013603614643216,-0.12022448091624377,0.01818270995347415
1789141185150123800,9.825123779296876,0.1178598552942276,0.0891343355178833,0.0148106189444661,-0.1408253208630592,0.047153565035164234
1789141185160096000,9.835095947265623,0.1444081664085388,0.0685692206025123,0.023347619920969,-0.13935146489896735,0.08174189333504656
1789141185170068000,9.84506787109375,0.1078269779682159,0.0723844692111015,0.031654018908739,-0.12203116469449271,0.0545576788097828
1789141185180040000,9.8550400390625,0.0635017901659011,0.0797765925526619,0.0126525685191154,-0.10215805868366183,0.01098183089033794
1789141185190013000,9.865012939453123,0.0304056238383054,0.0826573297381401,0.037605058401823,-0.08671570264733097,0.040635741068920386
1789141185199984400,9.874984375,0.0347094908356666,0.0865325406193733,0.0268697347491979,-0.09191715918814858,0.031078092483090382
1789141185209956000,9.8849560546875,0.0359790176153183,0.0691881775856018,0.0452508740127086,-0.07911872087053952,0.043236133417592255
1789141185219928300,9.89492822265625,0.0891280621290206,0.0695758834481239,0.0507429651916027,-0.10986003728978125,0.05736057652766013
1789141185229900300,9.904900390625,0.076915331184864,0.0851188898086547,0.0797426551580429,-0.11685368749058983,0.07658524887366581
1789141185239873300,9.914873291015626,0.076848603785038,0.0586998350918293,0.1112402230501174,-0.09636211176697831,0.11153523740758325
1789141185249845200,9.92484521484375,0.0346611998975276,0.0481734275817871,0.0815393179655075,-0.06254936867907601,0.07910951115664419
1789141185259817500,9.9348173828125,0.0095887035131454,0.0617961287498474,-0.0173808056861162,-0.055542392597995885,0.03358332613544027
1789141185269789200,9.9447890625,-0.0226621776819229,0.0297521781176328,0.0216856375336647,-0.012441174207988041,0.04140350781755542
1789141185279761400,9.954761474609375,0.0063026840798556,0.0745296329259872,-0.0022419583983719,-0.0647456044326254,0.03751563800346316
1789141185289734400,9.964734375,0.0481715723872184,0.0955076143145561,-0.0159686896950006,-0.10523082686440723,0.024973524107009634
1789141185299706000,9.9747060546875,0.045408945530653,0.0690884441137313,0.0158590544015169,-0.08322035474020435,0.012691241376902617
1789141185309678300,9.98467822265625,0.0459602214395999,0.0559859573841095,0.0491818562150001,-0.07409742674861461,0.046638993438742
1789141185319650000,9.994650146484377,-0.0066454764455556,0.088830679655075,0.0201175790280103,-0.07003511301383011,0.05860760988352344
1789141185329622300,10.004622314453124,0.0028926352970302,0.0233752392232418,0.0895576402544975,-0.02443592545355069,0.08932091369263925
1789141185339595300,10.01459521484375,-0.0520346239209175,0.0355140380561351,0.068162128329277,-0.002343390543007331,0.09278703166274747
1789141185349567200,10.024567138671877,-0.0406908877193927,0.0361827574670314,0.0249435510486364,-0.007611327009202914,0.05940697535967598
1789141185359539200,10.034539306640625,-0.0656487941741943,0.0158060044050216,0.0147915100678801,0.023724467952142995,0.06492713101819013
1789141185369511400,10.044511474609376,-0.0900657176971435,0.0206854473799467,0.0436364747583866,0.03243635253321846,0.09691102208361119
1789141185379483100,10.054483154296875,-0.0736011415719986,0.0284212194383144,0.0024740935768932,0.018367984335368792,0.07676999443496835
1789141185389456400,10.064456298828125,-0.0428602769970893,0.0174143724143505,-0.0107474364340305,0.01047364563803376,0.04632573634390862
1789141185399428400,10.074428466796874,-0.0185102187097072,0.0403593927621841,-0.018640412017703,-0.021906022112688474,0.042884728472983975
1789141185409400300,10.084400390625,-0.0063683353364467,0.0594835542142391,-0.0283441711217165,-0.04413548664312719,0.049338623534379705
1789141185419372300,10.094372314453125,-0.0639820247888565,0.0286175198853015,0.0111004319041967,0.012395479195768902,0.06987298207772762
1789141185429344300,10.10434423828125,-0.0683022066950798,0.0366767756640911,-0.0330486558377742,0.009992050556227844,0.08368243478112299
1789141185439317200,10.114317138671876,-0.0795218273997306,0.0531391575932502,-0.0218792147934436,0.0023913349163099673,0.09808400817670791
1789141185449289200,10.124289306640623,-0.0676513239741325,0.0485420078039169,-0.0098145622760057,-0.0010584522881623565,0.08383456010805951
1789141185459261200,10.13426123046875,-0.0532471016049385,0.0467881225049495,-0.0237272083759307,-0.0072462348145229255,0.07439660432568436
1789141185469233200,10.144233154296876,-0.0460275374352932,0.0302560161799192,0.0156255234032869,0.0006649024033060953,0.057250987798094746
1789141185479205400,10.154205322265623,-0.0429024621844291,0.0215122960507869,0.0038867003750056,0.0065445523688025115,0.04770403983899205
1789141185489178000,10.16417822265625,-0.0500951297581195,-0.0022707981988787,0.07400693744421,0.02737495260189593,0.0851018055616802
1789141185499150300,10.174150390625,-0.0462100803852081,0.0304760094732046,0.0218573715537786,0.00033866602742371743,0.05951292867251661
1789141185509122300,10.184122314453123,-0.0774441659450531,0.0035064439289271,-0.0068331295624375,0.041400677104757616,0.06589817586880754
1789141185519094300,10.19409423828125,-0.0691331624984741,0.0034150518476963,0.0202840939164161,0.035668669996239875,0.06269168352239557
1789141185529066200,10.204066162109376,-0.1016040220856666,0.0206600837409496,-0.0048236572183668,0.040951642603275225,0.09537529554985187
1789141185539039500,10.21403955078125,-0.0930077582597732,-0.0169295985251665,0.0260856170207262,0.06572460344876448,0.07278592116327433
1789141185549011200,10.22401123046875,-0.059986688196659,0.0013322290033102,0.0088552292436361,0.03263975162541688,0.05111985224654795
1789141185558983400,10.2339833984375,-0.0450593754649162,-0.005714563652873,-0.0427924320101738,0.03201352790815068,0.0535661257069282
1789141185568955100,10.243955078125,-0.0880811512470245,-0.0365161523222923,0.0102196522057056,0.07965689835314324,0.053394179658354586
1789141185578927400,10.25392724609375,-0.1135269403457641,-0.0417605563998222,0.0327443331480026,0.09752663620080673,0.07869597727810672
1789141185588900400,10.263900390625,-0.1285812556743621,-0.0354211665689945,-0.0050296764820814,0.10238172283167575,0.08562171936743887
1789141185598872000,10.2738720703125,-0.1063656583428382,-0.05815015360713,-0.0091076772660017,0.1086005350219933,0.05462570106970395
1789141185608844300,10.28384423828125,-0.0931976586580276,-0.0645036548376083,0.0332392454147338,0.10464614916411563,0.05477733078208629
1789141185618816300,10.293816162109374,-0.1001123413443565,-0.0459180660545825,0.0358529016375541,0.09319614313249319,0.06878124119774175
1789141185628788200,10.303788330078126,-0.1047422438859939,-0.0481601804494857,0.0343676544725894,0.097729293194287,0.07014600174559087
1789141185638761200,10.31376123046875,-0.1000761166214943,-0.037013255059719,0.0062814280390739,0.08703930825501996,0.06203890170572347
1789141185648733400,10.3237333984375,-0.0672601759433746,-0.0379156582057476,-0.0091660795733332,0.06975023212186564,0.034357685294549786
1789141185658705200,10.333705078125,-0.0240436140447855,-0.0278662331402301,-0.0294594168663024,0.03774355786646376,0.02824718406219899
1789141185668677400,10.343677490234375,-0.0329348444938659,-0.0039342702366411,-0.0242247078567743,0.02291795131120003,0.034084988522421075
