time,seconds_elapsed,z,y,x
1791103287659226400,0.046226318359375,-0.01014340203255415,-0.08344747126102448,0.04999563843011856
1791103287669198300,0.0561982421875,0.024886032566428185,-0.03467671200633049,0.03233209252357483
1791103287679171300,0.06617138671875,0.0816907286643982,0.005264578852802515,0.039951395243406296
1791103287689143300,0.076143310546875,0.1346348226070404,0.012255944311618805,0.03973694518208504
1791103287699116300,0.0861162109375,0.14373058080673218,0.04921555891633034,0.01209679339081049
1791103287709089300,0.09608935546875,0.16962161660194397,0.04889878258109093,0.018359780311584473
1791103287719061200,0.106061279296875,0.14198759198188782,0.03735664486885071,0.021133463829755783
1791103287729034500,0.116034423828125,0.11243300884962082,0.00003825267776846886,0.009674141183495522
1791103287739006200,0.126006103515625,0.07395698875188828,-0.0219714418053627,0.0049022892490029335
1791103287748979500,0.1359794921875,0.05868597328662872,-0.06363396346569061,-0.0050775716081261635
1791103287758951400,0.145951416015625,0.00923160556703806,-0.09843802452087402,0.040971677750349045
1791103287768924200,0.155924072265625,-0.004870600067079067,-0.12787768244743347,0.028443295508623123
1791103287778896400,0.165896484375,0.020687224343419075,-0.10774125158786774,-0.005472327116876841
1791103287788869400,0.175869384765625,0.06743047386407852,-0.1358281672000885,0.07987895607948303
1791103287798842400,0.18584228515625,0.11001654714345932,-0.14362750947475433,-0.03916941210627556
1791103287808814300,0.195814453125,0.06349282711744308,-0.15698429942131042,0.005431676283478737
1791103287818787300,0.205787353515625,-0.0043978095054626465,-0.14349699020385742,0.00782932061702013
1791103287828759600,0.215759521484375,0.029907334595918655,-0.11280529946088791,-0.08352161198854446
1791103287838732300,0.225732177734375,0.11964867264032364,-0.05466423183679581,-0.07153765112161636
1791103287848704300,0.235704345703125,0.16791507601737976,-0.056504026055336,-0.029781097546219826
1791103287858677500,0.245677490234375,0.11271440237760544,-0.04476134851574898,0.019405091181397438
1791103287868649200,0.255649169921875,0.13761740922927856,-0.026593763381242752,-0.013361167162656784
1791103287878622200,0.265622314453125,0.16938358545303345,0.0007260087877511978,-0.009496121667325497
1791103287888595500,0.275595458984375,0.2182064801454544,0.0225786454975605,0.019408637657761574
1791103287898567400,0.2855673828125,0.22607877850532532,0.08799946308135986,-0.04427233710885048
1791103287908540400,0.29554052734375,0.2573476731777191,0.05510861426591873,0.020696215331554413
1791103287918512600,0.3055126953125,0.2840844690799713,0.1360793560743332,-0.08111190050840378
1791103287928485600,0.315485595703125,0.31940793991088867,0.173354834318161,-0.011204663664102554
1791103287938457600,0.32545751953125,0.27872681617736816,0.2406875342130661,-0.06038579344749451
1791103287948430600,0.3354306640625,0.3194092810153961,0.2231791764497757,-0.0792260393500328
1791103287958402600,0.345402587890625,0.2681535482406616,0.23568403720855713,-0.045337311923503876
1791103287968375800,0.355375732421875,0.2444758266210556,0.18740417063236237,-0.007480549160391092
1791103287978348500,0.3653486328125,0.24580128490924835,0.17504815757274628,-0.019954528659582138
1791103287988320500,0.375320556640625,0.18149571120738983,0.17080402374267578,-0.0877005085349083
1791103287998293800,0.385293701171875,0.20661970973014832,0.12931597232818604,0.0009811564814299345
1791103288008265500,0.395265380859375,0.19462700188159943,0.13764435052871704,0.023473521694540977
1791103288018238500,0.405238525390625,0.16789045929908752,0.12428434193134308,-0.04136619344353676
1791103288028210700,0.415210693359375,0.19338420033454895,0.09039722383022308,-0.020191073417663574
1791103288038183700,0.42518359375,0.12908883392810822,0.1207633838057518,0.013547449372708797
1791103288048155600,0.43515576171875,0.14757193624973297,0.09521612524986267,0.0002097936230711639
1791103288058128600,0.445128662109375,0.11029060930013657,0.10158560425043106,-0.02850680612027645
1791103288068101600,0.4551015625,0.0843094140291214,0.07380369305610657,-0.026416441425681114
1791103288078073600,0.465073486328125,0.04013422876596451,0.08731124550104141,-0.01712813414633274
1791103288088046600,0.475046630859375,0.094589464366436,0.07111023366451263,0.0015502797905355692
1791103288098018600,0.4850185546875,0.11714617162942886,0.0863397866487503,0.03659321740269661
1791103288107991800,0.49499169921875,0.08331924676895142,0.060494545847177505,0.03641471639275551
1791103288117963500,0.504963623046875,0.05863387510180473,0.061883386224508286,0.020037876442074776
1791103288127936500,0.5149365234375,0.07095114141702652,0.10483852028846741,0.0071787224151194096
1791103288137908700,0.52490869140625,0.13605770468711853,0.12503059208393097,0.016177276149392128
1791103288147881500,0.534881591796875,0.16755032539367676,0.13669820129871368,0.08153563737869263
1791103288157853700,0.544853759765625,0.09164384007453918,0.1655716598033905,0.011371459811925888
1791103288167826700,0.55482666015625,0.07733038812875748,0.17038682103157043,-0.002172057284042239
1791103288177799700,0.564799560546875,0.11162178218364716,0.17251043021678925,-0.007329002488404512
1791103288187771600,0.574771728515625,0.08359455317258835,0.15269485116004944,0.01494799368083477
1791103288197744600,0.58474462890625,0.021885380148887634,0.16201645135879517,0.09184890240430832
1791103288207716600,0.594716552734375,0.08204139769077301,0.18445102870464325,0.005492260213941336
1791103288217689600,0.604689697265625,0.1119588166475296,0.15477408468723297,0.08351408690214157
1791103288227661600,0.61466162109375,0.1170465424656868,0.13604076206684113,0.07658705115318298
1791103288237634600,0.624634521484375,0.08398952335119247,0.1995275914669037,-0.10414491593837738
1791103288247606500,0.6346064453125,-0.019928526133298874,0.1347244381904602,0.15549400448799133
1791103288257579500,0.64457958984375,0.024716176092624664,0.1346338838338852,0.09264419972896576
1791103288267552500,0.654552490234375,0.06835754215717316,0.1999543458223343,-0.09994122385978699
1791103288277524500,0.6645244140625,0.07584714889526367,0.13745449483394623,0.000015469500795006752
1791103288287497500,0.67449755859375,0.014792297966778278,0.1429188847541809,0.013440092094242573
1791103288297469700,0.6844697265625,-0.07277963310480118,0.12962783873081207,0.03375415503978729
1791103288307442700,0.694442626953125,-0.06055264174938202,0.16165629029273987,-0.09664521366357803
1791103288317414400,0.704414306640625,0.028643809258937836,0.1321127861738205,-0.06967458128929138
1791103288327387600,0.7143876953125,0.00686281081289053,0.13740961253643036,-0.013024401850998402
1791103288337359600,0.724359619140625,-0.04743478447198868,0.11429152637720108,0.0008565264870412648
1791103288347332400,0.734332275390625,-0.060342058539390564,0.08602207154035568,0.009495021775364876
1791103288357304600,0.7443046875,-0.05408283323049545,0.1262509673833847,-0.02285759150981903
1791103288367277600,0.754277587890625,-0.045428767800331116,0.11681812256574631,0.006105963606387377
1791103288377250600,0.76425048828125,0.01755099557340145,0.12488137930631638,0.05095332860946655
1791103288387222500,0.774222412109375,-0.015026242472231388,0.13389264047145844,0.007875287905335426
1791103288397195500,0.784195556640625,-0.053905464708805084,0.10387376695871353,-0.006760113872587681
1791103288407167700,0.794167724609375,-0.042120713740587234,0.14460432529449463,-0.10224571079015732
1791103288417140500,0.804140380859375,0.011383255943655968,0.11533483862876892,-0.08212179690599442
1791103288427112700,0.81411279296875,-0.0602085180580616,0.0911322608590126,-0.03385121002793312
1791103288437085700,0.824085693359375,-0.060194674879312515,0.07597141712903976,0.0026522036641836166
1791103288447057400,0.834057373046875,-0.08093633502721786,0.08270895481109619,-0.038429923355579376
1791103288457030700,0.84403076171875,-0.07085840404033661,0.07758476585149765,-0.05403471738100052
1791103288467003600,0.854003662109375,-0.062047380954027176,0.11534665524959564,-0.06540271639823914
1791103288476975600,0.8639755859375,-0.03270520642399788,0.09029616415500641,-0.0699082538485527
1791103288486948600,0.873948486328125,-0.0414968803524971,0.09053181856870651,-0.05754580348730087
1791103288496920600,0.883920654296875,-0.016444791108369827,0.10717577487230301,0.0064403703436255455
1791103288506893600,0.8938935546875,-0.06371034681797028,0.13545994460582733,0.040098875761032104
1791103288516865500,0.903865478515625,0.015993531793355942,0.10272384434938431,0.009159333072602749
1791103288526838500,0.913838623046875,-0.001243538223206997,0.15137767791748047,0.048834651708602905
1791103288536810800,0.923810791015625,-0.023113418370485306,0.15322643518447876,0.04512593150138855
1791103288546783700,0.93378369140625,-0.032014645636081696,0.12109678983688354,0.09465467929840088
1791103288556756500,0.943756591796875,0.030332621186971664,0.1303214579820633,0.02763969637453556
1791103288566728700,0.953728759765625,0.020580310374498367,0.16531473398208618,0.045405954122543335
1791103288576701700,0.96370166015625,0.009673332795500755,0.14302007853984833,0.023450054228305817
1791103288586673400,0.97367333984375,0.016241107136011124,0.15973353385925293,-0.013315238989889622
1791103288596646700,0.983646728515625,0.025209303945302963,0.12194965779781342,0.011094496585428715
1791103288606618600,0.99361865234375,-0.04256749153137207,0.0821063295006752,0.0719490572810173
1791103288616591600,1.003591552734375,-0.07746794819831848,0.08440516889095306,0.016785932704806328
1791103288626563600,1.0135634765625,-0.10598789155483246,0.0627932995557785,-0.010865673422813416
1791103288636536600,1.02353662109375,-0.13803477585315704,0.024296510964632034,0.05415886268019676
1791103288646509600,1.033509521484375,-0.13644248247146606,0.007651976775377989,0.07851532101631165
1791103288656481500,1.0434814453125,-0.15072154998779297,-0.0231365617364645,0.06753963232040405
1791103288666454500,1.05345458984375,-0.15502727031707764,0.0029868814162909985,0.027470579370856285
1791103288676426800,1.0634267578125,-0.12327093631029129,-0.024632761254906654,0.07266921550035477
1791103288686399700,1.073399658203125,-0.1746518313884735,-0.03148726373910904,0.03793271258473396
1791103288696371500,1.083371337890625,-0.19939953088760376,-0.05013950914144516,0.004671430215239525
1791103288706344700,1.0933447265625,-0.23525451123714447,-0.03053143247961998,0.04658733680844307
1791103288716316700,1.103316650390625,-0.18640999495983124,-0.023539569228887558,0.017928794026374817
1791103288726289400,1.113289306640625,-0.2061118483543396,-0.02720421925187111,0.08405479043722153
1791103288736261600,1.12326171875,-0.2134920060634613,-0.022673115134239197,0.010868724435567856
1791103288746234600,1.133234619140625,-0.21437883377075195,-0.008998315781354904,0.023905962705612183
1791103288756207400,1.143207275390625,-0.1961362063884735,0.025376494973897934,0.01232900284230709
1791103288766179600,1.1531796875,-0.21849842369556427,-0.006883522495627403,-0.0009894159156829119
1791103288776152600,1.163152587890625,-0.21811546385288239,-0.021211862564086914,0.03884348273277283
1791103288786124500,1.17312451171875,-0.23984166979789734,0.038189783692359924,-0.018797608092427254
1791103288796097500,1.18309765625,-0.22866198420524597,0.03738018125295639,-0.0018641648348420858
1791103288806069500,1.193069580078125,-0.13284969329833984,0.0013907006941735744,0.03925814479589462
1791103288816042800,1.203042724609375,-0.1637498140335083,0.063445545732975,-0.03950803726911545
1791103288826014500,1.213014404296875,-0.1982991248369217,0.0390031598508358,-0.02466694451868534
1791103288835987500,1.222987548828125,-0.21717216074466705,0.03359561413526535,-0.050747547298669815
1791103288845959700,1.232959716796875,-0.20917287468910217,0.05183040350675583,-0.08504190295934677
1791103288855932400,1.242932373046875,-0.18763402104377747,0.009670964442193508,0.006262446288019419
1791103288865905400,1.252905517578125,-0.2115917056798935,-0.0047827516682446,0.037891827523708344
1791103288875877600,1.262877685546875,-0.20647284388542175,-0.001827708212658763,-0.013224887661635876
1791103288885850600,1.2728505859375,-0.29278573393821716,-0.017529241740703583,0.00474436953663826
1791103288895822600,1.282822509765625,-0.2991858422756195,-0.04838462546467781,-0.05446835607290268
1791103288905795800,1.2927958984375,-0.3011443018913269,-0.062409110367298126,-0.021512076258659363
1791103288915767600,1.302767578125,-0.3295556902885437,-0.10238689184188843,0.01659669354557991
1791103288925740800,1.31274072265625,-0.3374117910861969,-0.11792433261871338,0.0009141925256699324
1791103288935712800,1.322712646484375,-0.33100154995918274,-0.14142753183841705,-0.03565660119056702
1791103288945685500,1.332685546875,-0.3408280909061432,-0.15148724615573883,0.01517766248434782
1791103288955657700,1.34265771484375,-0.33159250020980835,-0.16805344820022583,0.0441717654466629
1791103288965630700,1.352630615234375,-0.31132787466049194,-0.16162818670272827,0.0022036894224584103
1791103288975603700,1.362603759765625,-0.33838531374931335,-0.1783568263053894,0.07453247904777527
1791103288985575700,1.37257568359375,-0.2996514141559601,-0.14479412138462067,0.014439385384321213
1791103288995548700,1.382548583984375,-0.22307009994983673,-0.14064091444015503,0.03671113774180412
1791103289005521000,1.39252099609375,-0.21711038053035736,-0.10993081331253052,0.03452596440911293
1791103289015493600,1.40249365234375,-0.21110016107559204,-0.12452440708875656,0.022886356338858604
1791103289025465600,1.412465576171875,-0.21912850439548492,-0.0980861485004425,-0.026157960295677185
1791103289035438800,1.42243896484375,-0.15828220546245575,-0.11794453859329224,0.016862744465470314
1791103289045410600,1.43241064453125,-0.2117464393377304,-0.1406136006116867,0.08616985380649567
1791103289055383800,1.4423837890625,-0.18831275403499603,-0.14552712440490723,0.04469511657953262
1791103289065356800,1.452356689453125,-0.21626119315624237,-0.1042919009923935,0.020081359893083572
1791103289075328800,1.462328857421875,-0.12769006192684174,-0.12100563198328018,-0.03927570953965187
1791103289085301800,1.4723017578125,-0.06415589898824692,-0.08797207474708557,-0.05578397959470749
1791103289095273700,1.482273681640625,-0.09950003772974014,-0.08064118772745132,-0.07362475991249084
1791103289105246700,1.492246826171875,-0.16814804077148438,-0.11428247392177582,-0.04955064132809639
1791103289115218700,1.50221875,-0.16781248152256012,-0.10616382211446762,-0.09497351199388504
1791103289125191700,1.512191650390625,-0.17413681745529175,-0.1043502613902092,-0.05568736791610718
1791103289135164000,1.522163818359375,-0.08212621510028839,-0.14445294439792633,-0.053808510303497314
1791103289145136600,1.53213671875,-0.05906875431537628,-0.1422470659017563,-0.008880139328539371
1791103289155108600,1.542108642578125,-0.1525646150112152,-0.11397069692611694,0.014810808934271336
1791103289165081900,1.552081787109375,-0.1809558868408203,-0.1695409119129181,-0.01606578193604946
1791103289175054800,1.562054931640625,-0.12201189249753952,-0.14231914281845093,0.0064182220958173275
1791103289185026600,1.572026611328125,-0.08823422342538834,-0.10291644930839539,-0.017980149015784264
1791103289194999800,1.581999755859375,-0.08823554962873459,-0.13109402358531952,-0.0021505849435925484
1791103289204971800,1.5919716796875,-0.12202033400535583,-0.13741075992584229,0.013357937335968018
1791103289214944500,1.601944580078125,-0.08423753827810287,-0.12277322262525558,-0.061692871153354645
1791103289224916700,1.611916748046875,-0.0827086940407753,-0.09357860684394836,-0.024605294689536095
1791103289234889700,1.6218896484375,-0.058059271425008774,-0.09232079982757568,-0.054447345435619354
1791103289244861700,1.63186181640625,-0.0936431884765625,-0.1482083648443222,-0.06852656602859497
1791103289254834700,1.641834716796875,-0.1102738305926323,-0.152162104845047,-0.0511142872273922
1791103289264806700,1.651806640625,-0.08820734173059464,-0.16868709027767181,-0.03825889155268669
1791103289274780000,1.66177978515625,-0.05630214139819145,-0.16036604344844818,0.010997602716088295
1791103289284752600,1.671752685546875,-0.014343190006911755,-0.16795261204242706,0.0353374145925045
1791103289294724600,1.681724609375,-0.07435619086027145,-0.11359163373708725,0.0012955572456121445
1791103289304697900,1.69169775390625,-0.041399434208869934,-0.1422908753156662,0.10223762691020966
1791103289314669600,1.701669677734375,0.009769744239747524,-0.086174875497818,0.03107822686433792
1791103289324642600,1.711642578125,0.06455723941326141,-0.08024802058935165,-0.01841394603252411
1791103289334614800,1.72161474609375,0.041343796998262405,-0.06697296351194382,0.046121902763843536
1791103289344587800,1.731587890625,0.05519513785839081,-0.06407985091209412,0.04695456847548485
1791103289354559700,1.741559814453125,0.04792178049683571,-0.044867273420095444,-0.007043152581900358
1791103289364532700,1.75153271484375,0.0669279396533966,-0.07814921438694,-0.05629895254969597
1791103289374504700,1.761504638671875,0.03879111260175705,-0.07640297710895538,0.020980654284358025
1791103289384477700,1.771477783203125,0.05934981256723404,-0.09014090895652771,0.021087918430566788
1791103289394450700,1.78145068359375,0.023846415802836418,-0.08828255534172058,0.008738572709262371
1791103289404422700,1.791422607421875,0.0681886300444603,-0.15573379397392273,0.02500341460108757
1791103289414396000,1.80139599609375,0.06042098626494408,-0.10814736038446426,0.029650896787643433
1791103289424367600,1.81136767578125,0.05930563062429428,-0.12174827605485916,0.04568861424922943
1791103289434340600,1.821340576171875,0.023107681423425674,-0.15048138797283173,0.07428190857172012
1791103289444312800,1.831312744140625,0.07794851064682007,-0.16813838481903076,-0.007058338727802038
1791103289454285600,1.84128564453125,0.022989917546510696,-0.1735030561685562,-0.03483537584543228
1791103289464257800,1.8512578125,0.002138289622962475,-0.18800263106822968,0.02544419653713703
1791103289474230800,1.861230712890625,0.023582063615322113,-0.1785537302494049,0.03999224677681923
1791103289484202500,1.871202392578125,-0.0044740717858076096,-0.23490260541439056,0.022615302354097366
1791103289494175700,1.88117578125,-0.04701540619134903,-0.21901658177375793,-0.030627146363258362
1791103289504148700,1.891148681640625,-0.04213274270296097,-0.1868085414171219,-0.0023086711298674345
1791103289514120700,1.90112060546875,-0.04393890127539635,-0.19776850938796997,0.022693883627653122
1791103289524093700,1.91109375,0.009258710779249668,-0.20130115747451782,0.007195016369223595
1791103289534065700,1.921065673828125,0.04343212768435478,-0.17814789712429047,-0.02538449876010418
1791103289544038700,1.93103857421875,0.07132014632225037,-0.14563977718353271,-0.048431895673274994
1791103289554010600,1.9410107421875,0.06334264576435089,-0.14900840818881989,-0.020813051611185074
1791103289563983600,1.950983642578125,0.08655188232660294,-0.14746081829071045,-0.06398507952690125
1791103289573955800,1.960955810546875,0.13082772493362427,-0.11912105977535248,-0.06748393923044205
1791103289583928800,1.9709287109375,0.13393107056617737,-0.1254439651966095,0.0074872951954603195
1791103289593900800,1.98090087890625,0.09261851012706757,-0.1473282277584076,-0.012552192434668541
1791103289603873800,1.990873779296875,0.0687137320637703,-0.16085310280323029,0.04052107036113739
1791103289613845800,2.000845703125,0.07478227466344833,-0.14505869150161743,0.0402291901409626
1791103289623818800,2.01081884765625,0.16589562594890594,-0.11153831332921982,0.008815393783152103
1791103289633791700,2.020791748046875,0.11763302236795425,-0.08192875236272812,0.0342019759118557
1791103289643763700,2.030763671875,0.08968348801136017,-0.0971255749464035,0.04509764537215233
1791103289653736700,2.04073681640625,0.10152602940797806,-0.06786303222179413,0.023296477273106575
1791103289663708700,2.050708740234375,0.189852774143219,-0.021082721650600433,-0.04293647035956383
1791103289673681700,2.060681640625,0.23228543996810913,-0.022718967869877815,0.011359259486198425
1791103289683653600,2.070653564453125,0.15430784225463867,-0.026683254167437553,-0.03324761241674423
1791103289693626600,2.080626708984375,0.14498677849769592,-0.047936610877513885,-0.054744649678468704
1791103289703598800,2.090598876953125,0.15913107991218567,-0.057230394333601,-0.0044642724096775055
1791103289713571800,2.10057177734375,0.1624930500984192,-0.05493554845452309,-0.003960402216762304
1791103289723543600,2.11054345703125,0.10781450569629669,-0.07143665850162506,0.0309595987200737
1791103289733516800,2.120516845703125,0.12439534813165665,-0.0684635117650032,0.025532342493534088
1791103289743489800,2.13048974609375,0.1390000879764557,-0.05723310634493828,0.03080982342362404
1791103289753461500,2.14046142578125,0.16920539736747742,-0.08050993084907532,0.05842653661966324
1791103289763434800,2.150434814453125,0.17647358775138855,-0.008449539542198181,0.0168607234954834
1791103289773406700,2.16040673828125,0.1477641761302948,0.010853584855794907,0.02282859943807125
1791103289783379700,2.170379638671875,0.19072629511356354,-0.018169810995459557,0.005092214792966843
1791103289793351700,2.1803515625,0.226537823677063,0.044373463839292526,-0.04439704120159149
1791103289803324700,2.19032470703125,0.2621253430843353,0.030304105952382088,-0.01215418055653572
1791103289813297000,2.200296875,0.2570442855358124,0.058989014476537704,-0.030165139585733414
1791103289823269600,2.21026953125,0.2433421015739441,0.07884382456541061,-0.019621921703219414
1791103289833241600,2.22024169921875,0.26684287190437317,0.07803048938512802,-0.00032305694185197353
1791103289843214800,2.23021484375,0.24112637341022491,0.10537561029195786,-0.005816339515149593
1791103289853186600,2.2401865234375,0.2636907994747162,0.1092425212264061,0.035246141254901886
1791103289863159600,2.25015966796875,0.24467481672763824,0.0881793424487114,0.049722760915756226
1791103289873132800,2.2601328125,0.21279385685920715,0.1269800066947937,0.025786271318793297
1791103289883104800,2.270104736328125,0.23633772134780884,0.12111111730337143,-0.02891848422586918
1791103289893077500,2.280077392578125,0.22500383853912354,0.13409748673439026,-0.028406091034412384
1791103289903049700,2.2900498046875,0.23946379125118256,0.10708614438772202,0.03786369040608406
1791103289913022700,2.300022705078125,0.207228884100914,0.12141609191894531,0.04343954846262932
1791103289922995000,2.309994873046875,0.14688102900981903,0.13026969134807587,-0.00653615640476346
1791103289932968000,2.319968017578125,0.15000517666339874,0.13762055337429047,-0.00011660641757771373
1791103289942939600,2.329939697265625,0.22011572122573853,0.12124768644571304,-0.02056495100259781
1791103289952913000,2.339912841796875,0.23312552273273468,0.11204992979764938,0.03636730834841728
1791103289962884900,2.349884765625,0.15607337653636932,0.13492199778556824,-0.011877167038619518
1791103289972857900,2.35985791015625,0.12947958707809448,0.12292765080928802,-0.04926581680774689
1791103289982830800,2.369830810546875,0.11623592674732208,0.07480733096599579,0.026070548221468925
1791103289992802800,2.379802734375,0.17451974749565125,0.06790921092033386,-0.034286804497241974
1791103290002775800,2.38977587890625,0.1484905183315277,0.0661897137761116,-0.02567344531416893
1791103290012747800,2.399747802734375,0.07272118330001831,0.06626348942518234,0.043495506048202515
1791103290022720800,2.409720703125,0.11242920905351639,0.05509902909398079,0.04922344908118248
1791103290032693000,2.41969287109375,0.07371137291193008,0.07068251818418503,0.031680941581726074
1791103290042665700,2.429665771484375,0.0867391899228096,0.01915896311402321,0.0188493262976408
1791103290052637700,2.4396376953125,0.07349316030740738,0.07418014109134674,0.04960697144269943
1791103290062611000,2.44961083984375,0.0930798202753067,0.10607397556304932,0.08527258038520813
1791103290072582700,2.459582763671875,0.08992504328489304,0.05405179038643837,0.07806367427110672
1791103290082555600,2.4695556640625,0.09467306733131409,0.11084070801734924,0.03138503432273865
1791103290092527900,2.47952783203125,0.12108070403337479,0.17067794501781464,-0.05481589585542679
1791103290102500900,2.4895009765625,0.05287511274218559,0.13495725393295288,0.03793354332447052
1791103290112473600,2.4994736328125,0.08044895529747009,0.1450469046831131,-0.047001853585243225
1791103290122445800,2.50944580078125,0.08290369808673859,0.1378246694803238,-0.010172747075557709
1791103290132418800,2.519418701171875,0.05716904252767563,0.10819727927446365,0.03483707085251808
1791103290142390800,2.529390869140625,0.0756349265575409,0.11697982996702194,0.04626038670539856
1791103290152363800,2.53936376953125,-0.004851660691201687,0.14072030782699585,0.0857100635766983
1791103290162336000,2.5493359375,0.017583847045898438,0.09874336421489716,0.02958853356540203
1791103290172309000,2.55930908203125,-0.024004077538847923,0.11295319348573685,0.037442196160554886
1791103290182280700,2.56928076171875,0.057396676391363144,0.11553309112787247,0.009888091124594212
1791103290192254000,2.57925390625,0.007984121330082417,0.16081827878952026,0.0008221578900702298
1791103290202226000,2.589225830078125,0.04923900216817856,0.11414659768342972,0.011835387907922268
1791103290212198700,2.59919873046875,0.01825578883290291,0.13718880712985992,-0.01429528184235096
1791103290222171000,2.6091708984375,0.012291179969906807,0.10053946822881699,-0.08373546600341797
1791103290232144000,2.619143798828125,-0.018536239862442017,0.06989820301532745,0.02630074881017208
1791103290242116900,2.629116943359375,-0.039299532771110535,0.032641518861055374,-0.03326001763343811
1791103290252088800,2.6390888671875,-0.19044165313243866,0.008681858889758587,-0.00820073764771223
1791103290262061800,2.649061767578125,-0.1398095041513443,-0.016762297600507736,0.005097219720482826
1791103290272034000,2.659033935546875,-0.10477534681558609,0.002265989314764738,0.05140639469027519
1791103290282006800,2.6690068359375,-0.10348483920097351,-0.040245018899440765,0.06313794106245041
1791103290291978800,2.678978759765625,-0.11065992712974548,-0.03894006833434105,0.032707329839468
1791103290301952000,2.688951904296875,-0.079572394490242,-0.04239426553249359,0.008367672562599182
1791103290311923700,2.698923828125,-0.06855382770299911,-0.042952198535203934,0.005405172239989042
1791103290321896700,2.708896728515625,-0.047722019255161285,-0.05169115960597992,-0.02718373015522957
1791103290331869000,2.718868896484375,-0.057527244091033936,-0.060201819986104965,0.039086371660232544
1791103290341842000,2.728842041015625,-0.10123535990715027,-0.03707949444651604,0.010129609145224094
1791103290351814700,2.738814697265625,-0.08201852440834045,-0.07632516324520111,-0.019809912890195847
1791103290361787000,2.748786865234375,-0.07193867862224579,-0.060973234474658966,-0.0020817529875785112
1791103290371759900,2.758759765625,-0.07541969418525696,-0.07511888444423676,0.024416964501142502
1791103290381731800,2.76873193359375,-0.08324979245662689,-0.07334046810865402,0.006314655765891075
1791103290391704800,2.778704833984375,-0.06066166236996651,-0.09547080844640732,-0.05274173989892006
1791103290401676800,2.7886767578125,-0.0639684647321701,-0.0677250549197197,-0.06383803486824036
1791103290411650000,2.798650146484375,-0.007096923887729645,-0.09466426074504852,-0.006330535281449556
1791103290421621800,2.808621826171875,-0.07199518382549286,-0.08437110483646393,-0.06419016420841217
1791103290431594800,2.8185947265625,-0.021485134959220886,-0.14866380393505096,-0.025413203984498978
1791103290441567000,2.82856689453125,-0.06861609220504761,-0.10138895362615585,0.025011755526065826
1791103290451539700,2.838539794921875,-0.12626980245113373,-0.13800369203090668,0.03755471110343933
1791103290461512000,2.848511962890625,-0.09304865449666977,-0.1418745070695877,0.01692795939743519
1791103290471485000,2.85848486328125,0.012193877249956131,-0.13118058443069458,0.03282729908823967
1791103290481458000,2.8684580078125,-0.015987621620297432,-0.07194909453392029,0.008815393783152103
1791103290491430000,2.878429931640625,0.02933858148753643,-0.08213568478822708,-0.04817332327365875
1791103290501403000,2.88840283203125,0.053920429199934006,-0.030424103140830994,-0.04332791641354561
1791103290511374800,2.898374755859375,0.1005563735961914,-0.011381171643733978,-0.1015763133764267
1791103290521347800,2.908347900390625,0.09840739518404007,-0.006607905495911837,-0.04438178241252899
1791103290531319800,2.91831982421875,0.10249108821153641,0.014307762496173382,-0.046624962240457535
1791103290541292800,2.928292724609375,0.11944270879030228,-0.006458478048443794,-0.07784106582403183
1791103290551264800,2.9382646484375,0.07484354823827744,-0.044552069157361984,-0.004722649231553078
1791103290561237800,2.94823779296875,0.05279979482293129,-0.05786878988146782,0.06318193674087524
1791103290571210000,2.9582099609375,0.09558853507041931,-0.05666504055261612,0.048390477895736694
1791103290581182700,2.9681826171875,0.04938390105962753,-0.03555437922477722,0.060309458523988724
1791103290591154700,2.97815478515625,0.12445681542158127,-0.039497990161180496,0.02556772343814373
1791103290601128000,2.9881279296875,0.11770930886268616,0.019203241914510727,0.04129139333963394
1791103290611099600,2.998099609375,0.10192263126373291,0.024651270359754562,-0.014928204007446766
1791103290621073000,3.008072998046875,0.14733067154884338,0.03775244206190109,-0.029431184753775597
1791103290631046000,3.0180458984375,0.19475065171718597,0.07585828751325607,-0.03757619857788086
1791103290641017900,3.028017822265625,0.2286301851272583,0.06709946691989899,-0.06873883306980133
1791103290650990800,3.037990966796875,0.1945696920156479,0.04972074553370476,-0.07408139854669571
1791103290660962800,3.047962890625,0.1611039936542511,0.05547967553138733,-0.06571783125400543
1791103290670935800,3.057935791015625,0.17724275588989258,0.03931375592947006,-0.060800038278102875
1791103290680907800,3.06790771484375,0.14068379998207092,-0.00629511009901762,0.07205218076705933
1791103290690880800,3.077880859375,0.16505837440490723,0.0049085416831076145,0.00516929104924202
1791103290700853000,3.08785302734375,0.09541899710893631,0.02894020825624466,0.03161538019776344
1791103290710826000,3.097825927734375,0.06441953033208847,0.03510516136884689,-0.0006626651738770306
1791103290720797700,3.107797607421875,0.11545618623495102,0.05834987759590149,0.0060666813515126705
1791103290730771000,3.11777099609375,0.2046816647052765,0.09037145972251892,0.02183738723397255
1791103290740743000,3.127742919921875,0.2074400931596756,0.12561869621276855,-0.00807174015790224
1791103290750715600,3.137715576171875,0.19495917856693268,0.14557908475399017,-0.013178352266550064
1791103290760689000,3.14768896484375,0.22923177480697632,0.16112281382083893,-0.03511909395456314
1791103290770660900,3.157660888671875,0.22011549770832062,0.1980629861354828,-0.06389348953962326
1791103290780633900,3.1676337890625,0.2732519507408142,0.20689450204372406,-0.0613027848303318
1791103290790605800,3.177605712890625,0.3013562858104706,0.2086617797613144,0.03071475960314274
1791103290800578800,3.187578857421875,0.2770726680755615,0.22928807139396667,0.013974419794976711
1791103290810551000,3.197551025390625,0.2693899869918823,0.2498798966407776,0.03534948453307152
1791103290820523800,3.207523681640625,0.24316470324993134,0.2744845449924469,0.01895439624786377
1791103290830495700,3.217495849609375,0.19542913138866425,0.22053901851177216,0.017291251569986343
1791103290840469000,3.227468994140625,0.18597739934921265,0.23443540930747986,-0.006071268580853939
1791103290850440700,3.237440673828125,0.21450836956501007,0.24144645035266876,0.07178357988595963
1791103290860413700,3.24741357421875,0.184181347489357,0.20900900661945343,0.059250373393297195
1791103290870386000,3.257385986328125,0.15882006287574768,0.20139209926128387,-0.020957645028829575
1791103290880359000,3.26735888671875,0.1366518884897232,0.17332585155963898,0.09086722880601883
1791103290890331000,3.277330810546875,0.08851605653762817,0.15182055532932281,0.059918370097875595
1791103290900304000,3.287303955078125,0.04922774061560631,0.1032523363828659,0.10019191354513168
1791103290910276600,3.297276611328125,0.08012227714061737,0.10106001794338226,0.0882207378745079
1791103290920248800,3.307248779296875,0.04123551771044731,0.08137107640504837,0.10378047078847885
1791103290930221800,3.317221923828125,0.031277693808078766,0.1001032218337059,0.15668390691280365
1791103290940193500,3.327193603515625,0.05134038254618645,0.13580800592899323,0.05786333978176117
1791103290950166800,3.337166748046875,0.011490970849990845,0.11856483668088913,0.06763368099927902
1791103290960138800,3.347138671875,-0.0482448972761631,0.14952267706394196,0.08977930247783661
1791103290970111500,3.357111572265625,0.01169566623866558,0.1869206577539444,-0.008073488250374794
1791103290980083700,3.367083740234375,0.037546493113040924,0.18102620542049408,0.047704681754112244
1791103290990056700,3.377056640625,0.08657528460025787,0.15792648494243622,0.08491356670856476
1791103291000028700,3.387028564453125,0.061900582164525986,0.20571966469287872,0.0927446037530899
1791103291010001700,3.397001708984375,0.023396601900458336,0.1809179186820984,0.06485997140407562
1791103291019973600,3.4069736328125,-0.00632511917501688,0.18374471366405487,0.090521901845932
1791103291029947000,3.41694677734375,-0.04271162301301956,0.2302727997303009,0.12187982350587845
1791103291039918600,3.426918701171875,0.04003982990980148,0.21413953602313995,0.08289024978876114
1791103291049891600,3.4368916015625,-0.032946497201919556,0.2616087794303894,0.07608640193939209
1791103291059864800,3.44686474609375,-0.038922134786844254,0.255918949842453,-0.004851174540817738
1791103291069836500,3.45683642578125,0.01110667735338211,0.2527974843978882,-0.026995358988642693
1791103291079809800,3.466809814453125,-0.046602215617895126,0.2589510381221771,-0.011721988208591938
1791103291089781800,3.47678173828125,-0.05432938039302826,0.22520694136619568,-0.03951074182987213
1791103291099754800,3.486754638671875,-0.10806344449520111,0.19810712337493896,0.05809411033987999
1791103291109726700,3.496726806640625,-0.09744861721992493,0.20176658034324646,-0.021737605333328247
1791103291119699700,3.50669970703125,-0.12679244577884674,0.15168116986751556,0.08259356021881104
1791103291129672000,3.516671875,-0.17703217267990112,0.13852675259113312,0.029652850702404976
1791103291139644700,3.526644775390625,-0.16740527749061584,0.14696691930294037,-0.043984994292259216
1791103291149616600,3.53661669921875,-0.18163800239562988,0.0881723091006279,0.013190411031246185
1791103291159590000,3.54658984375,-0.14721383154392242,0.1248740553855896,-0.11377754807472229
1791103291169561600,3.5565615234375,-0.12255587428808212,0.12150835990905762,-0.08843650668859482
1791103291179534600,3.56653466796875,-0.16482344269752502,0.11047637462615967,-0.027658993378281593
1791103291189506800,3.5765068359375,-0.17824123799800873,0.05315129831433296,-0.045364223420619965
1791103291199479800,3.586479736328125,-0.2831348776817322,0.01493183895945549,-0.025880789384245872
1791103291209452500,3.59645263671875,-0.3543211817741394,-0.055506907403469086,-0.010423803701996803
1791103291219424800,3.6064248046875,-0.3802339732646942,-0.04235898703336716,-0.06032300740480423
1791103291229397800,3.616397705078125,-0.3262905776500702,-0.09002877026796341,-0.05051378533244133
1791103291239369700,3.62636962890625,-0.2792463004589081,-0.09853697568178177,-0.032160721719264984
1791103291249342700,3.6363427734375,-0.2923423945903778,-0.10388060659170151,-0.041379787027835846
1791103291259314700,3.646314697265625,-0.2905886471271515,-0.1035996600985527,-0.09946320950984955
1791103291269288000,3.656287841796875,-0.2995088994503021,-0.12004095315933228,-0.06167295575141907
1791103291279259600,3.666259765625,-0.2510911524295807,-0.14244134724140167,-0.08023498207330704
1791103291289232600,3.676232666015625,-0.26144418120384216,-0.1386476755142212,-0.08839917182922363
1791103291299204900,3.686204833984375,-0.3147990107536316,-0.12856414914131165,-0.05328325927257538
1791103291309177600,3.696177490234375,-0.24218197166919708,-0.15660350024700165,-0.04849989712238312
1791103291319149800,3.70614990234375,-0.27876928448677063,-0.13152754306793213,-0.06779598444700241
1791103291329122800,3.716122802734375,-0.2340553104877472,-0.21883687376976013,-0.0012774176429957151
1791103291339094500,3.726094482421875,-0.29381251335144043,-0.20180630683898926,0.016498494893312454
1791103291349067800,3.73606787109375,-0.28833091259002686,-0.23976273834705353,0.009463220834732056
1791103291359039700,3.746039794921875,-0.3028656840324402,-0.23239754140377045,0.06503172963857651
1791103291369012500,3.756012451171875,-0.2628881633281708,-0.20683039724826813,-0.037933800369501114
1791103291378985700,3.76598583984375,-0.23984447121620178,-0.19423551857471466,0.015062246471643448
1791103291388957700,3.775957763671875,-0.2429923415184021,-0.18179269134998322,-0.06142507120966911
1791103291398930700,3.7859306640625,-0.17966888844966888,-0.2023538500070572,-0.0859767496585846
1791103291408902700,3.795902587890625,-0.21886847913265228,-0.22258295118808746,-0.03557029739022255
1791103291418875600,3.805875732421875,-0.2871927320957184,-0.2906022369861603,0.036741308867931366
1791103291428847900,3.815847900390625,-0.26335105299949646,-0.28078317642211914,0.0010600137757137418
1791103291438820600,3.825820556640625,-0.22566191852092743,-0.2803141176700592,0.10255038738250732
1791103291448792600,3.83579248046875,-0.21557599306106567,-0.2715773582458496,0.14525523781776428
1791103291458765800,3.845765869140625,-0.17770744860172272,-0.23573392629623413,0.08761680126190186
1791103291468737500,3.855737548828125,-0.16087520122528076,-0.19841717183589935,0.0630054622888565
1791103291478710500,3.86571044921875,-0.08107423037290573,-0.13269440829753876,-0.03325696662068367
1791103291488682800,3.875682861328125,0.02657819539308548,-0.11914638429880142,-0.05208151787519455
1791103291498655700,3.88565576171875,-0.024586807936429977,-0.09945578128099442,-0.06965391337871552
1791103291508627700,3.895627685546875,-0.04547957330942154,-0.14655858278274536,-0.04081055149435997
1791103291518600700,3.9056005859375,-0.046522218734025955,-0.11732184886932373,-0.025079715996980667
1791103291528572700,3.91557275390625,0.013004491105675697,-0.14372789859771729,0.06969765573740005
1791103291538545700,3.925545654296875,-0.00238741934299469,-0.18397873640060425,0.08238812536001205
1791103291548518700,3.9355185546875,-0.05492465943098068,-0.20220167934894562,0.044250067323446274
1791103291558491000,3.945490966796875,-0.03149273619055748,-0.22898854315280914,0.12598592042922974
1791103291568464000,3.9554638671875,0.022440534085035324,-0.17393621802330017,0.03541874140501022
1791103291578435600,3.965435546875,0.05911632627248764,-0.1601361632347107,0.06776606291532516
1791103291588408800,3.975408935546875,0.0759056955575943,-0.16326245665550232,-0.0269607063382864
1791103291598380800,3.985380859375,0.06042763218283653,-0.1488230973482132,0.0010509338462725282
1791103291608353500,3.995353515625,0.12662556767463684,-0.12684109807014465,-0.009097840636968613
1791103291618325800,4.00532568359375,0.2104950100183487,-0.1336965560913086,0.020584234967827797
1791103291628298800,4.015298828125,0.15952211618423462,-0.12002867460250854,0.04637615382671356
1791103291638270700,4.025270751953125,0.1121559888124466,-0.11387897282838821,-0.014489470981061459
1791103291648243700,4.03524365234375,0.07597401738166809,-0.12355291098356247,-0.030368302017450333
1791103291658215700,4.045215576171875,0.11664190888404846,-0.12081979960203171,0.0024876235984265804
1791103291668189000,4.05518896484375,0.21151089668273926,-0.06384839117527008,-0.0110707962885499
1791103291678160600,4.06516064453125,0.3308613896369934,-0.03734978288412094,-0.0019991793669760227
1791103291688133600,4.075133544921875,0.2804906368255615,-0.014403454959392548,0.048796359449625015
1791103291698105900,4.08510595703125,0.23528487980365753,-0.005657185334712267,-0.0140829561278224
1791103291708078600,4.09507861328125,0.2070218175649643,-0.04055897518992424,-0.0030603986233472824
1791103291718050800,4.10505078125,0.28556108474731445,0.01164419949054718,0.050448812544345856
1791103291728023800,4.11502392578125,0.32870298624038696,0.04672442376613617,0.06053180620074272
1791103291737996800,4.124996826171875,0.3294256329536438,0.01865943893790245,0.011320238932967186
1791103291747968800,4.13496875,0.2653350830078125,0.07760931551456451,-0.02289259247481823
1791103291757941800,4.144941650390625,0.3066457509994507,0.0481339730322361,0.006447985302656889
1791103291767913700,4.154913818359375,0.334861159324646,0.07679305225610733,-0.03281313180923462
1791103291777886700,4.16488671875,0.3298990726470947,0.06492029130458832,0.04189131408929825
1791103291787858700,4.174858642578125,0.2760741710662842,0.07704220712184906,-0.05977938696742058
1791103291797831700,4.184831787109375,0.2922808825969696,0.06923657655715942,-0.05483495071530342
1791103291807803600,4.1948037109375,0.3001856803894043,0.11995328217744827,-0.04928145930171013
1791103291817776600,4.204776611328125,0.36520424485206604,0.13394413888454437,-0.13614985346794128
1791103291827748900,4.214748779296875,0.35155394673347473,0.14386893808841705,-0.09576115757226944
1791103291837721900,4.224721923828125,0.3328155279159546,0.14315147697925568,-0.004919225350022316
1791103291847693600,4.234693603515625,0.315639466047287,0.12432826310396194,0.034491028636693954
1791103291857666800,4.244666748046875,0.32514312863349915,0.11028246581554413,-0.04239768534898758
1791103291867638800,4.254638671875,0.2927955687046051,0.09929399192333221,0.06072763353586197
1791103291877611500,4.264611572265625,0.2716679573059082,0.14316871762275696,0.061574190855026245
1791103291887583700,4.274583740234375,0.34009602665901184,0.18621817231178284,0.009467577561736107
1791103291897556700,4.284556640625,0.34982651472091675,0.24277068674564362,-0.0036991052329540253
1791103291907528700,4.29452880859375,0.362697035074234,0.24554915726184845,-0.04884367808699608
1791103291917501400,4.30450146484375,0.36593952775001526,0.24146249890327454,-0.03339248150587082
1791103291927474400,4.314474365234375,0.3817238211631775,0.26634255051612854,-0.03741385415196419
1791103291937446400,4.3244462890625,0.3309318423271179,0.27455639839172363,-0.0473935641348362
1791103291947419400,4.33441943359375,0.30635058879852295,0.253203421831131,-0.014222294092178345
1791103291957391600,4.3443916015625,0.2611890435218811,0.23232178390026093,0.08699758350849152
1791103291967364600,4.354364501953125,0.26828181743621826,0.2364123910665512,0.0544164702296257
1791103291977336300,4.36433642578125,0.27053573727607727,0.23341992497444153,0.10595391690731049
1791103291987309600,4.3743095703125,0.22293145954608917,0.22315983474254608,0.09151265770196915
1791103291997281500,4.384281494140625,0.1519796997308731,0.20085902512073517,0.03498540818691254
1791103292007254300,4.394254150390625,0.20168493688106537,0.23373869061470032,0.07537251710891724
1791103292017226500,4.4042265625,0.27181580662727356,0.2623298168182373,0.06872657686471939
1791103292027199500,4.414199462890625,0.2168942242860794,0.2507208287715912,0.10188133269548416
1791103292037171500,4.42417138671875,0.21737192571163177,0.25153404474258423,0.014273307286202908
1791103292047144400,4.43414453125,0.16074006259441376,0.26518699526786804,0.036671556532382965
1791103292057116400,4.444116455078125,0.13685935735702515,0.24101045727729797,0.04281316325068474
1791103292067089700,4.454089599609375,0.14821107685565948,0.2376205176115036,-0.007740291301161051
1791103292077061400,4.464061279296875,0.09445975720882416,0.2139437049627304,0.03599515184760094
1791103292087034400,4.474034423828125,0.06964149326086044,0.20216934382915497,0.015806524083018303
1791103292097006600,4.484006591796875,0.09258461743593216,0.21302369236946106,-0.01769648864865303
1791103292106979300,4.493979248046875,0.08734244853258133,0.20700708031654358,0.044326137751340866
1791103292116952300,4.503952392578125,0.13207732141017914,0.16589339077472687,0.009740306064486504
1791103292126924500,4.513924560546875,0.06722216308116913,0.16400574147701263,-0.0016167443245649338
1791103292136897500,4.5238974609375,-0.013567042537033558,0.12526552379131317,-0.02869263105094433
1791103292146869500,4.533869384765625,-0.022948291152715683,0.14469754695892334,-0.062315039336681366
1791103292156842500,4.543842529296875,-0.04722564294934273,0.14178846776485443,0.037128034979104996
1791103292166814500,4.553814453125,-0.044267140328884125,0.11062787473201752,0.07997802644968033
1791103292176787500,4.563787353515625,-0.01432356983423233,0.1330336183309555,-0.04433545470237732
1791103292186759400,4.573759521484375,-0.0588470920920372,0.09569716453552246,0.010920874774456024
1791103292196732400,4.583732421875,-0.12204495817422867,0.05010863393545151,0.06506073474884033
1791103292206704400,4.593704345703125,-0.14326955378055573,0.02990030124783516,0.059653185307979584
1791103292216677400,4.603677490234375,-0.07701222598552704,0.03569576516747475,0.03629717603325844
1791103292226649600,4.613649658203125,-0.12338478118181229,0.06404058635234833,0.011807546950876713
1791103292236622600,4.62362255859375,-0.1163412407040596,0.009477999992668629,-0.05799664556980133
1791103292246594300,4.63359423828125,-0.10334287583827972,0.06447813659906387,-0.12218095362186432
1791103292256567600,4.643567626953125,-0.08950813859701157,0.04001603648066521,-0.010845808312296867
1791103292266539500,4.65353955078125,-0.1351936012506485,0.03547587990760803,-0.02645725943148136
1791103292276512500,4.663512451171875,-0.0931151807308197,-0.04812733083963394,0.02511100098490715
1791103292286484500,4.673484375,-0.1665494590997696,-0.03467250615358353,0.023744532838463783
1791103292296457500,4.68345751953125,-0.19512438774108887,-0.0845646932721138,0.03259216248989105
1791103292306429400,4.693429443359375,-0.204004168510437,-0.08919699490070343,0.047525838017463684
1791103292316402400,4.70340234375,-0.15345080196857452,-0.05953780934214592,0.016956768929958344
1791103292326375400,4.71337548828125,-0.128386989235878,-0.057169992476701736,0.015835044905543327
1791103292336347400,4.723347412109375,-0.12214972078800201,-0.03143460303544998,-0.07897763699293137
1791103292346320400,4.7333203125,-0.07946590334177017,0.01845891959965229,-0.10218149423599243
1791103292356292600,4.743292724609375,-0.03554661199450493,-0.022332675755023956,-0.038365211337804794
1791103292366265600,4.753265625,-0.07694464921951294,-0.06237782910466194,-0.021295681595802307
1791103292376237300,4.7632373046875,-0.11002521961927414,-0.08187542110681534,0.015290213748812675
1791103292386210600,4.77321044921875,-0.18983323872089386,-0.06331052631139755,0.06568094342947006
1791103292396182500,4.7831826171875,-0.2094496339559555,-0.06346799433231354,0.07610273361206055
1791103292406155300,4.7931552734375,-0.1299702525138855,-0.07039967179298401,0.05263176187872887
1791103292416127500,4.80312744140625,-0.05883219093084335,-0.05850960686802864,0.08526576310396194
1791103292426100500,4.8131005859375,-0.01710764691233635,0.004155639559030533,0.07758946716785431
1791103292436072400,4.823072509765625,0.019225645810365677,-0.003643660806119442,0.019535699859261513
1791103292446045400,4.83304541015625,-0.011269945651292801,0.008479847572743893,-0.021118786185979843
1791103292456017400,4.843017333984375,-0.0014083385467529297,-0.012895133346319199,0.03178885206580162
1791103292465990700,4.85299072265625,-0.03607310727238655,-0.007341376971453428,0.03197314217686653
1791103292475962400,4.86296240234375,0.02664870023727417,-0.0021137907169759274,-0.04424610361456871
1791103292485935400,4.872935302734375,0.011251900345087051,-0.033157993108034134,0.05610793083906174
1791103292495907600,4.882907470703125,-0.03088432364165783,-0.03747004270553589,0.004637578502297401
1791103292505880300,4.89288037109375,-0.0187941063195467,-0.03735525906085968,-0.01004922203719616
1791103292515852500,4.9028525390625,-0.02835986390709877,-0.022916100919246674,-0.004187659826129675
1791103292525825500,4.912825439453125,0.03837762027978897,-0.06055136024951935,0.05401146411895752
1791103292535797200,4.92279736328125,0.050293147563934326,-0.03712417185306549,0.06780362874269485
1791103292545770500,4.9327705078125,0.10268418490886688,-0.036495666950941086,0.03422622010111809
1791103292555742500,4.942742431640625,0.10639938712120056,0.021698936820030212,0.011974964290857315
1791103292565715500,4.952715576171875,0.12986716628074646,-0.013807125389575958,-0.025445377454161644
1791103292575688400,4.9626884765625,0.1344498246908188,0.009057654067873955,-0.05769713968038559
1791103292585660400,4.972660400390625,0.12340807914733887,0.009545544162392616,0.038000356405973434
1791103292595633400,4.98263330078125,0.0963955670595169,0.05037311092019081,0.022450292482972145
1791103292605605400,4.99260546875,0.21247877180576324,0.011061657220125198,0.02825278788805008
1791103292615578400,5.002578369140625,0.19238144159317017,0.005373270250856876,0.05617520213127136
1791103292625550600,5.012550537109375,0.16653946042060852,0.029230134561657906,0.03843162581324577
1791103292635523600,5.022523681640625,0.13956399261951447,0.08539935946464539,-0.004456663969904184
1791103292645495300,5.032495361328125,0.20907382667064667,0.12319627404212952,-0.03607823699712753
1791103292655468500,5.042468505859375,0.24897299706935883,0.1713387370109558,-0.07635270804166794
1791103292665440500,5.0524404296875,0.33899182081222534,0.17640167474746704,-0.10884381085634232
1791103292675413200,5.062413330078125,0.2987605333328247,0.22060737013816833,-0.08400273323059082
1791103292685385500,5.072385498046875,0.27347540855407715,0.20912595093250275,-0.030028441920876503
1791103292695358500,5.0823583984375,0.2839657962322235,0.15837924182415009,-0.016012731939554214
1791103292705330400,5.092330322265625,0.2704657018184662,0.17257414758205414,0.02763008512556553
1791103292715303400,5.102303466796875,0.21658892929553986,0.16033215820789337,0.062016233801841736
1791103292725275400,5.112275390625,0.1425866037607193,0.13384409248828888,0.07931932061910629
1791103292735248600,5.12224853515625,0.17382727563381195,0.13919596374034882,0.0560024157166481
1791103292745220400,5.132220458984375,0.2802245616912842,0.21055883169174194,-0.031714122742414474
1791103292755193300,5.142193359375,0.2087889164686203,0.20011478662490845,0.0723256766796112
1791103292765165600,5.15216552734375,0.22171004116535187,0.20082159340381622,-0.014522936195135117
1791103292775138300,5.16213818359375,0.2513841390609741,0.2758108973503113,-0.043378036469221115
1791103292785110500,5.172110595703125,0.2245410680770874,0.253939688205719,-0.07476658374071121
1791103292795083500,5.18208349609375,0.24811677634716034,0.19872908294200897,-0.07170861214399338
1791103292805055500,5.192055419921875,0.22460319101810455,0.2517877519130707,-0.060186717659235
1791103292815028500,5.202028564453125,0.2011340856552124,0.21772834658622742,0.003438598709180951
1791103292825001500,5.21200146484375,0.18140006065368652,0.16169729828834534,-0.05507504567503929
1791103292834973700,5.2219736328125,0.142083540558815,0.11549758911132812,0.007049388252198696
1791103292844946400,5.231946533203125,0.05788716673851013,0.06787360459566116,0.09017916023731232
1791103292854918400,5.24191845703125,0.05262480303645134,0.1009874939918518,0.05568912625312805
1791103292864891600,5.2518916015625,0.09142998605966568,0.09523347020149231,0.08472929894924164
1791103292874863400,5.26186328125,0.0578681044280529,0.05911330506205559,0.051707565784454346
1791103292884836400,5.27183642578125,0.06654441356658936,0.07248689979314804,0.07631251960992813
1791103292894808600,5.28180859375,0.06648873537778854,0.1249527782201767,0.025600675493478775
1791103292904781300,5.29178125,0.0741538479924202,0.10187968611717224,0.012132538482546806
1791103292914753800,5.30175390625,0.07269812375307083,0.10017335414886475,0.05334174260497093
1791103292924727000,5.31172705078125,0.09155943244695663,0.11185184866189957,0.03099195845425129
1791103292934699000,5.321698974609375,0.0002453997731208801,0.14253970980644226,0.07479564845561981
1791103292944671700,5.331671630859375,0.0009511373937129974,0.10599901527166367,0.051467422395944595
1791103292954644000,5.34164404296875,0.004865217488259077,0.11858616024255753,0.030820846557617188
1791103292964617000,5.351616943359375,0.06715309619903564,0.12171270698308945,0.05050187557935715
1791103292974589000,5.3615888671875,0.08302478492259979,0.1582779437303543,-0.005289806518703699
1791103292984562000,5.37156201171875,0.03956199809908867,0.1529439091682434,0.06425224989652634
1791103292994534000,5.381533935546875,0.03797938674688339,0.16931425034999847,0.003679086687043309
1791103293004507100,5.391507080078125,0.04706209897994995,0.1986423134803772,-0.062304455786943436
1791103293014478800,5.401478759765625,0.05142860487103462,0.15706638991832733,-0.018912432715296745
1791103293024452000,5.4114521484375,0.09099119156599045,0.143453910946846,0.021529264748096466
1791103293034424000,5.421424072265625,0.004309175536036491,0.16538098454475403,0.08409829437732697
1791103293044396800,5.431396728515625,0.02012249454855919,0.1412370353937149,0.038957443088293076
1791103293054369000,5.441369140625,-0.02541951648890972,0.0883273035287857,0.14860300719738007
1791103293064342000,5.451342041015625,0.00405528349801898,0.1309077888727188,0.057545535266399384
1791103293074314000,5.46131396484375,-0.030492495745420456,0.11047140508890152,0.05571812391281128
1791103293084287000,5.471286865234375,-0.022345352917909622,0.13036121428012848,0.022291989997029305
1791103293094259000,5.481259033203125,0.024815499782562256,0.12595927715301514,0.01023000106215477
1791103293104232200,5.491232177734375,0.04140060395002365,0.12120180577039719,-0.058343734592199326
1791103293114205000,5.501204833984375,0.0345587432384491,0.12481361627578735,-0.0016701985150575638
1791103293124177000,5.511177001953125,-0.00880763866007328,0.13724204897880554,-0.04605923220515251
1791103293134150100,5.521150146484375,-0.09197527915239334,0.081879161298275,-0.02528465911746025
1791103293144121900,5.531121826171875,-0.07718168944120407,0.04269341379404068,0.0014252488035708666
1791103293154094800,5.5410947265625,-0.03032149001955986,0.04072559252381325,0.04735564813017845
1791103293164067000,5.551067138671875,-0.04958147183060646,0.030525952577590942,0.06731364130973816
1791103293174039800,5.561039794921875,-0.005865031853318214,0.0066073620691895485,0.047633763402700424
1791103293184012000,5.571011962890625,0.034810226410627365,0.06888911128044128,-0.0020938473753631115
1791103293193985000,5.580985107421875,0.04109274223446846,0.08242761343717575,0.008843835443258286
1791103293203956700,5.590956787109375,0.03928632289171219,0.08675657957792282,0.02229732647538185
1791103293213930000,5.600929931640625,0.08099880069494247,0.1386679708957672,-0.007532001938670874
1791103293223902000,5.61090185546875,0.09369009733200073,0.15180134773254395,-0.060152869671583176
1791103293233875000,5.620875,0.08854350447654724,0.11499987542629242,-0.05697288364171982
1791103293243847000,5.630846923828125,0.05281427502632141,0.08987774699926376,-0.040406689047813416
1791103293253820000,5.64081982421875,0.05189026519656181,0.08745619654655457,-0.02114974893629551
1791103293263792000,5.650792236328125,0.02702432870864868,0.08204571902751923,0.052395839244127274
1791103293273764900,5.660764892578125,0.039529815316200256,0.06636467576026917,0.046522822231054306
1791103293283736800,5.67073681640625,-0.03940441459417343,0.037615854293107986,0.04523944482207298
1791103293293710000,5.6807099609375,-0.03231045976281166,0.037560634315013885,-0.032423149794340134
1791103293303681800,5.690681884765625,0.006062760949134827,0.048993851989507675,-0.02818685956299305
1791103293313654800,5.70065478515625,0.0360996350646019,0.05429251864552498,-0.010158662684261799
1791103293323627000,5.710626953125,0.001238322351127863,0.04244358092546463,-0.027203958481550217
1791103293333600000,5.72060009765625,0.011110194027423859,0.03474181145429611,-0.03254374861717224
1791103293343572000,5.730572021484375,-0.032588280737400055,0.0054869865998625755,-0.01796320639550686
1791103293353545000,5.740544921875,-0.034723203629255295,-0.010596591979265213,-0.008074086159467697
1791103293363517000,5.750516845703125,-0.019265418872237206,-0.027386223897337914,0.036708831787109375
1791103293373490000,5.760489990234375,-0.058004334568977356,-0.0009589199908077717,-0.11747836321592331
1791103293383462000,5.7704619140625,-0.02961370348930359,-0.03937448561191559,0.018406236544251442
1791103293393435000,5.780434814453125,-0.036060232669115067,-0.026888271793723106,0.052279453724622726
1791103293403406800,5.79040673828125,-0.006421911530196667,-0.062134675681591034,-0.04115861654281616
1791103293413379800,5.8003798828125,-0.0051008909940719604,-0.03983025997877121,0.056245140731334686
1791103293423352800,5.810352783203125,-0.004500614479184151,0.004963042680174112,-0.05250797048211098
1791103293433325000,5.820324951171875,-0.02190166898071766,-0.026471171528100967,-0.03332225978374481
1791103293443297800,5.8302978515625,0.015789784491062164,-0.00918592419475317,-0.042369019240140915
1791103293453270000,5.84027001953125,-0.007859272882342339,0.030727585777640343,-0.04225844517350197
1791103293463243000,5.850242919921875,0.013591956347227097,0.030062595382332802,-0.01130745466798544
1791103293473215000,5.860215087890625,0.12046881765127182,0.014940599910914898,-0.042826175689697266
1791103293483188000,5.87018798828125,0.06835129112005234,-0.0055175363086164,0.07907868921756744
1791103293493160000,5.880159912109375,0.05850129574537277,0.0005191671662032604,0.02565370872616768
1791103293503133200,5.89013330078125,0.07201763987541199,0.023986410349607468,0.033742260187864304
1791103293513105000,5.90010498046875,0.06879131495952606,0.05886633321642876,0.07486241310834885
1791103293523078000,5.910077880859375,0.09277600795030594,0.02681598626077175,0.013090125285089016
1791103293533050000,5.920050048828125,0.08021355420351028,0.060194626450538635,0.01568526029586792
1791103293543022800,5.93002294921875,0.11954471468925476,0.08658228814601898,-0.01826418563723564
1791103293552995000,5.9399951171875,0.08137926459312439,0.08861847221851349,0.018039962276816368
1791103293562968000,5.949968017578125,0.08908965438604355,0.07026023417711258,-0.046480439603328705
1791103293572939800,5.959939697265625,0.11328388005495071,0.09882298856973648,-0.03531339764595032
1791103293582913000,5.9699130859375,0.10362512618303299,0.10748039186000824,-0.0020233539398759604
1791103293592885000,5.979885009765625,0.1388106346130371,0.074034184217453,0.023130634799599648
1791103293602858000,5.98985791015625,0.1304464489221573,0.08256667852401733,-0.006586780771613121
1791103293612830000,5.999829833984375,0.11423807591199875,0.11313242465257645,-0.01732553541660309
1791103293622803000,6.009802978515625,0.13027030229568481,0.12794439494609833,0.032572779804468155
1791103293632775200,6.019775146484375,0.18702450394630432,0.13318966329097748,0.016913559287786484
1791103293642748000,6.029747802734375,0.21491844952106476,0.17918165028095245,-0.008621360175311565
1791103293652719900,6.039719970703125,0.19664081931114197,0.2028571367263794,-0.041351404041051865
1791103293662693000,6.049693115234375,0.16181200742721558,0.2121315896511078,-0.0014434028416872025
1791103293672664800,6.059664794921875,0.24931222200393677,0.219567209482193,-0.013601581566035748
1791103293682637800,6.069637939453125,0.22973346710205078,0.212502121925354,0.050769682973623276
1791103293692610000,6.079610107421875,0.13628052175045013,0.17073911428451538,0.06521762907505035
1791103293702583000,6.0895830078125,0.14146488904953003,0.16652464866638184,0.030740346759557724
1791103293712555000,6.099554931640625,0.1498941034078598,0.1809646040201187,0.06484659761190414
1791103293722528000,6.109528076171875,0.16822704672813416,0.1841050088405609,0.025493329390883446
1791103293732500000,6.1195,0.19957335293293,0.18524955213069916,0.006337188184261322
1791103293742473000,6.129472900390625,0.17841507494449615,0.19462360441684723,-0.011915052309632301
1791103293752445000,6.13944482421875,0.1433161348104477,0.175054132938385,-0.02717350423336029
1791103293762418000,6.14941796875,0.2164665162563324,0.2051158994436264,-0.031644418835639954
1791103293772390000,6.159389892578125,0.23046183586120605,0.19316542148590088,0.03318076208233833
1791103293782363000,6.16936279296875,0.15855756402015686,0.1646304577589035,0.010288228280842304
1791103293792335000,6.179335205078125,0.09942647814750671,0.14577282965183258,0.07465674728155136
1791103293802307800,6.189307861328125,0.08813653886318207,0.16671326756477356,0.027026114985346794
1791103293812280800,6.19928076171875,0.09106841683387756,0.12079183757305145,0.07783257216215134
1791103293822253000,6.209253173828125,0.15489666163921356,0.10032597929239273,0.05858483910560608
1791103293832226000,6.21922607421875,0.13892033696174622,0.15287335216999054,0.08306442946195602
1791103293842198000,6.229197998046875,0.1291918158531189,0.1627826988697052,0.09115484356880188
1791103293852171000,6.2391708984375,0.15283535420894623,0.17006352543830872,0.025665583088994026
1791103293862143000,6.24914306640625,0.1492641419172287,0.2191362828016281,0.02576844021677971
1791103293872116000,6.259115966796875,0.1690010130405426,0.22310101985931396,-0.018383359536528587
1791103293882088000,6.269087890625,0.19300435483455658,0.25026896595954895,0.003283054567873478
1791103293892061000,6.27906103515625,0.20514343678951263,0.25620537996292114,0.07691740244626999
1791103293902033000,6.289032958984375,0.18972691893577576,0.2947341501712799,0.04267793521285057
1791103293912005000,6.299005126953125,0.18246057629585266,0.26886969804763794,0.0795254111289978
1791103293921977000,6.30897705078125,0.12419860064983368,0.2913494408130646,0.09978700429201126
1791103293931950000,6.3189501953125,0.16279076039791107,0.2640190124511719,0.10993596911430359
1791103293941922300,6.32892236328125,0.1478424370288849,0.2837173640727997,0.12268531322479248
1791103293951895300,6.338895263671875,0.16172027587890625,0.27315813302993774,0.08897855877876282
1791103293961867000,6.348866943359375,0.091727614402771,0.28936851024627686,0.09863011538982391
1791103293971840300,6.35884033203125,0.12921248376369476,0.2927235960960388,0.0381292849779129
1791103293981812200,6.368812255859375,0.08358214795589447,0.33943676948547363,0.05761430412530899
1791103293991785000,6.378784912109375,0.07482263445854187,0.3238830268383026,0.015198781155049801
1791103294001757200,6.388757080078125,0.09532604366540909,0.32921868562698364,0.012851737439632416
1791103294011730200,6.398730224609375,0.10013646632432938,0.27718544006347656,0.05937214568257332
1791103294021702100,6.4087021484375,0.049040790647268295,0.27211931347846985,0.07202722132205963
1791103294031675100,6.418675048828125,0.018110141158103943,0.271570086479187,0.04190676659345627
1791103294041647000,6.428647216796875,0.026848241686820984,0.2392832338809967,0.11973365396261215
1791103294051620400,6.438620361328125,0.0005370583385229111,0.2758622467517853,0.027035612612962723
1791103294061592000,6.448592041015625,-0.060392338782548904,0.2606702446937561,-0.0028176242485642433
1791103294071565000,6.45856494140625,0.008582258597016335,0.2621998190879822,-0.0064017511904239655
1791103294081537000,6.468537109375,0.012122131884098053,0.33587774634361267,0.011826787143945694
1791103294091510000,6.478510009765625,-0.006738482043147087,0.2731437385082245,-0.03534035012125969
1791103294101482200,6.488482177734375,-0.020161613821983337,0.29073578119277954,-0.054146792739629745
1791103294111455200,6.498455322265625,-0.05818008631467819,0.2850424647331238,0.03313343971967697
1791103294121427000,6.508427001953125,-0.09775705635547638,0.21195387840270996,0.040443286299705505
1791103294131400200,6.518400146484375,-0.13697263598442078,0.18354672193527222,0.05690322071313858
1791103294141372200,6.5283720703125,-0.1664799302816391,0.18958252668380737,0.05988569185137749
1791103294151345000,6.538344970703125,-0.18676576018333435,0.15694627165794373,0.08108579367399216
1791103294161317000,6.548317138671875,-0.13635878264904022,0.1751982569694519,0.033707886934280396
1791103294171290000,6.5582900390625,-0.14598900079727173,0.17491212487220764,0.017943410202860832
1791103294181262000,6.568261962890625,-0.17139077186584473,0.17286814749240875,0.014334559440612793
1791103294191235000,6.578235107421875,-0.14793792366981506,0.15263186395168304,0.027305636554956436
1791103294201207000,6.58820703125,-0.22359274327754974,0.1461113691329956,-0.0016969861462712288
1791103294211180300,6.59818017578125,-0.3102053105831146,0.0942559689283371,0.03790730610489845
1791103294221152000,6.608152099609375,-0.32281404733657837,0.09113927185535431,0.042680222541093826
1791103294231125000,6.618125,-0.33971238136291504,0.0473247654736042,0.10399386286735535
1791103294241097200,6.62809716796875,-0.3899310827255249,0.0285329669713974,0.06773758679628372
1791103294251070000,6.638070068359375,-0.3986218273639679,-0.00806274451315403,0.026214007288217545
1791103294261043000,6.64804296875,-0.3493248522281647,0.007536455523222685,0.0009344833088107407
1791103294271015200,6.65801513671875,-0.34271612763404846,-0.019773978739976883,0.041292086243629456
1791103294280988200,6.66798828125,-0.32976463437080383,-0.054085079580545425,-0.0007208772585727274
1791103294290960100,6.677960205078125,-0.3680565059185028,-0.041321828961372375,-0.03712441772222519
1791103294300933000,6.68793310546875,-0.45562443137168884,-0.0647515207529068,-0.03141966089606285
1791103294310905300,6.6979052734375,-0.42139655351638794,-0.12855933606624603,-0.03061048313975334
1791103294320878000,6.707878173828125,-0.38662126660346985,-0.14758309721946716,0.037107840180397034
1791103294330850000,6.71785009765625,-0.4657442271709442,-0.1571231484413147,0.03283911198377609
1791103294340823300,6.7278232421875,-0.5103558897972107,-0.21438351273536682,0.04998401179909706
1791103294350795000,6.737794921875,-0.4585321545600891,-0.18055857717990875,0.07884366810321808
1791103294360768000,6.74776806640625,-0.3951132297515869,-0.1776416152715683,0.024592148140072823
1791103294370740200,6.757740234375,-0.4405374228954315,-0.17921847105026245,0.053301021456718445
1791103294380713200,6.767713134765625,-0.35720258951187134,-0.15356850624084473,-0.05983218923211098
1791103294390685200,6.777685302734375,-0.3312135934829712,-0.10146546363830566,-0.01675119251012802
1791103294400658200,6.787658203125,-0.377399206161499,-0.09167221933603287,-0.07540012151002884
1791103294410630100,6.797630126953125,-0.2876625955104828,-0.12996017932891846,0.009436680004000664
1791103294420603100,6.80760302734375,-0.3438132107257843,-0.12638169527053833,0.017333487048745155
1791103294430575000,6.8175751953125,-0.3868037462234497,-0.16758860647678375,-0.08022292703390121
1791103294440548000,6.827548095703125,-0.4167003929615021,-0.19399091601371765,0.11961162835359573
1791103294450520000,6.83752001953125,-0.3133015036582947,-0.1482442021369934,0.01563149504363537
1791103294460493000,6.8474931640625,-0.3125813603401184,-0.15645845234394073,0.08431575447320938
1791103294470465300,6.85746533203125,-0.29522258043289185,-0.1747369021177292,0.04760958254337311
1791103294480438300,6.867438232421875,-0.24809955060482025,-0.13571307063102722,-0.056456368416547775
1791103294490410000,6.877409912109375,-0.20437663793563843,-0.15924479067325592,-0.006152127869427204
1791103294500383200,6.88738330078125,-0.22796504199504852,-0.12474353611469269,-0.053535621613264084
1791103294510355200,6.897355224609375,-0.19944022595882416,-0.10490500181913376,-0.07441278547048569
1791103294520328000,6.907327880859375,-0.17183496057987213,-0.07961535453796387,-0.04425354674458504
1791103294530300200,6.917300048828125,-0.15982595086097717,-0.1004236489534378,-0.06804613769054413
1791103294540273200,6.927273193359375,-0.11039740592241287,-0.12759481370449066,-0.02363845333456993
1791103294550245000,6.9372451171875,-0.14351773262023926,-0.11763884127140045,0.012335587292909622
1791103294560218000,6.947218017578125,-0.15563884377479553,-0.14782683551311493,0.03150608390569687
1791103294570190000,6.957190185546875,-0.12144347280263901,-0.14271323382854462,0.08427837491035461
1791103294580163300,6.967163330078125,-0.06548088043928146,-0.13631126284599304,0.05041947588324547
1791103294590135000,6.977135009765625,-0.09001661837100983,-0.13116341829299927,0.06822774559259415
1791103294600108000,6.98710791015625,-0.04538949951529503,-0.1348510980606079,0.05857618898153305
1791103294610080300,6.997080322265625,-0.013271907344460487,-0.07493401318788528,0.012840652838349342
1791103294620053000,7.007052978515625,-0.005668848752975464,-0.07291826605796814,-0.021995626389980316
1791103294630025200,7.017025146484375,-0.022489216178655624,-0.06062810868024826,0.006909370422363281
1791103294639998200,7.026998291015625,0.051818571984767914,-0.06013675779104233,-0.03493794426321983
1791103294649970200,7.03697021484375,0.001693923957645893,-0.051874421536922455,-0.06404998898506165
1791103294659943200,7.046943115234375,-0.015580936335027218,-0.08699645847082138,0.017842208966612816
1791103294669915100,7.0569150390625,0.036605607718229294,-0.07396387308835983,0.00922105461359024
1791103294679888100,7.06688818359375,0.040411531925201416,-0.0714690238237381,0.03106589801609516
1791103294689860000,7.076860107421875,0.0005754996091127396,-0.08714223653078079,0.05026848986744881
1791103294699833000,7.0868330078125,0.06417658179998398,-0.08381621539592743,0.0681271180510521
1791103294709805000,7.09680517578125,0.08158409595489502,-0.021992739289999008,0.05244598910212517
1791103294719778000,7.106778076171875,0.08295509219169617,0.01018330454826355,0.04611778259277344
1791103294729750300,7.116750244140625,0.1258382648229599,0.0036777700297534466,0.016446029767394066
1791103294739723300,7.12672314453125,0.1538373976945877,0.06376960128545761,-0.02631448395550251
1791103294749695000,7.136695068359375,0.19183683395385742,0.05445889011025429,0.03295591101050377
1791103294759668200,7.146668212890625,0.22613675892353058,0.07654448598623276,0.009940871968865395
1791103294769640200,7.15664013671875,0.191386416554451,0.09151579439640045,0.03380061686038971
1791103294779613000,7.166613037109375,0.14085505902767181,0.09433022141456604,0.03820202127099037
1791103294789585200,7.176585205078125,0.18060551583766937,0.1089242473244667,0.02855195663869381
1791103294799558100,7.18655810546875,0.18755050003528595,0.1303243488073349,-0.006798311602324247
1791103294809530000,7.196530029296875,0.23495033383369446,0.10294871777296066,-0.0928802341222763
1791103294819503000,7.206503173828125,0.16841845214366913,0.14540056884288788,-0.048233672976493835
1791103294829475000,7.21647509765625,0.1421467661857605,0.1634957492351532,0.008355578407645226
1791103294839448300,7.2264482421875,0.09960782527923584,0.17273664474487305,0.00964774377644062
1791103294849420000,7.236419921875,0.10978230834007263,0.15901917219161987,0.013970771804451942
1791103294859393000,7.24639306640625,0.11649347841739655,0.12196021527051926,-0.0041222115978598595
1791103294869366300,7.2563662109375,0.022452078759670258,0.0988021045923233,0.02554132789373398
1791103294879338000,7.266337890625,-0.026316525414586067,0.040896736085414886,0.10769691318273544
1791103294889310200,7.276310302734375,-0.015191702172160149,0.0425574816763401,0.041774358600378036
1791103294899283200,7.286283203125,-0.01621888391673565,0.009394202381372452,0.08431675285100937
1791103294909256200,7.296256103515625,0.007831096649169922,0.020840875804424286,0.013027429580688477
1791103294919228400,7.306228515625,-0.02100853994488716,0.06178325042128563,0.09667865186929703
1791103294929200000,7.3162001953125,-0.04784382879734039,0.04632789269089699,-0.004590766970068216
1791103294939173000,7.326173095703125,-0.03806150704622269,0.03769445791840553,0.012854003347456455
1791103294949146400,7.336146484375,-0.025924932211637497,0.06159009784460068,-0.036912575364112854
1791103294959118300,7.346118408203125,-0.096761554479599,0.033819716423749924,0.015188978053629398
1791103294969091000,7.356091064453125,-0.12326425313949585,-0.009637321345508099,0.059577926993370056
1791103294979063300,7.366063232421875,-0.06359533965587616,0.015516767278313637,-0.032488349825143814
1791103294989036300,7.376036376953125,-0.08757974207401276,-0.02479497715830803,0.06418831646442413
1791103294999008300,7.38600830078125,-0.06350956857204437,-0.03563591092824936,-0.06044336035847664
1791103295008981200,7.395981201171875,-0.09504202008247375,0.014364602044224739,0.10865914821624756
1791103295018953200,7.405953125,-0.15591123700141907,0.007150630932301283,0.05771687254309654
1791103295028926200,7.41592626953125,-0.09798476099967957,-0.02399473823606968,0.0825505256652832
1791103295038898200,7.425898193359375,-0.06194552779197693,-0.00023721111938357353,-0.002022414468228817
1791103295048871200,7.43587109375,-0.06746271997690201,0.028539493680000305,0.0011148396879434586
1791103295058843100,7.445843017578125,-0.08740554004907608,0.043458521366119385,0.004209699109196663
1791103295068816100,7.455816162109375,-0.1044507622718811,0.058116309344768524,-0.04090552031993866
1791103295078788400,7.465788330078125,-0.10153380036354065,0.07096420228481293,-0.024621622636914253
1791103295088761300,7.47576123046875,-0.08676577359437943,0.07870947569608688,-0.030638502910733223
1791103295098733300,7.4857333984375,-0.11431191116571426,0.05393461510539055,-0.0018689059652388096
1791103295108706300,7.495706298828125,-0.1356050968170166,0.05229576304554939,-0.11242196708917618
1791103295118678300,7.50567822265625,-0.08201190829277039,0.05383054539561272,-0.012389376759529114
1791103295128651300,7.5156513671875,-0.07008468359708786,0.07827996462583542,-0.07699492573738098
1791103295138623200,7.525623291015625,-0.10993409156799316,0.038850270211696625,-0.041332002729177475
1791103295148596200,7.53559619140625,-0.123284712433815,0.003496723249554634,-0.023224854841828346
1791103295158568200,7.545568115234375,-0.09231560677289963,0.06040447950363159,-0.073429174721241
1791103295168541200,7.555541259765625,-0.12097743153572083,0.041684139519929886,-0.1356385350227356
1791103295178513400,7.565513427734375,-0.11954571306705475,-0.005614932626485825,-0.08010868728160858
1791103295188486400,7.575486328125,-0.1307218223810196,0.02792685106396675,-0.04180509224534035
1791103295198458000,7.5854580078125,-0.169490784406662,-0.02021777629852295,0.02755720540881157
1791103295208431400,7.595431396484375,-0.2305988073348999,-0.07226419448852539,-0.02433636784553528
1791103295218403300,7.6054033203125,-0.27823635935783386,-0.09746541827917099,0.02144416980445385
1791103295228376000,7.6153759765625,-0.30418896675109863,-0.1614336371421814,0.07571929693222046
1791103295238348300,7.625348388671875,-0.29963603615760803,-0.16142885386943817,-0.036032792180776596
1791103295248321300,7.6353212890625,-0.21608783304691315,-0.10654745250940323,-0.08281846344470978
1791103295258293200,7.645293212890625,-0.28681233525276184,-0.1058739423751831,-0.017109759151935577
1791103295268266200,7.655266357421875,-0.2251255065202713,-0.13178448379039764,-0.006953231990337372
1791103295278238200,7.66523828125,-0.19112704694271088,-0.04007561132311821,-0.08321364969015121
1791103295288211500,7.67521142578125,-0.19082504510879517,-0.040113694965839386,-0.03286499157547951
1791103295298183200,7.68518310546875,-0.1778155118227005,-0.053945887833833694,0.0060645658522844315
1791103295308156200,7.69515625,-0.22002743184566498,-0.02089301496744156,0.01190290879458189
1791103295318128400,7.70512841796875,-0.17416752874851227,-0.013730442151427269,0.03480422869324684
1791103295328101000,7.71510107421875,-0.1497664898633957,-0.04902098700404167,0.09696628898382187
1791103295338073300,7.7250732421875,-0.15854986011981964,-0.0438573844730854,0.11912938207387924
1791103295348046300,7.73504638671875,-0.12552686035633087,-0.0004961946979165077,0.04229394719004631
1791103295358018000,7.74501806640625,-0.15642964839935303,-0.010933389887213707,0.058384235948324203
1791103295367991300,7.7549912109375,-0.12709899246692657,-0.043023284524679184,0.006670218426734209
1791103295377963300,7.76496337890625,-0.1571895182132721,-0.0030380499083548784,-0.0012734581250697374
1791103295387936300,7.774936279296875,-0.21076425909996033,-0.04880593344569206,0.017287131398916245
1791103295397908200,7.784908203125,-0.2595112919807434,-0.09507276862859726,0.006000921130180359
1791103295407881200,7.794881103515625,-0.26521405577659607,-0.08608029037714005,-0.04863062500953674
1791103295417853400,7.804853515625,-0.2706005573272705,-0.10648489743471146,0.0021563866175711155
1791103295427826200,7.814826171875,-0.31277430057525635,-0.15744812786579132,-0.02211029641330242
1791103295437798100,7.824798095703125,-0.3250780999660492,-0.1645238846540451,-0.01595919393002987
1791103295447771400,7.834771484375,-0.3060344457626343,-0.1977406144142151,0.07853762805461884
1791103295457743000,7.8447431640625,-0.3163323402404785,-0.15581554174423218,-0.063230961561203
1791103295467716000,7.854716064453125,-0.30676448345184326,-0.20154736936092377,0.04703415557742119
1791103295477688300,7.864688232421875,-0.35006988048553467,-0.14562444388866425,0.023913126438856125
1791103295487661300,7.874661376953125,-0.3359648585319519,-0.11732698976993561,0.057900507003068924
1791103295497633300,7.88463330078125,-0.2306986004114151,-0.10557392984628677,0.044679246842861176
1791103295507606300,7.894606201171875,-0.19674812257289886,-0.08440326154232025,-0.05671257898211479
1791103295517578200,7.904578125,-0.23564065992832184,-0.06958756595849991,-0.01589084602892399
1791103295527551200,7.91455126953125,-0.24858620762825012,-0.07472195476293564,0.006177222356200218
1791103295537523200,7.924523193359375,-0.193770632147789,-0.08049435913562775,-0.032904401421546936
1791103295547496200,7.93449609375,-0.22260387241840363,-0.08682320266962051,-0.023904066532850266
1791103295557468200,7.94446826171875,-0.26165327429771423,-0.08883228898048401,0.0029299447778612375
1791103295567441200,7.954441162109375,-0.18926723301410675,-0.11142377555370331,-0.012018293142318726
1791103295577413400,7.964413330078125,-0.22020064294338226,-0.1313231885433197,-0.033916931599378586
1791103295587386400,7.974386474609375,-0.29010558128356934,-0.17254023253917694,-0.05412669852375984
1791103295597358300,7.9843583984375,-0.30206769704818726,-0.1944258213043213,0.013963938690721989
1791103295607331300,7.994331298828125,-0.30207714438438416,-0.21240125596523285,-0.003903641365468502
1791103295617303000,8.004302978515625,-0.3593401610851288,-0.24153463542461395,-0.0006418016273528337
1791103295627276300,8.0142763671875,-0.38506272435188293,-0.28492891788482666,-0.020964760333299637
1791103295637248300,8.024248291015626,-0.3670560419559479,-0.2934257388114929,0.06413495540618896
1791103295647221200,8.03422119140625,-0.3368026912212372,-0.2780596613883972,-0.002146889688447118
1791103295657193200,8.044193115234375,-0.3847734034061432,-0.31584325432777405,0.08170966058969498
1791103295667166200,8.054166259765625,-0.3501196503639221,-0.3516267240047455,0.02745702490210533
1791103295677138400,8.064138427734376,-0.35372263193130493,-0.2908611297607422,-0.10827098041772842
1791103295687111200,8.074111083984375,-0.3334677517414093,-0.33148881793022156,0.0649341344833374
1791103295697083100,8.084083251953125,-0.29090216755867004,-0.24357949197292328,0.09533464908599854
1791103295707056400,8.094056396484374,-0.2317296713590622,-0.2728880047798157,-0.01083864364773035
1791103295717028000,8.104028076171875,-0.2831132411956787,-0.22939594089984894,-0.024387208744883537
1791103295727001000,8.1140009765625,-0.23056408762931824,-0.22074280679225922,0.015733327716588974
1791103295736973300,8.123973388671875,-0.24012963473796844,-0.22653678059577942,0.04854746535420418
1791103295746946300,8.1339462890625,-0.2615048885345459,-0.24857719242572784,-0.0001663771108724177
1791103295756918300,8.143918212890625,-0.21182972192764282,-0.21858760714530945,-0.02262161858379841
1791103295766891300,8.153891357421875,-0.207427978515625,-0.24778343737125397,0.08811462670564651
1791103295776863200,8.16386328125,-0.20438185334205627,-0.28509485721588135,0.06373658776283264
1791103295786836200,8.173836181640626,-0.1899796724319458,-0.2446628212928772,-0.051717255264520645
1791103295796808200,8.18380810546875,-0.23238810896873474,-0.29345622658729553,0.05049087107181549
1791103295806781200,8.19378125,-0.28012391924858093,-0.2613295316696167,-0.019743163138628006
1791103295816753200,8.203753173828124,-0.2309156358242035,-0.26235058903694153,-0.05546840280294418
1791103295826726100,8.21372607421875,-0.19701994955539703,-0.30097267031669617,-0.005776984617114067
1791103295836698400,8.223698486328125,-0.2325475811958313,-0.32416239380836487,0.022591272369027138
1791103295846671400,8.23367138671875,-0.2527284324169159,-0.33827048540115356,0.023743491619825363
1791103295856643000,8.24364306640625,-0.29736006259918213,-0.3966941237449646,0.056014880537986755
1791103295866616300,8.2536162109375,-0.3063344657421112,-0.4145583510398865,0.05231861770153046
1791103295876588300,8.26358837890625,-0.2948647737503052,-0.4223073422908783,0.09660405665636063
1791103295886561300,8.273561279296874,-0.27286234498023987,-0.3946123421192169,0.05663501098752022
1791103295896533200,8.283533203125,-0.2579483687877655,-0.38581886887550354,0.04336607828736305
1791103295906506200,8.29350634765625,-0.19456112384796143,-0.3814089596271515,-0.0020494931377470493
1791103295916478200,8.303478271484375,-0.1442103385925293,-0.3835964798927307,-0.06806632876396179
1791103295926451200,8.313451171875,-0.1901567280292511,-0.38677626848220825,0.016259685158729553
1791103295936423400,8.32342333984375,-0.24596458673477173,-0.3695272207260132,0.004194765351712704
1791103295946396200,8.333396240234375,-0.23031330108642578,-0.37548694014549255,-0.0015032992232590914
1791103295956368100,8.3433681640625,-0.16415053606033325,-0.36652672290802,0.07226892560720444
1791103295966341400,8.35334130859375,-0.15906210243701935,-0.35517793893814087,0.021550370380282402
1791103295976313000,8.36331298828125,-0.1683831661939621,-0.38319411873817444,0.027044204995036125
1791103295986286000,8.3732861328125,-0.1325661838054657,-0.3248008191585541,0.002894323319196701
1791103295996258300,8.38325830078125,-0.07531753927469254,-0.3259044289588928,0.03911411389708519
1791103296006231300,8.393231201171876,-0.010093887336552143,-0.3237476944923401,0.026253733783960342
1791103296016203300,8.403203369140625,0.010664921253919601,-0.2604006826877594,-0.03181303292512894
1791103296026176300,8.41317626953125,-0.07064618915319443,-0.2764451503753662,0.07090622931718826
1791103296036148200,8.423148193359374,-0.039888542145490646,-0.28408923745155334,-0.003479585750028491
1791103296046121200,8.433121337890626,0.08235850185155869,-0.27533504366874695,-0.04313807934522629
1791103296056093200,8.44309326171875,0.07656239718198776,-0.2651228904724121,-0.0059006959199905396
1791103296066066200,8.453066162109375,0.036711111664772034,-0.29359063506126404,0.08942024409770966
1791103296076038100,8.4630380859375,0.05921030044555664,-0.27031409740448,-0.006896175444126129
1791103296086011100,8.47301123046875,0.09525614976882935,-0.25416749715805054,0.027996456250548363
1791103296095983400,8.4829833984375,0.13877034187316895,-0.2383890450000763,0.05344269052147865
1791103296105956400,8.492956298828124,0.14699022471904755,-0.2076568305492401,0.024294957518577576
1791103296115928000,8.502927978515626,0.15924662351608276,-0.1886463761329651,0.04051201045513153
1791103296125901300,8.5129013671875,0.17539168894290924,-0.1812586933374405,-0.012119749560952187
1791103296135873300,8.522873291015625,0.2205176204442978,-0.18818876147270203,0.08340730518102646
1791103296145846000,8.532845947265624,0.2415558397769928,-0.1609714776277542,-0.008915755897760391
1791103296155818200,8.542818359375,0.20343908667564392,-0.1549854874610901,0.003924142569303513
1791103296165791200,8.552791259765625,0.20344455540180206,-0.13735170662403107,0.03507532179355621
1791103296175763200,8.56276318359375,0.22140145301818848,-0.1386989951133728,0.11064811795949936
1791103296185736200,8.572736083984376,0.26643380522727966,-0.16298522055149078,0.06677272170782089
1791103296195708200,8.582708251953125,0.22660355269908905,-0.14087459444999695,0.08974621444940567
1791103296205681400,8.592681396484375,0.22539113461971283,-0.1395173817873001,0.07355727255344391
1791103296215653000,8.602653076171874,0.25083523988723755,-0.13697566092014313,0.15298739075660706
1791103296225626000,8.612626220703126,0.33761900663375854,-0.08839337527751923,0.07677687704563141
1791103296235598300,8.622598388671875,0.32870620489120483,-0.07931306213140488,0.10894253849983215
1791103296245571000,8.632571044921875,0.316070556640625,-0.09529951959848404,0.08669453859329224
1791103296255543300,8.642543212890626,0.2973463833332062,-0.05124204605817795,0.012963861227035522
1791103296265516300,8.652516357421876,0.29083406925201416,-0.024470552802085876,-0.08400069922208786
1791103296275488300,8.66248828125,0.31584861874580383,0.004455638583749533,-0.023023102432489395
1791103296285461200,8.672461181640625,0.38851022720336914,0.054705049842596054,-0.08623214066028595
1791103296295433200,8.68243310546875,0.3796035349369049,0.06618940830230713,-0.039090726524591446
1791103296305406200,8.69240625,0.3863612413406372,0.06607257574796677,-0.04701121151447296
1791103296315378200,8.702378173828125,0.3595392107963562,0.055844709277153015,0.04452589526772499
1791103296325351200,8.71235107421875,0.25239297747612,0.0030632284469902515,0.0227083470672369
1791103296335323100,8.7223232421875,0.26189514994621277,-0.03579335659742355,0.09851895272731781
1791103296345296100,8.732296142578125,0.25612279772758484,-0.033920057117938995,0.12295526266098022
1791103296355268400,8.742268310546875,0.2763758599758148,-0.010363863781094551,-0.002639675047248602
1791103296365241300,8.752241455078124,0.26124462485313416,0.024111853912472725,0.005532445851713419
1791103296375213000,8.762213134765625,0.2645410895347595,0.06635811179876328,-0.027891291305422783
1791103296385186300,8.772186279296875,0.3126148283481598,0.040146566927433014,-0.02914542518556118
1791103296395158300,8.782158203125,0.28212055563926697,0.05752742290496826,-0.053851835429668427
1791103296405131000,8.792131103515626,0.17509208619594574,0.023304734379053116,-0.0445462167263031
1791103296415103200,8.802103271484375,0.10046118497848511,0.028083061799407005,-0.07509352266788483
1791103296425075200,8.8120751953125,0.10419511795043945,-0.05735079199075699,0.05522528290748596
1791103296435048200,8.822048095703124,0.14284823834896088,-0.010719111189246178,-0.08282659202814102
1791103296445020200,8.832020263671875,0.09233814477920532,-0.02297218330204487,0.06393253058195114
1791103296454993200,8.8419931640625,0.12246089428663254,0.021115915849804878,-0.013135886751115322
1791103296464965000,8.851965087890624,0.1282413899898529,-0.012295238673686981,0.04330890625715256
1791103296474938000,8.861938232421876,0.11975070834159851,0.04471451789140701,-0.016780532896518707
1791103296484910300,8.871910400390625,0.10256299376487732,0.005202820058912039,-0.06571704894304276
1791103296494883300,8.88188330078125,0.12259742617607117,-0.0024902531877160072,0.0074293352663517
1791103296504855000,8.89185498046875,0.17956221103668213,0.08453613519668579,-0.06820707768201828
1791103296514828300,8.901828369140626,0.13075818121433258,0.051384568214416504,0.0010833186097443104
1791103296524800300,8.91180029296875,0.10613027960062027,0.02824406698346138,-0.05109807103872299
1791103296534773000,8.92177294921875,0.058316420763731,0.035307303071022034,0.010544519871473312
1791103296544745200,8.9317451171875,0.016127239912748337,0.005905920173972845,-0.0037448867224156857
1791103296554718200,8.94171826171875,-0.044237833470106125,-0.017177827656269073,0.06216621398925781
1791103296564690200,8.951690185546875,0.023960579186677933,0.015319745056331158,0.014646054245531559
1791103296574663200,8.9616630859375,0.06601721793413162,0.019256431609392166,0.01377733051776886
1791103296584635100,8.97163525390625,0.06257167458534241,0.0404251292347908,0.04812566190958023
1791103296594608400,8.9816083984375,0.14700773358345032,0.1120724156498909,-0.07748419791460037
1791103296604580000,8.991580078125,0.044478993862867355,0.1437961459159851,-0.09751832485198975
1791103296614553000,9.001552978515624,-0.0021199332550168037,0.07820913940668106,-0.08682733029127121
1791103296624525300,9.011525390625,-0.07580523192882538,0.04491329938173294,-0.04817138984799385
1791103296634498000,9.021498046875,-0.034854065626859665,0.04533407837152481,-0.08982642740011215
1791103296644470300,9.03147021484375,-0.09686251729726791,-0.00366219412535429,0.05928390473127365
1791103296654443300,9.041443359375,-0.20556983351707458,-0.020507486537098885,0.04218108206987381
1791103296664415200,9.051415283203125,-0.1468302458524704,-0.06369074434041977,-0.018498074263334274
1791103296674388200,9.06138818359375,-0.10764715820550919,-0.01584705337882042,0.0030077488627284765
1791103296684360200,9.071360107421874,-0.039813701063394547,-0.014911303296685219,0.12140315026044846
1791103296694333400,9.08133349609375,0.02065310627222061,0.0455392561852932,-0.11163942515850067
1791103296704305200,9.09130517578125,-0.05519016459584236,0.04551200196146965,-0.029151493683457375
1791103296714278100,9.101278076171875,0.0131116583943367,0.060521047562360764,-0.03852688521146774
1791103296724250400,9.11125048828125,-0.022639717906713486,0.1050950288772583,-0.08000858128070831
1791103296734223000,9.12122314453125,-0.02314065769314766,0.07129552215337753,-0.058407414704561234
1791103296744195300,9.1311953125,-0.07363176345825195,0.0870719626545906,-0.09531160444021225
1791103296754168300,9.141168212890625,-0.05753161385655403,0.094559445977211,-0.11810266971588135
1791103296764140000,9.15114013671875,-0.09972788393497467,0.06596648693084717,-0.06304540485143661
1791103296774113300,9.16111328125,-0.053256791085004807,0.0886925756931305,-0.1550443023443222
1791103296784085200,9.171085205078125,-0.01751827448606491,0.05708151310682297,-0.03967159241437912
1791103296794058200,9.181058349609375,-0.07656241953372955,0.028444012627005577,-0.09312283992767334
1791103296804030200,9.1910302734375,-0.10136635601520538,0.051311202347278595,-0.10636355727910995
1791103296814003200,9.201003173828125,-0.11689046025276184,0.044454362243413925,-0.0549328587949276
1791103296823975400,9.210975341796875,-0.13196846842765808,0.010088666342198849,-0.014490360394120216
1791103296833948200,9.2209482421875,-0.14116810262203217,-0.008129485882818699,-0.0077690742909908295
1791103296843920100,9.230920166015625,-0.1114349439740181,0.03378749638795853,-0.028516782447695732
1791103296853893400,9.240893310546875,-0.15032987296581268,0.009018764831125736,0.04664667695760727
1791103296863865000,9.250864990234374,-0.17457321286201477,0.0373116061091423,-0.08008712530136108
1791103296873838000,9.260838134765624,-0.10726074874401093,0.021061265841126442,-0.05250237137079239
1791103296883810300,9.270810302734375,-0.07844004034996033,0.09670864045619965,-0.041332315653562546
1791103296893783000,9.280782958984375,-0.1193014532327652,0.059585243463516235,-0.05704762786626816
1791103296903755300,9.29075537109375,-0.15453003346920013,0.09197498112916946,-0.13491703569889069
1791103296913728000,9.30072802734375,-0.19297489523887634,0.05304969102144241,-0.11211904883384705
1791103296923700000,9.310699951171875,-0.1670876294374466,0.05061998590826988,-0.11324398219585419
1791103296933673200,9.320673095703125,-0.16387265920639038,0.038298074156045914,-0.04069174826145172
1791103296943645000,9.33064501953125,-0.22306260466575623,-0.010645192116498947,-0.06293773651123047
1791103296953618200,9.3406181640625,-0.2480664998292923,-0.0202831719070673,-0.009699283167719841
1791103296963590100,9.350590087890625,-0.2865678071975708,-0.03932077810168266,0.0016255432274192572
1791103296973563100,9.360563232421875,-0.28490760922431946,-0.07773447781801224,0.05691010504961014
1791103296983535000,9.37053515625,-0.2692040801048279,-0.08366856724023819,0.0475982241332531
1791103296993508000,9.380508056640625,-0.3065010905265808,-0.08320330828428268,0.033506639301776886
1791103297003480300,9.390480224609375,-0.3697128891944885,-0.1274792104959488,0.08901108801364899
1791103297013453000,9.400453125,-0.3101848363876343,-0.10640907287597656,-0.01941126398742199
1791103297023425000,9.410425048828126,-0.3142840564250946,-0.07708358019590378,0.01591007597744465
1791103297033398300,9.420398193359375,-0.3454819321632385,-0.07240946590900421,-0.020778164267539978
1791103297043370000,9.430369873046875,-0.38298267126083374,-0.13919246196746826,0.009647331200540066
1791103297053343000,9.440343017578124,-0.36755335330963135,-0.11901582032442093,-0.12837737798690796
1791103297063315200,9.450315185546875,-0.3444879949092865,-0.1199260726571083,-0.05294353514909744
1791103297073288200,9.4602880859375,-0.32472920417785645,-0.12480392307043076,-0.13001328706741333
1791103297083260200,9.47026025390625,-0.3681897222995758,-0.1354469358921051,-0.039237115532159805
1791103297093233200,9.480233154296876,-0.424811452627182,-0.187678724527359,-0.019737983122467995
1791103297103204900,9.490204833984375,-0.44965970516204834,-0.22468994557857513,0.015880011022090912
1791103297113178000,9.50017822265625,-0.46602562069892883,-0.26327115297317505,0.01718682423233986
1791103297123150000,9.510150146484374,-0.5255587100982666,-0.28743836283683777,0.053369663655757904
1791103297133122000,9.5201220703125,-0.48626378178596497,-0.33636781573295593,0.10110629349946976
1791103297143095000,9.530094970703125,-0.4943647086620331,-0.303572416305542,0.04699089750647545
1791103297153067000,9.54006689453125,-0.469082772731781,-0.31795454025268555,-0.023610038682818413
1791103297163040300,9.550040283203124,-0.4684717059135437,-0.31062719225883484,-0.11311283707618713
1791103297173012000,9.560011962890625,-0.4969949722290039,-0.3291558623313904,-0.04942627251148224
1791103297182985000,9.56998486328125,-0.45410653948783875,-0.3199514150619507,-0.16452430188655853
1791103297192957200,9.579957275390624,-0.5088927745819092,-0.2841028571128845,-0.04898146167397499
1791103297202930000,9.589929931640626,-0.427069753408432,-0.2886604368686676,-0.10227293521165848
1791103297212902100,9.599902099609375,-0.4293411672115326,-0.2726830840110779,0.03313868120312691
1791103297222875100,9.609875244140625,-0.4351238012313843,-0.3212946951389313,0.05332820862531662
1791103297232846800,9.619846923828124,-0.49070608615875244,-0.3801806569099426,0.17640112340450287
1791103297242820000,9.629820068359376,-0.510130763053894,-0.42585793137550354,0.1390499621629715
1791103297252792000,9.6397919921875,-0.4726843535900116,-0.46411874890327454,0.17537973821163177
1791103297262765000,9.64976513671875,-0.48728233575820923,-0.4274807870388031,0.07693065702915192
1791103297272737000,9.659737060546876,-0.3646339178085327,-0.4163290858268738,0.02624724619090557
1791103297282710000,9.6697099609375,-0.31513580679893494,-0.3246294856071472,0.0661478117108345
1791103297292682200,9.67968212890625,-0.30252015590667725,-0.29619917273521423,0.12076312303543091
1791103297302655000,9.689655029296874,-0.2943815290927887,-0.29714807868003845,0.02984066866338253
1791103297312627200,9.699627197265626,-0.26615363359451294,-0.2940593361854553,0.05918657407164574
1791103297322600200,9.70960009765625,-0.26965200901031494,-0.2836443781852722,0.01984187588095665
1791103297332572000,9.719572021484375,-0.33782467246055603,-0.3160132169723511,0.026381267234683037
1791103297342545200,9.729545166015624,-0.28169193863868713,-0.34639063477516174,0.027834802865982056
1791103297352517000,9.73951708984375,-0.22569391131401062,-0.35018429160118103,0.011206023395061493
1791103297362490000,9.749489990234375,-0.2857545018196106,-0.30113935470581055,0.03954442963004112
1791103297372462000,9.759462158203124,-0.2447015792131424,-0.3050067722797394,0.023630976676940918
1791103297382435000,9.76943505859375,-0.17350104451179504,-0.2627277970314026,0.007107921410351992
1791103297392407300,9.7794072265625,-0.12491247057914734,-0.23310521245002747,0.05987313389778137
1791103297402380000,9.789380126953125,-0.0991859883069992,-0.2525116503238678,0.21977995336055756
1791103297412352000,9.79935205078125,-0.06319789588451385,-0.26250889897346497,0.18888941407203674
1791103297422325200,9.8093251953125,-0.11673126369714737,-0.2799905836582184,0.2694624066352844
1791103297432297000,9.819296875,-0.07153607904911041,-0.3294034004211426,0.1615428477525711
1791103297442270000,9.82927001953125,-0.11206849664449692,-0.3620237708091736,0.21262457966804504
1791103297452242200,9.8392421875,-0.11141575872898102,-0.31665468215942383,0.0011996834073215723
1791103297462215200,9.849215087890625,-0.12266381084918976,-0.30035674571990967,-0.00450867647305131
1791103297472187100,9.859187255859375,-0.017451632767915726,-0.27832603454589844,-0.0019041049527004361
1791103297482160000,9.86916015625,-0.06785162538290024,-0.2008644938468933,0.011940473690629005
1791103297492132000,9.879132080078126,-0.008142489939928055,-0.22510644793510437,-0.009774941951036453
1791103297502105000,9.88910498046875,-0.04917068034410477,-0.22586068511009216,0.10623727738857269
1791103297512077000,9.8990771484375,0.009708082303404808,-0.2334190011024475,0.006535718683153391
1791103297522050000,9.909050048828124,-0.08799248933792114,-0.2882032096385956,-0.062014468014240265
1791103297532022000,9.91902197265625,-0.07555845379829407,-0.3007754683494568,0.01383262500166893
1791103297541995000,9.9289951171875,-0.023002421483397484,-0.2474776804447174,-0.057815808802843094
1791103297551967200,9.93896728515625,-0.027542049065232277,-0.2824077010154724,0.0018634991720318794
1791103297561940200,9.948940185546874,-0.0075399912893772125,-0.28972893953323364,-0.04856044799089432
1791103297571912000,9.958911865234375,0.04674908146262169,-0.23766040802001953,0.004936068318784237
1791103297581884200,9.96888427734375,0.018850769847631454,-0.1744816154241562,0.07036391645669937
1791103297591857200,9.978857177734374,0.08934197574853897,-0.21325376629829407,0.04339221492409706
1791103297601829000,9.9888291015625,0.07219644635915756,-0.16814737021923065,0.08552505075931549
1791103297611802000,9.998802001953125,0.09518884867429733,-0.144103541970253,0.08840233087539673
1791103297621774000,10.008774169921875,0.09944795817136765,-0.12563683092594147,0.049558673053979874
1791103297631747000,10.0187470703125,0.126365065574646,-0.12792609632015228,0.010563338175415993
1791103297641719000,10.028718994140625,0.1749441921710968,-0.07818175852298737,0.005000979173928499
1791103297651692000,10.038692138671875,0.12558862566947937,-0.01883747987449169,0.013877827674150467
1791103297661664000,10.0486640625,0.12454740703105927,-0.017944591119885445,0.16154472529888153
1791103297671637000,10.058636962890626,0.18085302412509918,-0.048269741237163544,0.09077387303113937
1791103297681609200,10.068609130859375,0.1454615741968155,-0.036526091396808624,0.13803961873054504
1791103297691582200,10.078582275390625,0.0657595545053482,-0.09316513687372208,0.07591447979211807
1791103297701554200,10.08855419921875,0.030634313821792603,-0.19094868004322052,0.10567857325077057
1791103297711527200,10.098527099609376,-0.014726243913173676,-0.20105430483818054,0.042943019419908524
1791103297721499000,10.108498779296875,-0.1584538370370865,-0.20063354074954987,0.04629852622747421
1791103297731472100,10.11847216796875,-0.06955885887145996,-0.23164445161819458,-0.08708829432725906
1791103297741444000,10.128444091796876,-0.11462463438510895,-0.1723647564649582,-0.06614476442337036
1791103297751417000,10.1384169921875,-0.06914795935153961,-0.17898617684841156,-0.0576532781124115
1791103297761389000,10.14838916015625,-0.1015147715806961,-0.18739503622055054,-0.069658063352108
1791103297771362000,10.158362060546875,-0.004101935774087906,-0.17347176373004913,-0.001991130178794265
1791103297781334300,10.168334228515626,-0.020634986460208893,-0.15371717512607574,-0.030965974554419518
1791103297791307000,10.17830712890625,0.000658850185573101,-0.20757587254047394,0.023034142330288887
1791103297801279000,10.188279052734375,-0.06443241983652115,-0.1906687319278717,0.0024169040843844414
1791103297811252200,10.198252197265624,-0.03315652161836624,-0.2203483283519745,0.07514224201440811
1791103297821224000,10.208223876953125,-0.06168081611394882,-0.21374674141407013,0.026620883494615555
1791103297831197000,10.218197021484375,-0.08010056614875793,-0.261557400226593,0.0938611701130867
1791103297841169200,10.228169189453125,-0.05903845280408859,-0.2743857204914093,0.0019268069881945848
1791103297851142100,10.23814208984375,-0.07986383885145187,-0.29036468267440796,0.06684321910142899
1791103297861114000,10.248114013671875,-0.10113690048456192,-0.26394587755203247,0.01181618869304657
1791103297871087000,10.258087158203125,-0.104454405605793,-0.28405964374542236,-0.03558514639735222
1791103297881059000,10.26805908203125,-0.1014326885342598,-0.24280047416687012,-0.037379346787929535
1791103297891032000,10.278031982421876,-0.07069022208452225,-0.2421589195728302,-0.05562066659331322
1791103297901004000,10.288004150390625,-0.08084341883659363,-0.20953406393527985,-0.08162833005189896
1791103297910977000,10.29797705078125,-0.05665498971939087,-0.19033053517341614,-0.12617796659469604
1791103297920949200,10.30794921875,-0.009990094229578972,-0.1975036859512329,-0.053065523505210876
1791103297930921200,10.317921142578125,-0.024085674434900284,-0.20188137888908386,-0.11639602482318878
1791103297940894500,10.32789453125,0.013414179906249046,-0.17478910088539124,-0.09402050077915192
1791103297950866200,10.3378662109375,0.0015609818510711193,-0.1351008117198944,-0.06557846814393997
1791103297960839200,10.347839111328126,0.02753332257270813,-0.13315080106258392,0.03254217281937599
1791103297970811400,10.357811279296875,0.11583016067743301,-0.08147962391376495,-0.04022524133324623
1791103297980784400,10.367784423828125,0.14612938463687897,-0.04606720432639122,0.011306490749120712
1791103297990756400,10.37775634765625,0.20153085887432098,-0.02928929030895233,0.008109365589916706
1791103298000729300,10.387729248046876,0.1698896288871765,-0.010166695341467857,0.11446185410022736
1791103298010701300,10.397701416015625,0.17197993397712708,0.0017850389704108238,0.06601948291063309
1791103298020674300,10.40767431640625,0.13824929296970367,0.0006949491798877716,0.05113499239087105
1791103298030646300,10.417646240234374,0.11161448806524277,0.0005026687867939472,0.10000293701887131
1791103298040619300,10.427619384765626,0.14516137540340424,0.022798452526330948,0.032192882150411606
1791103298050591200,10.43759130859375,0.16980679333209991,0.030355436727404594,0.03654661774635315
1791103298060564200,10.447564208984375,0.1732528656721115,0.027815554291009903,0.08077386766672134
1791103298070536400,10.457536376953126,0.15306690335273743,0.03353682532906532,0.05877136066555977
1791103298080509400,10.467509521484375,0.19650132954120636,0.04320414364337921,0.02833428978919983
1791103298090481400,10.4774814453125,0.16852162778377533,-0.0023564170114696026,0.11816724389791489
1791103298100454400,10.487454345703124,0.06622966378927231,-0.015559263527393341,-0.025797367095947266
1791103298110426400,10.49742626953125,0.09243649989366531,-0.04416241496801376,0.0476805754005909
1791103298120399400,10.5073994140625,0.07228276133537292,-0.07161134481430054,0.10032594203948975
1791103298130371300,10.517371337890625,0.047610171139240265,-0.14305223524570465,0.07996128499507904
1791103298140344300,10.52734423828125,-0.042916350066661835,-0.1385362297296524,0.024877743795514107
1791103298150316300,10.53731640625,-0.04727701097726822,-0.16100159287452698,0.00940264668315649
1791103298160289300,10.547289306640625,-0.12123735249042511,-0.21018929779529572,0.022218069061636925
1791103298170261500,10.557261474609374,-0.12014491856098175,-0.23436707258224487,0.03565957769751549
1791103298180234500,10.567234375,-0.13839073479175568,-0.22087562084197998,0.03847384452819824
1791103298190206200,10.577206298828125,-0.12375534325838089,-0.23213572800159454,0.07946442067623138
1791103298200179500,10.587179443359375,-0.08957221359014511,-0.17736323177814484,-0.0627424418926239
1791103298210151400,10.5971513671875,-0.020859461277723312,-0.12537246942520142,-0.06367108970880508
1791103298220124200,10.607124267578126,0.01889786124229431,-0.11892545223236084,0.016174687072634697
1791103298230096400,10.617096435546875,0.03986785560846329,-0.10409697145223618,0.024238739162683487
1791103298240069400,10.6270693359375,0.11466135084629059,-0.10173451155424118,-0.01454029232263565
1791103298250041300,10.637041259765626,0.06061462312936783,-0.06714989989995956,-0.009166033007204533
1791103298260014300,10.647014404296876,0.035207536071538925,-0.08257146924734116,0.030207471922039986
1791103298269986300,10.656986328125,-0.013191157020628452,-0.060308776795864105,-0.05820414796471596
1791103298279958300,10.666958251953124,0.023672353476285934,-0.06645174324512482,-0.028159666806459427
1791103298289931300,10.67693115234375,-0.019698824733495712,-0.046522513031959534,0.01639847829937935
1791103298299903500,10.686903564453125,-0.027364905923604965,-0.012222688645124435,-0.1505202353000641
1791103298309876500,10.69687646484375,0.009354758076369762,-0.007032986730337143,-0.16159579157829285
1791103298319848200,10.70684814453125,0.015716537833213806,0.004244059789925814,-0.06664644926786423
1791103298329821400,10.716821533203126,-0.028100714087486267,0.0008250935934484005,-0.10067392885684967
1791103298339793400,10.72679345703125,-0.04634935408830643,-0.05050792172551155,-0.10064836591482162
1791103298349766100,10.73676611328125,-0.07488405704498291,-0.043437227606773376,-0.08514024317264557
1791103298359738400,10.74673828125,-0.17732647061347961,-0.06818517297506332,0.003442869521677494
1791103298369711400,10.75671142578125,-0.1034139022231102,-0.07715149968862534,-0.030995532870292664
1791103298379683300,10.766683349609375,-0.08692482113838196,-0.05723526328802109,0.04541942849755287
1791103298389656300,10.77665625,-0.09450817108154297,-0.05994955450296402,0.01905173808336258
1791103298399628300,10.786628173828126,-0.08834166079759598,-0.08279934525489807,0.08590484410524368
1791103298409601500,10.7966015625,-0.051492828875780106,-0.0402659997344017,-0.025278396904468536
1791103298419573200,10.8065732421875,-0.06740686297416687,-0.03825721889734268,0.06698226928710938
1791103298429546200,10.816546142578124,-0.05674969404935837,-0.050267543643713,0.06022263690829277
1791103298439518500,10.8265185546875,-0.12591104209423065,-0.03687908500432968,0.0168173648416996
1791103298449491200,10.8364912109375,-0.15735338628292084,-0.08620455116033554,0.012722221203148365
1791103298459463400,10.84646337890625,-0.07799044251441956,-0.09614670276641846,-0.02908881939947605
1791103298469436400,10.8564365234375,0.07346059381961823,-0.026080530136823654,0.05643726885318756
1791103298479408400,10.866408447265625,0.009826306253671646,-0.04412566125392914,-0.17922741174697876
1791103298489381400,10.87638134765625,-0.1701703518629074,-0.05269411578774452,0.03976646065711975
1791103298499353300,10.886353271484374,-0.09661150723695755,-0.05997203290462494,-0.102267324924469
1791103298509326300,10.896326416015626,-0.16309386491775513,-0.08266403526067734,-0.0164813082665205
1791103298519298300,10.90629833984375,-0.13082988560199738,-0.06535787880420685,0.10406636446714401
1791103298529271300,10.916271240234375,-0.12707562744617462,-0.080553337931633,0.07829921692609787
1791103298539243300,10.9262431640625,-0.13449059426784515,-0.12394057959318161,0.14455817639827728
1791103298549215200,10.93621533203125,-0.1128968819975853,-0.12037327140569687,0.10874319076538086
1791103298559188500,10.9461884765625,-0.029913943260908127,-0.12148024886846542,0.12483170628547668
1791103298569160200,10.95616015625,-0.05049645155668259,-0.0987139567732811,0.07345747202634811
1791103298579133200,10.96613330078125,-0.07707005739212036,-0.10370741784572601,0.11324462294578552
1791103298589105400,10.97610546875,-0.0560007281601429,-0.14404605329036713,0.13318504393100739
1791103298599078400,10.986078369140625,-0.11466512084007263,-0.13997504115104675,0.025930235162377357
1791103298609050400,10.99605029296875,-0.17076276242733002,-0.18913087248802185,0.013146528974175453
1791103298619023400,11.0060234375,-0.11224541068077087,-0.15334850549697876,-0.1279253363609314
1791103298628995300,11.015995361328125,-0.14142566919326782,-0.15926684439182281,-0.09420757740736008
1791103298638968300,11.02596826171875,-0.1833677887916565,-0.13652478158473969,-0.12248042225837708
1791103298648940300,11.035940185546876,-0.11838481575250626,-0.08777934312820435,-0.04294031858444214
1791103298658913300,11.045913330078125,-0.09011540561914444,-0.14821502566337585,0.1579062044620514
1791103298668885200,11.05588525390625,-0.13999827206134796,-0.15201057493686676,-0.18064893782138824
1791103298678858200,11.065858154296874,-0.2839004397392273,-0.15655440092086792,0.26157915592193604
1791103298688830500,11.07583056640625,-0.06496305763721466,-0.20743168890476227,0.1425718069076538
1791103298698803500,11.085803466796875,-0.09312134236097336,-0.1621573567390442,0.2605355381965637
1791103298708775200,11.095775146484375,-0.1450364738702774,-0.21884194016456604,0.14809554815292358
1791103298718748400,11.10574853515625,-0.11931377649307251,-0.20432409644126892,0.14373135566711426
1791103298728720400,11.115720458984375,-0.07304747402667999,-0.17938518524169922,0.17832687497138977
1791103298738693000,11.125693115234375,-0.02259894274175167,-0.12471742182970047,-0.03638629987835884
1791103298748665300,11.135665283203124,-0.0036553461104631424,-0.11020532250404358,-0.007080878131091595
1791103298758638300,11.145638427734376,-0.03721392899751663,-0.09941171109676361,0.13020989298820496
1791103298768610300,11.1556103515625,-0.07822500914335251,-0.11724290996789932,0.025562310591340065
1791103298778583300,11.165583251953125,-0.09592624008655548,-0.13689197599887848,-0.012116624042391777
1791103298788555300,11.17555517578125,-0.14275605976581573,-0.16301411390304565,0.047635119408369064
1791103298798527200,11.18552734375,-0.19689317047595978,-0.17823027074337006,0.07413174211978912
1791103298808500200,11.195500244140625,-0.16498877108097076,-0.1801280379295349,-0.0547143928706646
1791103298818472400,11.205472412109375,-0.09015058726072311,-0.18890480697155,0.0008076412486843765
1791103298828445400,11.215445556640624,-0.05330469459295273,-0.1540679931640625,-0.05372750759124756
1791103298838417400,11.22541748046875,-0.0836506336927414,-0.187364861369133,0.038151368498802185
1791103298848390400,11.235390380859375,-0.08644269406795502,-0.17506185173988342,0.018585124984383583
1791103298858362400,11.2453623046875,-0.06985761970281601,-0.14803862571716309,0.09835901856422424
1791103298868335400,11.25533544921875,-0.10915256291627884,-0.14830946922302246,0.1508171707391739
1791103298878307300,11.265307373046875,-0.05655854195356369,-0.18856684863567352,0.21631063520908356
1791103298888280300,11.2752802734375,-0.06472112983465195,-0.1655246466398239,0.10427118837833405
1791103298898252300,11.285252197265624,-0.07315509021282196,-0.17532028257846832,0.07949739694595337
1791103298908225300,11.295225341796876,-0.08451427519321442,-0.16129395365715027,0.1426449418067932
1791103298918197500,11.305197509765625,0.0417364239692688,-0.13132523000240326,0.010497069917619228
1791103298928170500,11.31517041015625,0.000801505520939827,-0.10524115711450577,0.05791545286774635
1791103298938142500,11.325142578125,0.03781752288341522,-0.10686252266168594,-0.056024376302957535
1791103298948115500,11.335115478515625,-0.015901897102594376,-0.08765580505132675,0.033327873796224594
1791103298958087400,11.34508740234375,0.0281145628541708,-0.12649214267730713,-0.014462286606431007
1791103298968060400,11.355060302734374,-0.09344124794006348,-0.12827105820178986,0.10518542677164078
1791103298978032400,11.365032470703126,-0.06153642758727074,-0.1566675901412964,-0.03572749346494675
1791103298988005400,11.37500537109375,-0.09320461750030518,-0.1894974559545517,0.05035492777824402
1791103298997977600,11.3849775390625,-0.0880206823348999,-0.18895453214645386,0.0035639628767967224
1791103299007950600,11.39495068359375,-0.09034508466720581,-0.17375880479812622,0.0012358274543657899
1791103299017922300,11.40492236328125,-0.009173296391963959,-0.18904149532318115,-0.032424770295619965
1791103299027895600,11.4148955078125,0.023753494024276733,-0.14993298053741455,-0.022260548546910286
1791103299037867500,11.424867431640624,0.05197513476014137,-0.11835289001464844,0.008450762368738651
1791103299047839500,11.434839599609376,-0.011668022722005844,-0.11036527156829834,-0.013134690001606941
1791103299057812500,11.4448125,-0.013159085065126419,-0.13296373188495636,0.016703803092241287
1791103299067784400,11.454784423828125,0.01884838193655014,-0.11918081343173981,0.007504712324589491
1791103299077757400,11.46475732421875,0.035796575248241425,-0.139777272939682,0.06127748638391495
1791103299087729400,11.4747294921875,0.018157392740249634,-0.12145845592021942,0.012293965555727482
1791103299097702400,11.484702392578125,0.0055452752858400345,-0.10505399107933044,0.019200200214982033
1791103299107674400,11.49467431640625,0.05966576561331749,-0.09395207464694977,0.0031541225034743547
1791103299117647400,11.5046474609375,0.08851044625043869,-0.07698602974414825,-0.012765636667609215
1791103299127619600,11.51461962890625,0.06709916144609451,-0.08058422803878784,0.005274349823594093
1791103299137592600,11.524592529296875,0.0819103866815567,-0.1162487119436264,0.02737807296216488
1791103299147564300,11.534564208984374,0.04554757848381996,-0.09530987590551376,0.05216890573501587
1791103299157537500,11.54453759765625,0.03725382685661316,-0.11699248850345612,0.024169161915779114
1791103299167509500,11.554509521484375,-0.007126951590180397,-0.1617615520954132,0.05513693019747734
1791103299177482200,11.564482177734375,-0.008479837328195572,-0.16815420985221863,0.001066239201463759
1791103299187454500,11.574454345703124,-0.01694655977189541,-0.16125822067260742,0.022915344685316086
1791103299197427500,11.584427490234376,-0.0009583458304405212,-0.16402950882911682,-0.015667185187339783
1791103299207399400,11.5943994140625,-0.010166225954890251,-0.16948100924491882,0.009410204365849495
1791103299217372400,11.604372314453125,0.003620648290961981,-0.15231885015964508,-0.01955682784318924
1791103299227344600,11.6143447265625,0.013143313117325306,-0.14701463282108307,-0.0016137801576405764
1791103299237317600,11.624317626953125,-0.04346729442477226,-0.17581434547901154,0.024115607142448425
1791103299247289300,11.634289306640625,-0.05153054744005203,-0.21469037234783173,0.03639410808682442
1791103299257262600,11.6442626953125,-0.03072468936443329,-0.21445246040821075,0.0436541810631752
1791103299267234600,11.654234619140626,-0.03368399292230606,-0.1713705062866211,-0.015511938370764256
1791103299277206500,11.66420654296875,-0.012243948876857758,-0.19764046370983124,0.0539129413664341
1791103299287179500,11.674179443359375,0.03785357251763344,-0.21743467450141907,0.04790351912379265
1791103299297151500,11.6841513671875,0.002417698036879301,-0.1875109225511551,-0.008301776833832264
1791103299307124500,11.69412451171875,0.004627855494618416,-0.19067075848579407,-0.041796620935201645
1791103299317096400,11.704096435546875,-0.024839429184794426,-0.20727260410785675,0.011003880761563778
1791103299327069400,11.7140693359375,0.019514454528689384,-0.21509404480457306,-0.005411311984062195
1791103299337041400,11.72404150390625,0.05512828379869461,-0.19213804602622986,-0.04092587158083916
1791103299347014400,11.734014404296875,0.019971627742052078,-0.1917601376771927,0.013854819349944592
1791103299356986600,11.743986572265625,0.009668035432696342,-0.2344297468662262,0.044427935034036636
1791103299366959600,11.753959716796874,-0.0026922281831502914,-0.18784546852111816,-0.01645352691411972
1791103299376931300,11.763931396484375,0.002240922302007675,-0.1567002385854721,0.05119185522198677
1791103299386904600,11.773904541015625,0.0645277351140976,-0.14231570065021515,0.0033220674376934767
1791103299396876500,11.78387646484375,0.042055774480104446,-0.11159612983465195,0.024958714842796326
1791103299406849300,11.793849365234376,0.12153329700231552,-0.07327643781900406,-0.015265137888491154
1791103299416821500,11.803821533203125,0.16496795415878296,-0.05640604346990585,-0.061736878007650375
1791103299426794500,11.81379443359375,0.1955391764640808,-0.05679353326559067,0.0024471688084304333
1791103299436766500,11.823766357421874,0.23560349643230438,-0.015109080821275711,-0.03987608477473259
1791103299446739500,11.833739501953126,0.18827113509178162,0.012810967862606049,-0.046522002667188644
1791103299456711400,11.84371142578125,0.22272388637065887,0.03066064789891243,-0.07187175005674362
1791103299466684400,11.853684326171875,0.2335035651922226,0.06215466186404228,-0.023996101692318916
1791103299476656400,11.863656494140624,0.2847381830215454,0.09117003530263901,0.026092154905200005
1791103299486628600,11.873628662109375,0.35260939598083496,0.12679433822631836,-0.06148429960012436
1791103299496601300,11.883601318359375,0.34350886940956116,0.12059412896633148,0.0354381687939167
1791103299506573300,11.8935732421875,0.3404124081134796,0.11002803593873978,0.03921053558588028
1791103299516546600,11.903546630859376,0.37231144309043884,0.11490119993686676,-0.011900425888597965
1791103299526518300,11.913518310546875,0.29793867468833923,0.14912548661231995,0.012186801061034203
1791103299536491500,11.923491455078125,0.3647831380367279,0.16270798444747925,-0.0384807288646698
1791103299546463500,11.93346337890625,0.3836284577846527,0.1519184410572052,0.033150315284729004
1791103299556436500,11.9434365234375,0.3787016272544861,0.18022064864635468,0.002993518952280283
1791103299566408400,11.953408447265625,0.30237916111946106,0.15631024539470673,0.018468348309397697
1791103299576381400,11.96338134765625,0.30975160002708435,0.07451232522726059,-0.02989032119512558
1791103299586353700,11.973353759765626,0.20425710082054138,0.09914044290781021,-0.06056993454694748
1791103299596326400,11.983326416015625,0.2196694165468216,0.05592427775263786,-0.060873210430145264
1791103299606298400,11.99329833984375,0.1480540931224823,-0.003278858494013548,-0.01595740020275116
1791103299616271600,12.003271728515625,0.1314287632703781,-0.01681116595864296,-0.056295886635780334
1791103299626243300,12.013243408203126,0.10933038592338562,-0.03100980818271637,-0.016895214095711708
1791103299636216300,12.02321630859375,0.09148520231246948,-0.06187792867422104,-0.052431706339120865
1791103299646188500,12.0331884765625,0.05357617139816284,-0.07368239760398865,0.038672637194395065
1791103299656161500,12.04316162109375,0.07849912345409393,-0.05610964447259903,-0.03065679781138897
1791103299666133500,12.053133544921875,0.07591985166072845,-0.06877536326646805,0.0006635746685788035
1791103299676105500,12.06310546875,0.02491108514368534,-0.047744203358888626,-0.01759367622435093
1791103299686078500,12.073078369140624,0.09830114990472794,-0.029751621186733246,-0.04018021374940872
1791103299696050400,12.083050537109376,0.1296614408493042,0.0010732533410191536,0.014310355298221111
1791103299706023400,12.0930234375,0.12225225567817688,0.018688730895519257,0.0074255517683923244
1791103299715995600,12.10299560546875,0.11179652810096741,0.016023507341742516,-0.002452489919960499
1791103299725968400,12.112968505859374,0.13863800466060638,0.026780547574162483,-0.009155666455626488
