time,seconds_elapsed,z,y,x
1789997626669441300,1.573441162109375,-0.20331795362679514,-0.06373982331190299,0.05204881780053349
1789997626679511300,1.58351123046875,-0.18358793629503736,-0.014485793826914312,0.02755123344064329
1789997626689582300,1.593582275390625,-0.14941043725794995,0.028683137180420776,0.037093893192696806
1789997626699652000,1.603652099609375,-0.16821248299179548,0.06983531524172659,-0.008500029234802468
1789997626709723100,1.61372314453125,-0.18851643895739106,0.08478896046723221,-0.0061365224169670106
1789997626719793400,1.62379345703125,-0.15661164666883698,0.08162881149012724,0.03720958727323295
1789997626729864400,1.633864501953125,-0.15194015267596944,0.0373292046751834,0.09982026231198958
1789997626739934200,1.643934326171875,-0.11671705494016878,0.030504672983448555,0.040473440935598674
1789997626750005200,1.654005126953125,-0.08861989995621379,0.008846135111168716,0.027786216758995713
1789997626760076300,1.664076171875,-0.05566249025275231,-0.051451183490321656,0.05386665041447382
1789997626770146300,1.674146240234375,-0.033335845721958225,-0.1101058470191699,0.038155832152138906
1789997626780217000,1.684217041015625,-0.029712590456284712,-0.15421636521078338,0.06568583945148608
1789997626790287400,1.694287353515625,-0.055929698185454665,-0.18199021909494695,0.02405287040911383
1789997626800358400,1.7043583984375,-0.10451481574204663,-0.2298797105233037,-0.005870093660437263
1789997626810428400,1.714428466796875,-0.1393916617620628,-0.24599343033415091,-0.017647905238231107
1789997626820499200,1.724499267578125,-0.15536650476838698,-0.2818208209314507,0.016487832005159537
1789997626830569200,1.7345693359375,-0.207658921669774,-0.28581877085359275,0.0007341121736309098
1789997626840640300,1.74464013671875,-0.19058863440524695,-0.28119605385400337,-0.03257847834799883
1789997626850710300,1.754710205078125,-0.19373673113461873,-0.27808889061337644,0.003118879219064562
1789997626860781300,1.76478125,-0.20747357450991358,-0.3208956373645268,0.08912156322912056
1789997626870851300,1.774851318359375,-0.22071241129890196,-0.3020138309221701,0.06135046131364724
1789997626880922400,1.78492236328125,-0.23090550040974073,-0.28554356962849137,0.09838499786163664
1789997626890992000,1.7949921875,-0.23624119384403935,-0.29319020733711404,0.02158075564252735
1789997626901063200,1.805063232421875,-0.24735442468426724,-0.30873395688840505,-0.028163396953285878
1789997626911133200,1.81513330078125,-0.2712398787484252,-0.30756813264476474,-0.012643917543382526
1789997626921204200,1.825204345703125,-0.2423387256234289,-0.29311625185410284,-0.05267159600770333
1789997626931274200,1.835274169921875,-0.21580536509118456,-0.29158992057750477,-0.03269057041930002
1789997626941345300,1.84534521484375,-0.16233835106728955,-0.281212739326799,-0.010589260568313627
1789997626951416300,1.855416259765625,-0.14534098228629144,-0.25895109903931013,0.038167954862499444
1789997626961486300,1.865486328125,-0.14254028665093602,-0.23670546724008085,0.03641279886686214
1789997626971557400,1.875557373046875,-0.10916791600546,-0.21581404497387383,0.044312784481790456
1789997626981627100,1.885627197265625,-0.06504103206628559,-0.19467078969108412,0.03693975498138266
1789997626991698200,1.8956982421875,-0.01798857789821856,-0.209557604092702,0.005094064873300794
1789997627001768400,1.9057685546875,0.015450184459485617,-0.17782305171149027,0.0024322452193268835
1789997627011839500,1.915839599609375,0.07476727940186366,-0.16357225470098094,0.060781787312890405
1789997627021909200,1.9259091796875,0.1065084362423193,-0.10354204798864924,0.01450956210928051
1789997627031980300,1.935980224609375,0.13006794642217898,-0.055817141905976725,-0.004743549768899248
1789997627042050300,1.94605029296875,0.1513871729751997,-0.028920778057845258,-0.009067139020111437
1789997627052121000,1.95612109375,0.17121145139894509,0.01767407381428894,-0.04011699370403268
1789997627062191400,1.96619140625,0.2008847442379904,0.07683745181185622,-0.05316385381398042
1789997627072262400,1.976262451171875,0.20519899616834472,0.11081575501859439,0.006733818620519191
1789997627082332400,1.98633251953125,0.2319997317764918,0.13555529255668097,-0.032688983080659886
1789997627092403200,1.9964033203125,0.26754374664412633,0.17703126307087258,-0.05270518793284034
1789997627102473200,2.00647314453125,0.2540266903202272,0.1978669089018193,-0.08036005913447823
1789997627112544300,2.016544189453125,0.2351817839391179,0.20333969249418354,-0.1053812771873313
1789997627122615300,2.026615234375,0.23865871050254206,0.20862213647496278,-0.08020115979887375
1789997627132685300,2.036685302734375,0.24316547656479282,0.21969508384328268,-0.029739489678405864
1789997627142756000,2.046756103515625,0.19506525686729956,0.21219805405898193,-0.03001870149358745
1789997627152826400,2.056826416015625,0.14781114149927477,0.2258214711947077,-0.07275856055064496
1789997627162897400,2.0668974609375,0.15984731801018828,0.23586965976560662,-0.06530028864933181
1789997627172967200,2.07696728515625,0.1689590810090241,0.23402557739499677,-0.06614381104174141
1789997627183038200,2.0870380859375,0.23251596836077393,0.20912170728255394,-0.022930519074702563
1789997627193108200,2.097108154296875,0.26222140725861925,0.22439126374789256,0.003595074526114219
1789997627203179300,2.10717919921875,0.27338048482325294,0.27643941727494525,-0.0183236542327831
1789997627213249300,2.117249267578125,0.2688969530969941,0.2889882215431458,-0.05237690633803583
1789997627223320300,2.1273203125,0.2783769727990963,0.2763276708420653,-0.062198920223253074
1789997627233390300,2.137390380859375,0.29068786288118914,0.2965759741698145,-0.0389551366409473
1789997627243461400,2.14746142578125,0.31186757090738465,0.33169988638228165,-0.02548713601870984
1789997627253531100,2.15753125,0.3178077494443411,0.35934913010922476,-0.04578048674852186
1789997627263602200,2.167602294921875,0.35509202332947487,0.38638019171842486,-0.07125186081611018
1789997627273672400,2.17767236328125,0.3537551364164514,0.3845503286932294,-0.0009463728511320855
1789997627283743500,2.187743408203125,0.35567847510221906,0.39070762949209514,0.037315261392471495
1789997627293813200,2.197813232421875,0.3402449515929775,0.40912175275031876,0.09633895256080778
1789997627303884300,2.20788427734375,0.32343602849449365,0.4997052565206165,0.06900497772441914
1789997627313955300,2.217955322265625,0.3245464421202878,0.5656579527951591,0.00482334589940047
1789997627324025300,2.228025390625,0.2837549444390093,0.5904754058624685,-0.0017931444722836896
1789997627334096100,2.23809619140625,0.26706235323264726,0.5890071945363402,-0.027986029557791874
1789997627344166400,2.24816650390625,0.23938634434821288,0.6077687351958504,0.0067661267850499035
1789997627354237400,2.258237548828125,0.22609060108547185,0.6118602103015022,-0.03217910417591364
1789997627364307200,2.26830712890625,0.2092169466280294,0.6068767937352574,-0.05376412710928787
1789997627374378200,2.278378173828125,0.16771736698436857,0.615882354372804,-0.06687651950866327
1789997627384448300,2.2884482421875,0.13645360286486258,0.5716284162469004,-0.050558402389937536
1789997627394519300,2.298519287109375,0.15266862831729033,0.5006682871075213,0.057350237504278444
1789997627404589000,2.308589111328125,0.15616253698551072,0.4642144005025498,0.04810111573982034
1789997627414660000,2.31866015625,0.12030970530532624,0.3915853186701456,0.056382070148119495
1789997627424730400,2.32873046875,0.09897925482863157,0.33672167795268015,0.059539746910516306
1789997627434801400,2.338801513671875,0.06288161208115872,0.29385626624274647,0.05340887791926595
1789997627444871200,2.34887109375,0.02113438874071263,0.2686541487239107,0.023560634166062182
1789997627454942200,2.358942138671875,0.012914595146351102,0.22050743743570536,0.06663827618562838
1789997627465012200,2.36901220703125,-0.004387527112578516,0.17918287592600032,0.06616139297146884
1789997627475083300,2.379083251953125,-0.04949575279217736,0.15561183242457102,0.04318928222772726
1789997627485153300,2.3891533203125,-0.10836251231785987,0.06269623948676999,0.080637883817145
1789997627495224300,2.399224365234375,-0.1433975992118562,0.045609959779195366,0.04136402802406332
1789997627505294300,2.40929443359375,-0.18453552501143514,0.06302853585365473,-0.027473603477312532
1789997627515365400,2.419365478515625,-0.1688802756694777,0.05713252124153805,-0.007788970591337802
1789997627525436200,2.429436279296875,-0.1816570832164228,0.03083396188499522,0.032806094710979006
1789997627535506200,2.439506103515625,-0.2110149397741525,0.038018227760064256,-0.005837104211442428
1789997627545577200,2.4495771484375,-0.23203500365117696,-0.003392721306052262,0.06451851662937189
1789997627555647200,2.459647216796875,-0.21097668775451808,-0.026464962142376647,0.07042261706945963
1789997627565718300,2.46971826171875,-0.21620395660634076,-0.02938361719062469,0.042205636351697204
1789997627575788300,2.479788330078125,-0.2646993397474473,-0.02994471333981069,0.021911265962865283
1789997627585859300,2.489859375,-0.24875315934697947,-0.020736132435742207,0.0188170924811189
1789997627595929000,2.49992919921875,-0.2535942148378262,-0.006000771125531445,-0.002349129275983278
1789997627606000000,2.510000244140625,-0.20984809876242158,-0.03157731193625255,0.013531710102011664
1789997627616070100,2.520070068359375,-0.21304622487387115,-0.07578084927959435,0.07257684740380818
1789997627626141200,2.53014111328125,-0.20943409117240333,-0.09214889174168757,0.08252284471859397
1789997627636211200,2.540211181640625,-0.19793862502880596,-0.09572299060837963,0.08164879029108146
1789997627646282200,2.5502822265625,-0.21231688878206115,-0.08434013415918473,0.052399387533746664
1789997627656352300,2.560352294921875,-0.21009382477948335,-0.06584704573068395,0.006838110711277138
1789997627666423000,2.570423095703125,-0.22183728511558184,-0.09250125132078413,0.01616597615664258
1789997627676493000,2.5804931640625,-0.20847884456227198,-0.0910015317939617,0.007591700219841668
1789997627686564000,2.590564208984375,-0.18496023214777962,-0.06579195447090178,0.022547370956625443
1789997627696634400,2.60063427734375,-0.20541158155529154,-0.06155000054861875,0.018050100798766535
1789997627706705200,2.610705078125,-0.18574450216642088,-0.04739080500622021,0.010994829027081337
1789997627716775200,2.620775146484375,-0.17355536497210225,-0.040446764290910764,0.00619162122777704
1789997627726846200,2.63084619140625,-0.19030804897475626,-0.05913659919644307,0.002133442703877784
1789997627736917200,2.640917236328125,-0.18057458019950343,-0.05847536675561691,-0.011406294148347627
1789997627746987000,2.650987060546875,-0.16655851780418043,-0.03399946350880603,0.012542245472046517
1789997627757058000,2.66105810546875,-0.14640987082938703,-0.038114580831984365,0.027580099103779204
1789997627767128300,2.67112841796875,-0.15565818597315628,-0.049607384669788084,0.056963914017101096
1789997627777199400,2.681199462890625,-0.1361871268964824,-0.06276045459838878,0.0507844997489119
1789997627787269000,2.69126904296875,-0.12861382626863607,-0.05220262187221419,0.06159047477985304
1789997627797340200,2.701340087890625,-0.11369565940759715,-0.04759643422331377,0.04248812435844917
1789997627807410200,2.71141015625,-0.12374631226688859,-0.039615439101957424,0.020663781841431705
1789997627817481200,2.721481201171875,-0.1200808764910369,-0.03501606488356732,-0.017494462762702355
1789997627827551200,2.73155126953125,-0.11823187886068189,-0.05845226887170741,0.03518237769478942
1789997627837622300,2.741622314453125,-0.0976505936105498,-0.05352426960767512,0.07251599125962126
1789997627847692300,2.7516923828125,-0.09964445667994463,-0.06347948671252836,0.06115739887585467
1789997627857763300,2.761763427734375,-0.12068851277711311,-0.03907825621395404,0.04063631370007277
1789997627867833000,2.7718330078125,-0.14587328760929705,-0.028508922061665682,-0.014224149449865317
1789997627877904100,2.781904052734375,-0.1564608910622993,-0.05577406539380698,0.011510429338422912
1789997627887974100,2.79197412109375,-0.1347605160559758,-0.07077625668343836,0.05306272999347114
1789997627898045200,2.802045166015625,-0.11761259295153913,-0.0937288957614758,0.061965997253171326
1789997627908115200,2.812115234375,-0.1267859423704819,-0.11331596220799221,0.016349015277583402
1789997627918186200,2.822186279296875,-0.16196873978930892,-0.12936633329893463,-0.0015070366213820968
1789997627928256300,2.83225634765625,-0.16382359324514664,-0.10927785047052664,0.0193672634657999
1789997627938327300,2.842327392578125,-0.158385914262119,-0.12975077826486292,-0.028379160777322734
1789997627948398000,2.852398193359375,-0.1775013706931279,-0.13753198544411305,-0.007375267051362687
1789997627958468000,2.862468017578125,-0.16083320510475904,-0.143931173991853,0.011102928614450483
1789997627968539100,2.8725390625,-0.1854630799052104,-0.16172964396264575,0.05919753640471738
1789997627978609200,2.882609130859375,-0.17272930926399718,-0.15323699088363943,0.02806554914382914
1789997627988680200,2.89268017578125,-0.17178644162678497,-0.16010637055466664,0.028437487895632503
1789997627998750200,2.902750244140625,-0.18752250000419057,-0.17723471235272648,0.026778575035638214
1789997628008821200,2.9128212890625,-0.16499482519966407,-0.18654614192838012,-0.005588548958483195
1789997628018891000,2.92289111328125,-0.13472003974755137,-0.15423700629351914,-0.01576590144649106
1789997628028962000,2.932962158203125,-0.08958899838090684,-0.1479865314254387,0.016276358353965004
1789997628039032300,2.9430322265625,-0.0666597888386035,-0.1368635052285014,0.049370300461313424
1789997628049103400,2.953103271484375,-0.08632450244860405,-0.12052074610816492,0.013373180696157812
1789997628059173000,2.963173095703125,-0.11960301666209273,-0.07161373895532923,-0.00501761860308501
1789997628069244200,2.973244140625,-0.13916873561256976,-0.005097280642630835,-0.0209463040538985
1789997628079314200,2.983314208984375,-0.1342828152143538,0.010970184011217278,-0.020484817703888696
1789997628089385200,2.99338525390625,-0.0806610491047229,0.013445004445492617,0.006327308728694221
1789997628099455200,3.003455322265625,-0.057883608987570716,0.023582180097609498,-0.02096614414919696
1789997628109526300,3.0135263671875,-0.029461915293780682,0.02862020514345843,-0.03776053762138702
1789997628119596300,3.02359619140625,0.024330072587458753,0.04629426167162248,-0.04175424561846087
1789997628129667300,3.033667236328125,0.03696727009150959,0.06323254332401121,0.0054991436755514045
1789997628139737000,3.043737060546875,0.011217892183391247,0.0771721251971426,0.03026334223080674
1789997628149808000,3.05380810546875,-0.007856806692796186,0.0636579482423991,0.03017745609131125
1789997628159878100,3.063878173828125,-0.0779337351392197,0.05765484738282109,-0.007630979909522861
1789997628169949200,3.07394921875,-0.06765787979031337,0.041982959817992264,-0.004973482041289808
1789997628180020000,3.08402001953125,-0.08279782065205633,0.02675771428274207,0.017822216261777997
1789997628190090200,3.09409033203125,-0.04098987113946657,0.003709899654914157,0.03956069340652969
1789997628200161300,3.104161376953125,-0.0523134017475596,-0.0026334318129635926,0.017708881050214346
1789997628210231300,3.114231201171875,-0.0505388246071855,-0.028143682501129544,0.02543118089365983
1789997628220302000,3.124302001953125,-0.04579658509988934,-0.05815896703531154,-0.011939764695333309
1789997628230372000,3.1343720703125,-0.07967233736827577,-0.0667276341090111,-0.016081591955905826
1789997628240443100,3.144443115234375,-0.0665598886902145,-0.07605917874296314,0.041462748662320886
1789997628250513400,3.154513427734375,-0.07012520980267735,-0.07796616777303256,0.03215250029149921
1789997628260584200,3.164584228515625,-0.08059632195937563,-0.04421832923219995,-0.027352585154241483
1789997628270654200,3.174654296875,-0.11077546859183306,-0.027921257703288037,-0.03557190964218185
1789997628280725200,3.184725341796875,-0.11294639461821389,-0.046108818947434654,0.01142385307824833
1789997628290795000,3.194794921875,-0.11926107618318027,-0.08093982740553496,0.03957871252442178
1789997628300866000,3.204865966796875,-0.13737891460356969,-0.11595826416009712,0.028185793042173286
1789997628310936300,3.214936279296875,-0.1380976063325236,-0.14431276121436004,0.017874754502670762
1789997628321007400,3.22500732421875,-0.14237252191319819,-0.17862571409634434,0.025283254837267375
1789997628331077000,3.2350771484375,-0.14979792811178128,-0.21069802843549387,0.05360919090162334
1789997628341148200,3.245148193359375,-0.13296104514890647,-0.24394529165315662,0.03472290986080808
1789997628351218200,3.25521826171875,-0.14176702823917886,-0.258885590789779,0.03100219844157003
1789997628361289200,3.265289306640625,-0.12387134666166852,-0.2605563951179745,0.029084891786834547
1789997628371359200,3.275359130859375,-0.14311900128726998,-0.24118352393192183,0.05505721747768746
1789997628381430300,3.28543017578125,-0.11840318971542377,-0.2394859162709783,0.06515886089774305
1789997628391500300,3.295500244140625,-0.11570383597386882,-0.2470549402433039,0.061886366459994055
1789997628401571300,3.3055712890625,-0.09267369832416332,-0.22740102122004086,0.005520912021264874
1789997628411641000,3.31564111328125,-0.09771897451929348,-0.21761570268341557,0.011718894866062422
1789997628421712100,3.325712158203125,-0.07485157225686291,-0.231043564515577,-0.024770136950396177
1789997628431783200,3.335783203125,-0.08232847844578782,-0.23340384060629032,-0.03101939066099262
1789997628441853200,3.345853271484375,-0.05249478292195703,-0.21339053592236779,-0.01582383484158329
1789997628451924000,3.355924072265625,-0.027939024094809653,-0.22560060870634893,0.013140134331370068
1789997628461994200,3.365994140625,-0.02996947791183637,-0.21711705449891597,0.04834856175274547
1789997628472065300,3.376065185546875,-0.028514428853159194,-0.2160968993167363,0.09245845752302953
1789997628482135300,3.38613525390625,-0.04524444297047653,-0.22193773530325936,0.1232390518105499
1789997628492206000,3.3962060546875,-0.02812440553175972,-0.18384816258547104,0.04523960015245775
1789997628502276000,3.406276123046875,-0.05825730552946305,-0.1661329706316666,0.030137349979764118
1789997628512347100,3.41634716796875,-0.044867515661340056,-0.1744334376320033,0.013119404163220869
1789997628522417400,3.42641748046875,-0.021813955788634064,-0.1630025710035784,0.01578758313728384
1789997628532488200,3.43648828125,0.014252445467253953,-0.15793198983247003,0.07658141329018192
1789997628542558200,3.44655810546875,0.03251421846707819,-0.1529226439658792,0.06853825904820345
1789997628552629200,3.456629150390625,-0.009880200420606488,-0.1327682894156367,0.012956338853091403
1789997628562699000,3.466698974609375,-0.02883388646799074,-0.10475106914666739,-0.018456436965689795
1789997628572770000,3.47677001953125,-0.00929914566533563,-0.11715611003654647,-0.02080668392076572
1789997628582840300,3.48684033203125,0.02097705188285186,-0.11179495317863124,-0.004197944182827676
1789997628592911400,3.496911376953125,0.06003692545858276,-0.12707628124577336,0.0666661423062366
1789997628602981000,3.506981201171875,0.08036396152879911,-0.11471383776866634,0.025135331902333764
1789997628613052200,3.51705224609375,0.09624712047735044,-0.07040195410168844,-0.0021780897322793897
1789997628623122200,3.5271220703125,0.11397973372792848,-0.02637263662787502,0.02841565569766882
1789997628633193200,3.537193115234375,0.1540305254955536,0.015695371569041428,0.021922456501583646
1789997628643263000,3.547262939453125,0.16484481935705722,0.03206434505298085,0.03713097016600162
1789997628653334000,3.557333984375,0.16702392992429954,0.06044141670478487,-0.017171747151380045
1789997628663405000,3.567405029296875,0.14731519130933785,0.11392100707174418,-0.06948948811983346
1789997628673475300,3.577475341796875,0.15167362597665207,0.1924602537993397,-0.088247116338885
1789997628683546000,3.587546142578125,0.1996373315315378,0.2177791063804089,-0.03901326607828689
1789997628693616000,3.5976162109375,0.2230789840930567,0.23817103953361304,0.02346807218409059
1789997628703687200,3.607687255859375,0.2157729963967864,0.26834581758304427,0.001011835978270437
1789997628713757000,3.6177568359375,0.1719937702984952,0.2578581032585941,0.0017208386100423588
1789997628723828000,3.627827880859375,0.17501971165766403,0.2690882774945422,-0.03947339129384459
1789997628733898200,3.637898193359375,0.1704349395925313,0.2980006151178013,-0.0631130127217527
1789997628743969300,3.64796923828125,0.15876948936401225,0.3215243222015059,-0.07845259067373732
1789997628754039000,3.6580390625,0.1895550943206198,0.3195844717555151,-0.044260320362920984
1789997628764110000,3.668110107421875,0.16047665278363182,0.33031937161976416,-0.03650314016925826
1789997628774180000,3.67818017578125,0.15591735504400817,0.3293998992839724,-0.05798236767288626
1789997628784251100,3.688251220703125,0.12218115211407678,0.3019142797655837,-0.022076332466194355
1789997628794321200,3.698321044921875,0.0948070899041867,0.29123786262305945,-0.06269142571045704
1789997628804392200,3.70839208984375,0.03768980634612821,0.24773318750982226,-0.10168801387166337
1789997628814462200,3.718462158203125,0.03985701351990698,0.1860558632338358,-0.04805469408142059
1789997628824533200,3.728533203125,0.04202892251158598,0.16012188998836482,-0.02507826434232306
1789997628834603000,3.73860302734375,0.019420974903122844,0.1337968364825284,-0.040931466802204226
1789997628844674000,3.748674072265625,0.005619369203266168,0.06694958465523082,0.020309297553670048
1789997628854744300,3.758744384765625,-0.0158206389522153,0.04426921253787724,0.029593154335579963
1789997628864815400,3.7688154296875,-0.04067781001078462,0.03951275116608299,-0.004773770903331233
1789997628874885000,3.778885009765625,-0.040974336047549874,0.007605552349527061,0.04572582383551193
1789997628884956200,3.7889560546875,-0.030971836813454553,-0.011491170432735865,0.07449858765015553
1789997628895026200,3.799026123046875,-0.03544989048899423,-0.04758619773163824,0.07579349968927808
1789997628905097200,3.80909716796875,-0.08231188187267399,-0.07010322507533635,0.054120850784181704
1789997628915168000,3.81916796875,-0.16186929371051334,-0.06480731077008586,-0.000343298827484923
1789997628925238000,3.829238037109375,-0.14986631177314888,-0.09710954688278141,0.029249466033020827
1789997628935309000,3.83930908203125,-0.09497937927771911,-0.11925364800451048,0.07346202811237813
1789997628945379300,3.84937939453125,-0.10791237693960835,-0.12782457133644273,0.051331525374666606
1789997628955450000,3.8594501953125,-0.17615307266136623,-0.16801933006677808,0.012499942324168675
1789997628965520100,3.86952001953125,-0.2074225445342178,-0.21599050325814498,0.01624908232568235
1789997628975591200,3.879591064453125,-0.23952241991437007,-0.25901099048265563,0.04299417671967538
1789997628985661200,3.8896611328125,-0.2541519302122161,-0.35000850222013785,0.043903835147577217
1789997628995732000,3.89973193359375,-0.26434535473658144,-0.41334096935086834,0.04055720351651875
1789997629005802200,3.90980224609375,-0.2602757578387874,-0.4390401269113208,0.05992141983912938
1789997629015873300,3.919873291015625,-0.24783993439521163,-0.45351163530451044,0.05111982210375955
1789997629025943000,3.929943115234375,-0.2422461692802477,-0.45323515576767626,0.08695799185752892
1789997629036014000,3.94001416015625,-0.2517898926744126,-0.4535281415246169,0.043486202160422656
1789997629046084000,3.950083984375,-0.2592111572178297,-0.47208137493741603,0.043163777770967915
1789997629056155100,3.960155029296875,-0.23091832724130634,-0.4538537012939185,0.015007718562809977
1789997629066225200,3.97022509765625,-0.205992722504407,-0.43915050515958926,0.05642482317663518
1789997629076296200,3.980296142578125,-0.17690489481866084,-0.3940273149922655,0.06268246660269051
1789997629086366200,3.9903662109375,-0.11764617445243969,-0.34883156280799,0.06523507584468682
1789997629096437200,4.000437255859375,-0.08196284442933585,-0.28919758577850296,0.03168195224813865
1789997629106507000,4.010507080078125,-0.023436680119703384,-0.22803121875688953,0.06871399349038564
1789997629116578000,4.020578125,0.019061519123284028,-0.18004450882424072,0.06377436306014118
1789997629126648000,4.03064794921875,0.0524375011171495,-0.16051983515729487,0.07077112683820093
1789997629136719000,4.040718994140625,0.05137447101220214,-0.11196068673005671,0.032813560876691066
1789997629146789000,4.0507890625,0.056151727289608495,-0.06401345943646622,-0.0334535539997594
1789997629156860200,4.060860107421875,0.08515113103761901,-0.025522335199837366,-0.043098439424021306
1789997629166931200,4.07093115234375,0.11798885407216328,0.032786370067066056,-0.048260508881181975
1789997629177001200,4.081001220703125,0.13482347777036108,0.07757369949521987,-0.05549985511786121
1789997629187072000,4.091072021484375,0.1747350416575482,0.0824845508947431,-0.014129055364467501
1789997629197142000,4.10114208984375,0.20055679654121822,0.08553255637501556,-0.004615808593651164
1789997629207213000,4.111213134765625,0.2001053214364862,0.11264020735806225,-0.045386943022842186
1789997629217283300,4.121283447265625,0.1924375586900526,0.10450231996808229,-0.01559767187519761
1789997629227354000,4.13135400390625,0.16502966198216296,0.0842926287398229,-0.013819655917605898
1789997629237424000,4.141424072265625,0.13592112840779802,0.07418320834781109,0.014928694820451798
1789997629247495200,4.1514951171875,0.1339911746717694,0.04451069936079187,0.05981737433181235
1789997629257565200,4.161565185546875,0.11588288302832495,0.035554224987071524,0.05716009300439214
1789997629267636000,4.171635986328125,0.09958895942509118,0.041820050959944365,0.021851116465151615
1789997629277706200,4.181706298828125,0.11231578450596798,0.026149554174646632,0.031351974521746435
1789997629287777300,4.19177734375,0.0811688408992899,0.007209292879080892,-0.0131388757741718
1789997629297847300,4.201847412109375,0.08094037926719069,0.008529902696012611,-0.04260680806716977
1789997629307918000,4.21191796875,0.0688116995048069,-0.003921793651834693,-0.015820087371188965
1789997629317988000,4.221988037109375,0.05211403930206349,-0.047997253228706384,-0.00813576974380815
1789997629328059100,4.23205908203125,0.0232495256667254,-0.0643479184785426,-0.045473090879281045
1789997629338129200,4.242129150390625,-0.020376563849812932,-0.04803899683617996,-0.07073748035196427
1789997629348200200,4.2522001953125,-0.049678091962623815,-0.043365671575360996,-0.09782962560338293
1789997629358270200,4.262270263671875,-0.043042579109727454,-0.038681991836917375,-0.1249938982752097
1789997629368341200,4.27234130859375,-0.011128686972954013,-0.029135029612771174,-0.07951745909505237
1789997629378411000,4.282410888671875,-0.004318196451117777,-0.05679071997843761,0.02560634321830577
1789997629388482000,4.29248193359375,0.005913536593177007,-0.10614417173869316,0.06500807889309461
1789997629398552000,4.302552001953125,-0.05707238851605128,-0.15312626242975122,0.025335965240006635
1789997629408623000,4.312623046875,-0.08670968649054697,-0.17503179188311804,-0.005699908796474153
1789997629418694100,4.322694091796875,-0.08231763535139497,-0.17663948346312955,-0.0293166456505125
1789997629428764200,4.33276416015625,-0.06341834866381493,-0.23549422105021234,0.017618175510478225
1789997629438835200,4.342835205078125,-0.04272092185557004,-0.29860976555971797,0.03622424280451714
1789997629448905200,4.3529052734375,-0.0799098975113301,-0.28437751025855834,0.01008324454369091
1789997629458976300,4.362976318359375,-0.10936299018823269,-0.2839881855749449,-0.005543842860606946
1789997629469046000,4.3730458984375,-0.10360693184005346,-0.312171639496053,-0.006165268997538238
1789997629479117000,4.383116943359375,-0.06843421203149344,-0.3192484205214075,-0.007388880472800871
1789997629489187300,4.393187255859375,-0.04144626130609863,-0.3261423807939831,0.04208120690575065
1789997629499258000,4.403258056640625,-0.0064606709414609005,-0.322557420630648,-0.025118358474452256
1789997629509328100,4.413328125,-0.0095252316903065,-0.3237431258719286,-0.011221587926184318
1789997629519399200,4.423399169921875,0.04232229612657485,-0.3043261219072099,0.043952752706538104
1789997629529469200,4.43346923828125,0.07886133263068222,-0.26304575187832596,0.030397419817790514
1789997629539540000,4.4435400390625,0.07065704351911566,-0.22231961989277665,-0.0005682619788217161
1789997629549610200,4.4536103515625,0.10149459816025208,-0.1833016338235285,0.05187557390942608
1789997629559681000,4.463680908203125,0.13599968156077058,-0.1285858091984991,0.022209453974827653
1789997629569751000,4.4737509765625,0.13301366873893017,-0.08736429989486948,0.04197318560430811
1789997629579822000,4.483822021484375,0.1954722029843936,-0.0438252189098093,0.06582408911298541
1789997629589892000,4.49389208984375,0.22361347229509035,0.002222975248131158,0.05707098407750764
1789997629599963000,4.503962890625,0.26390290114135795,0.057993145348542365,0.06496581182306949
1789997629610033200,4.514033203125,0.28435410516626586,0.13677501717172377,0.012113054811210115
1789997629620104200,4.524104248046875,0.3185288117437661,0.1824813632832499,0.03767117064160043
1789997629630174000,4.534174072265625,0.3650999741016182,0.2540408004420745,-0.02070385668007643
1789997629640245000,4.544244873046875,0.3984168600919422,0.2972039625283957,-0.05691845583769749
1789997629650315000,4.55431494140625,0.397428363043573,0.3488929263727994,-0.06313717685318931
1789997629660386000,4.564385986328125,0.4116110863395317,0.408835900182826,-0.059883533431916006
1789997629670455800,4.574455810546875,0.42995174647234624,0.43015711680385393,-0.047619272185880766
1789997629680526800,4.58452685546875,0.45714125124161614,0.47491435660918707,-0.0032342500847192196
1789997629690597000,4.59459716796875,0.44298295043049063,0.5251849837514209,-0.03603366037163671
1789997629700668200,4.604668212890625,0.40890898276670434,0.5136973738247413,-0.049398593820662175
1789997629710738000,4.614738037109375,0.4045098236564883,0.5346784271422682,-0.044911352128848364
1789997629720809000,4.62480908203125,0.41038129406583235,0.5506958773164675,-0.03633232333518309
1789997629730879000,4.63487890625,0.3915917980847008,0.5289449732756517,-0.022370348682006217
1789997629740950000,4.644949951171875,0.37788058693560456,0.5180113438326128,-0.0008957542445711839
1789997629751021000,4.65502099609375,0.34250683239553,0.49321614385150325,-0.06173338363620512
1789997629761091000,4.665091064453125,0.29091065493458945,0.4513411086466794,-0.049202742914797634
1789997629771162000,4.675162109375,0.2858480881339384,0.4645509839062465,-0.022898298351460844
1789997629781232000,4.685232177734375,0.26433030150700443,0.4332810871496539,-0.02591133865590382
1789997629791303000,4.695302978515625,0.1992561472475275,0.381075269241007,-0.004056573207647401
1789997629801373000,4.705373046875,0.16240876020360565,0.3689665254172996,-0.023352991502838653
1789997629811444000,4.71544384765625,0.08997506460652002,0.35158735570460775,-0.05459119076298293
1789997629821514200,4.72551416015625,0.04393900777243787,0.35617654260901543,-0.11070729800361757
1789997629831585000,4.7355849609375,0.024215190362170895,0.37788165567826193,-0.14063704031531102
1789997629841655000,4.745655029296875,0.021099370629706824,0.3823118406338872,-0.0758728382690737
1789997629851726000,4.75572607421875,0.02847006283327232,0.39184986136259936,-0.006031571157207343
1789997629861796000,4.765796142578125,0.03315926235686536,0.36626249388456844,0.05618525520043768
1789997629871867000,4.775866943359375,-0.01739082293778031,0.3418593736506583,0.0630522113924315
1789997629881937200,4.785937255859375,-0.05008151799385351,0.3028359145447912,0.045928794765687765
1789997629892008200,4.79600830078125,-0.08478370560366183,0.25937546067052925,0.03851767597830735
1789997629902078000,4.806077880859375,-0.12565371254427044,0.2294910754212609,0.03148686826187728
1789997629912149000,4.81614892578125,-0.10588007920461526,0.2244245539088022,0.03054826436349659
1789997629922219000,4.826218994140625,-0.09815746963260398,0.209502119267487,0.045177218389304205
1789997629932290000,4.8362900390625,-0.12791514414775035,0.209005305145471,-0.00016364559527015
1789997629942359800,4.84635986328125,-0.1357725744333936,0.1771609382133912,-0.011883333050194601
1789997629952430800,4.856430908203125,-0.13914072310397718,0.1294008117891602,0.034132286764711514
1789997629962501000,4.866501220703125,-0.14105504077459072,0.08143859795141428,0.05888795988744156
1789997629972572200,4.876572265625,-0.17654638650648788,0.052057439617585764,0.01620239483928902
1789997629982642000,4.886641845703125,-0.21084664168523634,0.030952917633307382,-0.0029056848231577477
1789997629992713000,4.896712890625,-0.24469558639051453,0.028148187138485704,0.02450983042463201
1789997630002783000,4.906782958984375,-0.260294810239111,0.013573887998994227,0.0418820330277155
1789997630012854000,4.91685400390625,-0.23082355706203303,-0.02880991910670037,0.05730304416855419
1789997630022924000,4.926924072265625,-0.2549189437291192,-0.048570612789162346,0.07300934258635979
1789997630032995000,4.9369951171875,-0.2771932861334975,-0.08129963667043133,0.06477576410156707
1789997630043065000,4.947065185546875,-0.2729368101523395,-0.09720546636131562,0.10343455970402164
1789997630053136100,4.95713623046875,-0.28919269916292767,-0.10178349500477167,0.07301308335664075
1789997630063207200,4.967207275390625,-0.273398630118372,-0.13604790482905124,0.06977485909563655
1789997630073277000,4.97727685546875,-0.28874150002748233,-0.18464473245177573,0.07525136845679874
1789997630083348000,4.987347900390625,-0.30271148151979643,-0.23012727566239077,0.10109646954692408
1789997630093418200,4.997418212890625,-0.3098507274488799,-0.25339359654261245,0.05746197193770534
1789997630103489000,5.007489013671875,-0.32307111206486544,-0.28601898296287565,0.0612905461436085
1789997630113559000,5.01755908203125,-0.30785580480307456,-0.3520636285379413,0.10301760547443083
1789997630123630000,5.027630126953125,-0.3405760507316054,-0.38249960665478305,0.03229863375782458
1789997630133700000,5.0377001953125,-0.36739944893523585,-0.42243868435305004,0.0052958792258606
1789997630143771000,5.04777099609375,-0.382915459690689,-0.43549743707284133,-0.038164230988749326
1789997630153841000,5.0578408203125,-0.3824491107027186,-0.4325709602261657,-0.018108527064784444
1789997630163912000,5.067911865234375,-0.3751703916128761,-0.4569656872444985,-0.009870478946822605
1789997630173982200,5.077982177734375,-0.37095195568438283,-0.5176720409315572,0.028379935608582863
1789997630184053000,5.088052978515625,-0.41509620280788484,-0.5422310178872571,0.023972183468582323
1789997630194123000,5.098123046875,-0.4441775538804806,-0.5413829484536711,0.029404341620795478
1789997630204194000,5.108194091796875,-0.41093146883568893,-0.5260121268632518,0.01793288775557863
1789997630214263800,5.118263916015625,-0.3903657751727166,-0.5244495281552922,0.06735751948450114
1789997630224334800,5.1283349609375,-0.3407585242500654,-0.5172447823576997,0.07250642911355694
1789997630234405000,5.138405029296875,-0.32191494699622114,-0.48831657512590365,0.03989626528165477
1789997630244476200,5.14847607421875,-0.3414373534060469,-0.43998277320615586,0.005618182721646544
1789997630254546000,5.1585458984375,-0.28517520737307867,-0.4221446112586386,0.017165734147963796
1789997630264617000,5.168616943359375,-0.22880783170678645,-0.41608725250491096,0.007648607351242651
1789997630274687000,5.17868701171875,-0.19480809527157072,-0.39404373334202036,0.008174960075332754
1789997630284758000,5.188758056640625,-0.1616417840304652,-0.3522454514594329,-0.012777839205590008
1789997630294828000,5.198828125,-0.12113115105578191,-0.32555250674828756,-0.014050687205222838
1789997630304899000,5.208899169921875,-0.06168808935770811,-0.2914737018211685,0.018028530651877647
1789997630314969000,5.218968994140625,-0.046718487055909995,-0.2507401312379527,0.02131376365952488
1789997630325040000,5.2290400390625,-0.020548286217397557,-0.22862004876383943,-0.004082682616243425
1789997630335110000,5.23910986328125,0.026000724943716427,-0.20470880661035035,0.020604943682508467
1789997630345181000,5.249180908203125,0.062234245849766875,-0.15593633147991348,0.03736570111975375
1789997630355251200,5.259251220703125,0.10166924321007194,-0.1127527915468271,0.08547643268051243
1789997630365322200,5.269322265625,0.09266285854191668,-0.08236366738365276,0.061697414965275046
1789997630375392000,5.27939208984375,0.11821490076006619,-0.04132679088793756,-0.06446818768187347
1789997630385463000,5.289463134765625,0.12000915250475577,-0.01547615805619804,-0.06892096800811288
1789997630395534000,5.2995341796875,0.14728463159673097,0.043320075140541946,-0.05657948362676481
1789997630405604000,5.30960400390625,0.17831249505310912,0.09449251766677409,-0.06624958524982859
1789997630415675000,5.3196748046875,0.17595944392664567,0.11241605957394492,-0.015649506005962845
1789997630425745000,5.329744873046875,0.1797010553931742,0.10875483086759008,0.021271025363246147
1789997630435816000,5.33981591796875,0.16065311483377892,0.10555504571995918,0.019555291383940902
1789997630445886200,5.34988623046875,0.16798150469242215,0.14357640105339028,0.02134821073421641
1789997630455957000,5.35995703125,0.19624875555804477,0.18309034476892905,0.02740950630644668
1789997630466027000,5.370027099609375,0.1771743117896695,0.20803297136749,-0.019103486139808223
1789997630476098000,5.38009814453125,0.1608855309833714,0.22946890900444097,-0.06382001323321043
1789997630486168000,5.39016796875,0.17482748130134665,0.23147639423192978,-0.04332696179483428
1789997630496238800,5.40023876953125,0.22120633809827822,0.22319981118731297,-0.0040444480888562045
1789997630506309000,5.41030908203125,0.20110136966937706,0.22006485575120027,0.012219781262550114
1789997630516380200,5.420380126953125,0.19510899409593832,0.2110890467235258,0.02554934320591482
1789997630526450000,5.430449951171875,0.1677632299418054,0.22002180013458067,0.012886230676686993
1789997630536521000,5.44052099609375,0.13871585020640093,0.22181009529185527,-0.030928157048585814
1789997630546591000,5.450591064453125,0.1451610068375317,0.20296826106472385,-0.018315828854001123
1789997630556662000,5.460662109375,0.15573388225870782,0.18516194977092973,0.024265037989068768
1789997630566732000,5.47073193359375,0.1710624112012887,0.18081774631227734,0.08626812058929616
1789997630576803000,5.480802978515625,0.1562832891499631,0.18294267350094162,0.06508071606038647
1789997630586873000,5.490873046875,0.0928476589181369,0.14998661185893777,0.04090097836206946
1789997630596944100,5.500944091796875,0.04756231159755238,0.0855770357532024,0.03455062444715737
1789997630607014000,5.511013916015625,-0.0014246043121532892,0.037336468124350694,0.010349777497614385
1789997630617085000,5.5210849609375,-0.04947265314225714,0.016969023607954176,-0.020299037315770877
1789997630627155000,5.531155029296875,-0.0423900015139124,-0.03288332919314292,0.01808750630147702
1789997630637226000,5.54122607421875,-0.05070631741638715,-0.07310653216219387,-0.013235040629623282
1789997630647296000,5.5512958984375,-0.0920013690079884,-0.09925749212467426,-0.008952070549489682
1789997630657367000,5.561366943359375,-0.11464709561654503,-0.12935789572583878,-0.04557899241409705
1789997630667437000,5.57143701171875,-0.14574140667962673,-0.1617155808768397,-0.04946741576618032
1789997630677508000,5.581508056640625,-0.18561515018757702,-0.20841560152100394,-0.03416436781143706
1789997630687577900,5.591577880859375,-0.17070404528370775,-0.2659426794018752,-0.008636190788936784
1789997630697649000,5.60164892578125,-0.15656441900132276,-0.27545626525453437,0.006753189729157619
1789997630707719200,5.61171923828125,-0.15135521025439969,-0.3209732236305652,0.045861656845107644
1789997630717790200,5.621790283203125,-0.13648516746506048,-0.3365098947781036,0.064022266143188
1789997630727861000,5.631861083984375,-0.14045100343610703,-0.3372516550965589,0.07335074467833301
1789997630737931000,5.641930908203125,-0.14292428387017192,-0.3202869233964499,0.035277447647143655
1789997630748002000,5.652001953125,-0.1348655935816965,-0.3084934029170279,0.007762761600504922
1789997630758072000,5.662072021484375,-0.10958342914529363,-0.29501782614286315,-0.011332871835541432
1789997630768142800,5.672142822265625,-0.09152067509475956,-0.2821978499247832,-0.003886116498840625
1789997630778213000,5.682213134765625,-0.06248086303616672,-0.2738335397750514,-0.005349563367780114
1789997630788284200,5.6922841796875,-0.04156240554163094,-0.27604502825298183,0.05769561732745711
1789997630798354200,5.702354248046875,-0.01795719430298828,-0.2602078661811423,0.058689331965072
1789997630808425000,5.712425048828125,-0.024213928312796625,-0.2085755170950799,0.029660335883146184
1789997630818495000,5.722494873046875,-0.01110302503270221,-0.16098984000361494,0.0030186657207912386
1789997630828566000,5.73256591796875,-0.0054769775817799056,-0.14361379584698755,-0.014748620505557267
1789997630838636000,5.742635986328125,0.009910612629569769,-0.12300130071443796,-0.011040491194036208
1789997630848707000,5.75270703125,0.010570898573828908,-0.10587646603548076,-0.05306815623252947
1789997630858777000,5.762777099609375,0.002658682096043694,-0.10925185195143272,-0.07962228805864908
1789997630868848000,5.77284814453125,0.0017017764133073123,-0.0786699117912359,-0.0507176749009377
1789997630878918000,5.78291796875,0.05935626183490467,-0.06502805819602785,-0.005122085580578647
1789997630888989000,5.792989013671875,0.04998743240860294,-0.05492606042386465,0.029899716400536836
1789997630899059000,5.803058837890625,0.035485772131024405,-0.06628299423235444,0.041613476380829295
1789997630909130000,5.8131298828125,0.024873699755945156,-0.06144938141204359,0.012566932568095055
1789997630919200000,5.823199951171875,0.06012826912181613,-0.04639807871645701,0.046999836813405214
1789997630929271000,5.83327099609375,0.08298932692499678,-0.04073632565145686,0.03343278728596705
1789997630939341000,5.843341064453125,0.05945382037907573,-0.023807411469747432,0.008267307188631993
1789997630949412000,5.853412109375,0.07741879917911698,-0.01160286916416746,-0.021868929944585575
1789997630959481900,5.86348193359375,0.06423485545416908,-0.003384539282253411,-0.020120931682118978
1789997630969553000,5.873552978515625,0.05001507720437686,-0.027803317212136126,-0.01875122488981196
1789997630979623200,5.883623046875,0.048922591014056674,-0.035595387041176506,-0.0012187752828970683
1789997630989694200,5.893694091796875,0.05432380982786053,-0.014932022303561731,0.026759058072289694
1789997630999764000,5.903763916015625,0.027445976912531273,0.006242713191580597,-0.01546083046439171
1789997631009835000,5.9138349609375,0.03772902164001396,0.003795880788789072,-0.03087994164846039
1789997631019905000,5.923905029296875,0.058182368306022185,-0.015910366963256165,-0.011479247809032832
1789997631029976000,5.93397607421875,0.07669837679105822,-0.07082212713938957,0.08822652935834582
1789997631040046000,5.944046142578125,0.03842799574489814,-0.11282956764585432,0.08080964685912895
1789997631050117000,5.9541171875,0.03708909034380179,-0.16326247877395575,0.031957900405849095
1789997631060187100,5.964187255859375,0.028043983446743963,-0.15417932610357496,0.019478288444157513
1789997631070258200,5.974258056640625,0.03011821792872084,-0.11491321865978944,0.018905619178378612
1789997631080329000,5.984328857421875,0.067582463049756,-0.11528991827425501,0.013175690421195204
1789997631090399000,5.99439892578125,0.06180670220204602,-0.14241527375374963,0.03461715999477298
1789997631100470000,6.004469970703125,0.0585515350464027,-0.1650020758918712,0.04555707792679367
1789997631110540000,6.0145400390625,0.06797419700197002,-0.16147716094197603,0.03155761705659963
1789997631120611000,6.024611083984375,0.07024909545328645,-0.16936357721770748,0.02382710226246717
1789997631130681000,6.03468115234375,0.08812382825440035,-0.1584756735132961,0.03656865415061173
1789997631140752100,6.044752197265625,0.08057624024492835,-0.1291178977223045,0.006654946317688441
1789997631150822000,6.05482177734375,0.059453604175715394,-0.12096535127740281,-0.030798206839215872
1789997631160893000,6.064892822265625,0.07927575615354142,-0.12106420226857396,-0.03309522400376661
1789997631170963000,6.074962890625,0.11248746232678197,-0.10645278648016841,0.0058917237901246105
1789997631181034000,6.085033935546875,0.13419851889544201,-0.07372094962690429,0.03485657418998196
1789997631191104000,6.09510400390625,0.11419853050640745,-0.04004390697046926,0.015219407571718633
1789997631201175000,6.105175048828125,0.11443451224384388,-0.03329520031584229,-0.01401688994690949
1789997631211245000,6.1152451171875,0.09622437250513105,-0.012077950692886853,-0.026477413152025207
1789997631221316000,6.125316162109375,0.09673002820697305,-0.008363672670428793,-0.036310863536904665
1789997631231385900,6.1353857421875,0.11967935594612945,-0.02444772949173393,-0.02658515458900831
1789997631241457000,6.145456787109375,0.13234534878370496,-6.360637485682132e-05,-0.05485618845436153
1789997631251527200,6.155527099609375,0.1354242265069169,0.009509942141844243,-0.07109542268823422
1789997631261598200,6.16559814453125,0.15690547326305554,0.0066608348362008135,-0.042095718338124956
1789997631271668000,6.17566796875,0.17201636995808575,0.023013469549739856,-0.030640078554985687
1789997631281739000,6.185739013671875,0.19040089649382752,0.01782099220876494,0.002256495597954894
1789997631291809000,6.19580908203125,0.181669481871884,0.045969239855550646,-0.0192121023041982
1789997631301880000,6.205880126953125,0.21187576453436788,0.051165478754350936,0.007696430072110284
1789997631311950000,6.2159501953125,0.23055780846519988,0.04967197219628733,0.051901589223384885
1789997631322021000,6.226021240234375,0.2347721524702605,0.08983364216769284,0.002470550408166764
1789997631332091100,6.236091064453125,0.24133698227316583,0.118737894044989,-0.08651252132995245
1789997631342162200,6.246162109375,0.247834469384544,0.16177449290189783,-0.1006159032021496
1789997631352232000,6.25623193359375,0.27469912463871954,0.21352869014878695,-0.13343813711318114
1789997631362303000,6.266302978515625,0.28370552011251776,0.23986825461138067,-0.1279373251024823
1789997631372373000,6.276373046875,0.28525041539999213,0.30669635619237823,-0.10544562337174762
1789997631382444000,6.286444091796875,0.28480997610581527,0.34160903004284443,-0.08642220015597377
1789997631392514000,6.29651416015625,0.3016439305605235,0.34052512571592364,-0.03850657450997918
1789997631402585000,6.306585205078125,0.28909655137831297,0.33146646781677797,-0.0033707708959891396
1789997631412655000,6.316655029296875,0.29164911529268184,0.3402957124390203,-0.023699856622377315
1789997631422726000,6.326725830078125,0.29707914790703205,0.34319371162182366,-0.04357870083029971
1789997631432796000,6.3367958984375,0.2749442648254607,0.3605095766448498,-0.08282915714403154
1789997631442867000,6.346866943359375,0.24140745193625684,0.3516926510146976,-0.10804770982254884
1789997631452938000,6.35693798828125,0.2360310749112904,0.3320306891465091,-0.08051313496435851
1789997631463008000,6.367008056640625,0.23893142675854356,0.3406130427351886,-0.09553016147514035
1789997631473079000,6.3770791015625,0.21183748522022017,0.34468815547667975,-0.06409854621786078
1789997631483149000,6.387149169921875,0.21522792007637032,0.31532331165107547,-0.017207137899533292
1789997631493220000,6.39722021484375,0.208791607330199,0.3170746192719895,-0.03727482473959821
1789997631503289900,6.407289794921875,0.1942615970436268,0.29849549885841486,0.000137903074198167
1789997631513361000,6.41736083984375,0.19753644796305025,0.2559033760274926,0.06603844928351515
1789997631523431200,6.42743115234375,0.17843250218886,0.256808068218374,0.05868134907824117
1789997631533502200,6.437502197265625,0.15996842434631123,0.2923990513237127,0.017885482684358498
1789997631543572000,6.447572021484375,0.15669741597760245,0.286983838255294,0.019414286542375217
1789997631553642800,6.457642822265625,0.12832611292256152,0.2984449158263007,-0.04117622139968645
1789997631563712500,6.46771240234375,0.13559151622810403,0.30987705623112155,-0.07020111888053514
1789997631573783600,6.477783447265625,0.13117068777139745,0.3281249060178917,-0.0823301274485734
1789997631583853800,6.487853759765625,0.1466869732946265,0.3234551384175136,-0.04102360960445858
1789997631593924900,6.4979248046875,0.1366321477222579,0.303987656657019,-0.0179298776694548
1789997631603994600,6.50799462890625,0.13456659445441432,0.27898601928076033,0.013181290106108844
1789997631614065700,6.518065673828125,0.1120951545550875,0.23823528530501084,0.03843762419667266
1789997631624135700,6.5281357421875,0.09611881643511178,0.19616604509507235,0.03504825060596537
1789997631634206700,6.538206787109375,0.04041023245496554,0.1504954949200809,0.05354276272708198
1789997631644276700,6.54827685546875,-0.0047678348810061095,0.13471555036094038,0.03781537670322575
1789997631654347800,6.55834765625,0.01838961816218566,0.059881464076544426,0.1330539334683446
1789997631664417800,6.568417724609375,0.021674670021953946,0.021195507547191333,0.15189537809858944
1789997631674488600,6.578488525390625,-0.03722555162341587,0.05614159238166707,0.04302130951736712
1789997631684558600,6.58855859375,-0.06877243153620569,0.052023877819272285,0.010502168371893758
1789997631694629600,6.598629638671875,-0.08801395134753309,0.093438817607111,-0.05607064342881824
1789997631704699600,6.60869970703125,-0.056198726922127205,0.1060991595103391,-0.026170713731834126
1789997631714770400,6.6187705078125,-0.03604780900976067,0.071239735661876,0.01258689432382857
1789997631724840700,6.6288408203125,-0.05286480530807814,0.06775352524420035,0.00433852699989268
1789997631734911700,6.638911865234375,-0.07788787341870772,0.08426129255617701,0.04251163393362829
1789997631744981800,6.648981689453125,-0.09598170220383546,0.07947611704832959,0.014065343283751827
1789997631755052500,6.659052490234375,-0.10818626190284715,0.08766585780437526,0.07118211813061047
1789997631765122600,6.66912255859375,-0.0903101849115061,0.06209235630618612,0.08729296902841872
1789997631775193600,6.679193603515625,-0.04912261649829464,0.06991063070668117,0.14648167505050755
1789997631785263600,6.689263671875,-0.072424911460842,0.09581074018889651,0.15633875933521513
1789997631795334700,6.699334716796875,-0.08002949693823265,0.1077903308126691,0.13160503412783492
1789997631805404700,6.70940478515625,-0.09171660878037131,0.10509047881718493,0.07890674721086513
1789997631815475700,6.719475830078125,-0.07297849458270556,0.09475087317197087,0.09064915413525156
1789997631825545500,6.72954541015625,-0.09303012681607432,0.09080486928548365,0.05024587419134652
1789997631835616500,6.739616455078125,-0.07902117669410919,0.10093509509880456,0.06298788964993116
1789997631845687600,6.7496875,-0.09876574707843679,0.09225535014838712,0.03541641220086969
1789997631855757800,6.7597578125,-0.1214143024605932,0.055617984070999174,0.048475864730550884
1789997631865828900,6.769828857421875,-0.13214145172764535,0.04960715232459493,-0.0158237277075012
1789997631875898600,6.779898681640625,-0.13571304795562053,0.0793448179698363,-0.038197532733198626
1789997631885969700,6.7899697265625,-0.1422241788265198,0.07303075019619358,-0.05171844227160109
1789997631896039700,6.800039794921875,-0.09701888298276891,0.052594599408992575,-0.00994006634297309
1789997631906110700,6.81011083984375,-0.13043361809007953,0.019388618450628156,-0.031148207865463517
1789997631916180700,6.8201806640625,-0.17076600352222493,0.01571012493207528,-0.02678289176155773
1789997631926251800,6.830251708984375,-0.14667685405473768,0.020164064363016553,-0.02873050807353643
1789997631936321800,6.84032177734375,-0.1675749772867531,-0.003125631342355012,-0.02586199864839424
1789997631946392800,6.850392822265625,-0.167699621624712,-0.026783045155898858,-0.02362671865174931
1789997631956462600,6.860462646484375,-0.17087269711149294,-0.001966150084363609,-0.010492297263288194
1789997631966533600,6.87053369140625,-0.16524832693926533,-0.047979624481027515,0.0021375254794703206
1789997631976603600,6.880603759765625,-0.16976224859199363,-0.09119929606071511,0.054897684321022745
1789997631986674400,6.89067431640625,-0.1689887908409826,-0.09996399947935446,0.09024434895420932
1789997631996744700,6.90074462890625,-0.17246938706088757,-0.10443620804063158,0.07391649894000363
1789997632006815700,6.910815673828125,-0.20693091004053554,-0.1319644833717913,0.011348043994049907
1789997632016885800,6.9208857421875,-0.2454005247172978,-0.15069456879831572,-0.03569920110213246
1789997632026956500,6.93095654296875,-0.2844584212414387,-0.16735468354176536,-0.07009884341924329
1789997632037026600,6.941026611328125,-0.2965523895194577,-0.18436749634588837,-0.1427461260214264
1789997632047097600,6.95109765625,-0.3020711240001061,-0.19180529016869166,-0.14313820788986342
1789997632057168000,6.96116796875,-0.27353830323718886,-0.20416502639516212,-0.10849644362842241
1789997632067238700,6.97123876953125,-0.24092717644933154,-0.21461442313805348,-0.0977780272207522
1789997632077308700,6.98130859375,-0.25603902958435826,-0.2104953628097895,-0.10513120431146415
1789997632087379700,6.991379638671875,-0.27258219734262307,-0.23137357732827865,-0.0552649151918509
1789997632097449500,7.001449462890625,-0.2851257962235238,-0.29751041194684963,-0.008451439374936153
1789997632107520500,7.0115205078125,-0.3047954281434887,-0.34709969282561876,-0.005195624661046096
1789997632117590800,7.0215908203125,-0.24581068204078657,-0.3739579485890143,0.02407274185720332
1789997632127661800,7.031661865234375,-0.18156125590113525,-0.38158298365167614,0.07388840703527452
1789997632137731600,7.041731689453125,-0.14935630581283166,-0.3487118803876171,0.060282279341007966
1789997632147802600,7.051802734375,-0.10247261802650642,-0.3392942546140839,0.10038703636991825
1789997632157872600,7.06187255859375,-0.07435647705158392,-0.34665783196878874,0.11708078125176669
1789997632167943700,7.071943603515625,-0.08308171657554013,-0.3149064267577186,0.12679705689691423
1789997632178013400,7.082013427734375,-0.0879543899686189,-0.26004444853089514,0.08709507020798662
1789997632188084500,7.09208447265625,-0.09332066873974001,-0.20732174598433864,-0.01127378814814615
1789997632198154800,7.10215478515625,-0.0888631396888606,-0.17608660009889618,-0.0446203685933681
1789997632208225800,7.112225830078125,-0.08197495656158262,-0.15837708272470416,-0.0030622182055595375
1789997632218295600,7.122295654296875,-0.058616832438204314,-0.15465243388256844,0.012281858940266639
1789997632228366600,7.13236669921875,-0.034910109206905016,-0.14164405881972825,0.02102858758939865
1789997632238436600,7.1424365234375,-0.022777964545511148,-0.13648454717232827,0.035195130240134764
1789997632248507600,7.152507568359375,-0.012403695846960572,-0.1252947717552734,0.023869306870304797
1789997632258577700,7.16257763671875,-0.03590015816242839,-0.1404264593465046,0.07579921234859384
1789997632268648700,7.172648681640625,-0.048735252552206454,-0.1659342609280476,0.10749950159956494
1789997632278718700,7.18271875,-0.030529403968339676,-0.19254881490683246,0.09146398156000095
1789997632288789800,7.192789794921875,-0.040981750711281746,-0.19902924157095236,0.08898153528138374
1789997632298860500,7.202860595703125,-0.036131783046398115,-0.1890779759385638,-0.007169404407224865
1789997632308930600,7.2129306640625,-0.006008246912963457,-0.20196756546874722,0.009772257282262747
1789997632319001600,7.223001708984375,0.011782907869448116,-0.21240896055415548,0.009772272359834057
1789997632329071900,7.23307177734375,0.03608204711474858,-0.22737672420508678,0.049852980498155466
1789997632339142700,7.243142578125,0.05284128170052126,-0.2695054685093068,0.06793395607058565
1789997632349212700,7.253212646484375,0.058384186816924574,-0.2605411681386574,0.07476434372052794
1789997632359283700,7.26328369140625,0.08657054159549636,-0.2437961611134866,0.06818103175697396
1789997632369353700,7.273353759765625,0.09394333131555374,-0.20687951178472794,0.08778255550012429
1789997632379424500,7.283424560546875,0.14084322522490286,-0.179418269639555,0.008619855587949895
1789997632389494800,7.293494873046875,0.1810722800949348,-0.130759495524191,-0.01372543836566486
1789997632399565800,7.30356591796875,0.19586193961154205,-0.07004295716936842,-0.054287783325268665
1789997632409635600,7.313635498046875,0.22376022378998783,-0.026404472298673865,-0.06577604991747683
1789997632419706600,7.32370654296875,0.24429141256271777,0.013238179072304124,-0.02178748956755653
1789997632429776600,7.333776611328125,0.2566122405970131,0.06196014022581629,0.034020704669497616
1789997632439847700,7.34384765625,0.25786262822002626,0.13750277983657674,-0.009289733991329163
1789997632449917400,7.35391748046875,0.2779124256494753,0.14234432583514472,0.01614275839108148
1789997632459988500,7.363988525390625,0.2633666592175301,0.15963953706032022,0.04761984656918769
1789997632470058800,7.374058837890625,0.2821319231877424,0.21200927355033208,-0.000888093540536422
1789997632480129800,7.3841298828125,0.2872398535713403,0.21903259923690427,0.008374973177442109
1789997632490199600,7.394199462890625,0.28650546205638505,0.24200485005394037,-0.05795608220711708
1789997632500270600,7.4042705078125,0.2644635179619608,0.253546793254397,-0.10537126062580517
1789997632510340600,7.414340576171875,0.29531659374185126,0.2496576899962341,-0.08370636458773338
1789997632520411600,7.42441162109375,0.3024890535557956,0.2524529194425781,-0.0313599856422287
1789997632530481700,7.434481689453125,0.31618232056432405,0.28379757282211654,0.0047897023209973804
1789997632540552700,7.444552734375,0.3487398292536115,0.3302785288639494,0.011780748459659889
1789997632550623500,7.45462353515625,0.32288526673733975,0.38007304622704347,0.006226054833577055
1789997632560694500,7.464694580078125,0.34154382638144254,0.4118318702441164,-0.04872810438753662
1789997632570764500,7.4747646484375,0.31103798437125546,0.4570968742743042,-0.08341314061705249
1789997632580835600,7.484835693359375,0.32251888064048057,0.4466756557454952,-0.07134293886045018
1789997632590905300,7.4949052734375,0.33439111345242983,0.45583192854922644,-0.08084794582421558
1789997632600976400,7.504976318359375,0.32562131700026953,0.46091890031113697,-0.07365041835010779
1789997632611046700,7.515046630859375,0.3338849955859101,0.4586032593514902,-0.04642681149847848
1789997632621117700,7.52511767578125,0.3365958755469274,0.4315246790095825,0.02212351593431492
1789997632631187500,7.5351875,0.33810727769906285,0.41870090358215134,0.0013935722168751503
1789997632641258500,7.545258544921875,0.32553393305135975,0.42402687469157857,-0.014824477125655959
1789997632651328500,7.55532861328125,0.2800032986022654,0.40297669393082974,-0.024614208471170313
1789997632661399600,7.565399658203125,0.24250789262245603,0.39432074979259185,-0.04491571146640615
1789997632671469600,7.575469482421875,0.2126534591178097,0.37813011474932745,-0.04492784840217905
1789997632681540600,7.58554052734375,0.19899126356272265,0.34196692152968566,-0.049174159846701045
1789997632691610600,7.595610595703125,0.18542449451072826,0.2923533020037208,-0.022175304238961722
1789997632701681700,7.605681640625,0.18145643785819174,0.2725458048857064,-0.015091176955133678
1789997632711751400,7.61575146484375,0.1538141207578544,0.2738765144768531,0.002057732557280794
1789997632721822500,7.625822509765625,0.11392566596990049,0.28501526356271994,-0.03629240850222431
1789997632731892500,7.635892578125,0.1293984021433518,0.28233238926394355,0.016935756171061335
1789997632741963500,7.645963623046875,0.1058092989924773,0.28022572471509516,0.06583522465623734
1789997632752033500,7.656033447265625,0.11268583910762349,0.2482400488683033,0.0560081798590684
1789997632762104600,7.6661044921875,0.06019931093426722,0.23723989627005232,0.05467141270689636
1789997632772174600,7.676174560546875,0.015360941613890147,0.22650981068177034,0.007354712954319954
1789997632782245600,7.68624560546875,0.0036063707940438886,0.18962074239334736,-0.053284216783756305
1789997632792316400,7.69631640625,-0.028171899184719882,0.21168575194856684,-0.10400773767666097
1789997632802386400,7.706386474609375,-0.02038701865549235,0.21994288158653333,-0.08125982415556308
1789997632812457500,7.71645751953125,0.010048684985995402,0.19227806912255405,0.004388894269972798
1789997632822527700,7.72652783203125,0.03641327792847566,0.18905331389760907,0.03488256025344487
1789997632832598500,7.7365986328125,-0.026611683059213773,0.17921446470528807,0.061276774582902635
1789997632842668500,7.74666845703125,-0.05745704948500373,0.18164769869047717,0.020646091465986064
1789997632852739600,7.756739501953125,-0.07088376544252364,0.15702601392274368,-0.009745441787097275
1789997632862809300,7.766809326171875,-0.08942187535919142,0.1635141681434474,-0.08764477166675833
1789997632872880400,7.77688037109375,-0.05177374264029747,0.18589229085778178,-0.06953968935639343
1789997632882950700,7.78695068359375,-0.04834199150501518,0.1837281926017548,0.01396673395733668
1789997632893021700,7.797021728515625,-0.017552826700638333,0.1767947382776799,0.009032675113819864
1789997632903091500,7.807091552734375,-0.030103029611014638,0.15152801459609505,0.040138732249078754
1789997632913162500,7.81716259765625,-0.0555652207242772,0.1678963406697013,0.0489126050504951
1789997632923232500,7.827232421875,-0.06730929232489913,0.1797440903040747,0.04993546511875281
1789997632933303600,7.837303466796875,-0.1074869154602462,0.18695411023051106,0.019493000968977364
1789997632943373600,7.84737353515625,-0.12189474894446231,0.15430558167279113,0.028507207148865146
1789997632953444600,7.857444580078125,-0.14540303948853894,0.14249975795558026,0.03968557227271026
1789997632963514600,7.8675146484375,-0.14511838165646054,0.16373794629099672,-0.021804204263945047
1789997632973585700,7.877585693359375,-0.14804742603239548,0.16297485923586646,-0.0062465953397475085
1789997632983655400,7.887655517578125,-0.13285499544123164,0.16849276805947883,-0.010122420062462445
1789997632993726500,7.8977265625,-0.14295407312628253,0.14803855061209892,0.0037918524655159796
1789997633003796500,7.90779638671875,-0.1319072506018336,0.11181540692078362,0.02125307528611959
1789997633013867500,7.917867431640625,-0.1709485734888262,0.10980193014604404,0.01471487744090956
1789997633023937500,7.9279375,-0.20639642768105074,0.1268051966352233,-0.04960941713831087
1789997633034008600,7.938008544921875,-0.19830409334364185,0.077169594532178,-0.018018238740887465
1789997633044078600,7.94807861328125,-0.24353717409337616,0.034703142963142516,-0.03286472029522378
1789997633054149600,7.958149658203125,-0.2643606164460457,-0.01746585291526722,-0.02687829091622304
1789997633064219400,7.968219482421875,-0.27843371512630927,-0.07683801645349318,-0.005424808757332808
1789997633074290400,7.97829052734375,-0.2662339287225806,-0.10995609170665305,0.10928233123868851
1789997633084360700,7.988360595703125,-0.2561086612525832,-0.15831142345486188,0.12873919698486586
1789997633094431700,7.998431640625,-0.260317260637687,-0.19679407017816547,0.07741246522389668
1789997633104501500,8.00850146484375,-0.2438206461655731,-0.2336824808402622,0.04444998450723253
1789997633114572500,8.018572509765624,-0.26654532808714265,-0.24711350777453622,0.02148923550188991
1789997633124642600,8.028642578125,-0.2745502515980945,-0.26188983179779557,-0.001032787377925663
1789997633134713600,8.038713623046876,-0.2910730535212931,-0.28549293085277283,0.01590194960616719
1789997633144783600,8.04878369140625,-0.28566356499916545,-0.3371626528020315,0.04867696489299414
1789997633154854700,8.058854736328126,-0.287786345360154,-0.3870229486376081,0.025819107667642054
1789997633164924700,8.068924560546876,-0.25487467419300097,-0.40111656563161,0.01667482698872551
1789997633174995500,8.078995361328126,-0.23957316618902605,-0.3308277468271451,-0.011785297860385615
1789997633185065500,8.0890654296875,-0.21963172627240768,-0.27774365615852487,0.0001780123173329139
1789997633195136500,8.099136474609375,-0.22083437870142927,-0.22778025181937908,-0.005494521629879292
1789997633205206500,8.10920654296875,-0.21074546441772624,-0.1860089141262364,-0.03488381334704809
1789997633215277300,8.11927734375,-0.16762571736736567,-0.1460119880828441,-0.00464601089166381
1789997633225348400,8.129348388671875,-0.13617812241608496,-0.13557386786320577,-0.004005634266995135
1789997633235418600,8.139418701171875,-0.10165885765983171,-0.13981280575561456,-0.01292517693238403
1789997633245489700,8.14948974609375,-0.0805096186899875,-0.08722198255828248,-0.03941814267063631
1789997633255559400,8.159559326171875,-0.027476488833627338,-0.04767792159814989,-0.013010664574082698
1789997633265630500,8.16963037109375,-0.020543451384909945,-0.013336796274825216,0.004396043218453698
1789997633275700500,8.179700439453125,0.009962615182929098,0.029082612537141183,-0.011438476773615985
1789997633285771500,8.189771484375,0.027988650878960804,0.08970249891728861,-0.03695282889769607
1789997633295841500,8.199841552734375,0.05599821720472254,0.13118514684059268,-0.03472288724999935
1789997633305912600,8.20991259765625,0.056250788615902506,0.159658609509642,-0.006605473614445865
1789997633315982600,8.219982666015625,0.07608931604592509,0.18510739712899602,-0.025956512646389332
1789997633326053600,8.2300537109375,0.044108799305752,0.18988333389840095,-0.10141608665049827
1789997633336123400,8.240123291015625,0.019256160527515238,0.20717500729869498,-0.14070094318554638
1789997633346194400,8.2501943359375,0.04197175704003013,0.1984549308039859,-0.12074661553182463
1789997633356264700,8.2602646484375,0.052378778363253026,0.19830005801012407,-0.019503782657058294
1789997633366335700,8.270335693359375,0.0816358086164849,0.21078754378249456,-0.022100164281394344
1789997633376405500,8.280405517578124,0.07158499277665024,0.1815523656988066,0.006324127724437115
1789997633386476500,8.2904765625,0.03826695585395916,0.18623309902391713,-0.0014211623074710713
1789997633396546600,8.300546630859374,0.021570625384595223,0.1711128952228536,0.059996623919211026
1789997633406617600,8.31061767578125,-0.019610041720059472,0.15481798060965998,-0.019873175885160306
1789997633416687600,8.3206875,-0.046260540646047454,0.09876749391612581,0.016471333369584205
1789997633426758400,8.33075830078125,-0.06445657464130854,0.06527118873325831,-0.018414261677504477
1789997633436828700,8.34082861328125,-0.07021594324154168,0.012138201768933349,-0.010375280775133961
1789997633446899500,8.3508994140625,-0.08811415205047461,-0.028587687147985638,0.029760415843736298
1789997633456969500,8.360969482421876,-0.09237259469061394,-0.044191476604476226,0.030640869377971794
1789997633467040500,8.37104052734375,-0.12283538337414171,-0.05010404091746917,0.041564815365310204
1789997633477110500,8.381110595703126,-0.18174984498963306,-0.04665558080381994,-0.0075563403185020155
1789997633487181300,8.391181396484376,-0.21723668058738826,-0.0560578309751689,-0.02551338048600815
1789997633497251600,8.40125146484375,-0.1900728089289795,-0.09897128229794648,0.0071029178914054514
1789997633507322600,8.411322509765625,-0.20910154340613615,-0.14655238776608312,-0.017637485661319553
1789997633517392600,8.421392578125,-0.21250208039988908,-0.20371011698137562,-0.016269258944655775
1789997633527463400,8.43146337890625,-0.19192872029807062,-0.2099308753735799,0.012860152644650156
1789997633537533400,8.441533447265625,-0.1681785021462161,-0.22100027744011666,0.06181011997397819
1789997633547604500,8.4516044921875,-0.16685289852744398,-0.2189785177306165,0.04399696976613224
1789997633557674200,8.46167431640625,-0.19763325044579644,-0.2013977743372287,0.026908684691404994
1789997633567745300,8.471745361328125,-0.19669272896899104,-0.2184981440497953,0.018557881601338196
1789997633577815000,8.48181494140625,-0.19220122575690374,-0.2525941799484772,0.05857145188034212
1789997633587886000,8.491885986328125,-0.19632565647012826,-0.2728542284970369,0.10317450621825196
1789997633597956000,8.5019560546875,-0.20278389665418564,-0.2639347069423909,0.03030407423677237
1789997633608027100,8.512027099609375,-0.22274087481459576,-0.2501581951021605,-0.06496403298090966
1789997633618097200,8.52209716796875,-0.2475565006945868,-0.22253112590807325,-0.06750769384554761
1789997633628168200,8.532168212890625,-0.21121936576595002,-0.2313719027191171,-0.017070121530720597
1789997633638238200,8.54223828125,-0.16812854774741703,-0.26123439087496303,0.0009887400174619695
1789997633648309200,8.552309326171875,-0.17230290998865136,-0.26561812655678446,0.002448528573982513
1789997633658379000,8.56237890625,-0.20820030771855472,-0.234315037657322,0.016047372596113864
1789997633668450000,8.572449951171874,-0.19590583802707498,-0.24757914622685112,0.06437449421211534
1789997633678521000,8.58252099609375,-0.20503702615663885,-0.28715242203252656,0.06873189149730127
1789997633688591400,8.59259130859375,-0.18316421930038237,-0.32978145014328614,0.06457687660537549
1789997633698662100,8.602662109375,-0.18075359640450983,-0.3541204018221487,0.02622069929431041
1789997633708732200,8.612732177734374,-0.1496578159187912,-0.3666601469394757,-0.02126731804460075
1789997633718803200,8.62280322265625,-0.13098833051450046,-0.32698279180047374,-0.05890522049588927
1789997633728873200,8.632873291015626,-0.08124919800254653,-0.31898264023460043,0.00478224402264028
1789997633738944000,8.642944091796876,-0.04032652590853288,-0.3835651383061024,0.06986212169285448
1789997633749014000,8.653013916015626,-0.037004206136352275,-0.42247322656834707,0.04327253606756766
1789997633759085000,8.6630849609375,-0.016461455980790875,-0.3991174775985588,0.03135422169519804
1789997633769155300,8.6731552734375,0.0215154999747976,-0.3977744330727254,0.07393332043684665
1789997633779226000,8.68322607421875,0.045190115649136026,-0.35757038540576,0.08050383282921114
1789997633789296000,8.693296142578125,0.12436710161491919,-0.3409004006012353,0.06815390779786379
1789997633799367200,8.7033671875,0.12294352683046633,-0.2910242850358402,0.016691873746318895
1789997633809437200,8.713437255859375,0.1240614630411679,-0.24468764282184383,-0.023138932561405492
1789997633819508000,8.723508056640625,0.18351685972918663,-0.1964962115507398,-0.04143384492590361
1789997633829578200,8.733578125,0.26285790453561014,-0.1229531900493947,0.04591038051875788
1789997633839649300,8.743649169921875,0.2646354133376082,-0.11021810097223474,0.04849261539643124
1789997633849719000,8.753718994140625,0.2452282992578539,-0.09925362733683366,0.024259641510274398
1789997633859790000,8.7637900390625,0.26114983538768427,-0.05128396537630378,0.03515496107956827
1789997633869860000,8.773860107421875,0.292894289076671,0.030947876649837308,0.017222131503517903
1789997633879931100,8.78393115234375,0.31554425347357545,0.07725812221253253,0.06549503843168986
1789997633890001200,8.794001220703125,0.3324607771818116,0.1160596896509914,-0.026051563573501548
1789997633900072200,8.804072265625,0.37716976136963143,0.11147463827495242,0.05882409523656664
1789997633910142200,8.81414208984375,0.36892096076901626,0.15247762713342694,0.02274776697913082
1789997633920213200,8.824213134765625,0.39533451719600443,0.19430090197063807,0.007013515405108304
1789997633930283000,8.834282958984375,0.3802330625197483,0.26388678638728624,-0.00533260829244712
1789997633940354000,8.84435400390625,0.40669332002459985,0.3118661246220566,-0.013369482343093689
1789997633950424300,8.85442431640625,0.4232296327036176,0.3199239177304232,-0.03302382381749452
1789997633960495400,8.864495361328125,0.40284778758500633,0.3563155858230919,-0.07935496511625222
1789997633970565000,8.874565185546874,0.3940629136516114,0.3961143489766573,-0.08520352082940005
1789997633980636200,8.88463623046875,0.40191609598838934,0.443436271733323,-0.07220517571505806
1789997633990706200,8.8947060546875,0.39446666219438725,0.4818304063926633,-0.07979128499277933
1789997634000777200,8.904777099609374,0.38882683597109985,0.47513740084313416,-0.054470310146431285
1789997634010847000,8.914846923828126,0.3466274316000322,0.5267695709495894,-0.025233031034952953
1789997634020918000,8.92491796875,0.3759131310443791,0.5314336497954717,-0.03586792533098248
1789997634030988300,8.93498828125,0.3345849684902451,0.4939657215802037,0.0015996503591200395
1789997634041059300,8.945059326171876,0.3600302219199253,0.48280210170484894,0.046524651740575636
1789997634051129000,8.955129150390626,0.3207820335104144,0.4948989076362648,-0.024467722307169117
1789997634061200100,8.9652001953125,0.2632543876475044,0.48380270449884455,-0.09150429750780024
1789997634071270100,8.975270263671876,0.24402559170631918,0.48728128799363996,-0.09659406211102374
1789997634081341200,8.985341064453126,0.18391653672959601,0.5069557469174011,-0.11344405110962842
1789997634091411200,8.9954111328125,0.1969201986101169,0.43526688886215104,-0.07816514308593664
1789997634101482200,9.005482177734375,0.1937231240143457,0.40062068971737413,-0.007947190501839986
1789997634111552300,9.01555224609375,0.17247855538376378,0.388571258925833,0.0023424553661374756
1789997634121623000,9.025623046875,0.16315821572217257,0.32510339111671677,0.02421229707735761
1789997634131693000,9.035693115234375,0.13091478462196296,0.3108486295639172,0.01974383728730782
1789997634141764000,9.04576416015625,0.12457878524302894,0.33405948746031083,-0.03128812462236744
1789997634151834400,9.05583447265625,0.11556897583761903,0.29996800834135867,0.04045696181379395
1789997634161905200,9.0659052734375,0.07074705992746452,0.28310574438804514,-0.009442987514483598
1789997634171975200,9.07597509765625,0.037177149487988476,0.2409743339623347,-0.049958072254363634
1789997634182046200,9.086046142578123,0.014511757407915854,0.2356790860998204,-0.07436994924166321
1789997634192116200,9.0961162109375,0.0182459217792815,0.20333623685033478,-0.017709630648877386
1789997634202187000,9.10618701171875,0.007624486852586289,0.19086665048244372,0.015173303119352851
1789997634212258000,9.116258056640625,-0.03820588147428626,0.17187903543695993,0.021707190362845512
1789997634222328000,9.126328125,-0.016634951107044424,0.17406706509807807,0.06049084068007853
1789997634232399000,9.136399169921877,0.007613827736267441,0.16287254684981722,0.0683539817522
1789997634242469000,9.14646923828125,-0.0597772889786394,0.12902551149993413,0.031127331417438904
1789997634252540200,9.1565400390625,-0.07919784662977007,0.07988815160504771,-0.01719252181717092
1789997634262610200,9.166610107421874,-0.09605959635976725,0.07174719166143244,-0.04319323417049559
1789997634272681200,9.17668115234375,-0.1172725084604611,0.062076889374855046,-0.08534260496587999
1789997634282751000,9.1867509765625,-0.11578053934671166,0.07382306413361009,-0.07726057804916575
1789997634292822000,9.196822021484374,-0.08328108897664484,0.044599517922474914,0.022980282918310797
1789997634302892300,9.206892333984374,-0.08108455122344263,-0.0007360929066960691,0.09061864025566098
1789997634312963300,9.21696337890625,-0.10137275969103936,-0.010153092173794514,0.12758586711962144
1789997634323033000,9.227033203125,-0.09602519814620177,0.03680968663255343,0.0843228768190705
1789997634333104000,9.237104248046874,-0.0954610241040104,0.05865845789945213,0.08198134588797774
1789997634343174100,9.247174072265626,-0.11452902647529332,0.06357647101444036,0.05781110275866827
1789997634353245200,9.2572451171875,-0.13130710317194644,0.039373272189110825,0.027243529120930594
1789997634363315200,9.267315185546876,-0.12948017721129437,0.0636962414689453,-0.0006618514014594625
1789997634373386200,9.27738623046875,-0.05782661264767501,0.0712965034221086,-0.012748856845823713
1789997634383456300,9.287456298828126,-0.08979467825222744,0.08037720378742798,0.0038764452955422856
1789997634393527300,9.29752734375,-0.06987323323638292,0.08488644255192881,0.05831083189508805
1789997634403597000,9.30759716796875,-0.09552249910071602,0.12593301989921818,0.041747860957420606
1789997634413668000,9.317668212890624,-0.12431129163068476,0.16232579304701614,0.012617911536378031
1789997634423738400,9.32773828125,-0.13493251103983728,0.1507631622575194,-0.007468812931506072
1789997634433809200,9.33780908203125,-0.13894134044936438,0.12831046939464208,-0.011834249929619008
1789997634443879200,9.347879150390623,-0.09623675970541806,0.10311784611046529,0.004854417471511168
1789997634453950200,9.3579501953125,-0.060871272130175014,0.0850013541157608,-0.002555856322757171
1789997634464020200,9.368020263671877,-0.02066473122509899,0.09378088124546051,-0.02842429266695283
1789997634474091000,9.378091064453123,-0.03810890215954099,0.09002219020409638,0.01047982800872571
1789997634484161000,9.3881611328125,-0.022601065959848433,0.07603021964134363,0.027097719757441182
1789997634494232000,9.398232177734377,-0.039430175942952776,0.0699047499697503,0.018501925529295703
1789997634504302300,9.40830224609375,-0.052997643023873296,0.07187926264815572,-0.03654460932197049
1789997634514373000,9.418373046875,-0.05474168001879752,0.045591412610231204,-0.024887433181742354
1789997634524443100,9.428443115234376,-0.04739865143385978,0.028934220307948583,0.03592419798546514
1789997634534514200,9.43851416015625,-0.05899542488402977,0.02032427117569675,0.04516579114061252
1789997634544584200,9.448584228515625,-0.043902398277751165,0.022825853659730732,0.002271906756231372
1789997634554655200,9.4586552734375,-0.028326667188088614,0.03632051919380909,-0.06240706479118948
1789997634564725500,9.4687255859375,-0.04465995269662264,0.031052561171754475,-0.050453682134486304
1789997634574796500,9.478796630859376,-0.032491522921420234,0.03148301864587772,-0.021257486242616704
1789997634584866300,9.4888662109375,-0.061935364676049924,0.028218868687324067,-0.007492812823465411
1789997634594937300,9.498937255859374,-0.07366806306022702,0.041710045883514686,-0.0042689096379381905
1789997634605007400,9.50900732421875,-0.03201218810191469,0.025118462837707006,0.02842384632904054
1789997634615078100,9.519078125,-0.052809670748334835,0.06375953061892756,0.012182768929529283
1789997634625148400,9.5291484375,-0.10203273347803885,0.07775959784305639,-0.038500084616166795
1789997634635219500,9.539219482421874,-0.1074912177190085,0.08006129781298567,-0.07310247045304402
1789997634645289500,9.54928955078125,-0.08985740851232629,0.12143451908406004,-0.07140552823386546
1789997634655360300,9.5593603515625,-0.08765250996115369,0.1027965948649806,0.03556805874965599
1789997634665431300,9.569431396484376,-0.0703224987641932,0.08470377560492603,0.08254066604720041
1789997634675501300,9.579501220703126,-0.10997157219831541,0.08213032487392127,0.10887936196898362
1789997634685572400,9.589572265625,-0.12535638850376696,0.1112267393238753,0.09769096933617288
1789997634695642000,9.59964208984375,-0.12749416403950237,0.12945575141122412,0.03611089147196605
1789997634705713200,9.609713134765624,-0.12203979202379732,0.11669357460824738,-0.02540692844230194
1789997634715783400,9.619783447265624,-0.11480094684465565,0.11589757179846222,-0.03740802214872245
1789997634725854500,9.6298544921875,-0.10188418059965375,0.13577515720164401,-0.04482393253572824
1789997634735924200,9.63992431640625,-0.06888564121424676,0.12471313071613277,0.02288183745769066
1789997634745995300,9.649995361328124,-0.05211935770859753,0.11275595748808315,0.029911391770277625
1789997634756065300,9.660065185546877,-0.068038842760263,0.11676581326106711,-0.017835501655721116
1789997634766136300,9.67013623046875,-0.06737735884334098,0.11689411257127248,-0.01704881260722722
1789997634776206300,9.680206298828123,-0.07444596507031162,0.1281815414400615,0.07148498552901456
1789997634786277400,9.69027734375,-0.0906612465326843,0.12846039967802136,0.08692452836036908
1789997634796347400,9.700347412109377,-0.12580106082161344,0.14671875570230908,0.049997224716927455
1789997634806418400,9.71041845703125,-0.10771005859886883,0.12211473709873191,0.059253395930230074
1789997634816488200,9.72048828125,-0.12621829974199747,0.10900743707210254,0.04457869090462856
1789997634826559200,9.730559326171877,-0.11331041080944258,0.0706075259249598,0.0716904042307994
1789997634836629500,9.74062939453125,-0.10310844685184205,0.0168402163091522,0.0994319743014093
1789997634846700500,9.750700439453125,-0.16841132178430832,0.04133157539390799,0.026071495295588852
1789997634856770300,9.760770263671876,-0.18147277003164833,0.043298380632759585,0.02506354653271678
1789997634866841300,9.77084130859375,-0.2285658733745793,0.037328019427365904,-0.004494339067180672
1789997634876911400,9.780911376953124,-0.22935791472641448,0.00999131683205284,0.03837856661654407
1789997634886982400,9.790982421875,-0.23626409936638554,-0.01273249758780055,0.0321613351691264
1789997634897052400,9.801052490234374,-0.2340144719155078,-0.03234104354790021,0.018172048872781624
1789997634907123200,9.811123291015624,-0.2449764803311521,-0.08234739033177291,0.08538471559695202
1789997634917193500,9.821193359375,-0.2985173245616788,-0.08714459714358742,0.021593401283078597
1789997634927264300,9.83126416015625,-0.2715983762369234,-0.10554014643587983,0.06982031895268137
1789997634937334300,9.841334228515626,-0.2776082030903376,-0.08794202012508318,0.03381307464372624
1789997634947405300,9.8514052734375,-0.28034507018667976,-0.11786075151095562,0.005485244499686027
1789997634957475300,9.861475341796876,-0.28330088282913424,-0.14137556276454014,0.05649136389328469
1789997634967546000,9.871546142578126,-0.27190338853790885,-0.1906535350849359,0.08563088237947661
1789997634977616400,9.881616455078126,-0.28592832865565987,-0.23921734626914426,0.10049588505775968
1789997634987687400,9.8916875,-0.32176742143083664,-0.2328353109693389,0.05155176144433908
1789997634997757400,9.90175732421875,-0.33204993887133716,-0.24044227022741846,0.028142834001278923
1789997635007828200,9.911828125,-0.36131971040965327,-0.26374804799191537,0.005242901904973466
1789997635017898200,9.921898193359375,-0.3353719283515627,-0.3091338964039232,0.0037799037027208588
1789997635027969300,9.93196923828125,-0.32819058447104366,-0.35978589818194107,0.02359419801980925
1789997635038039300,9.942039306640623,-0.3642392795445044,-0.3846203977821023,0.001613090307653405
1789997635048110300,9.9521103515625,-0.37790670321933395,-0.3737516484218218,-0.024957271940793037
1789997635058180400,9.962180419921877,-0.3641710626993658,-0.3742439194001627,0.020222057139349138
1789997635068251400,9.97225146484375,-0.32373118039357945,-0.40624224803598247,0.06674690135897006
1789997635078321200,9.982321044921877,-0.3450320808374428,-0.44301137457132445,0.07121659713588896
1789997635088392200,9.99239208984375,-0.356870828136573,-0.47817853232247914,0.053638175095360785
1789997635098462500,10.00246240234375,-0.34552407832385706,-0.4457437213736978,0.015803447930465626
1789997635108533500,10.012533447265625,-0.3201821803698011,-0.40455083493055144,-0.002694422357519137
1789997635118603300,10.022603271484376,-0.28073835792871155,-0.38267877831489533,-0.004884242207842393
1789997635128674300,10.03267431640625,-0.29999161495619786,-0.3438945403408942,-0.011222950873397548
1789997635138744300,10.042744384765625,-0.2779673744189911,-0.35005697429267524,0.001876528978121154
1789997635148815400,10.0528154296875,-0.24686643870231006,-0.3578325358095072,0.015303995481999448
1789997635158885000,10.062885009765624,-0.1988028183890771,-0.36511427425951837,0.07570994432980882
1789997635168956200,10.0729560546875,-0.17725912728028445,-0.3658788962109137,0.04127902751628616
1789997635179027200,10.083027099609374,-0.16812167267572897,-0.3272316768277638,-0.01239018136310551
1789997635189097500,10.093097412109374,-0.1754587840873757,-0.3006997843379546,-0.0021510489255346372
1789997635199168300,10.103168212890624,-0.16181427631839806,-0.266704319133044,0.0011837861904185588
1789997635209238300,10.11323828125,-0.11125115376701154,-0.22589704147161752,0.019684382560649853
1789997635219309300,10.123309326171874,-0.08977247762798263,-0.22503488085521578,0.08520056092794294
1789997635229379300,10.13337939453125,-0.08078763144292489,-0.2651492233955151,0.13128177176723058
1789997635239450000,10.1434501953125,-0.11544534112891808,-0.23300719698126232,0.09612234351151243
1789997635249520400,10.153520263671876,-0.11125244708395714,-0.18901637512638636,0.07306345462419084
1789997635259591400,10.16359130859375,-0.11933030247302245,-0.16268336262844743,0.04347504588972381
1789997635269661400,10.173661376953126,-0.12838728800959243,-0.16617782727633823,0.02757112981621344
1789997635279732200,10.183732177734376,-0.15568313936062989,-0.13723401245037004,-0.04033564647718754
1789997635289802200,10.19380224609375,-0.14820290757637924,-0.12231896486480498,-0.041038895072875184
1789997635299873300,10.203873291015626,-0.09647584405448055,-0.13568289275921952,-0.01761152803714912
1789997635309943600,10.213943603515624,-0.1106766105561733,-0.1741153492961291,-0.0052430840604379535
1789997635320014300,10.224014404296875,-0.13357052034735975,-0.18160555598410455,0.005829323537036465
1789997635330084400,10.23408447265625,-0.11711944548318073,-0.17567293496124026,0.03297799373544693
1789997635340155400,10.2441552734375,-0.1231831049617586,-0.21499997069386545,0.06501242211126862
1789997635350225200,10.25422509765625,-0.13784049729439113,-0.2835747035136137,0.05443103511064443
1789997635360296200,10.264296142578123,-0.14546583243703665,-0.3203133446350643,0.07187682052801346
1789997635370366200,10.2743662109375,-0.1527674903092387,-0.3616886872703389,0.023310439090105422
1789997635380437200,10.284437255859377,-0.1699351336459756,-0.35408104420262343,0.03891405015322165
1789997635390507300,10.29450732421875,-0.16273717629541987,-0.34346731776960604,-0.03897815842534026
1789997635400578300,10.304578369140623,-0.14891128600939793,-0.37973007363677475,0.005652681597592937
1789997635410648300,10.3146484375,-0.1529959307584128,-0.43470733661020194,-0.009076627646841367
1789997635420719400,10.32471923828125,-0.1384557543962848,-0.4498380782430707,-0.0045509623855492865
1789997635430789000,10.3347890625,-0.13714589264031124,-0.4223602579387987,-0.05854720430583336
1789997635440860200,10.344860107421876,-0.1715855778065345,-0.3947069028539802,-0.02497991797971842
1789997635450930400,10.354930419921876,-0.13986482885742016,-0.396448704656634,-0.03731040080649477
1789997635461001500,10.36500146484375,-0.14083736343356265,-0.4403714061183168,0.03193616313789564
1789997635471071200,10.3750712890625,-0.09682513191215442,-0.46620941056287646,0.030126007491316727
1789997635481142300,10.385142333984374,-0.06501461143947833,-0.47364462115265893,0.10014038520433462
1789997635491212300,10.39521240234375,-0.051810377072386456,-0.4825185077317181,0.10642449341399002
1789997635501283300,10.405283447265624,-0.0562434014349603,-0.460726080849821,0.07073609204314608
1789997635511353300,10.415353271484374,-0.08726508166726457,-0.41413715517679467,0.060964892796873026
1789997635521424400,10.42542431640625,-0.04116793702156159,-0.40216248369629815,0.07136239243805512
1789997635531494400,10.435494384765626,-0.06024154852039974,-0.41122681765562086,0.11730377114788225
1789997635541565400,10.4455654296875,-0.04448247133848457,-0.4364095038068689,0.09594005827545583
1789997635551635200,10.45563525390625,-0.05596425821917895,-0.41599620874190507,-0.0015443798896329854
1789997635561706500,10.46570654296875,-0.032754698700182966,-0.3795261509588492,-0.0359969377929313
1789997635571776500,10.475776611328126,0.008138329287106498,-0.3485923393041208,-0.036037159701700364
1789997635581847600,10.48584765625,0.03749116196636942,-0.34919203303683094,0.0081338078700905
1789997635591917600,10.49591748046875,0.05725794635927649,-0.3465738181940249,0.0886797947470954
1789997635601988600,10.505988525390626,0.07667854462577378,-0.33619696173632563,0.07890468608236408
1789997635612058600,10.51605859375,0.09798801731963001,-0.30512875991369526,0.02873428542767017
1789997635622129400,10.52612939453125,0.06919340801780115,-0.29329869591790386,0.01597928014190692
1789997635632199400,10.536199462890623,0.08306808095581675,-0.2811480150263567,-0.02060383925846695
1789997635642270500,10.5462705078125,0.11372378327172264,-0.22674220729322578,-0.011545435313555757
1789997635652341500,10.556341552734375,0.18447898472216373,-0.2017812468562931,0.042241256932722224
1789997635662411500,10.56641162109375,0.23217325658177787,-0.1928944645060179,0.12462052080023944
1789997635672482600,10.576482666015623,0.25581687600272895,-0.17335047618372754,0.13945921383708446
1789997635682552600,10.586552490234377,0.2611096118812269,-0.13546207975685456,0.13927999996116858
1789997635692623600,10.59662353515625,0.2625860291849779,-0.04786593195672938,0.09874016711959378
1789997635702693400,10.606693359375,0.29979952518113767,0.03557525965049048,0.03584277908604439
1789997635712764400,10.616764404296877,0.3140214234910364,0.08836451094372169,-0.015652359412003172
1789997635722834700,10.626834716796877,0.34732763622641416,0.10429380722142327,-0.007202251264903239
1789997635732905700,10.63690576171875,0.35054551612541573,0.14076508227406048,0.030293973219599764
1789997635742975500,10.6469755859375,0.37820124628235985,0.18285636004281905,0.047079137220615706
1789997635753046500,10.657046630859377,0.408496478682366,0.2601704977816393,0.010139694706766511
1789997635763116500,10.667116455078125,0.4417951116411907,0.298892921258862,-0.01669162169022002
1789997635773187600,10.6771875,0.40528481664498134,0.2994383083358204,-0.05824572373764983
1789997635783257600,10.687257568359374,0.4132414536324732,0.2581261806742704,-0.01910753016247492
1789997635793328600,10.69732861328125,0.41203490127557596,0.23208091802414457,0.04007493605101764
1789997635803398700,10.707398681640624,0.4177185529227682,0.22535760636352642,0.06090001799127693
1789997635813469700,10.7174697265625,0.40655133845083524,0.20623286179476252,0.051089360185619485
1789997635823539500,10.72753955078125,0.36358480949697863,0.19856294930269666,-0.01755058561526465
1789997635833610500,10.737610595703124,0.36250925795925326,0.1578163861945795,0.004103896796559405
1789997635843680500,10.747680419921876,0.33487991701485004,0.15723177076486095,-0.01917974741238418
1789997635853751300,10.757751220703126,0.3747026253157055,0.14417553869400096,0.012865416040653412
1789997635863821600,10.767821533203126,0.38253883251045023,0.14963894039722686,0.009574132255254799
1789997635873892600,10.777892578125,0.3532103803663407,0.15665732047997333,-0.01663398148485795
1789997635883962600,10.787962646484376,0.34092734257934376,0.15415858356484927,-0.03681816369968686
1789997635894033400,10.798033447265626,0.30541727884142933,0.1625659801741361,-0.08281762075624613
1789997635904103400,10.808103515625,0.311975167809522,0.11935342391439041,-0.02524414885019763
1789997635914174500,10.818174560546876,0.2980762513945382,0.12174637941214908,-0.05603442864897736
1789997635924244700,10.82824462890625,0.30296556975762207,0.10920333862204973,-0.015389054865862258
1789997635934315500,10.8383154296875,0.26768286823914106,0.11494659159125074,-0.019731867613658412
1789997635944385500,10.848385498046875,0.26111002622472895,0.11557333410155028,0.0029881404520847436
1789997635954456600,10.85845654296875,0.21218378005795935,0.12436390184417939,0.0004379957194642129
1789997635964526300,10.8685263671875,0.2241930239504859,0.10875902980479112,0.036624478625242325
1789997635974597400,10.878597412109375,0.20820849209316036,0.10953089668885567,0.015506728113764957
1789997635984667600,10.888667724609377,0.2101288838318419,0.10692487929639923,-0.018604259675615235
1789997635994738700,10.89873876953125,0.13668205087190677,0.15427489449882842,-0.09785691010293517
1789997636004808400,10.908808349609377,0.13913193870726548,0.1528586188356184,-0.10044105897352645
1789997636014879500,10.91887939453125,0.11721510219237606,0.1569976060610992,-0.0617532001363401
1789997636024949500,10.928949462890625,0.10708009581827649,0.12637047589798162,-0.03374880867464505
1789997636035020500,10.9390205078125,0.0867466313745064,0.11161981508170224,0.036138284226700325
1789997636045090600,10.949090576171876,0.0758801307231407,0.10879257365318419,0.04188748191916719
1789997636055161600,10.95916162109375,0.05704678725875733,0.08724263735031573,-0.005232366136019489
1789997636065231600,10.969231689453125,0.04469509726010747,0.08416180845674497,-0.06681015665527343
1789997636075302700,10.979302734375,0.03967578689579944,0.0853559131706883,-0.07823638464673441
1789997636085372400,10.989372314453124,0.03321265539562287,0.0430946579524859,-0.06177636761871413
1789997636095443500,10.999443359375,0.05836575432008503,0.032688851861769654,-0.009562300055632288
1789997636105513500,11.009513427734374,0.0621331145547015,0.011453303855422337,0.05337260023348444
1789997636115584500,11.01958447265625,0.07232757511839334,0.0011936462276757264,0.021992502074608383
1789997636125654500,11.029654541015624,0.0595963861075765,0.004795264375618122,0.03206829287495804
1789997636135725600,11.0397255859375,0.04303674057444375,0.01479067302434185,-0.012685864875268654
1789997636145795600,11.049795654296876,0.046651351929589364,-0.021949973833796394,0.010447010359594694
1789997636155866600,11.05986669921875,0.051153005662969785,-0.05877764674661517,0.02386357503869365
1789997636165937400,11.0699375,0.043630598252364615,-0.06594395321098814,0.0195571306041249
1789997636176007400,11.08000732421875,0.026858073902075112,-0.0428065018612471,-0.056216623098303074
1789997636186078500,11.090078369140626,0.04887335979633739,-0.0004965765597854428,-0.06458010232322127
1789997636196148700,11.100148681640626,0.060615834023309174,0.02688575427954901,-0.028450884472574465
1789997636206219500,11.110219482421876,0.09234910615079309,-0.0019311884000537873,0.01287931927119564
1789997636216289500,11.12028955078125,0.0952053394826941,-0.002765561513126464,-0.0032881054177058143
1789997636226360600,11.130360595703126,0.06966683044988035,0.012242030705888762,0.009257468848043779
1789997636236430600,11.1404306640625,0.08683539703793174,-0.021115022067450813,0.05516132492228751
1789997636246501400,11.15050146484375,0.08746747525541883,-0.013650127102078606,0.009137001256593882
1789997636256571600,11.160571533203123,0.07331992152738821,-0.020731110388130254,-0.03183202313857159
1789997636266642700,11.170642578125,0.050440195003236654,-0.009175956888522655,-0.056460035087169416
1789997636276712400,11.18071240234375,0.05265709478710198,-0.001525206540710319,-0.04325297307507092
1789997636286783500,11.190783447265623,0.07585293862545495,-0.007788219092134822,0.002807383952387237
1789997636296853500,11.200853515625,0.10002825884183511,-0.0028587479974543813,0.035216154776959295
1789997636306924500,11.210924560546877,0.11152512865876583,0.024676103759225812,0.02130077499092309
1789997636316994300,11.220994384765625,0.09944721729407942,0.0749091954492103,-0.047528370536547744
1789997636327065300,11.2310654296875,0.09586461876743953,0.07428266704909291,-0.06381839150551095
1789997636337135600,11.241135498046877,0.10816005464287053,0.08411815166307791,-0.05905300849772808
1789997636347206700,11.25120654296875,0.11111745912931821,0.08296081671757416,-0.062452380993939995
1789997636357276400,11.2612763671875,0.14600752901418088,0.07591384476151448,-0.049830195081906704
1789997636367347500,11.271347412109376,0.1638715234753611,0.08695954104767903,-0.0403495198651772
1789997636377417500,11.28141748046875,0.18325986352374976,0.11001782815252331,-0.01950738682866542
1789997636387488500,11.291488525390625,0.1952174861100594,0.13362949280895453,-0.024622649199212567
1789997636397558500,11.30155859375,0.20580631667706356,0.1845058194084011,-0.07450052921294502
1789997636407629600,11.311629638671874,0.23629853794257644,0.21706287262716573,-0.07185288570135641
1789997636417699600,11.321699462890624,0.26093564079924403,0.21770308319637813,0.012838539258702483
1789997636427770600,11.3317705078125,0.26460626329554926,0.23554933916538004,0.02373006230810346
1789997636437840400,11.34184033203125,0.24657108974236636,0.2505486098194201,0.00532191569202416
1789997636447911400,11.351911376953124,0.2331326853489235,0.27541477441323375,-0.05070772113837617
1789997636457981700,11.361981689453126,0.2637020629706961,0.28108037831759686,-0.06642775447160053
1789997636468052700,11.372052734375,0.27843517001540286,0.32932931634699497,-0.052125193491880065
1789997636478122500,11.38212255859375,0.30022228097634907,0.3541980536275299,-0.03073425985013697
1789997636488193500,11.392193603515626,0.3172426027834116,0.3491969763833453,0.04658324030673594
1789997636498263600,11.402263671875,0.3462940199620807,0.39079147012397536,0.02356338833829351
1789997636508334600,11.41233447265625,0.29820891697454094,0.4148066654035001,-0.022373074133043007
1789997636518404600,11.422404541015624,0.2610935284205224,0.41713654903416786,-0.04548912341324527
1789997636528475600,11.4324755859375,0.2150776668675333,0.43480375005553923,-0.12415881655335458
1789997636538545700,11.442545654296875,0.2176699814406251,0.4489607746751509,-0.09694052955387004
1789997636548616700,11.45261669921875,0.24783695046129192,0.47749326995067937,-0.10200331312604509
1789997636558686500,11.4626865234375,0.21655474343321485,0.4488400165208097,-0.08584301012823246
1789997636568757500,11.472757568359375,0.2188672432064099,0.4556186951904331,-0.03423178008624355
1789997636578827500,11.48282763671875,0.18835150538749162,0.4660343604909235,-0.013759147325264625
1789997636588898600,11.492898681640623,0.17254182482428979,0.4296035098287943,-0.036618900620515545
1789997636598968600,11.502968505859377,0.1293258903261613,0.4038370627490203,0.04476589227775539
1789997636609039600,11.51303955078125,0.11767418570737258,0.38121369850899317,0.055769078140510055
1789997636619109600,11.523109619140625,0.1089330638794054,0.3661218838572043,0.03316343281131726
1789997636629180700,11.5331806640625,0.06296243458642967,0.3630792524930962,0.05935837634579538
1789997636639251500,11.54325146484375,0.01824403635641385,0.36777386928216405,0.05777200729242897
1789997636649321500,11.553321533203125,0.027903837884207902,0.3473278633415222,0.005113232392522913
1789997636659392500,11.563392578125,-0.024107254548743445,0.3649756004837398,-0.009485631090529162
1789997636669462800,11.573462890625,-0.023868703424582065,0.35038052002012693,0.005697466833338701
1789997636679533600,11.583533447265625,-0.043421977374684374,0.31176475987818625,0.010886976923757964
1789997636689603600,11.593603515625,-0.0837701026773513,0.2759943057006466,0.06701121300257534
1789997636699674600,11.603674560546876,-0.118258051527769,0.24448650795375104,0.10796497624347687
1789997636709744400,11.613744384765624,-0.20202357554658196,0.21960082158515112,0.0353526941044179
1789997636719815400,11.6238154296875,-0.24957496289661033,0.16104671808713444,-0.002048350802614205
1789997636729885700,11.6338857421875,-0.3102346092548679,0.11467570367496611,0.04076428124633317
1789997636739956700,11.643956787109374,-0.32193233016887135,0.05622782329271411,0.10168062316309491
1789997636750026500,11.654026611328124,-0.31699258434010646,-0.006117190047766679,0.1380287268023573
1789997636760097500,11.66409765625,-0.33383140831531555,-0.07374969598305078,0.1350050100564435
1789997636770167600,11.67416748046875,-0.35129548477268147,-0.1127228868454692,0.06733370041295547
1789997636780238600,11.684238525390626,-0.3911494574639106,-0.1349053868973268,0.07369299222167286
1789997636790308400,11.694308349609376,-0.3648581114650225,-0.16992724742978527,0.10529509544755652
1789997636800379400,11.70437939453125,-0.3591304068055458,-0.20351088858489164,0.11678726485725156
1789997636810449700,11.71444970703125,-0.35902394176836305,-0.23912720955804823,0.10074103429454641
1789997636820520700,11.724520751953126,-0.3560836337392407,-0.288329921267311,0.08541755557573506
1789997636830590500,11.734590576171875,-0.3785942273857545,-0.3068400059169325,0.04931871280635362
1789997636840661500,11.74466162109375,-0.3554988065149875,-0.36114315471627817,0.06730570523070294
1789997636850731500,11.7547314453125,-0.3330124195200911,-0.39967869171121295,0.08234741930485465
1789997636860802600,11.764802490234375,-0.2959536214159337,-0.4373899236559102,0.09222840669689905
1789997636870872600,11.77487255859375,-0.28753550170446635,-0.44421550955318845,0.12170023866315809
1789997636880943600,11.784943603515623,-0.2702305360393362,-0.4592850888496919,0.10305428844096218
1789997636891013600,11.795013671875,-0.2581849343039476,-0.44063990389489455,0.024224834129989978
1789997636901084700,11.805084716796877,-0.2356757814723798,-0.4411930268724631,-0.017070660190515778
1789997636911154400,11.815154541015623,-0.1872963292522671,-0.40955221959969307,-0.009612027096352609
1789997636921225500,11.8252255859375,-0.14071319756953116,-0.36238786668207534,-0.007678490033797236
1789997636931295700,11.835295654296877,-0.12195621244525764,-0.3156422921010172,0.0014147484200274785
1789997636941366800,11.84536669921875,-0.09989925478629463,-0.2840021447477722,0.03354985690183364
1789997636951436500,11.8554365234375,-0.08990636204835958,-0.25393833357240286,-0.01665956340239052
1789997636961507600,11.865507568359376,-0.07984479074200095,-0.20132972237855823,-0.038210085783040026
1789997636971577600,11.87557763671875,-0.03801656435923089,-0.15547518688926207,-0.04390676965789789
1789997636981648600,11.885648681640625,0.0005390276170294189,-0.12258454022112561,-0.049871381471487126
1789997636991718700,11.89571875,0.03193179733348426,-0.09464691008669715,0.002220314933894645
1789997637001789700,11.905789794921876,0.05295475392228929,-0.006989640363850364,-0.020691629257582916
1789997637011859700,11.915859619140624,0.08040522429864033,0.035228364373505905,0.007172032095170391
1789997637021930500,11.925930419921874,0.09038578040219263,0.09750999183972854,-0.006051179761607748
1789997637032000500,11.93600048828125,0.07026114317650875,0.14938556274976553,-0.01976760180802859
1789997637042071600,11.946071533203124,0.07797819582715992,0.17436759862932863,-0.01396781248210857
1789997637052141600,11.9561416015625,0.11485042731743775,0.2364876517946911,-0.02166983633592686
1789997637062212400,11.96621240234375,0.11457931345929065,0.29681568210147713,-0.008830196730844281
1789997637072282600,11.97628271484375,0.11576479249911453,0.3572316799883405,0.02357464434949741
1789997637082353700,11.986353759765626,0.13870266726990327,0.43237651502172525,-0.04541187481867941
1789997637092423700,11.996423583984376,0.13069205342600393,0.5153225035737646,-0.05013742493550845
1789997637102494500,12.006494384765626,0.1760184023437486,0.5483369600079275,-0.04469501288198993
1789997637112565500,12.0165654296875,0.1549113534448901,0.5542952868548178,-0.010776156757190564
1789997637122635500,12.026635498046875,0.16436312574595896,0.5677622490047355,0.017007010242447666
1789997637132705800,12.036705810546875,0.1342625523129165,0.6103609041916479,-0.032409648880059726
1789997637142776600,12.046776611328124,0.16334596480903044,0.6106925906052829,-0.001964867150281092
1789997637152847600,12.05684765625,0.16023241246167527,0.5847140196945975,0.04401924042727582
1789997637162917600,12.066917724609375,0.14615339955251966,0.5429288676996534,0.05435073234655473
1789997637172988700,12.07698876953125,0.11628825124350728,0.5335244118426411,0.0213287477059815
1789997637183058400,12.087058349609377,0.06977792600669865,0.503819969440595,-0.038176443378691305
1789997637193129500,12.09712939453125,0.0445070800628954,0.4557511515434906,-0.03322241849651535
1789997637203199700,12.10719970703125,0.06370997029745049,0.39262861688691825,-0.030487957738221026
1789997637213270800,12.117270751953123,0.04338901712298386,0.3258777368907091,-0.03563733309617093
1789997637223340500,12.127340576171877,-0.00758544302364417,0.2713142315605271,-0.06667716972692576
1789997637233411600,12.13741162109375,-0.05144257329091474,0.23020425717808884,-0.05293718719831247
1789997637243481600,12.147481689453125,-0.09023500175085636,0.2063845470935944,-0.0213369196973008
1789997637253552600,12.157552734375,-0.12112774034011145,0.15503169099614011,0.02671165803198985
1789997637263622400,12.167622314453125,-0.1729966288830414,0.14114697969439782,0.05373627637506431
1789997637273693400,12.177693359375,-0.20534344041085642,0.1018729725998903,0.07044184480430335
1789997637283763700,12.187763671875,-0.2786024201943556,0.05896289884700712,0.060817847831667146
1789997637293834800,12.197834716796876,-0.3473477294975351,0.0019409471101802145,0.057138524493543306
1789997637303904500,12.207904541015624,-0.3836180144604233,-0.05723750573296813,0.06824296892253355
1789997637313975600,12.2179755859375,-0.4330427887550659,-0.1073340026368286,0.08573406680459308
1789997637324045600,12.228045654296874,-0.4888441002910341,-0.14387857323005218,0.06948905055977515
1789997637334116400,12.238116455078124,-0.5121378196528235,-0.19144915065797774,0.06279763398521919
1789997637344186600,12.2481865234375,-0.5312268194782008,-0.23087422138733926,0.05497774347042339
1789997637354257700,12.258257568359374,-0.5368170281031955,-0.3004547431123457,0.05579593064397663
1789997637364327700,12.26832763671875,-0.5414421045573775,-0.34418737174073577,0.06029612001921317
1789997637374398500,12.2783984375,-0.5590673957613366,-0.4030008902585549,0.024942374120804123
1789997637384468500,12.288468505859376,-0.5638958241287557,-0.4962677549819416,0.04920962591205005
1789997637394539500,12.29853955078125,-0.5780027370429137,-0.5807176806644684,0.02520135497493661
1789997637404609800,12.30860986328125,-0.5629598896422953,-0.6959136258049317,0.05996203326869184
1789997637414680600,12.3186806640625,-0.6243939657597404,-0.7488339522443992,0.04107127435581249
1789997637424750600,12.32875048828125,-0.600810052387804,-0.8364282423772398,0.03972620974097415
1789997637434821600,12.338821533203124,-0.6221741844252393,-0.8753272355696634,0.047291273787634494
1789997637444891600,12.3488916015625,-0.6184146505300332,-0.9322702353590118,0.04288136752691469
1789997637454962400,12.35896240234375,-0.572581071855307,-0.9690331517077793,0.026955465793240985
1789997637465032700,12.36903271484375,-0.5471478437494577,-1.0049055329076177,0.06613696047914833
1789997637475103700,12.379103759765623,-0.5400971198095897,-0.9935851802331904,0.01950393597157283
1789997637485173500,12.389173583984377,-0.48510809801830773,-0.9944219906932326,0.05038495792730863
1789997637495244500,12.39924462890625,-0.4782578233926718,-0.9882083883652492,0.053653342244291316
1789997637505314600,12.409314453125,-0.487032394983668,-0.9983271481509257,0.09049318771948145
1789997637515385600,12.419385498046877,-0.4710974456346597,-0.984856265118882,0.07052821583754879
1789997637525455400,12.429455322265625,-0.4694093876953518,-0.932811827005018,0.04753008031233683
1789997637535526400,12.4395263671875,-0.422986623737728,-0.8840634533213205,0.03195469654727744
1789997637545596700,12.4495966796875,-0.3671663639396597,-0.8015954943890341,0.05004839947658577
1789997637555666700,12.459666748046876,-0.24370592194046664,-0.7640471211408346,0.08564300955883546
1789997637565736700,12.46973681640625,-0.1890607236258989,-0.7579023822407812,0.14699884128890828
1789997637575807700,12.479807861328124,-0.16455265249955212,-0.7269399004153557,0.15812452109747643
1789997637585878800,12.489878662109374,-0.14068904034327756,-0.6671388649217366,0.06912371397814085
1789997637595948800,12.49994873046875,-0.09353615890834432,-0.5873129586773309,0.06088258618231066
1789997637606018800,12.510018798828124,-0.021104018178057002,-0.5156728761956535,0.03664893620466915
1789997637616089900,12.52008984375,0.02127779750856091,-0.4638833636923756,0.07886744011028028
1789997637626161000,12.530160888671874,0.07260513242047566,-0.43821494274201483,0.11890329029007458
1789997637636230700,12.540230712890626,0.1214917770673427,-0.35101326855821496,0.08816941341107085
1789997637646301700,12.5503017578125,0.20990187887153477,-0.24651100220689878,0.06841167397805566
1789997637656371700,12.560371826171876,0.29145090803952617,-0.171690551774406,0.0410999196974305
1789997637666442800,12.57044287109375,0.34313367523785177,-0.12542081889446904,0.02991101314295011
1789997637676512800,12.5805126953125,0.36497866968653947,-0.07075117200511465,0.027878401738171073
1789997637686583800,12.590583740234376,0.40608551461767217,-0.08227014290965372,0.09637588711968996
1789997637696653800,12.60065380859375,0.4223282692090161,-0.05900978183135806,0.12031382027536648
1789997637706724900,12.610724853515626,0.4130303093085847,0.010818287121072669,0.10495045256725397
1789997637716794600,12.620794677734375,0.4513019074681323,0.06301493201497342,0.08561180677410586
1789997637726865700,12.63086572265625,0.4950256380222004,0.1145257489873316,0.07375308254303053
1789997637736936000,12.64093603515625,0.5343059410829121,0.16148252727224496,0.05796027814968051
1789997637747007000,12.651007080078124,0.5630962849139041,0.1973713188995293,0.08671640850415126
1789997637757076700,12.66107666015625,0.614125059490132,0.25677335171195026,0.0955267537624566
1789997637767147800,12.671147705078123,0.6191799917862425,0.3182658076583219,0.0915346856579302
1789997637777217800,12.6812177734375,0.6311004164163228,0.36817901473770903,0.03784369078147584
1789997637787288600,12.69128857421875,0.5914002089642274,0.3943661147253142,0.00951300398886004
1789997637797358800,12.70135888671875,0.566824341166989,0.3774324017884494,0.005266727110395582
1789997637807430000,12.711429931640623,0.546148161448687,0.365032879530849,0.028003929428496378
1789997637817500000,12.7215,0.542229567964863,0.4048791153577849,0.0065380533578149646
1789997637827570700,12.73157080078125,0.5622673155712226,0.43183896760780754,0.03890933943092995
1789997637837640700,12.741640625,0.5759684766855514,0.4297456018009506,0.10058323635523371
1789997637847711700,12.751711669921876,0.5397884787072033,0.44045507077279195,0.037244785552777035
1789997637857781800,12.76178173828125,0.4850816034044815,0.4213242419520895,0.008227185933793455
1789997637867852800,12.771852783203125,0.4542970632986424,0.40557573527353696,-0.054311425216866924
1789997637877922800,12.7819228515625,0.4638387929574431,0.37225330425344255,-0.08150356475854789
1789997637887993900,12.791993896484374,0.5052391077745085,0.37056076804712834,-0.06216277564505756
1789997637898064000,12.80206396484375,0.5023523739338684,0.3576284121142344,-0.11907810014948472
1789997637908134700,12.812134765625,0.49535824601544015,0.3147341041159072,-0.04296624860166918
1789997637918204700,12.82220458984375,0.47533912542449397,0.32281117302123374,-0.07422278761106531
1789997637928275700,12.832275634765624,0.429518840471014,0.2915138901538485,-0.0175718354741524
1789997637938345700,12.842345703125,0.4074284209161706,0.28196025365048893,0.019661215388413363
1789997637948416800,12.852416748046876,0.4107663543784275,0.2810204177294715,0.030616751024983978
1789997637958486800,12.86248681640625,0.372770989618845,0.2540240761187483,0.01772364630129849
1789997637968557800,12.872557861328126,0.30540044573394104,0.2728486365163177,-0.042763528028084315
1789997637978627600,12.882627685546876,0.27192213575620716,0.2682509661422648,-0.04339076215511628
1789997637988698600,12.89269873046875,0.2922500720800729,0.2685396376737648,-0.013113557509622276
1789997637998769000,12.902768798828124,0.2604947871363771,0.287796197195307,-0.04800886930547403
1789997638008840000,12.91283984375,0.2091956433662,0.2795397566244829,-0.02535682307644176
1789997638018909700,12.92290966796875,0.17160694856540587,0.32263651094202217,-0.014979874807736038
1789997638028980700,12.932980712890624,0.1442601484005285,0.33400345435743056,-0.021166397151346703
1789997638039051800,12.9430517578125,0.1246489324721231,0.36220785522403526,0.0033247155316199675
1789997638049121800,12.953121826171875,0.09865723178830556,0.37933087401975824,-0.06634232778093045
1789997638059192800,12.96319287109375,0.027530653369605796,0.3533287572410028,-0.0954223335607525
1789997638069262800,12.973262939453123,0.024153324992937247,0.3192298235191737,-0.08075632189659322
1789997638079334000,12.983333984375,0.017125730354220655,0.3245482762552351,-0.08592508031176349
1789997638089404000,12.99340380859375,0.0426341131223606,0.27559100243265205,-0.013509843776386267
1789997638099474700,13.003474609375,0.053714186601355386,0.25128933128145414,-0.01170914506392395
1789997638109544700,13.013544677734377,0.04591328254407329,0.23769346375154857,-0.026789004097533382
1789997638119615700,13.02361572265625,0.03415201076510075,0.22066589857521532,-0.06160777835515948
1789997638129685800,13.033685791015625,-0.003383977459354228,0.19724212710001465,-0.00048413271372383553
1789997638139756800,13.0437568359375,0.024347081115949205,0.14837059534795832,0.044235786769639865
1789997638149826800,13.053826904296876,0.01631408391712069,0.08597790586795503,0.04394578842679438
1789997638159897900,13.06389794921875,-0.0022428808750759063,0.06351190943299624,0.0032806389236682194
1789997638169967900,13.0739677734375,-0.0068753816328287615,0.0339961437323171,0.027898426284518378
1789997638180038700,13.08403857421875,-0.011036238883742827,0.009854588016327518,0.00884426875869179
1789997638190108700,13.094108642578124,-0.016713817242334852,-0.006103297410926198,0.025610736607445176
1789997638200179700,13.1041796875,-0.0016918096196185063,0.0033361946903866365,0.058341154612554846
1789997638210249700,13.114249755859374,-0.0019475635326029563,0.021462334256035862,0.07290324525199622
1789997638220320800,13.12432080078125,-0.015938661373778078,-0.009558581268034856,0.04940869231531694
1789997638230390800,13.134390869140624,-0.058185328703863844,-0.04340787805601854,0.017092033674810804
1789997638240461800,13.1444619140625,-0.102762238388156,-0.06576728190306605,-0.03399354851767744
1789997638250531600,13.154531494140626,-0.13973436824730362,-0.05950097375369887,-0.062152095814317
1789997638260602600,13.1646025390625,-0.1559063379233363,-0.05288044022915289,-0.06001517936091519
1789997638270673000,13.1746728515625,-0.1626210555708929,-0.05840591358930917,-0.015057137391632537
1789997638280744000,13.184743896484376,-0.14657798562408472,-0.08445184729990081,0.02832345833381782
1789997638290813700,13.194813720703126,-0.14639738575952815,-0.10368714657474842,0.044195602601724254
1789997638300884700,13.204884765625,-0.1519484900636913,-0.10287140658173773,-0.008535316043136378
1789997638310954800,13.214954833984375,-0.17146293019241934,-0.05929149511595395,-0.07674378324716476
1789997638321025800,13.22502587890625,-0.16954720246381677,-0.03794814308074897,-0.0690005616711589
1789997638331095800,13.235095703125,-0.11759538894249001,-0.0392025437829322,-0.02177728041278656
1789997638341166800,13.245166748046875,-0.08352636845414815,-0.019125450558548845,-0.012866508605956792
1789997638351236900,13.25523681640625,-0.05607865003985219,0.012593860304393854,0.027459828033551435
1789997638361308000,13.265307861328123,-0.018975026000333604,0.03365691513846501,0.10054978075855718
1789997638371377700,13.275377685546877,0.009471949527787875,0.06828037731120645,0.10053029007015042
1789997638381448700,13.28544873046875,0.025116743626810725,0.11717456810807828,0.01567765661164276
1789997638391518700,13.295518798828123,0.05724275016287705,0.14074927371406792,-0.025474728751860486
1789997638401589800,13.30558984375,0.06831573673819633,0.18361510585238702,-0.045673489864632745
1789997638411659800,13.31565966796875,0.11137298161234101,0.2180534879829301,0.02905013648913709
1789997638421730800,13.325730712890625,0.135021547946507,0.21449927606147,0.030738500748016397
1789997638431800800,13.33580078125,0.1539829309440511,0.22031801374936183,0.06247986472226665
1789997638441872000,13.345871826171877,0.13851723521038495,0.2791032096156539,-0.004075083960380678
1789997638451941600,13.355941650390625,0.12174420975063285,0.3027085689502331,-0.028634298493869805
1789997638462012700,13.3660126953125,0.09066877177899539,0.3244790382716585,-0.030576466282976684
1789997638472083000,13.3760830078125,0.07688811117931223,0.322256666491126,0.020316674881595706
1789997638482154000,13.386154052734376,0.0925570840893054,0.2954763363426566,0.006440645791882367
1789997638492223700,13.3962236328125,0.0960084181693126,0.2698471591976468,0.0031927685689052887
1789997638502294800,13.406294677734374,0.06897944845029791,0.24918660624573133,-0.028580229178883965
1789997638512364800,13.41636474609375,0.03416535962019854,0.233279082593251,-0.06099327053117697
1789997638522435600,13.426435546875,0.03011074216830717,0.21945165034080477,-0.07785255519936594
1789997638532505900,13.436505859375,0.0019706987284920114,0.18119034934222716,-0.03926686751108609
1789997638542577000,13.446576904296874,-0.008057134743786137,0.12245371389525941,-0.01785307713283879
1789997638552648000,13.45664794921875,-0.038003892698894357,0.09791278762043412,-0.05781795585265996
1789997638562718000,13.466718017578126,-0.06985421441274339,0.06004980351218739,-0.03340184915795817
1789997638572789000,13.4767890625,-0.11414372380468225,0.03482955193378751,-0.01425584198982098
1789997638582858800,13.486858642578126,-0.14301493263545956,0.006893585567042642,-0.032676854710430595
1789997638592929800,13.4969296875,-0.1534575201572639,-0.03597292529878023,-0.03706936966886913
1789997638602999800,13.506999755859376,-0.16721373689265556,-0.06088901275251705,-0.010536311422939273
1789997638613070800,13.51707080078125,-0.17549722614782562,-0.0728155337809142,-0.008393700941912366
1789997638623140900,13.527140869140624,-0.19544978394799137,-0.06756107281585717,0.0011644618728309539
1789997638633212000,13.5372119140625,-0.15476268580526795,-0.07735279418951346,-0.006503463275415966
1789997638643282000,13.547281982421875,-0.17038033444751285,-0.09486458422965686,-0.030222770993873674
1789997638653353000,13.55735302734375,-0.17042599163692349,-0.11554448395847704,0.01439657143643467
1789997638663422700,13.567422607421875,-0.18707847531085303,-0.10006673030716888,0.07808261697443282
1789997638673493800,13.57749365234375,-0.17705857433789837,-0.08368991925768178,0.07681995009189656
1789997638683564000,13.58756396484375,-0.2202013306236091,-0.08483818798630648,0.017277403828750128
1789997638693635000,13.597635009765623,-0.22663257716346719,-0.09030004758651912,-0.0226172218449084
1789997638703704800,13.607704833984377,-0.21002743263093945,-0.08708811632622157,-0.05953795459453736
1789997638713775900,13.61777587890625,-0.19690235533923636,-0.09697473693302994,-0.0587095441477193
1789997638723846000,13.627845947265625,-0.16329869923332424,-0.11047817210822874,0.05384106890923149
1789997638733917000,13.6379169921875,-0.12407348272475062,-0.10895975294943731,0.08801888791803723
1789997638743987000,13.647987060546876,-0.11479333805482154,-0.11775076200665581,0.07502237737620573
1789997638754058000,13.65805810546875,-0.12523160613237166,-0.12871338663599496,-0.01280040982456043
1789997638764128000,13.6681279296875,-0.15472481055062418,-0.13327776401457084,-0.03618578049316866
1789997638774199000,13.678198974609376,-0.15174413590018151,-0.11083786395254865,-0.03273095998976341
1789997638784268800,13.688268798828124,-0.09614740252757024,-0.11214341043021561,0.0007337882269710612
1789997638794339800,13.69833984375,-0.03842583498671166,-0.13038344698930823,0.04914596312182407
1789997638804409900,13.708409912109374,-0.020409151662132138,-0.12133111279360936,0.06903740481885769
1789997638814481000,13.71848095703125,-0.032809428212748494,-0.08510519792976409,0.08822403591697647
1789997638824551000,13.728551025390624,-0.03967878547910135,-0.04452710343878889,0.10925216264586628
1789997638834622000,13.7386220703125,-0.03729983572861888,-0.01924152178219338,0.10121534133610643
1789997638844692000,13.74869189453125,-0.026200039678376176,0.025324768072378847,0.04197216237089219
1789997638854762800,13.7587626953125,-0.0069903997057253016,0.04559210494646835,0.06914812305368168
1789997638864832800,13.768832763671876,0.004499866910933469,0.056674371666459916,0.07096356682975984
1789997638874903800,13.77890380859375,0.01823329719661984,0.08223783757096273,0.02640295879601642
1789997638884974000,13.78897412109375,0.05742756507126741,0.07354976234855323,0.025840370732485067
1789997638895044900,13.799044921875,0.10328576721882196,0.09052506583616549,0.05534505532860801
