time,seconds_elapsed,z,y,x,vertical,horizontal
1789997363979039700,1.567039794921875,0.076108891922771,-9.789711140158772,-0.571094545097649,9.806368904808684,0.07426071249421541
1789997363989110800,1.57711083984375,0.0715251214961986,-9.785843943336603,-0.6344628554195165,9.805681109111156,0.13790804063020107
1789997363999180800,1.587180908203125,0.0691920982716372,-9.781763396024704,-0.6947719243012368,9.804643931100099,0.19836353851259794
1789997364009251800,1.597251953125,0.0630051258655497,-9.777786893609166,-0.7491853592731058,9.80337961946895,0.25320529585799695
1789997364019321600,1.607321533203125,0.0557378474094672,-9.773758368745446,-0.800580907728523,9.801901345243863,0.3051543317429557
1789997364029392600,1.617392578125,0.0499277637580642,-9.76953578261435,-0.8509085346914828,9.800187284148182,0.3559448263525462
1789997364039463000,1.627462890625,0.0454747527048457,-9.765179925492406,-0.8997716420598327,9.798277204781355,0.4051663318818094
1789997364049534000,1.637533935546875,0.0405227471875026,-9.760689628335832,-0.9474772499561308,9.796170018798296,0.45328822588297285
1789997364059603700,1.647603759765625,0.0361077186406706,-9.756060799491404,-0.9941606021326036,9.79387713966663,0.5003518428729443
1789997364069674800,1.6576748046875,0.0292142213834449,-9.751174196493626,-1.041220386406034,9.791325232066482,0.5480344642994159
1789997364079744800,1.667744873046875,0.0231400731185101,-9.74601988247037,-1.0885575993813574,9.788526867645462,0.5959349134305999
1789997364089815800,1.67781591796875,0.0163227794777194,-9.741142047300936,-1.1314918281573805,9.785775201794765,0.6395250393454097
1789997364099885800,1.6878857421875,0.0111900916227372,-9.736512049412728,-1.1707196036309002,9.783097197610687,0.6792537956738977
1789997364109956900,1.697956787109375,0.0050347655970836,-9.73206734496355,-1.2071579675816,9.780454297256618,0.7163129579595784
1789997364120027000,1.70802685546875,-0.0019847353713928,-9.727879830145834,-1.240456572201848,9.777901862738933,0.7503449867213885
1789997364130098000,1.718097900390625,-0.0077263410561514,-9.723592946606876,-1.273600570782274,9.775253014582262,0.784095914060547
1789997364140167700,1.728167724609375,-0.0139821803014783,-9.719269238188865,-1.3061306752480566,9.77253197766302,0.8173041735779896
1789997364150238700,1.73823876953125,-0.0192398325432674,-9.714950790467858,-1.337802993840724,9.769781036064781,0.8495495218329394
1789997364160308700,1.748308837890625,-0.0220785494007985,-9.710240713080765,-1.3715415973134335,9.766763916748262,0.8835785850619782
1789997364170378800,1.758378662109375,-0.0286789637292735,-9.705513100036978,-1.4044817438848316,9.763657421385503,0.9172620915962566
1789997364180449800,1.76844970703125,-0.0367160209814552,-9.701095283594729,-1.4344975274421274,9.760700072899484,0.948216753025498
1789997364190520800,1.778520751953125,-0.0410679051811806,-9.696718383684754,-1.4636821208722888,9.757772194964183,0.9778962764378022
1789997364200590800,1.7885908203125,-0.0445201371274422,-9.692574123486876,-1.4907790943734347,9.754978320956493,1.0053832342877977
1789997364210660600,1.79866064453125,-0.0499595060366205,-9.688827338173985,-1.5147612968549131,9.752406910427037,1.0300157188584822
1789997364220731600,1.808731689453125,-0.0544411997616291,-9.68488239994049,-1.5396344568267464,9.749690767025553,1.0554217891124822
1789997364230802000,1.818802001953125,-0.0581124904192052,-9.680952074754238,-1.5640150109760462,9.746971005483328,1.0802357650331877
1789997364240873000,1.828873046875,-0.0649556023461977,-9.677508656302091,-1.5849251125358044,9.74453510531257,1.1020055429786426
1789997364250942700,1.838942626953125,-0.0699827508924063,-9.674055300977823,-1.605655473614484,9.742095320247474,1.1233662906461168
1789997364261013800,1.849013671875,-0.0724973777615698,-9.66977660074532,-1.6311150551721452,9.739091996765188,1.1491121702677811
1789997364271083800,1.859083740234375,-0.0823061710937414,-9.66494728089273,-1.6590325512759387,9.735602530976154,1.17830921802376
1789997364281154800,1.86915478515625,-0.0950871623368468,-9.660222590458392,-1.6856598614387213,9.732127351026874,1.2066849039845573
1789997364291224600,1.879224609375,-0.0998709899467416,-9.656085344523191,-1.7089283626928924,9.729135282918916,1.2305775842371687
1789997364301295400,1.88929541015625,-0.101152946915524,-9.65224094405472,-1.73043160784021,9.726375398565338,1.252198992313707
1789997364311365400,1.899365478515625,-0.1057250314708799,-9.648098437422512,-1.753113249117136,9.723350091719261,1.2754804187314326
1789997364321436400,1.9094365234375,-0.1155428803257644,-9.643751932650805,-1.7762502329461276,9.720100373637477,1.3000058123538782
1789997364331506400,1.91950634765625,-0.1240816491555422,-9.639967737936972,-1.796105710886419,9.717256534513622,1.3210962914390432
1789997364341577200,1.9295771484375,-0.128483564775763,-9.637131637728212,-1.8109540281891825,9.715140208113727,1.336570034912544
1789997364351647500,1.9396474609375,-0.1307461120134219,-9.634569093763828,-1.824381811169535,9.713242910141938,1.3502952750488932
1789997364361718500,1.949718505859375,-0.131429947825428,-9.631628948658705,-1.8397966763138769,9.711082418973058,1.3657525756570095
1789997364371788300,1.959788330078125,-0.1385527945758309,-9.629095046266912,-1.852488107843697,9.709135843806102,1.3795150028718957
1789997364381859300,1.969859375,-0.148183203700371,-9.62773778643906,-1.8587873541183768,9.708019376003408,1.3873512061688593
1789997364391929300,1.979929443359375,-0.1519185086380224,-9.62796107380092,-1.857329848786444,9.708137313813552,1.3865272212353676
1789997364402000400,1.99000048828125,-0.1549064475407824,-9.628823243588208,-1.8526077887006105,9.708734024957128,1.3823430526277423
1789997364412070400,2.0000703125,-0.1580982110531069,-9.629674891981482,-1.847911447577924,9.709319831899684,1.3782302745063464
1789997364422141400,2.010141357421875,-0.1580269541814923,-9.630832829844952,-1.8418702677175405,9.710170569651456,1.3722197732301442
1789997364432211500,2.02021142578125,-0.1555448915747925,-9.633332245445253,-1.828967969916016,9.71203329424488,1.3589766336798956
1789997364442282500,2.030282470703125,-0.1495074928403832,-9.63717606139183,-1.8091110306710003,9.71491573223319,1.3382114801415945
1789997364452352300,2.040352294921875,-0.1395532951215747,-9.640984221503135,-1.7895071894042194,9.717808071412962,1.31703991950213
1789997364462423300,2.05042333984375,-0.1320703098218888,-9.645369889241456,-1.7662898338153958,9.721073345851812,1.2927163836786701
1789997364472493300,2.060493408203125,-0.1217461188800632,-9.651137366726994,-1.7352591741271317,9.725346204517828,1.260174667480443
1789997364482564400,2.070564453125,-0.1078350732942577,-9.65788041124642,-1.6982625917717813,9.730320817719548,1.2211613553641114
1789997364492634400,2.08063427734375,-0.0933300895364489,-9.664821024164556,-1.6591816043578087,9.735392022189998,1.18004309466427
1789997364502705400,2.090705322265625,-0.081262525526015,-9.67173474907577,-1.6190521308042107,9.740362883838225,1.1382958086292663
1789997364512775400,2.100775390625,-0.0701284429734107,-9.678870592305064,-1.5763574829377234,9.745417737406543,1.094161769829936
1789997364522846500,2.110846435546875,-0.0620302666511386,-9.685766781559586,-1.5337769629701972,9.7502137100706,1.0505856846699304
1789997364532916200,2.120916259765625,-0.0503551086249295,-9.692309335070847,-1.4923127336815,9.754742949458183,1.0076622295044788
1789997364542987300,2.1309873046875,-0.0375224511266686,-9.69873790681362,-1.450329156693816,9.759141685925377,0.964122988104623
1789997364553057500,2.1410576171875,-0.0204317274752655,-9.705685533994435,-1.4034414410516618,9.763845696835272,0.915267298186159
1789997364563128600,2.151128662109375,-0.0063419820171751,-9.71267115509808,-1.3543871950253843,9.768452778579872,0.864705831201629
1789997364573198300,2.1611982421875,0.0030569829822794,-9.718981068897246,-1.3083479129061102,9.772498756552293,0.8177069628648819
1789997364583269400,2.171269287109375,0.0137996587748464,-9.72428735861182,-1.2682434276632963,9.775854518944744,0.7765725205534406
1789997364593339400,2.18133935546875,0.0223784730622894,-9.72915642595291,-1.2301968978635969,9.778859913461764,0.7377457266031667
1789997364603410400,2.191410400390625,0.0318257601552875,-9.733662505200504,-1.1937989389885215,9.78159362157674,0.700557473170496
1789997364613480400,2.20148046875,0.0463860451637534,-9.737665895622968,-1.16020171674788,9.784009950681858,0.6659625128096452
1789997364623551500,2.211551513671875,0.0636716315168421,-9.741455935555695,-1.1271015573091805,9.786261148162357,0.632035190072597
1789997364633621500,2.22162158203125,0.0700933351274114,-9.745085816490649,-1.094872043225169,9.788305896618148,0.5995190669719909
1789997364643692500,2.231692626953125,0.0714867302811471,-9.748694654637577,-1.0621807568483057,9.79026426753797,0.56666688093941
1789997364653762300,2.24176220703125,0.0776790592823643,-9.751716632807254,-1.0336216018401083,9.79188607589999,0.5379145054811701
1789997364663833300,2.251833251953125,0.0797478009809739,-9.754248197111488,-1.0092975271183997,9.793198416788828,0.5134821031605271
1789997364673903400,2.2619033203125,0.0783588947726879,-9.756297530856727,-0.9894081469085066,9.794225138495147,0.4935220811977194
1789997364683974100,2.27197412109375,0.0840249577103648,-9.758156310465932,-0.9704203186482192,9.795166124390894,0.4744586003380259
1789997364694044400,2.28204443359375,0.0940945985023863,-9.759734519568084,-0.9534683070644736,9.795966858780593,0.457609877695932
1789997364704115500,2.292115478515625,0.1010146800891496,-9.761142048278453,-0.9382331093359738,9.796657896722223,0.44257595315099824
1789997364714185500,2.302185546875,0.0999584581676404,-9.76231635275483,-0.9260526960682124,9.797204336392237,0.43031738460813795
1789997364724256300,2.31225634765625,0.0928798067519906,-9.763279644829034,-0.9165927207402884,9.797627711812611,0.4205823558720796
1789997364734326300,2.322326171875,0.0879803534057922,-9.76366367571056,-0.9129746763736007,9.797786936793608,0.4168486726274431
1789997364744397300,2.332397216796875,0.0888521952037233,-9.763312378054856,-0.9166411629918962,9.797629254300945,0.42054169951280046
1789997364754467600,2.342467529296875,0.0936981647970154,-9.76252385802567,-0.9245129923455416,9.797281279207876,0.42855015308049793
1789997364764538400,2.352538330078125,0.1003811953580472,-9.76132967980504,-0.9363632968761026,9.796745202598405,0.4406735314562262
1789997364774608400,2.3626083984375,0.1040014499481301,-9.76022960960865,-0.9473649486880747,9.796234532704156,0.4518712871273383
1789997364784679400,2.372679443359375,0.1001067988634575,-9.759498372724652,-0.955281347835809,9.795873099489047,0.4596330390906113
1789997364794749200,2.382749267578125,0.093510688534053,-9.758963535195589,-0.9613950814757496,9.795593878882034,0.46554762682447376
1789997364804820200,2.3928203125,0.0907784322922583,-9.758266785103082,-0.9686970750521868,9.795245436982693,0.4728130978514815
1789997364814890500,2.402890380859375,0.0860895072910468,-9.757528533956409,-0.9765425278555602,9.794866775232347,0.48061903665914596
1789997364824960500,2.41296044921875,0.0861382783362176,-9.756607327458262,-0.98569752888754,9.79441131673478,0.4898090671676759
1789997364835031300,2.42303125,0.0841196776559576,-9.755517194133995,-0.9966049996100366,9.793858749611301,0.5007436101667717
1789997364845102300,2.433102294921875,0.0785705921614542,-9.754585466241837,-1.0061261305406688,9.793364640751841,0.5103035959087208
1789997364855172400,2.44317236328125,0.0751634094998938,-9.753770642727613,-1.014250473350659,9.792934340338785,0.5184904218672512
1789997364865242400,2.453242431640625,0.0762233349155634,-9.75299322861433,-1.0216120881598445,9.792540002626652,0.5258692516336971
1789997364875313400,2.4633134765625,0.0747054868316743,-9.75235551523268,-1.0278009328626097,9.792204219072147,0.5320998917787212
1789997364885383400,2.473383544921875,0.0707657179636415,-9.751860425192117,-1.0327689305335284,9.791928771421132,0.5371518766210751
1789997364895454500,2.483454345703125,0.0708078537720488,-9.751476978832482,-1.0363642516117542,9.791728452417013,0.5407603877888963
1789997364905524500,2.4935244140625,0.0713173650636104,-9.751171273884175,-1.0392034205604344,9.791571337482265,0.5436008383766531
1789997364915595300,2.50359521484375,0.0700122555481037,-9.751227387985589,-1.0387743084281682,9.791594734238924,0.5431960165558973
1789997364925665300,2.513665283203125,0.068001294751605,-9.751716048285363,-1.0343024967763572,9.79183926703107,0.5387536412317202
1789997364935736300,2.523736328125,0.0719868526898557,-9.752364283061029,-1.0278958446044475,9.792195104763147,0.5322368965906018
1789997364945806300,2.533806396484375,0.0757935560630168,-9.753097273510694,-1.0206469694547355,9.792591396436965,0.5249048184083499
1789997364955877400,2.54387744140625,0.0760542619589716,-9.754227738845348,-1.0097674096524716,9.793170990736932,0.5139797659510104
1789997364965947400,2.553947509765625,0.0757630650266306,-9.755672092434764,-0.9957488942373544,9.793900320720871,0.4999103772590255
1789997364976018400,2.564018310546875,0.0683331844539381,-9.757251470580696,-0.980707611645758,9.794653086665004,0.4849577462732653
1789997364986088200,2.574088134765625,0.063461308667832,-9.758704591998455,-0.966446519646421,9.795340657445927,0.4708109296873737
1789997364996159200,2.5841591796875,0.0641737038540421,-9.75979881697595,-0.9552956686221062,9.795874074353051,0.4595999847883332
1789997365006229500,2.5942294921875,0.0669310945370933,-9.76114146375656,-0.9413055025186388,9.796528704171477,0.4454703629869338
1789997365016300500,2.604300537109375,0.0709639485160587,-9.762789815485476,-0.9237300983395428,9.797317518480236,0.4277237426126349
1789997365026370300,2.614370361328125,0.0721260099987965,-9.764551564460993,-0.9048293638408184,9.798128439238306,0.40873546725730614
1789997365036441300,2.62444140625,0.0743633999623125,-9.766232064893842,-0.8863239853352308,9.798887233564622,0.39012543044435677
1789997365046511400,2.634511474609375,0.080254873720277,-9.767862296444177,-0.867652529547736,9.799617892815006,0.371328363988218
1789997365056582400,2.64458251953125,0.0836023483841214,-9.769503049388527,-0.8486372287586331,9.800320402697654,0.3522560647743479
1789997365066652400,2.65465234375,0.0821510992630384,-9.770944480368495,-0.8320317655902355,9.800905986725915,0.33559430845150545
1789997365076723500,2.664723388671875,0.0884577525260392,-9.772175483468176,-0.8167998557973652,9.801415780903762,0.32038905717855076
1789997365086793500,2.67479345703125,0.0984926964640151,-9.773456755450368,-0.8001468271601945,9.801934838184664,0.30408244755574587
1789997365096864500,2.684864501953125,0.1025560186464805,-9.774556825646757,-0.7860714669913053,9.802353788481826,0.29025408078455944
1789997365106934300,2.694934326171875,0.1075673805350903,-9.775250653129817,-0.7767239390619098,9.80261462580069,0.28132303215402454
1789997365117005300,2.70500537109375,0.1122679411751683,-9.77559493652284,-0.7717172898810356,9.802743853963658,0.27680491806642665
1789997365127075300,2.715075439453125,0.1152696072091814,-9.77578315257132,-0.7688724949091672,9.802812644561953,0.27432188663603396
1789997365137146400,2.725146484375,0.1228427184777334,-9.775714763510226,-0.7685610908724367,9.80279174311839,0.27504483715888184
1789997365147216400,2.73521630859375,0.1245227074539288,-9.77554116050899,-0.770504772286117,9.80273092336082,0.27722722409310874
1789997365157287400,2.745287353515625,0.1229496494509279,-9.77539093838334,-0.7726544976659119,9.802676758294163,0.2791199736494034
1789997365167357400,2.755357421875,0.1228620168332476,-9.77507646560669,-0.7766378682136535,9.802563911749175,0.28305850641566266
1789997365177428500,2.765428466796875,0.1209129194589331,-9.774505387720463,-0.7840810238264501,9.802354666551473,0.2901750363655755
1789997365187498200,2.775498291015625,0.1243644846849143,-9.773447987622022,-0.7966260326229035,9.801963445428514,0.3031134146480394
1789997365197569300,2.7855693359375,0.1267131667029112,-9.77216437755227,-0.8118829307265579,9.801474594151554,0.3185946043551534
1789997365207639600,2.7956396484375,0.1270000847523566,-9.77061831715405,-0.830244662977755,9.800863840889376,0.3368760807530602
1789997365217710600,2.805710693359375,0.1207176708814688,-9.768910344192385,-0.8510130179792642,9.800158586167688,0.3567869275435274
1789997365227780400,2.8157802734375,0.1156262203608173,-9.766752289375662,-0.8760985785927623,9.799232646757826,0.38132395543358155
1789997365237851400,2.825851318359375,0.1102659993687644,-9.764328277099132,-0.903382306837663,9.798150297633757,0.40818577983729504
1789997365247921400,2.83592138671875,0.1090174149466212,-9.761709619033336,-0.9313916459433734,9.796944649949719,0.4361483773262323
1789997365257992200,2.8459921875,0.1033390405166428,-9.75909096096754,-0.9590845395110548,9.795686000836204,0.4635884691016693
1789997365268062500,2.8560625,0.092358879017271,-9.756572256144882,-0.985486078093946,9.79441747196561,0.4896953613024624
1789997365278133500,2.866133544921875,0.0854096535344142,-9.753582426679134,-1.015240653431788,9.79288205822977,0.5194608175050255
1789997365288203300,2.876203369140625,0.082691772877844,-9.750481538054348,-1.0448154152233151,9.791261919281629,0.5491424525148821
1789997365298274300,2.8862744140625,0.0780561033006757,-9.74763959262669,-1.071361330712959,9.789730829737787,0.5758087922518047
1789997365308344000,2.896343994140625,0.07240163490267,-9.74473218074739,-1.097873197802529,9.788124133991564,0.6024937902214363
1789997365318415000,2.9064150390625,0.0681477037852397,-9.741887312710285,-1.1230938560377806,9.786526125033044,0.6279002600671101
1789997365328485400,2.9164853515625,0.0600483629857655,-9.7394323207736,-1.1446565032221376,9.785099946536365,0.6497732554433886
1789997365338556200,2.92655615234375,0.0583103921780595,-9.737112937915324,-1.1643228152658789,9.783766135356402,0.6695791919973991
1789997365348626200,2.936626220703125,0.0567592263464583,-9.734904614216088,-1.182712604567781,9.782480080271192,0.6881003137348295
1789997365358697200,2.946697265625,0.0473007077566813,-9.733231128045915,-1.1968241320285946,9.781445291434718,0.7026674623118886
1789997365368767200,2.956767333984375,0.0368998211497208,-9.73186393134594,-1.2082432055350392,9.780572027756746,0.714702475591649
1789997365378838000,2.966838134765625,0.0390364906851202,-9.73063117468059,-1.2180711373925208,9.77985696549809,0.7244321468695415
1789997365388908000,2.976907958984375,0.0370454081994481,-9.730085815757512,-1.2224790900278837,9.779519181527391,0.7289732834387367
1789997365398979000,2.98697900390625,0.0298826815298059,-9.73012731681168,-1.2223300369460135,9.77949331095548,0.7292954656500767
1789997365409049300,2.99704931640625,0.0273679153800359,-9.730159465515612,-1.222135098895803,9.779494553258692,0.7292823252293648
1789997365419120000,3.0071201171875,0.0307272768444963,-9.730168233343958,-1.2219799083340912,9.779523469897608,0.7288851849312171
1789997365429190100,3.017190185546875,0.0267557154655572,-9.73063409729004,-1.218361279445514,9.779772131859842,0.7255460425109881
1789997365439261200,3.02726123046875,0.020839424643456,-9.731517894387244,-1.2114048113711178,9.780252733638378,0.71904999379095
1789997365449331200,3.037331298828125,0.0186094176937302,-9.732171974381805,-1.2061780166335403,9.780622365266485,0.714009247299092
1789997365459402000,3.047402099609375,0.0162052631784288,-9.732952895626426,-1.1998930911451575,9.781063574381005,0.7079360586468791
1789997365469472300,3.05747216796875,0.0126047852928284,-9.734160517850516,-1.1901060758199542,9.78174339679923,0.6984901278975449
1789997365479543300,3.067543212890625,0.0086238761302316,-9.73533248423934,-1.1805095415655522,9.782394093123143,0.689305109862083
1789997365489613000,3.077613037109375,0.0104191426412144,-9.736087686520817,-1.174243101581931,9.782845591184243,0.6828550349930902
1789997365499684000,3.08768408203125,0.0153353587509016,-9.73691829212606,-1.1672889715950936,9.78336356850692,0.6754064186741034
1789997365509754000,3.097754150390625,0.0195761267093708,-9.73812766791582,-1.1570895030114798,9.784089653762095,0.6648003207651694
1789997365519825200,3.1078251953125,0.0250990616991766,-9.739361009103058,-1.1465577337335795,9.784833523789228,0.6537663015557709
1789997365529895200,3.117895263671875,0.0264821889039361,-9.740596103855967,-1.1359901624899358,9.78554279061202,0.6430705304694583
1789997365539966200,3.12796630859375,0.0289984483244712,-9.741790866598487,-1.125630242647603,9.786231759843128,0.6324884064925895
1789997365550036200,3.1380361328125,0.0293689278879668,-9.742989136472344,-1.1152058062016963,9.786903058056673,0.6220228048314005
1789997365560106200,3.148106201171875,0.0254148564999457,-9.744158180251716,-1.1050482770636678,9.78752261919593,0.6122068523520557
1789997365570177000,3.158177001953125,0.0284641473682364,-9.74523428505063,-1.0954412944804877,9.788135705522713,0.6023226030427054
1789997365580247000,3.1682470703125,0.0351389991893898,-9.74596201480329,-1.0887587479766458,9.788579383861936,0.5950794908089021
1789997365590318000,3.178318115234375,0.0418844731279183,-9.746692667165398,-1.08195980855152,9.789020669480987,0.5877785442322714
1789997365600388000,3.18838818359375,0.0456967614250723,-9.747663558024168,-1.0730139932908118,9.789568565419652,0.5785666488681017
1789997365610459100,3.198459228515625,0.0431222941274521,-9.74883552441299,-1.0624220182582735,9.79018053089506,0.5681191175015802
1789997365620529200,3.208529052734375,0.0427401401091832,-9.749939101740717,-1.0522552829004823,9.790764046704691,0.5579603654166664
1789997365630600200,3.21860009765625,0.0419155395530397,-9.75103566480577,-1.0420748843435197,9.791336173402781,0.5478224646396471
1789997365640670000,3.228669921875,0.039692141582258,-9.752057993590832,-1.032553241956234,9.79185588983802,0.5384561324574506
1789997365650741000,3.238740966796875,0.0430672303388128,-9.753006672617792,-1.0234236676264554,9.79236863971841,0.5290617825676496
1789997365660811300,3.248811279296875,0.0494222664879169,-9.75388520901799,-1.0147320463225245,9.792858404626697,0.519927517920471
1789997365670882300,3.25888232421875,0.0516207948789233,-9.755012751743196,-1.0037149777457115,9.793444276721482,0.5087548018826289
1789997365680952000,3.2689521484375,0.0502272992604877,-9.756583946582674,-0.988401819410175,9.794225450114945,0.49349678544020803
1789997365691023000,3.279023193359375,0.0498927061444148,-9.758296595719456,-0.9713636639129368,9.795069274739053,0.4764525189246917
1789997365701093000,3.289093017578125,0.0526284192851977,-9.759942609360811,-0.9545341827303172,9.795882747200546,0.4594194136434989
1789997365711164200,3.2991640625,0.0570348695166409,-9.761533093422653,-0.9378829076588152,9.796663737175539,0.4424763039019979
1789997365721234200,3.309234130859375,0.06265769610079,-9.763106626349687,-0.920988471481204,9.79742561956714,0.42526224615472474
1789997365731305200,3.31930517578125,0.0683830606108065,-9.764758485209942,-0.9028938657335936,9.798205735820119,0.4068982781717584
1789997365741375200,3.329375244140625,0.0753285688997712,-9.76655121384561,-0.8827177044715732,9.799031188649924,0.3864910291523662
1789997365751446300,3.3394462890625,0.0764280180416535,-9.768356217440962,-0.8624057149354368,9.799813239140496,0.36609906839435064
1789997365761516000,3.34951611328125,0.0722492482193978,-9.770013336998224,-0.8438033057961613,9.800490232790965,0.34752809214919567
1789997365771587000,3.359587158203125,0.0651656055347993,-9.771750536054371,-0.8240314144860953,9.801163675726226,0.32798394580886686
1789997365781657300,3.3696572265625,0.0674195173748536,-9.773460847103594,-0.8033092367138713,9.801839995684148,0.30711683442365173
1789997365791728400,3.379728271484375,0.0771195074371527,-9.775236040082572,-0.780516170951724,9.80253825002885,0.283965504234296
1789997365801798100,3.389798095703125,0.0828143124121241,-9.777115277957916,-0.7560081179652363,9.803220052157542,0.2593573832070812
1789997365811869200,3.399869140625,0.0889445861949119,-9.778908006593584,-0.7317211603835224,9.803830301237642,0.23511746409213363
1789997365821939200,3.409939208984375,0.0951097029622178,-9.780711841145155,-0.7063916349463164,9.80439907796548,0.2100424648169685
1789997365832010200,3.42001025390625,0.0978970869247335,-9.782623227724432,-0.6790107299372553,9.804943086126356,0.1828871357828524
1789997365842080000,3.430080078125,0.0979399579520802,-9.784582545098662,-0.650189051535353,9.805439021796369,0.15414022765842456
1789997365852151000,3.440151123046875,0.0997140914851333,-9.786474642455577,-0.6207857007879763,9.80585278195531,0.1251196722696621
1789997365862221300,3.45022119140625,0.0996366880005225,-9.788065126517417,-0.5951802810188382,9.80614242028663,0.09978371866628064
1789997365872292400,3.460292236328125,0.0984536978941876,-9.78950772654116,-0.5711562852222473,9.806355318015996,0.07595747235373126
1789997365882362000,3.470362060546875,0.0971047492369543,-9.790898888638615,-0.5470419442610814,9.806510880959054,0.05224567237453852
1789997365892433200,3.48043310546875,0.0966003342456184,-9.792113525125384,-0.5249467611026019,9.806599561358855,0.031512833389862695
1789997365902503200,3.490503173828125,0.0981867175210732,-9.79305226728022,-0.5068121886707843,9.8066309440496,0.019012179622069338
1789997365912574000,3.500573974609375,0.0949507586739957,-9.794027834314107,-0.4882486502371728,9.80663712202782,0.01587347525249134
1789997365922644200,3.510644287109375,0.0940794739984907,-9.794888250535726,-0.4708547035722061,9.80660732427425,0.02904698396357416
1789997365932715300,3.52071533203125,0.0988686536369379,-9.79536405135393,-0.4598398269524797,9.806564040799481,0.041064453960856194
1789997365942785300,3.530785400390625,0.0975106083577964,-9.79573756084144,-0.452121069268696,9.806534414236795,0.047738069590330695
1789997365952856000,3.54085595703125,0.097979915503133,-9.796029237264394,-0.4456538460159674,9.806501756867075,0.05403262174534027
1789997365962926000,3.550926025390625,0.0991792356897611,-9.796210439050196,-0.4413801142195239,9.806476063284725,0.05847317675816647
1789997365972997000,3.5609970703125,0.1020716326630208,-9.796201671221851,-0.440915748110786,9.806467897380351,0.05983206519071678
1789997365983067400,3.5710673828125,0.1025703576990868,-9.796118084591626,-0.4426486728506162,9.806476434954828,0.058377939272355565
1789997365993138200,3.58113818359375,0.1016963056777603,-9.7959608482033,-0.4463240368951112,9.806498441060128,0.05463103070667074
1789997366003208200,3.591208251953125,0.1016522656066343,-9.795691383612157,-0.452214300510101,9.80652757933004,0.04916782994538127
1789997366013279200,3.601279296875,0.1013733208010904,-9.795314366993308,-0.4603583344012498,9.80656160550349,0.04170577793654534
1789997366023349200,3.611349365234375,0.0989674469694495,-9.794984696647523,-0.4678263321943581,9.806590897419662,0.03400310072791747
1789997366033420000,3.621419921875,0.0959158591127954,-9.794709386837482,-0.4742014567168429,9.806613686125177,0.02696029091842648
1789997366043490000,3.631489990234375,0.0964117711372673,-9.794330616652966,-0.4818447380116209,9.806627039578887,0.02116402771727892
1789997366053561000,3.64156103515625,0.0951142786726355,-9.794020235529542,-0.4884052290383726,9.806638835528044,0.015922224555338284
1789997366063631000,3.651631103515625,0.0965578742102254,-9.793727974584698,-0.4939192797521129,9.806638546667877,0.01509083011417873
1789997366073702100,3.6617021484375,0.0950318245535716,-9.793382522147894,-0.5010152293624356,9.806640556469082,0.013766955317340394
1789997366083772200,3.671772216796875,0.0908597812996245,-9.793000829353929,-0.5092069748528302,9.806639850372065,0.015077530232659706
1789997366093843200,3.68184326171875,0.089125340456143,-9.792694539883732,-0.5153175666876137,9.806629278791497,0.019597465812166752
1789997366103913000,3.691912841796875,0.0903615403207484,-9.792407539635896,-0.5205698611926287,9.806619243263592,0.02495252134374631
1789997366113984000,3.70198388671875,0.0887611285199411,-9.792226922371984,-0.5242484035748988,9.806612000305968,0.028001808310871422
1789997366124054300,3.71205419921875,0.0839894388724118,-9.792127553650737,-0.5268690344020724,9.806605807665342,0.029828933676007263
1789997366134125300,3.722125244140625,0.0749254223258234,-9.7921748999238,-0.5273463330576196,9.806601665364521,0.031000346248347008
1789997366144195000,3.732195068359375,0.0702596909705316,-9.792073193114996,-0.5298471734300255,9.806587948830751,0.03470839287349778
1789997366154266000,3.74226611328125,0.068643309849035,-9.79183996888101,-0.5343422563595697,9.80656943070869,0.039490856967247724
1789997366164336000,3.752336181640625,0.0669157143048709,-9.791755797728896,-0.536096370017901,9.8065598839959,0.0417357727504683
1789997366174407200,3.7624072265625,0.0629854850167408,-9.791910111507772,-0.5337734434956685,9.806563439389068,0.04121166570119492
1789997366184477200,3.772477294921875,0.0653626442105509,-9.792052150326969,-0.5308779777824878,9.806578334515025,0.03755511012034956
1789997366194548200,3.78254833984375,0.066861942857597,-9.792201787930727,-0.5279176301395521,9.806590204912585,0.03423378566802198
1789997366204618200,3.7926181640625,0.0651452203338965,-9.792650116220116,-0.5197654494745656,9.806610332874808,0.028108718554085175
1789997366214689300,3.802689208984375,0.0668985942067112,-9.793399473282694,-0.505227257566899,9.806636296929652,0.01696427808741029
1789997366224759000,3.812759033203125,0.0622965209384681,-9.794248783588408,-0.4890743604715913,9.806627197634114,0.021138307350311043
1789997366234830000,3.822830078125,0.0516509753880556,-9.795195124527812,-0.4710551945803686,9.806569965784053,0.03992309300738119
1789997366244900400,3.832900390625,0.0444665255103725,-9.79618705817461,-0.4507135405583307,9.806469401702053,0.05965500618295886
1789997366254971400,3.842971435546875,0.0486323673523962,-9.79715736451149,-0.4286667996514588,9.806355495582274,0.0761882638126512
1789997366265041200,3.853041259765625,0.0574430849913507,-9.798122994673252,-0.4048211560964584,9.806184475138755,0.09560405184386338
1789997366275112200,3.8631123046875,0.0625137575854547,-9.799174549552797,-0.3777065738733857,9.805902338815399,0.12112555491143201
1789997366285182700,3.8731826171875,0.0700442215889459,-9.800170574852825,-0.3494545485856011,9.805527604769818,0.14831170828164533
1789997366295253800,3.883253662109375,0.0778478491111658,-9.801136205014586,-0.3194297780042514,9.80503492322193,0.17792339456383433
1789997366305323800,3.89332373046875,0.08037735845563,-9.802107095873357,-0.2874076778595336,9.804402235003362,0.20991433080391952
1789997366315394600,3.90339453125,0.0846722426379565,-9.802987385839224,-0.2541988886808976,9.803633633794844,0.24313725533001856
1789997366325464800,3.91346484375,0.0881431427520699,-9.803753109514712,-0.2214564566386863,9.802767385475342,0.2759325902851861
1789997366335535900,3.923535888671875,0.0805762054959777,-9.80454046050012,-0.1867505059711635,9.801731101453196,0.31056292882701847
1789997366345606000,3.93360595703125,0.0798686691479757,-9.805126735955476,-0.1532274814778939,9.800611207073096,0.34407548784190467
1789997366355676700,3.9436767578125,0.0829843078173231,-9.805561035719514,-0.1202649221452884,9.799399848898595,0.3770144207712302
1789997366365746700,3.95374658203125,0.0799580735976342,-9.805969616520404,-0.0833755356246139,9.79791248708282,0.41387895460150276
1789997366375817700,3.963817626953125,0.0795633386590052,-9.80622212997675,-0.0455392556086881,9.796243215316903,0.451680725140333
1789997366385887700,3.9738876953125,0.0848746242091059,-9.80627824407816,-0.0086941009553847,9.794475656671375,0.4884863359179619
1789997366395958800,3.983958740234375,0.0960838634903077,-9.806141465955973,0.0268411036105127,9.79263107821655,0.5241560549634066
1789997366406028800,3.99402880859375,0.1002748306404333,-9.805962602257727,0.0585853275287663,9.790878103197006,0.5559638544690958
1789997366416099800,4.004099853515625,0.0964879690454807,-9.805778477862477,0.0882635542613454,9.789158051809626,0.5854712433442976
1789997366426169600,4.014169677734375,0.09038599890857,-9.805540577453376,0.1165790915057063,9.787434063193109,0.6136128976047819
1789997366436240600,4.02424072265625,0.0903221581584308,-9.805214414238929,0.1413260495482944,9.785853219594058,0.6383084037475919
1789997366446310700,4.034310546875,0.0914700769513845,-9.804863116583228,0.1632779335122555,9.784399084591783,0.6602285565795712
1789997366456381700,4.044381591796875,0.0917061963953543,-9.804472071439028,0.1851494457163847,9.782901721780698,0.682053403564969
1789997366466451700,4.05445166015625,0.0935069896064698,-9.804007961058616,0.2075420774514786,9.78131802587103,0.704419653537082
1789997366476522800,4.064522705078125,0.0909652327017858,-9.803530991196633,0.2299112187131307,9.779686447386547,0.7266957604165447
1789997366486592800,4.0745927734375,0.093465817345865,-9.803077986732124,0.2475522720069624,9.778360568569605,0.7443255950073304
1789997366496662800,4.084662841796875,0.093353516077809,-9.802743640211224,0.260534704106301,9.777367565763223,0.7572711341856284
1789997366506733600,4.094733642578125,0.0878902274369262,-9.802386497336624,0.2754392816409468,9.776209706507863,0.7720727345908379
1789997366516804600,4.1048046875,0.0861343602129258,-9.80198434627652,0.2899730896344408,9.775056627067075,0.7865548823848278
1789997366526875000,4.114875,0.0882315790873486,-9.80168390202522,0.2993696078047156,9.774297708789348,0.7959388097090325
1789997366536946000,4.12494580078125,0.0934268370423466,-9.80165175332129,0.2988222761202603,9.77433669552778,0.7954511816766952
1789997366547015700,4.135015625,0.0967488028055988,-9.801770995786786,0.2937780166090465,9.77473922163087,0.7904768540857338
1789997366557086700,4.145086669921875,0.0946988662721589,-9.80189316086173,0.2904098918828182,9.775014873604812,0.7870829297661666
1789997366567156700,4.15515673828125,0.0900340984646696,-9.802090729260444,0.2851435140535235,9.775440247494615,0.7817695279358844
1789997366577227800,4.165227783203125,0.0961419960188679,-9.802477682751416,0.2693965856769122,9.77667596017168,0.7661551373015553
1789997366587297800,4.1752978515625,0.102514800720103,-9.802996738189458,0.2472382924206554,9.778370842808348,0.7442074758254685
1789997366597367800,4.185367919921875,0.1031032133336179,-9.803511701974273,0.2256239881142973,9.77998580038743,0.7226727416881572
1789997366607438800,4.19543896484375,0.1049234875633381,-9.80400036227405,0.2023373666815459,9.781669547187983,0.6995093432421187
1789997366617510000,4.205510009765625,0.1023575825980864,-9.804612941214442,0.1717780325657688,9.78380915342257,0.6689530204894576
1789997366627579600,4.21557958984375,0.0974600106817204,-9.805240133202076,0.1346842825794126,9.786275170262805,0.6318153775513811
1789997366637649700,4.225649658203125,0.0981331333034671,-9.805684954360126,0.0964171596984379,9.78866502043386,0.5936505052936404
1789997366647720700,4.235720703125,0.1020480599911883,-9.80593980590403,0.0591988060848787,9.790839030361084,0.5566371023935219
1789997366657790700,4.245790771484375,0.0949670339553616,-9.806166600397228,0.0212912691973382,9.792928217396112,0.5185869062707712
1789997366667861800,4.25586181640625,0.0944184236292727,-9.806173614659905,-0.0207825502069317,9.795063631004325,0.4765670766452421
1789997366677931800,4.265931884765625,0.0961991330335848,-9.8059585106045,-0.0657928705876693,9.797145523389803,0.4316768238353137
1789997366688002800,4.2760029296875,0.0902079480610787,-9.805650467568636,-0.1071588362668175,9.79888500153091,0.39019778188120613
1789997366698072600,4.286072509765625,0.0764982976657338,-9.805245393899083,-0.1473039275146555,9.800401286364586,0.3500318519928683
1789997366708143600,4.2961435546875,0.0706473796804435,-9.80450655823052,-0.1924771947885863,9.801904727114662,0.30504277359400206
1789997366718214000,4.3062138671875,0.0709514817601302,-9.803522223368288,-0.2372691254615783,9.803195013402105,0.260281124834856
1789997366728285000,4.316284912109375,0.0693858124791411,-9.802448456656933,-0.2785222510165535,9.804200981769322,0.21915266316904214
1789997366738354700,4.326354736328125,0.0674655713065527,-9.801342541241644,-0.3154651486895978,9.804953373126745,0.18241388355365837
1789997366748425700,4.33642578125,0.0673528270805021,-9.800202139034866,-0.3491427792226895,9.805520866757558,0.1488609455994128
1789997366758495700,4.346495849609375,0.0631441005114,-9.799023158383369,-0.381523794073984,9.80594992553253,0.11725399505413017
1789997366768566800,4.35656689453125,0.0626507823028136,-9.797720843613147,-0.4136812658350914,9.806275478838613,0.08574539478107153
1789997366778636800,4.36663671875,0.0614075225097592,-9.79648691790402,-0.442094436501339,9.806473251828857,0.05879343871576113
1789997366788707800,4.376707763671875,0.0589488316454924,-9.795324303865431,-0.4674725503206253,9.806578235599622,0.037511025262775076
1789997366798777900,4.38677783203125,0.0579964217249071,-9.794121942338348,-0.4921473747087642,9.806620437495242,0.024348298909077377
1789997366808849000,4.396848876953125,0.0617751274128677,-9.792893861848116,-0.5155659519581124,9.806612740202208,0.0272244432737589
1789997366818918700,4.406918701171875,0.0643850633160909,-9.791935245949029,-0.5331174638049677,9.80656696193321,0.03999935713222134
1789997366828989700,4.41698974609375,0.0688448557365452,-9.791122760522365,-0.5473161215599626,9.80651257773862,0.05187027428322529
1789997366839059700,4.427059814453125,0.0749204949889564,-9.79051778036654,-0.55723129330948,9.806461749388369,0.060548825495700606
1789997366849130800,4.437130859375,0.079492903771298,-9.790089325821398,-0.5641009598832577,9.80642027592724,0.0670775233324444
1789997366859200800,4.44720068359375,0.0844102215677499,-9.789856686109305,-0.5674088423222303,9.806396667162327,0.07040043094503408
1789997366869271800,4.457271728515625,0.0972676847137045,-9.789672561714053,-0.5685357274603098,9.80637718777837,0.07313817392698799
1789997366879341800,4.467341796875,0.1085041773280128,-9.78954747402966,-0.568648795913346,9.806351746253755,0.0764184834826146
1789997366889412600,4.47741259765625,0.1130004658339545,-9.789781867307424,-0.5637351222455501,9.80637423865656,0.0736185724265852
1789997366899482600,4.487482666015625,0.1089697124805301,-9.790452313914894,-0.5527993022114038,9.806455764914205,0.0619944238298419
1789997366909553700,4.4975537109375,0.1126361260335892,-9.791246094641089,-0.5377706599056721,9.806517190911462,0.05103772845220745
1789997366919624000,4.5076240234375,0.1216013583808205,-9.792003635010122,-0.5217938865622506,9.806538567046115,0.04682169905499613
1789997366929694700,4.51769482421875,0.130363368906686,-9.792909059417248,-0.5023117719789967,9.80652822864069,0.04882285439261736
1789997366939764700,4.5277646484375,0.1437322065077256,-9.79391326802373,-0.4785331657782197,9.806437163742542,0.06465441266971668
1789997366949835800,4.537835693359375,0.1537852797574363,-9.795133749729397,-0.449556114151515,9.806270880268293,0.08629721855937539
1789997366959905800,4.54790576171875,0.1569990176395513,-9.79644950850308,-0.4187245937645435,9.806048671127485,0.1086803068279861
1789997366969976600,4.5579765625,0.1591835220717825,-9.797673497340083,-0.3881498611502349,9.80573924429025,0.13372936056256132
1789997366980046800,4.568046875,0.1686676637265831,-9.798765968751908,-0.3551832649633288,9.805238117817444,0.16650494217092912
1789997366990118000,4.578117919921875,0.1708796772202477,-9.80001100037694,-0.3177333493499085,9.804601389342656,0.20040346550183283
1789997367000187600,4.588187744140625,0.1769792544706724,-9.801067231431604,-0.2795543522769585,9.803771582834809,0.23760033466525698
1789997367010258700,4.5982587890625,0.1878434888396412,-9.801914203649758,-0.2400028795407153,9.802702967164226,0.27825016037346234
1789997367020328700,4.60832861328125,0.1905594515337608,-9.802799754312634,-0.198006972794421,9.801480972273243,0.3183919583806638
1789997367030399700,4.618399658203125,0.1895812176187522,-9.80355261850655,-0.1574883903253823,9.800170539405432,0.3564336874617507
1789997367040469800,4.6284697265625,0.1891062387844547,-9.804098561951518,-0.1194158127689734,9.798781661186606,0.39274403208628555
1789997367050540800,4.638540771484375,0.1902047928771935,-9.804454535782336,-0.0828943736447021,9.797294829558561,0.4282430470460849
1789997367060610800,4.64861083984375,0.195139436267782,-9.8045983281672,-0.046556501793256,9.79563740832631,0.4646321649901422
1789997367070681900,4.658681884765625,0.1950936060983687,-9.804704711151125,-0.0091857135473634,9.793848708782514,0.5009070121509663
1789997367080751600,4.668751708984375,0.1873881828201934,-9.804826876226066,0.0254688471429282,9.792149567240463,0.5331040412460382
1789997367090822700,4.67882275390625,0.1870372322243638,-9.804698281410335,0.057367905429867,9.790401050856897,0.56429571651977
1789997367100892700,4.688892578125,0.1924859626169316,-9.804351659929752,0.0896230699783656,9.788465130659048,0.5969463945080322
1789997367110963700,4.698963623046875,0.1948037563063204,-9.80400094679594,0.1183169572821352,9.786679545522517,0.6255281319640729
1789997367121033700,4.70903369140625,0.1917146129182539,-9.803748433339596,0.1418385656476952,9.785209134231547,0.6481035527378779
1789997367131104800,4.719104736328125,0.1896371125244535,-9.803447989088296,0.1637583739729598,9.783780501124879,0.6693359545556088
1789997367141174800,4.7291748046875,0.1883614665654487,-9.803138192486765,0.1826657756744883,9.782501935873468,0.687765311217441
1789997367151245800,4.739245849609375,0.1955848967466503,-9.802689864197372,0.1985522221196442,9.781309082936241,0.7045549194001332
1789997367161315600,4.749315673828125,0.1987917116976343,-9.802292389312386,0.2143393363761715,9.780138540409087,0.7206148150948928
1789997367171386600,4.75938671875,0.1877144190998748,-9.80219126702547,0.2284877252486534,9.779227860546115,0.7328706779482668
1789997367181457000,4.769456787109375,0.1771991442990489,-9.802107680395244,0.2401620521578006,9.778464807950355,0.7429793575711368
1789997367191528000,4.77952783203125,0.175428189103771,-9.801900175124404,0.2497302918994799,9.777757727140619,0.7522241292794184
1789997367201597700,4.78959765625,0.1770577630669809,-9.8017248185575,0.2553929755699821,9.777309121154113,0.7580308645137249
1789997367211668700,4.799668701171875,0.1799944558396935,-9.8015775190413,0.2589368221892975,9.777006857913848,0.7619088161321532
1789997367221738800,4.80973876953125,0.184670229098387,-9.801441909962891,0.2608232569904066,9.776814803845454,0.7643871208934281
1789997367231809800,4.819809814453125,0.1822855259189382,-9.801497439542413,0.2603758968153968,9.776873043417135,0.7636289484178769
1789997367241879800,4.8298798828125,0.1693537462946027,-9.801697346028686,0.2615908803620375,9.776903197746751,0.7632464903998897
1789997367251950800,4.839950927734375,0.1603737730359658,-9.80185575146079,0.2613476461906917,9.776998802922362,0.7620320986329165
1789997367262020900,4.850020751953125,0.1575236077692359,-9.802013572371006,0.2570723069590516,9.777349379529374,0.757501842619468
1789997367272092000,4.860091796875,0.1582304591306485,-9.802216985988617,0.2488013039536774,9.777977730944942,0.7493652651373323
1789997367282161700,4.87016162109375,0.1569092387305572,-9.802460147094726,0.2399107260115444,9.778660266794585,0.7404093378987167
1789997367292232400,4.880232421875,0.1495924220443237,-9.802765852043033,0.231955748419091,9.779307809708035,0.7318049432206241
1789997367302302700,4.890302734375,0.141021102651814,-9.803074479600786,0.2241663549182005,9.779939410252187,0.7233200470516491
1789997367312373800,4.900373779296875,0.135793431131402,-9.803313549053668,0.2167773406454362,9.780509143695978,0.715562507747818
1789997367322443800,4.91044384765625,0.1301047910357359,-9.80353508284986,0.2101668547308072,9.78101805018402,0.708578426231232
1789997367332514600,4.9205146484375,0.1303603823651559,-9.803674783581494,0.2034392087099142,9.781500765442889,0.7018998353061074
1789997367342584600,4.93058447265625,0.137884302463429,-9.803696410891414,0.1972008440433069,9.781901399925589,0.6962532389987454
1789997367352655600,4.940655517578125,0.1412640902279876,-9.803718038201332,0.1937550144383683,9.782125887782183,0.6931068005320535
1789997367362725600,4.9507255859375,0.1369184531059581,-9.803772983258964,0.1941155365801416,9.78212622643117,0.6931080015326283
1789997367372796400,4.96079638671875,0.1260177683172747,-9.803844294929505,0.1978389410174451,9.781917734116767,0.6960381646923266
1789997367382866700,4.97086669921875,0.1151905506236013,-9.803900993552803,0.2016454571609385,9.781691047555304,0.6992315030865767
1789997367392937700,4.980937744140625,0.1106469067114405,-9.80385130919218,0.2065393849486485,9.781355416188081,0.7039090640538156
1789997367403007700,4.9910078125,0.1148971023686695,-9.803636205136776,0.2142104492994956,9.7807871622824,0.7117392707461185
1789997367413078500,5.00107861328125,0.1222651743181049,-9.80329425983131,0.2254986995005048,9.77993487001545,0.7233607118339019
1789997367423148500,5.0111484375,0.1251111748663708,-9.802933025303483,0.2392688113788142,9.778899764120418,0.7372365102505485
1789997367433219600,5.021219482421875,0.1200498454893473,-9.80256477651298,0.2563436821572482,9.777624141484493,0.7539671043066651
1789997367443289600,5.03128955078125,0.1198568345347419,-9.80204338298738,0.2756198623722419,9.776124595764532,0.773158676710828
1789997367453360600,5.041360595703125,0.1215464589889626,-9.801475227710604,0.2944611217686906,9.77461610620457,0.7920085287905143
1789997367463430700,5.0514306640625,0.1225881409284658,-9.800836929807067,0.3145983757924288,9.77296645861847,0.8121152096444966
1789997367473501700,5.061501708984375,0.120167051261384,-9.800223181822895,0.3340235360240564,9.771348538278973,0.831344693757745
1789997367483571500,5.071571533203125,0.1208145005857571,-9.799635152801873,0.3506544989598915,9.769923559891863,0.8479371928938619
1789997367493642500,5.081642578125,0.1241769262235611,-9.79907342726588,0.3648462885826826,9.768671158954762,0.862227663933732
1789997367503712800,5.091712646484375,0.1249698940990026,-9.798521054080128,0.379147018472664,9.767401137536607,0.876504307889006
1789997367513783800,5.10178369140625,0.1207190591209568,-9.797988554638623,0.3940034460166469,9.766080710135732,0.8910999307890702
1789997367523853600,5.111853515625,0.1163816053053829,-9.797591664275526,0.405055658972077,9.765087849525901,0.9019293075633366
1789997367533924600,5.121924560546875,0.119377581384126,-9.79721172504723,0.4132747673934325,9.764316730098846,0.9102326186288506
1789997367543994600,5.13199462890625,0.1206965276287403,-9.796844060778618,0.4215068814268335,9.763543218213831,0.9184841207967631
1789997367554065700,5.142065673828125,0.1197007123912684,-9.796518482086062,0.4292774788957089,9.76281582086982,0.9261798054707278
1789997367564135400,5.152135498046875,0.120851197600644,-9.79635715404451,0.4326401967944577,9.762493827416932,0.929575339114152
1789997367574206500,5.16220654296875,0.1162602804806549,-9.796445416849853,0.4319061468988657,9.762580884100743,0.9286639108179916
1789997367584276700,5.17227685546875,0.1136304069011006,-9.79671137430966,0.4265338062107562,9.7630969062696,0.923220183667136
1789997367594347800,5.18234765625,0.111764768292848,-9.7970264316082,0.4197276333272456,9.76374102957572,0.9163791020202448
1789997367604417500,5.19241748046875,0.1109632426516152,-9.79743325884342,0.4103547882935032,9.764615800479291,0.9070174331381625
1789997367614488600,5.202488525390625,0.1061079846401698,-9.797949976193904,0.399154947028309,9.765659116981208,0.8957172115469789
1789997367624558600,5.21255859375,0.1015873562774155,-9.798619838279484,0.3835710819926112,9.767080421514072,0.8800781446537348
1789997367634629600,5.222629638671875,0.1030096076328773,-9.79932068002522,0.3647839274035766,9.76874464252775,0.861389686501982
1789997367644699600,5.23269970703125,0.103369426521752,-9.79995430175364,0.3472521066378802,9.770269227424993,0.8439270134293524
1789997367654770700,5.242770751953125,0.0992450583344325,-9.800497907111048,0.3328260698677971,9.771509050499704,0.8294533607610649
1789997367664840700,5.2528408203125,0.097682211198192,-9.800987151932716,0.3185807599594816,9.772706794052244,0.8152218010064759
1789997367674911700,5.262911865234375,0.1025208651347085,-9.801467044404149,0.301850519633945,9.774074583602758,0.7986529413346035
1789997367684981500,5.2729814453125,0.103504770738678,-9.801899590602517,0.2870545170403085,9.77526486966235,0.7839297452692029
1789997367695052500,5.283052490234375,0.0976096208860166,-9.802314601144197,0.2747356634162366,9.7762546673664,0.7715073178160216
1789997367705122800,5.293122802734375,0.095395177973248,-9.80263491913974,0.2638469521931372,9.777108103736795,0.7606076123365081
1789997367715193600,5.303193603515625,0.0921352171960752,-9.802928349128363,0.2539234692730009,9.77787703112441,0.7506603818303424
1789997367725263600,5.313263671875,0.0930041181182488,-9.803183200672269,0.2435769751678221,9.778663324211252,0.740353946763051
1789997367735334700,5.323334716796875,0.1008565303853712,-9.803338683494925,0.233991492030397,9.779370064538675,0.7309545417991803
1789997367745404700,5.33340478515625,0.1000246735379565,-9.803488321098683,0.2280303003373555,9.779814774322675,0.7249889620170419
1789997367755475500,5.343475341796875,0.0841797281469684,-9.80372037628889,0.2243650558280758,9.780100139012355,0.721110527076231
1789997367765545700,5.353545654296875,0.0756902874847874,-9.80396236835122,0.2167259757843799,9.780658254871097,0.713513412395279
1789997367775616800,5.36361669921875,0.0796215625191107,-9.804244107902049,0.2021893730456009,9.78170937347611,0.6989881229121067
1789997367785686800,5.373686767578125,0.0842399978336878,-9.80448376187682,0.1881345259417779,9.782699772020205,0.6849656812632876
1789997367795757600,5.383757568359375,0.0848162816179916,-9.804669055315852,0.1779348381624557,9.783406714960131,0.6747910359516162
1789997367805827600,5.39382763671875,0.0815215143889188,-9.804947872257232,0.1635467222499661,9.784387098450997,0.6604280225840486
1789997367815898600,5.403898681640625,0.0803405518428888,-9.80530443060994,0.1412509567517787,9.785863645022047,0.6381803311200183
1789997367825968600,5.41396875,0.0829422953065019,-9.80562241051793,0.1153658249921165,9.787515191629552,0.6123446163713724
1789997367836039400,5.424039306640625,0.0829188778982963,-9.805867325189707,0.0921070962132886,9.788938718301635,0.5891281915195146
1789997367846109700,5.434109619140625,0.0800412127032876,-9.806077168548107,0.0693896940698148,9.790275963051089,0.5664516997932646
1789997367856180700,5.4441806640625,0.0752253140212735,-9.806268891727925,0.0427826275440398,9.791776131882482,0.539924958727171
1789997367866250500,5.45425048828125,0.0763527745480882,-9.80634721766114,0.0107771474572713,9.793486319575914,0.5079540871951962
1789997367876321500,5.464321533203125,0.0780909645515028,-9.80631331539154,-0.0229680341699859,9.79517771913805,0.47423624857782315
1789997367886391600,5.4743916015625,0.0813508248639758,-9.806153740915656,-0.0558155842542182,9.796710801567501,0.4414091039800313
1789997367896462600,5.484462646484375,0.0844403883771505,-9.805888952499629,-0.0884687123114708,9.79812753171654,0.40879324018382796
1789997367906532600,5.49453271484375,0.0861643260929267,-9.80549264665842,-0.1235625115191098,9.799525257319017,0.3737415687115807
1789997367916603600,5.504603759765625,0.0876755983055569,-9.804923322337864,-0.1617676385471597,9.800906151355088,0.3355827002011675
1789997367926673700,5.514673583984375,0.0901548844332806,-9.804199099716543,-0.1998234841644763,9.80213286003528,0.29760495478073956
1789997367936744700,5.52474462890625,0.0877891142831649,-9.80349416631758,-0.2327688183676451,9.80307932509606,0.2646164512797997
1789997367946814500,5.534814453125,0.0833632971975486,-9.80271441411674,-0.2650253300564363,9.803898961962053,0.23229914606532742
1789997367956885500,5.544885498046875,0.0866290301283821,-9.801678641328214,-0.3000124174865894,9.804665518867203,0.1973582795662376
1789997367966955800,5.554955810546875,0.0889568428882863,-9.800539992687106,-0.3345014557341113,9.805296261257253,0.16295373889190384
1789997367977026800,5.56502685546875,0.0940657012014649,-9.799363350123166,-0.3661053852656856,9.805765998590147,0.1317450488388735
1789997367987096600,5.5750966796875,0.0965283284553326,-9.798225286003946,-0.3947591962873935,9.80610262525277,0.10354998573505286
1789997367997167600,5.585167724609375,0.0995590835865121,-9.79693407714963,-0.4249258960900828,9.80636774729469,0.07445095786295379
1789997368007237600,5.595237548828125,0.0972343760991469,-9.795468680772183,-0.4579595661638304,9.806559574640726,0.042160089508741436
1789997368017308700,5.60530859375,0.0960238586650695,-9.793846048006415,-0.491682570208609,9.806638615888184,0.015225002509325321
1789997368027378400,5.61537841796875,0.1001945502121467,-9.792114109647274,-0.5242947999998927,9.806597080533221,0.03280886510792459
1789997368037449500,5.625449462890625,0.1063455197230912,-9.790417242601514,-0.553902514212951,9.80645477437521,0.061902400432111024
1789997368047519700,5.635519775390625,0.1090690720686223,-9.78880103957653,-0.5812339905897155,9.806249033150658,0.08851387769793986
1789997368057590800,5.6455908203125,0.1120531933127902,-9.78699252884984,-0.6104335623933002,9.805948117675705,0.11742795852225175
1789997368067660500,5.65566064453125,0.1174903245991095,-9.785084649401902,-0.639303938775137,9.80555174180048,0.14679965034754838
1789997368077731600,5.665731689453125,0.1211305990639142,-9.783172678300735,-0.6672665891949087,9.805090269738098,0.17489933911431937
1789997368087801600,5.675801513671875,0.1198750277785584,-9.781302208253742,-0.6943523837149143,9.80458494335545,0.20120197010122762
1789997368097872600,5.68587255859375,0.1174201180402655,-9.779370363408326,-0.7214661622203886,9.804009735544103,0.22754937357672148
1789997368107942700,5.695942626953125,0.1129535488191526,-9.77747943509519,-0.7473525908879936,9.803396384397228,0.25262191788237287
1789997368118013700,5.706013671875,0.1033340355479624,-9.775902979558706,-0.7690409833438694,9.802841273634858,0.2732837108773213
1789997368128083700,5.716083740234375,0.1004817422562278,-9.774321847847103,-0.7892545540068298,9.802263185476047,0.29329739090135937
1789997368138154800,5.72615478515625,0.0995153540426399,-9.772692200818655,-0.8093000015612691,9.801643857428157,0.31330550952700004
1789997368148224500,5.736224609375,0.0937789018830284,-9.77127122810483,-0.8269717787869274,9.801072794045849,0.3307420510790637
1789997368158295600,5.746295654296875,0.086629185392009,-9.770012752476331,-0.8424597822327167,9.800541512734092,0.34609007666671826
1789997368168365800,5.75636572265625,0.0787541594342794,-9.768795193380116,-0.8572214441653341,9.800008219673675,0.3608728952138128
1789997368178436600,5.7664365234375,0.0659310460824985,-9.767634917429088,-0.8714069867104292,9.799461643895347,0.37542031022463146
1789997368188506600,5.776506591796875,0.0484290724657941,-9.766446584427356,-0.8857624059297143,9.79885662336193,0.3909068636991418
1789997368198577700,5.78657763671875,0.0361075839266413,-9.764879481241106,-0.903452668660134,9.798085619085297,0.4097803879684898
1789997368208647700,5.796647705078125,0.0304288761365227,-9.763096104955672,-0.9227184370789676,9.79723392195649,0.4296373630098596
1789997368218718500,5.806718505859375,0.0253231413621921,-9.761413266435264,-0.940506680291146,9.796412505243017,0.4479788638064293
1789997368228789500,5.81678955078125,0.0236573087755125,-9.75983914898634,-0.9567496668227016,9.795650027200692,0.46436015323595964
1789997368238859800,5.82685986328125,0.0261677572264801,-9.758430451232194,-0.9709528180897236,9.794984182067228,0.47820902444766916
1789997368248929800,5.8369296875,0.0203693982622004,-9.75741104505658,-0.9812774474229664,9.794441165348161,0.48919617939232773
1789997368259000600,5.84700048828125,0.0093347118303063,-9.75674059844911,-0.9880917305476964,9.794024997888581,0.49746743710555485
1789997368269071600,5.857071533203125,0.0068254061652987,-9.755705994704366,-0.9982735904093832,9.79348700716761,0.507945314997666
1789997368279141600,5.8671416015625,0.0073171454797964,-9.75455974727869,-1.0093912698164582,9.792910001231078,0.5189160309893134
1789997368289212400,5.87721240234375,0.0027414858652657,-9.7537770724684,-1.0169505260895937,9.792473410392521,0.527093515824625
1789997368299282400,5.887282470703125,0.0010460443051393,-9.752910226505994,-1.0252375851806252,9.792013686822155,0.5355735651136256
1789997368309353500,5.897353515625,-0.0018698762492473,-9.751865685889124,-1.0351235308356583,9.791447378118484,0.5458267286285092
1789997368319423500,5.907423583984375,-0.0051147760264895,-9.751098208647964,-1.0423231600161642,9.791018835878624,0.5534710118943993
1789997368329494500,5.91749462890625,-0.0035050829428058,-9.750763277605175,-1.045463430803269,9.79085697727551,0.5563364244613591
1789997368339564500,5.927564453125,0.0024854704149824,-9.750572138947248,-1.0472573284827171,9.79080701563604,0.5572334421141326
1789997368349635600,5.937635498046875,0.0003753550625753,-9.750389768117666,-1.048962378834933,9.790693720158401,0.559231008946207
1789997368359705300,5.947705322265625,-0.0050150448331725,-9.750243637645244,-1.0502969153743236,9.790570465289582,0.561364158777932
1789997368369776400,5.9577763671875,-0.0060463338136469,-9.750061851337552,-1.0519790963076054,9.790465595079555,0.5631927855469557
1789997368379846700,5.9678466796875,-0.0062834002515766,-9.749734519079327,-1.0550059698481111,9.79029016844146,0.5662320087908959
1789997368389917700,5.977917724609375,-0.0118997879617847,-9.749607093307375,-1.056132635790482,9.790173169833281,0.5682477697988549
1789997368399987500,5.987987548828125,-0.0144686155364848,-9.74954104233384,-1.056707951460406,9.790114940099139,0.5692460200255032
1789997368410058500,5.99805859375,-0.0113354560518229,-9.74950538649857,-1.0570754695985465,9.790124103870363,0.5690890555721946
1789997368420128500,6.00812841796875,-0.0105393966035742,-9.749763160651922,-1.0547104940328746,9.790268283846412,0.5666162053985252
1789997368430199600,6.018199462890625,-0.0116754308792005,-9.749912213733792,-1.0533127560641615,9.790336801752952,0.5654180413913962
1789997368440269600,6.02826953125,-0.0091372336214932,-9.749774851089716,-1.05459315126352,9.790285708591634,0.5662734276107897
1789997368450340600,6.038340576171875,-0.0070457172604277,-9.749553901815414,-1.0566609705135226,9.790187331891838,0.5679923763634643
1789997368460410600,6.04841064453125,-0.0064870262150303,-9.74950538649857,-1.0571152170870453,9.790166570554593,0.5683559323751749
1789997368470481700,6.058481689453125,-0.005206975221433,-9.74982044379711,-1.0541979414008558,9.790343996522578,0.5652641225862046
1789997368480551400,6.068551513671875,0.0013642909297821,-9.750154205796122,-1.0511352658946067,9.79057687715912,0.5612474122328159
1789997368490622500,6.07862255859375,0.0001133861601625,-9.750518947455287,-1.0477464271739123,9.790758898997698,0.5580613898972551
1789997368500692500,6.0886923828125,-0.0024240685025128,-9.750931035387516,-1.043905168510601,9.790954534572911,0.5546253111433403
1789997368510763500,6.098763427734375,0.0025125904611151,-9.751115159782769,-1.0421665812149643,9.791091463646172,0.552170540659809
1789997368520833500,6.10883349609375,0.0064887226984836,-9.751196408325432,-1.0414072872802616,9.79116728535197,0.5508591703101984
1789997368530904600,6.118904541015625,0.0116263493067759,-9.751368257761,-1.0397408884380013,9.79129729208513,0.5485221267763685
1789997368540974600,6.128974609375,0.0182066158963658,-9.751491591879724,-1.0384982679657635,9.791412367858651,0.546481694547844
1789997368551045600,6.139045654296875,0.0186920373512199,-9.751610834345222,-1.0373585964113474,9.791477725727187,0.545288970103342
1789997368561115400,6.149115478515625,0.0181225121012656,-9.751808402743936,-1.035506757999584,9.79157640019835,0.5435084122749367
1789997368571186400,6.1591865234375,0.0263931931629427,-9.751532508412003,-1.0379349349945783,9.791492974083834,0.5450294771941696
1789997368581256700,6.169256591796875,0.0315544255507527,-9.751113990738988,-1.0417135767504573,9.791309633634649,0.548308833083187
1789997368591327500,6.179327392578125,0.0304203663197928,-9.751195239281651,-1.040997829696536,9.791345027428985,0.5476979354998361
1789997368601397500,6.1893974609375,0.0319219619552022,-9.751561149984598,-1.0375239430408925,9.791546869937484,0.5440861142729145
1789997368611468500,6.199468505859375,0.0325592917443602,-9.751994865226743,-1.0334160693306476,9.791777075872098,0.5399207605418844
1789997368621538600,6.20953857421875,0.0325841042419197,-9.752532040843366,-1.028333066977933,9.792056059769184,0.5348363773188671
1789997368631609300,6.219609375,0.0340849829246988,-9.75316040187478,-1.0222848728548737,9.792389492205618,0.5286530099867927
1789997368641679600,6.2296796875,0.0362925759715726,-9.753762459421155,-1.0164473258078095,9.792713231209001,0.5226203242604458
1789997368651750700,6.239750732421875,0.0340209640780463,-9.754700617054104,-1.0074851439341903,9.793176847961675,0.5138629137698446
1789997368661820700,6.249820556640625,0.0325792933527729,-9.75573697436452,-0.997458036242798,9.793691471329113,0.5039793863037707
1789997368671891500,6.259891357421875,0.0326309847241034,-9.756758134105802,-0.9874230375058948,9.794202976637598,0.49394977075043267
1789997368681961500,6.26996142578125,0.0351309026479022,-9.758070385748148,-0.9742854696437716,9.794868326855974,0.4805813869143515
1789997368692032500,6.280032470703125,0.0402742705854587,-9.759310156676174,-0.961581690089032,9.795505338487132,0.4674090943258776
1789997368702102800,6.290102783203125,0.0449097346666501,-9.760498489677904,-0.9492384874749928,9.796105022468513,0.4546732300713061
1789997368712173600,6.300173583984375,0.0462902657722355,-9.76190777195394,-0.9345568319760262,9.796779656364212,0.43987608900848946
1789997368722243600,6.31024365234375,0.0511777912186225,-9.763371414765714,-0.9188784935899078,9.797487310603627,0.42381674521102214
1789997368732314600,6.320314697265625,0.0563628428734373,-9.76470763180554,-0.9042674191091208,9.798124296001788,0.40884196220533003
1789997368742384400,6.33038427734375,0.0528949338674312,-9.765886612457036,-0.8916539481863379,9.798633329967608,0.39644776397478315
1789997368752455400,6.340455322265625,0.0423349705415079,-9.76709131207168,-0.8789378936719149,9.799103677581032,0.3846607401687358
1789997368762525400,6.350525390625,0.0408781775956274,-9.768255095154046,-0.8659840848788618,9.799597059421018,0.3718931804388838
1789997368772596500,6.360596435546875,0.045404692276474,-9.76925696567297,-0.8543729959316552,9.800046733628998,0.35983396489967584
1789997368782666500,6.37066650390625,0.0525606238791486,-9.769956638374923,-0.8459157679054886,9.800376436002088,0.3507285759030374
1789997368792737500,6.380737548828125,0.0582181290510343,-9.7706720931679,-0.8372399286925792,9.80069831511223,0.3416222140225431
1789997368802807600,6.3908076171875,0.058736663899268,-9.771692668387294,-0.8251978279169648,9.801111379068798,0.32953723824022674
1789997368812878600,6.400878662109375,0.0582947242514695,-9.77272727213204,-0.8128952495742588,9.80151723430776,0.31726204105957256
1789997368822948400,6.4109482421875,0.0590189468727912,-9.773678873768448,-0.8013327490091323,9.801887445823178,0.30564462646371726
1789997368833019400,6.421019287109375,0.057224944162066,-9.774760823786258,-0.7881585754636674,9.80228511758332,0.2926162506465781
1789997368843089700,6.431089599609375,0.0545259326027473,-9.775991242364048,-0.7729348489772528,9.802719606412454,0.2776588679028724
1789997368853160700,6.44116064453125,0.0547522658716421,-9.777262577474117,-0.7566564258061349,9.80316589541052,0.2613975770118191
1789997368863230500,6.45123046875,0.0575715291100321,-9.778594118338823,-0.7390193545676768,9.803625065703562,0.24352123051020544
1789997368873301500,6.461301513671875,0.0636394097476732,-9.780123812124131,-0.7179722556900232,9.804136355529499,0.22195998980870468
1789997368883371500,6.47137158203125,0.0718273695455165,-9.78173124732077,-0.694943189214915,9.804642494060806,0.19838590101291376
1789997368893442600,6.481442626953125,0.0772947544062044,-9.783627436330914,-0.6671191435482352,9.805171219047386,0.1703103309816571
1789997368903512600,6.4915126953125,0.0764382700076093,-9.785861478993295,-0.6336212169636041,9.80569694527415,0.1367880082252206
1789997368913583600,6.50158349609375,0.0726403527291025,-9.788160403585431,-0.5975056552264839,9.806130222301656,0.10091470879924379
1789997368923653600,6.511653564453125,0.0729131920208455,-9.790228442031143,-0.5625776593061164,9.806427086598221,0.06611126007935388
1789997368933724700,6.521724609375,0.0820853588167578,-9.791996620747446,-0.5295560449963436,9.806595382904732,0.03244114124464601
1789997368943794400,6.53179443359375,0.0876693512278608,-9.793829681393504,-0.4935245448134839,9.8066459484403,0.006889235220148359
1789997368953865500,6.541865478515625,0.084645391163649,-9.795947404199838,-0.4501377134317532,9.806536094050445,0.04716126836959032
1789997368963935500,6.551935546875,0.0875498713003471,-9.798042915174364,-0.4013226464562118,9.806178328280728,0.09610623330096048
1789997368974006500,6.562006591796875,0.0880069126191549,-9.800000478982923,-0.3502156326185912,9.805546184794482,0.1472060186511938
1789997368984076500,6.57207666015625,0.0792199320488143,-9.80187328711748,-0.2956072047975845,9.804574763804396,0.20172519634217836
1789997368994147600,6.582147705078125,0.0800395413360092,-9.803307703834772,-0.243123641909752,9.803353403252379,0.2542035020194802
1789997369004217600,6.592217529296875,0.0848490057106595,-9.80448551544249,-0.1877756112352013,9.80176384699494,0.309549259746192
1789997369014288400,6.602288330078125,0.0793444808770902,-9.80547569552362,-0.1293923501837532,9.799746980024839,0.3679003532618565
1789997369024358400,6.6123583984375,0.0766266093536745,-9.80612743743062,-0.0660684406926157,9.797164899138547,0.4311982540941259
1789997369034429400,6.622429443359375,0.0848960323233157,-9.806282335731389,1.69884489548e-05,9.794038301774462,0.49718641176639267
1789997369044499700,6.632499755859375,0.0911667922890279,-9.805976046261192,0.0700017661201301,9.790236767977246,0.5671347970905534
1789997369054570500,6.642570556640625,0.0912343776325229,-9.805299169912931,0.1347141297284048,9.786280673885111,0.6317230341284714
1789997369064640500,6.652640625,0.093146458331542,-9.804347568276524,0.1909897875087335,9.78249331595383,0.6879019730461755
1789997369074711600,6.662711669921875,0.0908141794590745,-9.803145206749438,0.2459016187231056,9.77848925851259,0.7426429741469814
1789997369084781600,6.672781494140625,0.0827885386500507,-9.801806651622057,0.2968225354040972,9.774504010726126,0.793374148644145
1789997369094852400,6.682852294921875,0.0857026907973922,-9.800198047381638,0.3451874657256528,9.770469922835069,0.8416047721954728
1789997369104922600,6.692922607421875,0.0940415257414337,-9.798463186413048,0.3894261281637474,9.766564190820887,0.8857771954206494
1789997369114993700,6.70299365234375,0.0974585219775326,-9.796778594326971,0.4289669516418129,9.762905760117064,0.9252311897267205
1789997369125063700,6.713063720703125,0.1039362848905846,-9.794983527603744,0.4668072913449257,9.759248745596075,0.9630566059063038
1789997369135134500,6.723134521484375,0.1075904965491965,-9.793139945563674,0.5032207035174593,9.755592062162485,0.9994099766679861
1789997369145204500,6.73320458984375,0.1053860087748616,-9.791509129491448,0.534421386010386,9.752363249091438,1.030424436509457
1789997369155275500,6.743275634765625,0.1066220899084582,-9.790168820798396,0.5581945853836834,9.749829810929624,1.054122223866464
1789997369165345500,6.753345458984375,0.1119272014460992,-9.78917454906404,0.5743826633902266,9.74806043899611,1.0703733797834067
1789997369175416600,6.76341650390625,0.109792445306573,-9.788676536414028,0.5832271371683105,9.747096891446002,1.0791194548714995
1789997369185486600,6.773486572265625,0.1140433533498551,-9.78829484362006,0.588793575656414,9.746468971450161,1.084777532665501
1789997369195557600,6.7835576171875,0.1244579077225644,-9.7879640042305,0.5921899035638198,9.74605327901886,1.0885143468578224
1789997369205627400,6.79362744140625,0.1240948830964509,-9.787987385106089,0.5918741886781528,9.746089605779172,1.088186124867106
1789997369215698400,6.803698486328125,0.1203354940303135,-9.788199566552043,0.5891140397824347,9.746410070748208,1.0853006359805737
1789997369225768400,6.8137685546875,0.1245583084902726,-9.788587104564904,0.5817471642762422,9.747205802025265,1.0781285136646666
1789997369235839500,6.823839599609375,0.1261871518011204,-9.7893580889374,0.5682900456035509,9.748671583721718,1.0648055782125598
1789997369245909500,6.833909423828125,0.1297725999393034,-9.790363466587662,0.5498589744431898,9.750639934406166,1.0466248119210868
1789997369255980500,6.84398046875,0.1355405888814944,-9.791391056069733,0.5298121021166443,9.752730592153389,1.0269649091090534
1789997369266050600,6.854050537109375,0.1365828188102692,-9.792423321726918,0.5100838672852144,9.75477033800449,1.0073979267140727
1789997369276121600,6.86412158203125,0.1348710555894766,-9.79355437158346,0.4883483112193644,9.756987524053288,0.9856855276083749
1789997369286191400,6.87419140625,0.1408858954322058,-9.794774268767236,0.4614485773233696,9.759619709587687,0.9592756253433132
1789997369296263200,6.88426318359375,0.1496841463152319,-9.795992996907234,0.4318784917069598,9.762409327178267,0.9304661731280424
1789997369306333200,6.894333251953125,0.1501473799128085,-9.797097158756852,0.4058862280447036,9.76483360646872,0.9046685812559901
1789997369316404200,6.904404296875,0.150467807506211,-9.798085000750422,0.3811850271062925,9.767075075997989,0.880145855943813
1789997369326474200,6.91447412109375,0.1544661564273759,-9.798948924103378,0.3565550282405689,9.769219866666685,0.8559991212359982
1789997369336545300,6.924545166015625,0.1566396280089393,-9.799629307582974,0.3363193918762728,9.770943356674323,0.8360904216147175
1789997369346615000,6.934614990234375,0.1606648466707207,-9.800293908971549,0.3143238331673667,9.772755756515364,0.8146277007157421
1789997369356686000,6.94468603515625,0.1648329809345305,-9.800933960440757,0.2913534380769357,9.774594251811227,0.7922565536888226
1789997369366756000,6.954756103515625,0.1619138968837447,-9.80146587536037,0.274637372407224,9.775948551796485,0.7753741128054481
1789997369376827100,6.9648271484375,0.1546026422886177,-9.801819511103629,0.2661013983227312,9.776673462963275,0.7661812174892878
1789997369386897200,6.974897216796875,0.1454137755196541,-9.802050981771943,0.2627950867863372,9.776995580629588,0.7620808942334902
1789997369396968200,6.98496826171875,0.1355476944757159,-9.802199450331926,0.2624828059667721,9.777077369450952,0.7610141764536779
1789997369407038200,6.9950380859375,0.1330447352114599,-9.80217431589067,0.2646917872531339,9.776919398288397,0.7630406557225534
1789997369417109000,7.00510888671875,0.1315507977261208,-9.802031692549583,0.2706450879006646,9.776462688879318,0.768867329702715
1789997369427180000,7.015179931640625,0.1290235351376701,-9.80177976361513,0.2808294685130007,9.775673696975128,0.7788469475374566
1789997369437250000,7.02525,0.1334574167987331,-9.801418529087304,0.291204512859229,9.774823956427808,0.7894509190501567
1789997369447321000,7.035321044921875,0.1342341733248904,-9.801040927946566,0.3032404944213107,9.77384315526982,0.8014779212268399
1789997369457391000,7.04539111328125,0.1309805966227315,-9.800575064000489,0.319321531856805,9.772535512569771,0.8172780420823254
1789997369467462100,7.055462158203125,0.1326934832215309,-9.799985865935684,0.3362480436731129,9.771103272659886,0.8342266568013076
1789997369477532200,7.0655322265625,0.1358716200673021,-9.79937153342962,0.352461000392586,9.769694331028838,0.8505556903526311
1789997369487603200,7.075603271484375,0.1344731788456905,-9.798784088930487,0.368955039075762,9.768259808576104,0.86687991689868
1789997369497673000,7.0856728515625,0.1376823044847697,-9.7979955689013,0.3881825578434392,9.766524340966171,0.8862062856394778
1789997369507744000,7.095743896484375,0.142754164388962,-9.79713632172346,0.4075540151264518,9.76472648372021,0.9058012095721177
1789997369517814300,7.105814208984375,0.141145879808953,-9.796414437189698,0.4251174731394276,9.763101732444433,0.9231616394081562
1789997369527885300,7.11588525390625,0.1295196754910051,-9.795804196336864,0.4425485004117712,9.761511609190924,0.9398380063381885
1789997369537955000,7.125955078125,0.1231873580637853,-9.795210906618832,0.4572243837570771,9.760122258402445,0.9541485568141299
1789997369548026000,7.136026123046875,0.1160051366758067,-9.79469477379024,0.4699979771450162,9.758899310652764,0.9665843194002471
1789997369558096100,7.14609619140625,0.1159034846659284,-9.79419383853078,0.4803605638684705,9.75787284437064,0.9768983513580543
1789997369568167200,7.156167236328125,0.1241301553392317,-9.793547357320785,0.4913220663331448,9.756740146800896,0.9881281375504997
1789997369578237200,7.1662373046875,0.1266538468642626,-9.792992646047471,0.5016324844779446,9.755684524163694,0.9984992623642298
1789997369588308000,7.176307861328125,0.1238692302475683,-9.792710906496644,0.5077766863213852,9.75506843584992,1.004493633367873
1789997369598378200,7.186378173828125,0.1237341874247416,-9.792630826997756,0.5093619827514514,9.754906966800126,1.0060657839084257
1789997369608449300,7.19644921875,0.1229200671634171,-9.792777541992068,0.5067073035242036,9.755181277959458,1.0033901810610437
1789997369618519000,7.20651904296875,0.1205702709005679,-9.793124163472651,0.5005775685975328,9.755818591431394,0.9971958607422778
1789997369628590000,7.216590087890625,0.1229323695225641,-9.793421100592612,0.4941611256839707,9.75646013367889,0.9909036780034378
1789997369638660000,7.22666015625,0.1279129983461927,-9.793803377908468,0.4852316770361736,9.757336150470577,0.9822359021114225
1789997369648731100,7.236731201171875,0.1325615548043977,-9.7945100648731,0.4694774238696321,9.758879370038962,0.9667897751134148
1789997369658801200,7.24680126953125,0.1416018982144538,-9.795510766348242,0.4453224221045151,9.761178744192092,0.9432835495140278
1789997369668872200,7.2568720703125,0.1511885503956582,-9.796479903641345,0.4201427899993956,9.763503098777182,0.9189144053590139
1789997369678942200,7.266942138671875,0.1541126485482789,-9.79735902456343,0.3979680387986823,9.76552963230259,0.8971087588260185
1789997369689013200,7.27701318359375,0.1567223013237118,-9.79827497036457,0.3736769895637408,9.767697606997734,0.8731965559856565
1789997369699083000,7.2870830078125,0.1686358438162133,-9.79918740903437,0.3433003368047997,9.770248221231164,0.8441662999533293
1789997369709154000,7.297154052734375,0.1820071108363568,-9.80004607169032,0.3104304424580186,9.77288369068051,0.8131057887405895
1789997369719224300,7.307224365234375,0.1875118639987893,-9.80096260201335,0.2763158635460771,9.775574419989544,0.7800793811516268
1789997369729295000,7.317295166015625,0.1898906488941051,-9.801835293194651,0.2415558628700673,9.77822800781705,0.7460829950366203
1789997369739365000,7.327365234375,0.1926017527500167,-9.802612122786044,0.2051431082846596,9.78087242174251,0.7105759842745826
1789997369749436200,7.337436279296875,0.1976516017518006,-9.80321827198565,0.1680154651618562,9.783402135605447,0.674852942079009
1789997369759506200,7.347506103515625,0.2096942139840684,-9.80355028041899,0.1295981292883865,9.785781795715742,0.6394060414440158
1789997369769577000,7.357576904296875,0.2179149846395477,-9.803828512838482,0.0885859546161256,9.788207412931852,0.6011518630566175
1789997369779647200,7.367647216796875,0.2257736987832933,-9.803951846957206,0.0444547528741881,9.790633438745772,0.5602844578284756
1789997369789718300,7.37771826171875,0.2342824925999157,-9.80385072467029,-0.0019302212844915,9.792954986234422,0.5180865577271994
1789997369799788300,7.387788330078125,0.2398344641712494,-9.803586520776152,-0.0506227739846333,9.795205983642465,0.47363661578149874
1789997369809859000,7.397859130859375,0.2471864343692548,-9.803041746374964,-0.0983240892983041,9.797141546890204,0.4317565879528315
1789997369819929000,7.40792919921875,0.2465354413809254,-9.802519768327477,-0.1421965761719737,9.798838998377871,0.39134087756310526
1789997369830000000,7.418000244140625,0.2456573616384528,-9.801761643436553,-0.1885285302280448,9.800423406086423,0.3494609022688295
1789997369840070000,7.42806982421875,0.2482256229575723,-9.800565127128362,-0.240273805436585,9.801873190243708,0.3061147414579417
1789997369850141000,7.438140869140625,0.2479974036922678,-9.799066413003205,-0.2952605650506913,9.803162175161532,0.26152523289709
1789997369860211200,7.448211181640625,0.2465089369664899,-9.797277191498877,-0.3506808389775455,9.804172499389987,0.2204215871904111
1789997369870282200,7.4582822265625,0.2458460891435854,-9.795191032874584,-0.4051663528049364,9.804845778160962,0.18806038917933038
1789997369880352000,7.46835205078125,0.2411243943839333,-9.792859375056624,-0.4606089846940711,9.805288540343232,0.16344109212815727
1789997369890423000,7.478423095703125,0.234245174530521,-9.790287478742004,-0.5155504621280357,9.805447973898104,0.15356441118083264
1789997369900493000,7.4884931640625,0.2272759383060969,-9.787489956977964,-0.5689963307093828,9.805305507172521,0.16234144711199197
1789997369910564000,7.498564208984375,0.2182880740019492,-9.784580791532992,-0.6202500595413148,9.804923568996868,0.18399698850414645
1789997369920634000,7.508634033203125,0.2083629653803072,-9.781641815471648,-0.6681541856843978,9.80433422754882,0.21305422288196424
1789997369930705200,7.518705078125,0.1993176352678798,-9.778443896213174,-0.7160153494685888,9.803491447074093,0.24884930969805705
1789997369940775200,7.528775146484375,0.2007103317352943,-9.774732766735552,-0.764630035033822,9.802261421945262,0.2932838295550074
1789997369950846200,7.53884619140625,0.2004537083594128,-9.771174197471142,-0.8089260536823422,9.800951054546506,0.33428531710309084
1789997369960916000,7.548916015625,0.1954069098312407,-9.767980954387784,-0.8477973438683897,9.799690551718225,0.3694065680617349
1789997369970987000,7.558987060546875,0.1863539078690111,-9.765093416252732,-0.8823973134107888,9.798485385315697,0.4001079599180575
1789997369981057300,7.569057373046875,0.1762308472561649,-9.762692784851788,-0.9105738988421856,9.797431913183596,0.4250887609736249
1789997369991128300,7.57912841796875,0.1680251645719632,-9.760646373715996,-0.933772476665303,9.796495824210226,0.44615097565060285
1789997370001198000,7.589197998046875,0.1602989542340859,-9.758682380166649,-0.9554091389339416,9.795566861030553,0.4661051872078776
1789997370011269000,7.59926904296875,0.1530012075745035,-9.756894912227988,-0.9746617556102574,9.794696902871319,0.48403080120168496
1789997370021339100,7.609339111328125,0.1512073372945189,-9.755271694940328,-0.9910445159386844,9.793891407598725,0.5000498272089139
1789997370031410200,7.61941015625,0.1468186830146703,-9.753917942243811,-1.0049396972350777,9.793207261125959,0.5132896700856411
1789997370041480200,7.629480224609375,0.1363109613326378,-9.753369660711288,-1.0117162056326865,9.792915578951693,0.5188203551595696
1789997370051551000,7.639551025390625,0.1282310878520365,-9.753228790935871,-1.0141332767117768,9.792830019362318,0.5204436329157013
1789997370061621200,7.649621337890625,0.1190902797421906,-9.753174430400133,-1.015765992480144,9.79278223922988,0.5213353345429803
1789997370071692300,7.6596923828125,0.108638188104378,-9.753111886557935,-1.0175406009372323,9.792722539670452,0.5224632649462486
1789997370081762000,7.669761962890625,0.0973303838195279,-9.753222945716976,-1.0176214841537177,9.792743208853587,0.5220775449468854
1789997370091833000,7.6798330078125,0.0904704257890116,-9.753189043447374,-1.0185765929214656,9.79270053750794,0.5228727125253081
1789997370101903000,7.689903076171875,0.0843856259826105,-9.75304875819385,-1.0204567806448788,9.79260498907086,0.5246909402379097
1789997370111974100,7.69997412109375,0.0787659046710003,-9.75282722439766,-1.0230088032152502,9.792466239184508,0.5272522191307597
1789997370122044200,7.710044189453125,0.0839903887204825,-9.75252736466825,-1.025440852667764,9.792333660477624,0.5296931264396008
1789997370132115200,7.720115234375,0.0827638152007479,-9.752238026332854,-1.0283020873177795,9.792179524608908,0.532561463092565
1789997370142185200,7.730185302734375,0.0693851868580561,-9.752067930462957,-1.0309051094230264,9.792029995742304,0.5353103134041701
1789997370152256000,7.740256103515625,0.0542711267246166,-9.751617848607896,-1.0360488289870322,9.791715175435689,0.5410241396388008
1789997370162326000,7.750325927734375,0.0440088768367888,-9.750943310347198,-1.04285544026196,9.791300977419494,0.5484568002251711
1789997370172397000,7.76039697265625,0.0394169185371836,-9.749732180991767,-1.0542987714268266,9.790633270043775,0.5602475930135912
1789997370182467300,7.77046728515625,0.0349496757459244,-9.747810857540369,-1.0720636337634175,9.789577825145624,0.578380873189758
1789997370192538000,7.7805380859375,0.0324832833491032,-9.745459910500047,-1.0933064744088798,9.78828633819525,0.5998446793506933
1789997370202609200,7.790609130859375,0.0312733458703383,-9.743041158920526,-1.114695518592,9.786945031142077,0.6213550540181367
1789997370212679200,7.80067919921875,0.0236210684183519,-9.740268187075852,-1.1388703210361302,9.7853374491967,0.6462034699076915
1789997370222750200,7.810750244140625,0.0169712848230847,-9.737040457201005,-1.166252833480388,9.783446692825475,0.6742116655183525
1789997370232820000,7.820820068359375,0.0109156848533486,-9.733544431778787,-1.1951370557244867,9.781369083761561,0.703688700198443
1789997370242891000,7.83089111328125,0.0040198940326925,-9.729463884466886,-1.2279640242449938,9.778900597426086,0.7372125807344957
1789997370252961300,7.840961181640625,-0.0012538379838733,-9.724788293871285,-1.2644606942541896,9.776037427118583,0.7742493161870845
1789997370263032300,7.8510322265625,-0.0079824603960674,-9.719674896380305,-1.3031649573102593,9.77283680637362,0.813660539137792
1789997370273102000,7.86110205078125,-0.0171481495021318,-9.713967624649404,-1.344960025988519,9.769179455018223,0.8564527534692425
1789997370283173000,7.871173095703125,-0.0225988286815467,-9.707588152745366,-1.390179808418453,9.765055406742603,0.9022589724471664
1789997370293243000,7.881242919921875,-0.026788453257957,-9.700852122488618,-1.4363694587938487,9.760634961008659,0.9489003655343061
1789997370303314000,7.89131396484375,-0.0337246594290365,-9.693381348216532,-1.485805543744564,9.75562240838955,0.9991140342100526
1789997370313384000,7.901384033203125,-0.0428577249071327,-9.68557388933599,-1.5356450949296354,9.750275741132548,1.050003418963437
1789997370323455000,7.911455078125,-0.0549833803469315,-9.67820891352594,-1.5810264976620674,9.745119993127501,1.0968281778945994
1789997370333525000,7.92152490234375,-0.0727908077501924,-9.671092359519005,-1.62329181420058,9.740006960461203,1.141344230395768
1789997370343596000,7.931595947265625,-0.0911246427808888,-9.66436626613438,-1.661959836899489,9.735097111387976,1.182486261159332
1789997370353666000,7.941666015625,-0.107496927381074,-9.657462478095292,-1.7006654151298104,9.730028071967432,1.223500583636652
1789997370363737000,7.951737060546875,-0.1185699913282878,-9.650464582031963,-1.7392093730576337,9.724901067960037,1.2635956448240182
1789997370373806800,7.961806884765625,-0.1262307169482112,-9.644577862080933,-1.7710406816042958,9.720571936170364,1.2964885889499542
1789997370383878000,7.9718779296875,-0.1302538349844515,-9.640240709659455,-1.7942058686144648,9.717381334738034,1.320182447981733
1789997370393948200,7.9819482421875,-0.1331366238791495,-9.636798460251091,-1.8123899062111968,9.714841442729133,1.3387392721827842
1789997370404019200,7.992019287109375,-0.138606899383245,-9.63385597705841,-1.8275676015987992,9.712626658502336,1.3547249131185428
1789997370414089000,8.0020888671875,-0.151450507533783,-9.631792614787816,-1.8373958987824617,9.710957122050536,1.3666388305151917
1789997370424160000,8.012159912109375,-0.1683361119509674,-9.630177580806611,-1.844383273451775,9.709557574222734,1.3765531797572046
1789997370434230000,8.02222998046875,-0.1773046322338283,-9.628918520656228,-1.8501045737080275,9.708515398993628,1.3838802300802802
1789997370444300800,8.03230078125,-0.1769380456774495,-9.62790437517762,-1.855404579812288,9.707774342003598,1.3890619889326556
1789997370454371000,8.04237109375,-0.1674289705107919,-9.62798094754517,-1.8558881255455315,9.70795466374304,1.387799181333455
1789997370464442000,8.052442138671875,-0.1638664557236246,-9.629097968876362,-1.8504085250906648,9.708822137402537,1.381725125899126
1789997370474512100,8.06251220703125,-0.1696680181418545,-9.631051441031694,-1.8396904394604263,9.71018125870373,1.3721442826247572
1789997370484583000,8.0725830078125,-0.169830734422896,-9.633744917899367,-1.825516222026944,9.712151240641111,1.3581278943101611
1789997370494653000,8.08265283203125,-0.1623134723942726,-9.636603814461829,-1.8110552966065705,9.714335964707363,1.3424145382037318
1789997370504724000,8.092723876953125,-0.1513566552378702,-9.639411857619882,-1.797006897509843,9.716519513128565,1.3265188044642797
1789997370514794000,8.1027939453125,-0.145024730536295,-9.64200421220064,-1.783575169006735,9.71848033413201,1.312081468182805
1789997370524865000,8.112864990234375,-0.1465185401574708,-9.644890581291913,-1.767770427761972,9.720549186417994,1.2966563952726757
1789997370534935000,8.12293505859375,-0.1451066001334693,-9.648281392773985,-1.7492817081302403,9.723009990541506,1.2780661085327907
1789997370545006000,8.133006103515624,-0.1401699839815031,-9.651956866416334,-1.729295151156187,9.725708553327122,1.2573678185490467
1789997370555075800,8.143075927734374,-0.1340656574907247,-9.655307930409908,-1.710978573220968,9.728177539127024,1.2381253073904226
1789997370565147000,8.15314697265625,-0.1331856597858015,-9.658581252992152,-1.6924677878879009,9.730515452748639,1.2196091494745922
1789997370575217000,8.163216796875,-0.1347646086734719,-9.662292382469772,-1.67103132436648,9.733121758469688,1.1986417754701455
1789997370585288000,8.173287841796874,-0.1331631648262031,-9.666383451175689,-1.6473288156092163,9.736019156368377,1.1748721918550176
1789997370595358000,8.18335791015625,-0.1197725263853091,-9.670414898648858,-1.6245397684350609,9.739001681006005,1.149889336708444
1789997370605429000,8.193428955078126,-0.1137534852914977,-9.6739717143476,-1.6036591852307318,9.741545449702143,1.1281328021007775
1789997370615499000,8.2034990234375,-0.1095440417697653,-9.677623222592471,-1.5817703017666935,9.744117570901771,1.1056948889919045
1789997370625570000,8.213570068359376,-0.0974881042650435,-9.680883685693145,-1.5624845865383743,9.746496599565225,1.0845160138173953
1789997370635639800,8.223639892578126,-0.0838019626094494,-9.68422890446782,-1.5424312479384243,9.748934957511231,1.0623905081934646
1789997370645710800,8.2337109375,-0.0661562057410366,-9.688563718801737,-1.515830095130205,9.752062690290913,1.0332752483137204
1789997370655781000,8.243781005859375,-0.0522794916830956,-9.693004916119577,-1.4877205835856495,9.755188751340931,1.003335641599932
1789997370665852200,8.25385205078125,-0.0520831197276245,-9.696994862538576,-1.4614979087010025,9.757845674622263,0.9771621886120614
1789997370675922000,8.263921875,-0.0491831468026852,-9.700480366566776,-1.4382855215482413,9.76017398891613,0.9536284767440906
1789997370685993000,8.273992919921875,-0.0451570102588739,-9.70416402351558,-1.4133477719075975,9.762622120835445,0.9282240036759392
1789997370696063000,8.28406298828125,-0.0385462046838365,-9.7082720433563,-1.385056912446767,9.765345629533787,0.8991325064588676
1789997370706134000,8.294134033203125,-0.0280821006645332,-9.712406366682051,-1.356010120052099,9.768089233005911,0.8688050515860654
1789997370716204000,8.3042041015625,-0.0228048589479294,-9.7162916836828,-1.3279866793558002,9.770592763880646,0.8401843886580753
1789997370726275000,8.314275146484375,-0.0178358486385026,-9.72015011267662,-1.2995207555890085,9.773044438368228,0.8111676339391864
1789997370736345000,8.324344970703125,-0.0076562326787185,-9.723971716791391,-1.270703680296987,9.775485007895332,0.7811947710985134
1789997370746416000,8.334416015625,4.51186931079e-05,-9.72774071393609,-1.2415516739621757,9.777835383409862,0.7512157969997296
1789997370756486000,8.34448583984375,0.0036785823398211,-9.73145184341371,-1.2121144940104336,9.780079571064565,0.7214108696740511
1789997370766557000,8.354556884765625,0.0074759122423274,-9.73542483869791,-1.1797634724386037,9.782438924939418,0.6886822271051994
1789997370776627000,8.364626953125,0.0169795469029981,-9.739145320525765,-1.1485514648340642,9.784651451717684,0.6565107121010346
1789997370786698000,8.374697998046875,0.0295732502544531,-9.742749482497572,-1.117289334477484,9.786771052428781,0.6240912434224305
1789997370796768000,8.38476806640625,0.0340888256994658,-9.746098208403588,-1.0875596013199538,9.788645843467561,0.5939619293133542
1789997370806839000,8.394839111328125,0.0359608209832687,-9.74885364459157,-1.0625221176318824,9.790143951886622,0.5687488163564689
1789997370816909000,8.404908935546874,0.0428546561672119,-9.751223880854248,-1.04027696807608,9.79144082849505,0.5459545480048168
1789997370826980000,8.41497998046875,0.0500497827025363,-9.753711021494864,-1.0163678308308124,9.792772610856517,0.5215283608636542
1789997370837049900,8.4250498046875,0.0520570445714518,-9.756585115626454,-0.9883088804297148,9.794237171967067,0.49329070206921266
1789997370847121000,8.435120849609374,0.0581968625007197,-9.759077516964078,-0.9630231941342352,9.79549561747473,0.46761109631033926
1789997370857191200,8.445191162109374,0.0658526562171988,-9.761266551440954,-0.9400761068541555,9.796582303196834,0.44427415407554544
1789997370867262000,8.455261962890624,0.068188035795628,-9.76356898316443,-0.915660262195766,9.79766338635917,0.41970797061469073
1789997370877333000,8.4653330078125,0.0759980747923255,-9.765856217318772,-0.8903171466246247,9.798727959266888,0.3941045122439822
1789997370887403000,8.475403076171874,0.0863522224809974,-9.76779916808009,-0.8677700915127992,9.799611679450477,0.37147430325056197
1789997370897474000,8.48547412109375,0.0819337484516203,-9.76964801081717,-0.8471422409605235,9.80037546082573,0.3507509054352981
1789997370907543800,8.495543701171876,0.0712328148855827,-9.771536601042747,-0.8260620435308664,9.801103588798362,0.32977052755040953
1789997370917614800,8.50561474609375,0.0726993940065382,-9.773286659580467,-0.8049725668162107,9.801794414152562,0.3085845560567644
1789997370927685000,8.51568505859375,0.0733163888271432,-9.775118551182748,-0.7823590223394334,9.802482611648236,0.2858990568674374
1789997370937756200,8.525756103515626,0.0721150410802103,-9.77695628800392,-0.7591439317729324,9.803130979622226,0.2626734516619959
1789997370947826000,8.535825927734376,0.0823078881267923,-9.778557877981662,-0.7371682468082755,9.803701410434522,0.24046713004412215
1789997370957897000,8.54589697265625,0.0903905289532151,-9.779915722331404,-0.7179504091843962,9.804150624155021,0.22137143573236348
1789997370967967000,8.555967041015625,0.0889568063556682,-9.781403330540655,-0.6975644045639783,9.80459081129446,0.20089686334974827
1789997370978038000,8.5660380859375,0.086369584607752,-9.783007843127846,-0.6750345197826624,9.805029437754998,0.17824559322011668
1789997370988108000,8.57610791015625,0.0874687780213076,-9.784449274107812,-0.6536725097369402,9.805395161553413,0.1568816767125511
1789997370998179000,8.586178955078125,0.0926691505428403,-9.78564929754734,-0.6347238444432616,9.805676361368011,0.13822156439765124
1789997371008249000,8.5962490234375,0.1010349465590435,-9.786780931925772,-0.6157249833323061,9.80591312760601,0.12030818291291558
1789997371018320100,8.606320068359375,0.1098242926164064,-9.788063957473636,-0.5933986217664554,9.80613592697891,0.10038683564576367
1789997371028390000,8.616389892578125,0.1166683863575104,-9.78945395052731,-0.5686710077451542,9.806327588318734,0.079662459784001
1789997371038461000,8.6264609375,0.1262847943561617,-9.790679108408092,-0.5450247957523912,9.806432585335685,0.06540053788536992
1789997371048531000,8.636531005859375,0.1321957354329992,-9.791883808022735,-0.5214584075301886,9.806490282258123,0.05595924450360921
1789997371058602000,8.64660205078125,0.1343221895350609,-9.79329542838633,-0.4936697254378348,9.80650899718376,0.05262018834919018
1789997371068672000,8.656672119140625,0.1334914743319619,-9.794754395022988,-0.4640804236643016,9.806459038759222,0.06136280068142934
1789997371078743000,8.666742919921875,0.1378896088262088,-9.79598130646944,-0.4360636684371158,9.806300679445714,0.08295666431511946
1789997371088813000,8.67681298828125,0.1460554344240576,-9.79704513630867,-0.4085846733484417,9.806038151114025,0.10946600835714629
1789997371098884000,8.686884033203125,0.1590301398746669,-9.79786755860746,-0.3832779807975515,9.805684783377044,0.13764890487479062
1789997371108953900,8.696953857421875,0.1664776794016361,-9.79877882823348,-0.3558351895334198,9.805265738886213,0.16481448452779202
1789997371119025000,8.70702490234375,0.1691636488162912,-9.79965268845856,-0.3295041589034721,9.804825969579133,0.18912919260453198
1789997371129095200,8.71709521484375,0.1727802318782545,-9.80042191926539,-0.3037197110393084,9.80431718308702,0.21385284764016346
1789997371139166200,8.727166259765625,0.1747064507004805,-9.801177121546864,-0.2770452007339335,9.803735160627873,0.23901099424197145
1789997371149236000,8.737236083984374,0.169189239915274,-9.801982008188965,-0.250769717949815,9.803160883765539,0.2615309278329831
1789997371159307000,8.74730712890625,0.1639434482162818,-9.80262205965817,-0.2282807497007772,9.802616216120743,0.28125454456884574
1789997371169377000,8.757376953125,0.1643896028148941,-9.803051683247087,-0.2086735291668214,9.802054981679849,0.30018165138364145
1789997371179447800,8.76744775390625,0.17191568747079,-9.803251005211472,-0.1925783170755021,9.801500865103527,0.31773019113821716
1789997371189518000,8.77751806640625,0.1772773058354854,-9.803374923852086,-0.1810882972246967,9.801086852199182,0.3302675094771472
1789997371199589000,8.787589111328124,0.17724250851674,-9.80355378755033,-0.1712424826506525,9.800766043248377,0.33969210410553097
1789997371209659100,8.7976591796875,0.1788637347767129,-9.803653740793466,-0.1635896115436218,9.800491418730283,0.347488729876362
1789997371219730000,8.80772998046875,0.1796936645285226,-9.803697579935193,-0.1600610355586744,9.800363238630416,0.3511067898866351
1789997371229800000,8.817800048828126,0.1761964335299096,-9.803752524992824,-0.1606025037579238,9.800416383286798,0.34962927924995685
1789997371239871000,8.82787109375,0.1749912041923031,-9.803713362026214,-0.16420206261985,9.80054970073691,0.34584026236144455
1789997371249941000,8.83794091796875,0.1747006785468198,-9.803602887389063,-0.1709926178091205,9.800781203914841,0.33922878569289
1789997371260012000,8.848011962890626,0.1734564141067676,-9.803416424906253,-0.1825822438431903,9.801172157332664,0.32775195775204186
1789997371270082000,8.85808203125,0.174612032148987,-9.803133516311645,-0.1961494170279242,9.801587069092728,0.3150898621005528
1789997371280153000,8.868153076171875,0.1698013439316302,-9.802961666876078,-0.2085787270228378,9.802005429559518,0.3018022248012981
1789997371290222300,8.878222412109375,0.1568247753174975,-9.802952899047732,-0.2188925244348123,9.802411277709286,0.2883168933533979
1789997371300293000,8.888293212890625,0.1494363912323955,-9.802801507878304,-0.230563892201893,9.802790138230412,0.27516150182314875
1789997371310363400,8.89836328125,0.1519048819714691,-9.802392342555525,-0.2458604281961917,9.803177585879084,0.26101206950772754
1789997371320434400,8.908434326171875,0.1539053990057669,-9.80191361912787,-0.2630532810647972,9.803587799067977,0.24507297552357585
1789997371330504200,8.918504150390625,0.1531580969029571,-9.801430219525098,-0.2809177861172706,9.804004466793218,0.22782223008836325
1789997371340575200,8.9285751953125,0.1530747842673677,-9.800826992934942,-0.3012410459660924,9.80443165531923,0.20858504013873722
1789997371350645200,8.938645263671875,0.1554263614953495,-9.80006302282512,-0.3240294172868132,9.804843599467988,0.18822767711139804
1789997371360716300,8.94871630859375,0.154046835036762,-9.799348737075924,-0.3455713139440864,9.805210841229146,0.16800592334746484
1789997371370786300,8.958786376953125,0.1422938077350612,-9.798842541119456,-0.3644574719281866,9.805564713249323,0.145919760471851
1789997371380857300,8.968857421875,0.1381600689311977,-9.798271463233233,-0.3810078804410994,9.805798944826098,0.12917403169137767
1789997371390927400,8.97892724609375,0.1388721353238448,-9.79760277019143,-0.3975936890609562,9.80597791456103,0.1148189581671458
1789997371400998400,8.988998291015625,0.1376049101333133,-9.796990775772928,-0.4128239548860117,9.80612827335579,0.10116954132822469
1789997371411068200,8.999068115234374,0.1394816089916974,-9.796413852667808,-0.4256488035371527,9.80621794198686,0.09190250375386905
1789997371421139200,9.00913916015625,0.1389845735892187,-9.79618705817461,-0.4310158469956368,9.806259389236729,0.08745880065148033
1789997371431209200,9.019209228515624,0.1289950396955478,-9.79641151458025,-0.4290569680128246,9.806300896211331,0.08289088026915388
1789997371441280300,9.0292802734375,0.122440567417629,-9.796574011665582,-0.4272560195380822,9.806317191743709,0.08090055459856359
1789997371451350300,9.039350341796874,0.1298897143797948,-9.796319744643569,-0.4308479065502062,9.80630750587524,0.08194446893303388
1789997371461421300,9.04942138671875,0.1329322512803133,-9.796105809631944,-0.4347726057132706,9.806318205660325,0.08068757617358294
1789997371471492400,9.059492431640624,0.1298975414932239,-9.796068400231004,-0.436529532383196,9.806344595974627,0.07741557293145784
1789997371481562400,9.069562255859376,0.1276102799394168,-9.796005856388806,-0.4386075077010318,9.806368397156428,0.0743675131587328
1789997371491633200,9.079633056640626,0.1284279895304702,-9.795746328669786,-0.44413953246288,9.806396487588092,0.07062390996486992
1789997371501703200,9.089703125,0.1361599811551626,-9.795437701112032,-0.4486036357322707,9.80637909093453,0.07289474404532674
1789997371511774200,9.099774169921876,0.1401499184410087,-9.795472187903522,-0.4466129733717068,9.806345902038986,0.07720480022342291
1789997371521844500,9.109844482421876,0.1331756315821316,-9.795881937748192,-0.4397165283888578,9.806347298482406,0.07708420093455766
1789997371531915300,9.119915283203126,0.1233164917356334,-9.796230312794446,-0.4347965711107477,9.80636353271242,0.07495079041904779
1789997371541985300,9.1299853515625,0.1189473550070077,-9.796350139781833,-0.4333032638130709,9.806371043551929,0.07391352436496572
1789997371552056300,9.140056396484376,0.1218918748931493,-9.79635540047884,-0.43238176505398,9.806354147597908,0.0762173490514065
1789997371562126300,9.150126220703124,0.1260691057788673,-9.79633552673459,-0.4316559715300798,9.80633235673344,0.07909335518568611
1789997371572197000,9.160197021484375,0.127111646234896,-9.796322082731129,-0.4316309101540595,9.806326358137325,0.07970143985955339
1789997371582267400,9.170267333984375,0.1261125430617947,-9.796394563445448,-0.4302783995665609,9.806321840117239,0.08026384861348768
1789997371592338400,9.18033837890625,0.1301871172906365,-9.79648691790402,-0.4269533102644607,9.806279498136323,0.08530036195751835
1789997371602408400,9.190408447265623,0.1313780167087912,-9.796799052593112,-0.4193336655735969,9.806214868962593,0.09231753345918155
1789997371612479200,9.200479248046875,0.1341940787765197,-9.796953366371987,-0.414850090418756,9.80616517348172,0.09761404387077005
1789997371622549200,9.21054931640625,0.1427205726466141,-9.796883808267117,-0.4136463771848008,9.806105822092439,0.10340911867853549
1789997371632620300,9.220620361328123,0.1459574448091443,-9.796734755185248,-0.4160505887823179,9.806105856450698,0.10344787894983737
1789997371642690300,9.230690185546877,0.1477737369834911,-9.796672211343049,-0.416826943449676,9.806097907269113,0.10398090055933946
1789997371652761300,9.24076123046875,0.1465970670200884,-9.796758136060834,-0.4152409163672477,9.806093495597656,0.1044799059911977
1789997371662831400,9.250831298828125,0.1479380606997292,-9.796830032253265,-0.4130814367784187,9.806067007507353,0.10700686122781633
1789997371672902400,9.26090234375,0.1448720972578507,-9.796883223745226,-0.41288434330374,9.806084556761023,0.10529943429520155
1789997371682972200,9.27097216796875,0.1431249430632684,-9.796806066855789,-0.4152959344901144,9.806115183524046,0.10232097327737304
1789997371693043200,9.281043212890625,0.1418146550491452,-9.796826525121928,-0.4153021450351923,9.80612499756872,0.10153700531341295
1789997371703113200,9.29111328125,0.1371927765353117,-9.797053319615124,-0.411460301849991,9.806118163937512,0.10208692476747645
1789997371713184300,9.301184326171876,0.132209024172835,-9.797197111999989,-0.4096738568246364,9.806129619644182,0.10101994434908464
1789997371723254300,9.311254150390624,0.1305295192538295,-9.797089559972283,-0.4127868012133985,9.806166011820068,0.09748278512364023
1789997371733325300,9.3213251953125,0.1219748861346393,-9.79715502642393,-0.4138315610259771,9.806212983841561,0.09256328143274534
1789997371743395300,9.331395263671874,0.1154798250269144,-9.79722926070392,-0.413917814537324,9.806237302927627,0.08985929358400536
1789997371753466400,9.34146630859375,0.114087859211862,-9.797264916539191,-0.413484245425649,9.806239317822481,0.08975270066682535
1789997371763536100,9.3515361328125,0.1267492335301358,-9.796889653486012,-0.4186759688498452,9.806233388354793,0.09049061161156285
1789997371773607200,9.361607177734374,0.1429980196148157,-9.796347217172384,-0.4260467533461749,9.80620090734395,0.09384473271526982
1789997371783677400,9.371677490234376,0.1387710221700835,-9.796535433220862,-0.4230977308148518,9.806204103487953,0.09347011021022564
1789997371793748500,9.38174853515625,0.1286491488673258,-9.79691420340538,-0.4174984495030716,9.806214061466848,0.09246214586365319
1789997371803818200,9.391818359375,0.1294809143831953,-9.796889068964123,-0.4178245031196624,9.806212429547287,0.09260582475055684
1789997371813889300,9.40188916015625,0.1322135907500982,-9.796587455669044,-0.4239984425142407,9.806247009701323,0.0888846113200468
1789997371823959300,9.411959228515624,0.1313156372633762,-9.79645009302497,-0.4274489117616787,9.806277262559354,0.08553971999291768
1789997371834030300,9.4220302734375,0.1353461257553193,-9.796496270254254,-0.4251235740866512,9.806239120199452,0.0897892954455099
1789997371844100400,9.432100341796875,0.1364013612961396,-9.79648457981646,-0.425089562219195,9.806234525014654,0.09044904788570123
1789997371854171400,9.44217138671875,0.1367143362354487,-9.796181797477605,-0.4318743269884958,9.806278716078138,0.08533343933370527
1789997371864241400,9.452241455078124,0.1392918220406398,-9.795694890743494,-0.4419565624006092,9.806325088762136,0.07971487181724567
1789997371874312400,9.4623125,0.1347912226857617,-9.795575648277998,-0.4460018557360395,9.80637353547598,0.07366609047838994
1789997371884382200,9.47238232421875,0.128405567636108,-9.795455236768722,-0.4504759689427912,9.806426826778711,0.06597556342703306
1789997371894453200,9.482453369140623,0.1356467161370907,-9.794777775898575,-0.4629583242991938,9.806443484209073,0.06378331981626847
1789997371904523300,9.492523193359377,0.1441443766383454,-9.793860661053657,-0.4794819544030353,9.806436165134688,0.06478374169081738
1789997371914594300,9.50259423828125,0.1470955911267548,-9.793207750102876,-0.4917675450783222,9.806431572857083,0.06550018983269705
1789997371924664300,9.512664306640623,0.1387258313214872,-9.792659468570353,-0.5049396362645552,9.806481960426817,0.057444927981904474
1789997371934735400,9.5227353515625,0.1350439827372785,-9.791941091167926,-0.5196402156597003,9.806479077820827,0.05780363457206687
1789997371944805400,9.532805419921877,0.1405174091796856,-9.790765617647766,-0.5399663067864254,9.80638127996929,0.07270712708312045
1789997371954876200,9.542876220703125,0.1419564381400123,-9.7897549793005,-0.5576051681231707,9.80627820709068,0.08535475220768587
1789997371964946200,9.5529462890625,0.145190040633222,-9.789000946062805,-0.569869387216866,9.806173898654304,0.09656219630645738
1789997371975017200,9.563017333984376,0.1542068296377547,-9.78814637506008,-0.5820628791619092,9.80601385017173,0.11170842155881562
1789997371985087500,9.57308740234375,0.161257259605918,-9.787162624719738,-0.5965254485500976,9.805823420916699,0.1273805128580319
1789997371995158300,9.583158203125,0.1678288200159557,-9.786138542369008,-0.6113165923055262,9.805605375088923,0.1431268225156986
1789997372005228300,9.593228271484374,0.1801566789303906,-9.785147193244098,-0.6235579419802874,9.805338780405284,0.1603681106173891
1789997372015299300,9.60329931640625,0.1803482559797354,-9.784704710173608,-0.6304187676604837,9.805246298396888,0.1659656865777959
1789997372025370400,9.613370361328125,0.1686209933069534,-9.78473627435565,-0.6331715734999627,9.805319534467346,0.16159228495386405
1789997372035440000,9.623440185546874,0.1663801921102218,-9.784633398503065,-0.6353424877982586,9.805308156196533,0.16225027043332074
1789997372045511200,9.63351123046875,0.1683274171878583,-9.784479669246076,-0.6372066011697054,9.805265379748262,0.16486237457762787
1789997372055581400,9.64358154296875,0.1699229610173031,-9.784390821918844,-0.6381318993210792,9.805236870943551,0.1664926255150041
1789997372065652500,9.653652587890624,0.1695186910653486,-9.784436999148127,-0.6375188089240342,9.805248532864429,0.16575710365241977
1789997372075722200,9.66372216796875,0.1755943029182963,-9.784396082615851,-0.6364975030522794,9.805206584285662,0.16820514736083422
1789997372085793300,9.673793212890626,0.1858124944686889,-9.784396082615851,-0.6335788391266017,9.805143871773627,0.17178120915344952
1789997372095863300,9.68386328125,0.1841968394329771,-9.785058345916866,-0.6237506880734115,9.805293529976247,0.16303073493194595
1789997372105934300,9.693934326171876,0.1802894019319675,-9.78609587227106,-0.6084471743490547,9.805521254232504,0.14878705083993723
1789997372116004400,9.70400439453125,0.1813179229957982,-9.787152687847614,-0.5908861274888738,9.805694975629237,0.13684438249580563
1789997372126075400,9.714075439453126,0.1843900056512095,-9.787883924731611,-0.5776566800922155,9.805780194214911,0.13051214886468257
1789997372136145400,9.7241455078125,0.1947543094077147,-9.788418177738786,-0.5650833585167303,9.805762793002422,0.13188977504653782
1789997372146216400,9.734216552734376,0.2025984835694544,-9.789201437070965,-0.5485290044810622,9.805771219682018,0.13132317811303795
1789997372156286200,9.7442861328125,0.1972484643110074,-9.790724116593598,-0.5227035122204572,9.805937995449256,0.11825681803938488
1789997372166357200,9.754357177734375,0.1950170702634379,-9.79230583282709,-0.4930696771854534,9.805996680625933,0.1132783625699851
1789997372176427300,9.76442724609375,0.1998794156027957,-9.793324069958924,-0.4703534029865637,9.805902510254182,0.12106363248439332
1789997372186498300,9.774498291015624,0.2010778133408166,-9.793970551168918,-0.4561513111654668,9.805838143047955,0.12611017090526327
1789997372196568300,9.784568359375,0.1986985535214655,-9.794493698260188,-0.4458780466932803,9.805819932243892,0.1276346714710078
1789997372206639400,9.794639404296875,0.1894633999253623,-9.795158299648762,-0.435168546228297,9.805863672978282,0.12422473860168262
1789997372216709400,9.80470947265625,0.1791689830672927,-9.795861479482054,-0.4235732028394937,9.805892194579402,0.1220498920286352
1789997372226780200,9.8147802734375,0.1745367749556899,-9.79644366328418,-0.411806850265339,9.805838451615616,0.1260502933548292
1789997372236850200,9.82485009765625,0.1724549089140258,-9.797015325692296,-0.3988982688535004,9.805737572536755,0.13371789294489392
1789997372246921200,9.834921142578125,0.1723623717923648,-9.797654208117724,-0.3829149927040561,9.805564546591494,0.14582380917505355
1789997372256991500,9.844991455078125,0.169786712618079,-9.79833108446598,-0.3664138666929677,9.80538249403773,0.15764782243115555
1789997372267062300,9.855062255859377,0.1645001870498992,-9.798938402709364,-0.3523318575875833,9.80523099803516,0.166844072934421
1789997372277132300,9.86513232421875,0.1590987663977779,-9.799492529460789,-0.3391552363567054,9.805071321984736,0.17597982147905666
1789997372287203300,9.875203369140625,0.156913677443657,-9.80000807776749,-0.3249563228733837,9.80484812667635,0.1879628981039431
1789997372297273900,9.88527392578125,0.1591465875948779,-9.800392693170904,-0.3120753601208329,9.80459784702701,0.20069047104589455
1789997372307345000,9.895344970703125,0.1680599801570177,-9.80058733896017,-0.3010445918122306,9.804307383520737,0.2143383335218165
1789997372317415000,9.905414794921874,0.1781841915473342,-9.800751589611172,-0.2896208238643594,9.803976743560714,0.22891387183796844
1789997372327486000,9.91548583984375,0.1859353536633774,-9.80096260201335,-0.2773561663792468,9.803630374697338,0.24330598255402136
1789997372337556000,9.925555908203124,0.1862829249920323,-9.80133611150086,-0.2636142028831876,9.803309624429579,0.25593701233412075
1789997372347627000,9.935626953125,0.1802205379468388,-9.801770411264895,-0.251403942466434,9.803073755937959,0.264823555172082
1789997372357697000,9.945697021484374,0.1765726464311592,-9.802100081610678,-0.2409030432508327,9.802840199182425,0.2733170593292017
1789997372367767800,9.955767822265624,0.1748526542381383,-9.802412216299771,-0.2291502990769222,9.802541750992498,0.28380237591162294
1789997372377837800,9.965837890625,0.1710295888186432,-9.802744809255003,-0.2175471194415353,9.802253769959586,0.29360635912353383
1789997372387908900,9.975908935546874,0.1714913611114956,-9.803006675061583,-0.2050137462839484,9.80188374729368,0.305703776462242
1789997372397979100,9.985979248046876,0.1769573348998092,-9.803177939975262,-0.1917962450534105,9.801430311927222,0.31993946496690917
1789997372408050000,9.9960498046875,0.1798507365200668,-9.803238730251788,-0.185868334575463,9.801214639309723,0.326457534319739
1789997372418120000,10.006119873046876,0.1857661345763132,-9.803153974577784,-0.1845310946223325,9.801111556106006,0.3295465000321505
1789997372428191000,10.01619091796875,0.1844090939441695,-9.803221779116988,-0.1823404527102597,9.801056891593372,0.3312035822989251
1789997372438261000,10.026260986328126,0.1764115923842415,-9.80344155934751,-0.1784019259512424,9.801009987818853,0.3325927289158638
1789997372448331800,10.036331787109376,0.1756012623820453,-9.803498257970809,-0.1759830282412469,9.800937221680568,0.33468417992518323
1789997372458401800,10.04640185546875,0.1803900858274661,-9.803412917774915,-0.1759809641483239,9.800891843878526,0.33605622118766315
1789997372468472800,10.056472900390624,0.1809320837496779,-9.803411164209246,-0.175469434429612,9.800868682000097,0.3367038373425836
1789997372478544000,10.0665439453125,0.1758690282064489,-9.803491828230024,-0.1760656832897104,9.800937224770284,0.3346798204248294
1789997372488614000,10.07661376953125,0.1720538538324646,-9.80346026404798,-0.1814795432982966,9.801148333864594,0.328423262887003
1789997372498685000,10.086684814453124,0.1754068540547974,-9.803270294433831,-0.1883857424901798,9.801336708603529,0.3227443922560248
1789997372508755000,10.0967548828125,0.1802527231833897,-9.80306804986,-0.1943337093754671,9.801476701158949,0.3185189188084591
1789997372518824700,10.10682470703125,0.1839847493185661,-9.80288158737719,-0.200133536494337,9.801615651763306,0.3142003368216933
1789997372528895700,10.116895751953123,0.1837186091956682,-9.802792740049956,-0.2046921313804574,9.801755805074635,0.30980645260502326
1789997372538966800,10.126966796875,0.1829869887191802,-9.802647194099425,-0.21219456116613,9.801984692485364,0.30248780156718785
1789997372549037000,10.137037109375,0.1848454030022025,-9.802431505522131,-0.2204104364507831,9.802201308229021,0.29540060411855357
1789997372559108000,10.147108154296877,0.1867534833795391,-9.802253226345776,-0.2265883031018078,9.802352378901785,0.2903020425378918
1789997372569177900,10.157177734375,0.1896900117554701,-9.802045721074938,-0.2330122717346996,9.802495319125915,0.28541698599906085
1789997372579249000,10.167248779296877,0.1931864573027938,-9.80185399789512,-0.2381049186985939,9.802591199077234,0.282068324027721
1789997372589319000,10.17731884765625,0.1933268338878639,-9.801755798217654,-0.2420944267261773,9.802696553476238,0.2784636143402887
1789997372599390000,10.187389892578125,0.1913973271300084,-9.801697346028686,-0.2459806205097585,9.802819095678428,0.27413143389078387
1789997372609460000,10.1974599609375,0.1935432165849022,-9.801610836789012,-0.247766316616442,9.802841132510215,0.2733639532954993
1789997372619531000,10.207531005859376,0.1912828704374842,-9.801607329657672,-0.2495816406764089,9.802910801553297,0.2707880969951462
1789997372629601000,10.21760107421875,0.1932764554074965,-9.801524912071228,-0.2513043180168606,9.802932459104277,0.2700286145234903
1789997372639671800,10.227671875,0.1995146008783951,-9.801386380383372,-0.251839922730904,9.802873309913972,0.2721750723077797
1789997372649741800,10.237741943359374,0.2043094704721123,-9.80129577949047,-0.2514870176400058,9.802804942476667,0.27459478614642757
1789997372659812900,10.247812744140624,0.2027963990280404,-9.801440740919112,-0.2470383128691464,9.802711555777377,0.27792275808516387
1789997372669883100,10.257883056640624,0.2044766071999445,-9.801457107532023,-0.2449994274526834,9.802638555271677,0.2804891937942965
1789997372679954000,10.267953857421874,0.2092593114318326,-9.80135306263566,-0.2451407904184423,9.802581717636189,0.28248361731279475
1789997372690024000,10.27802392578125,0.2066562710602767,-9.801554138165711,-0.2392393660886213,9.802461629583348,0.28662137497855383
1789997372700095000,10.288094970703124,0.2071422827452421,-9.801723064991831,-0.2317924476161599,9.802256857210798,0.2935493350862086
1789997372710165000,10.2981650390625,0.2074054454597644,-9.801830617019531,-0.2268912498374469,9.802117990365288,0.29809898650922334
1789997372720235800,10.30823583984375,0.2059909024867229,-9.801906020343305,-0.2249447371458634,9.802082811286581,0.29927675987187785
1789997372730305800,10.318305908203126,0.2024001479857601,-9.80200538906455,-0.2238195507745258,9.802095047471632,0.2988366423251084
1789997372740376800,10.328376953125,0.1949366619709879,-9.802193605113027,-0.2221645135764964,9.802136841033363,0.29743939726989027
1789997372750447000,10.338447021484376,0.1916926933473907,-9.802319861841202,-0.2194886271644383,9.80210020832146,0.2987097688529719
1789997372760518000,10.348517822265626,0.1931520253102294,-9.802280698874592,-0.220006276096683,9.80209951551295,0.29876822775104683
1789997372770588000,10.358587890625,0.1919770815130323,-9.802219908598063,-0.2236872113654389,9.80221561237718,0.2949159089299752
1789997372780659000,10.368658935546875,0.1933217558539472,-9.802070855516195,-0.2289368755219504,9.802344113504057,0.29056553696635984
1789997372790728700,10.378728759765623,0.1874220302908681,-9.8020989125669,-0.2326640062863007,9.802511862282667,0.2848926794642608
1789997372800799700,10.3887998046875,0.1769183545962907,-9.802183083719015,-0.237305767677538,9.802743607533312,0.2768123972623544
1789997372810870000,10.3988701171875,0.1681733043383806,-9.802163794496655,-0.2443180758587084,9.803006879579952,0.2672915178837607
1789997372820941000,10.408941162109375,0.1650160641501657,-9.801903097733854,-0.2565878113777377,9.803342215352938,0.2546632137131372
1789997372831010800,10.4190107421875,0.1645591324292123,-9.801582779738306,-0.2688407601587474,9.803639686945173,0.24295871872526403
1789997372841081900,10.429081787109377,0.1690627639913931,-9.801231482082605,-0.2786526541968807,9.80382385460898,0.2353846066047173
1789997372851152000,10.43915185546875,0.1709656567369587,-9.80105378742814,-0.2837755684348754,9.803921983595307,0.23135883959819006
1789997372861223000,10.449222900390623,0.1734316267253831,-9.80086732494533,-0.2886549927731975,9.804003710194035,0.227841624125483
1789997372871293000,10.45929296875,0.1759316268475726,-9.800559281909464,-0.2975099331463687,9.804165844579778,0.22081310613966515
1789997372881364000,10.469364013671877,0.1779275499051436,-9.800302092278002,-0.3047014338193461,9.804290229376273,0.21521007144731463
1789997372891434000,10.47943408203125,0.1760463758010417,-9.80030676845312,-0.305566087824665,9.804323039015019,0.21360117717020838
1789997372901505000,10.489505126953125,0.175962953567598,-9.800283972099423,-0.3063855875140056,9.804341122336435,0.21282899218896115
1789997372911574800,10.49957470703125,0.1776062089962884,-9.80013959519267,-0.3100260629082098,9.804395204725957,0.21031138810400943
1789997372921645800,10.509645751953125,0.1803527494917623,-9.800031458643078,-0.3118219333490357,9.804401169990927,0.20998647728194791
1789997372931715800,10.5197158203125,0.1860422298376448,-9.800017430117723,-0.3089201109603047,9.804287517140546,0.215246969994898
1789997372941787000,10.529786865234374,0.1898990513962693,-9.80013667258322,-0.3027411483307369,9.80412553015201,0.22252020794948915
1789997372951858000,10.53985791015625,0.1896842030691914,-9.800317874369023,-0.2969911882355809,9.804013198544625,0.22746319311772994
1789997372961928000,10.549927978515624,0.1891141846288926,-9.800580324697494,-0.2885365905579179,9.803841929858255,0.2346820276873557
1789997372971999000,10.5599990234375,0.1852936582263559,-9.801095288482308,-0.2730877683450468,9.80354114023263,0.24690207507225992
1789997372982069000,10.570069091796874,0.1774098279076628,-9.801700853160025,-0.2561489085038192,9.803221391349823,0.2593770949508497
1789997372992139800,10.580139892578124,0.1685507593486458,-9.802229845470189,-0.2414039967766031,9.802928259570901,0.2701716662965604
1789997373002209800,10.590209716796876,0.1715582158026285,-9.802411047255992,-0.2317217752664349,9.80264346144469,0.280304672997077
1789997373012280800,10.60028076171875,0.1757631749454885,-9.80250924693346,-0.22423308174517,9.802396965583211,0.28874631418757213
1789997373022351000,10.61035107421875,0.179603355896566,-9.802739548557996,-0.2107688209456391,9.801976414778743,0.30272410263546246
1789997373032422000,10.620421875,0.1786552979241125,-9.803149882924556,-0.1915971240184269,9.801406363758577,0.3206370112215418
1789997373042492000,10.630491943359376,0.1756463436327874,-9.803504687711596,-0.1755520712117664,9.800922171138417,0.33511031767012855
1789997373052563000,10.64056298828125,0.1780401251678355,-9.803690565672516,-0.1623019463532604,9.800456043572355,0.34849713545776245
1789997373062633000,10.650633056640626,0.1756984208798967,-9.803956523132324,-0.1482723250222392,9.799990862860986,0.36138236367767984
1789997373072703700,10.660703857421876,0.1713848319971002,-9.804254629296064,-0.1327305820952169,9.799464677550754,0.37535454915375865
1789997373082774000,10.67077392578125,0.1694412967138923,-9.804490191617608,-0.1168119869461283,9.798876699935482,0.39038279971559736
1789997373092845000,10.680844970703124,0.169055092141591,-9.804669055315852,-0.1014511444108094,9.798273367749585,0.4052730610326014
1789997373102914800,10.690914794921875,0.1702738385478965,-9.80478186804056,-0.0873800585582386,9.797682848179818,0.4192692942101335
1789997373112985900,10.70098583984375,0.1693038062056526,-9.804897018852827,-0.0756602165735093,9.797195601392787,0.4305254295933876
1789997373123055900,10.711055908203123,0.1648447444375604,-9.805050748109815,-0.0649132062428863,9.796767091211992,0.4401843337376167
1789997373133127000,10.721126953125,0.1639085595659911,-9.805108615776897,-0.0580935665230266,9.796471341320913,0.4467047170455218
1789997373143197000,10.731197021484377,0.1659906630696728,-9.805091664642095,-0.0548920077024726,9.796309476974967,0.45023240232157613
1789997373153268000,10.74126806640625,0.1715287339798174,-9.80500690896809,-0.0531281992006115,9.796181620203434,0.4530241285311546
