time,seconds_elapsed,z,y,x
1791114942891125800,0.059125732421875,-4.037768492883443,-8.884417665937542,-0.9664081603974103
1791114942901196500,0.069196533203125,-4.0382551073566075,-8.884836183610558,-0.9605151568360626
1791114942911266600,0.0792666015625,-4.037433854101598,-8.88589709084034,-0.9541172724924981
1791114942921337600,0.089337646484375,-4.032810578215122,-8.888815608635545,-0.9464591589547693
1791114942931408600,0.09940869140625,-4.023858917735517,-8.89356017281413,-0.9399657783474773
1791114942941479700,0.109479736328125,-4.015630310833454,-8.898040533098579,-0.9327305663969367
1791114942951550500,0.119550537109375,-4.016996630750596,-8.898044624751806,-0.9267816679298877
1791114942961621500,0.12962158203125,-4.025796607799828,-8.89460763604045,-0.9215798615030943
1791114942971692500,0.139692626953125,-4.0284605663120745,-8.894301346570252,-0.9128484927106648
1791114942981763600,0.149763671875,-4.026421461699902,-8.896552924889326,-0.8998157734625041
1791114942991834600,0.159834716796875,-4.026153458413481,-8.89794467150867,-0.8871653315301984
1791114943001905700,0.16990576171875,-4.026954545663297,-8.898426317545772,-0.8786596612524241
1791114943011976400,0.1799765625,-4.033283164162934,-8.896306841173768,-0.8710684754710644
1791114943022047500,0.190047607421875,-4.039969510059058,-8.89425166220963,-0.8610002320516854
1791114943032118500,0.200118408203125,-4.033872069966793,-8.898588814631104,-0.8446184946365654
1791114943042189600,0.210189453125,-4.02228655385226,-8.905988277232646,-0.8215680931124836
1791114943052260600,0.220260498046875,-4.017687535624206,-8.909687716272472,-0.8037672096144407
1791114943062331600,0.23033154296875,-4.0107396161824465,-8.913718579223751,-0.7937124832637608
1791114943072402400,0.24040234375,-4.008906555536389,-8.915871373343467,-0.7786427782952785
1791114943082473500,0.250473388671875,-4.007908192148804,-8.91810366244018,-0.7579363826140761
1791114943092544500,0.26054443359375,-4.007902931451797,-8.919820987752079,-0.7374817697368562
1791114943102615600,0.270615478515625,-4.00185429893732,-8.924208409056067,-0.7169665127135812
1791114943112686600,0.2806865234375,-3.9961531646862625,-8.928521596080063,-0.6947125953294336
1791114943122756600,0.290756591796875,-3.986550639082491,-8.93453398823738,-0.6722314450606703
1791114943132827600,0.30082763671875,-3.9739457167923447,-8.941625992324948,-0.6522694380059838
1791114943142898400,0.3108984375,-3.965307067784667,-8.946874414372443,-0.6325863940231502
1791114943152969500,0.320969482421875,-3.9619247318699955,-8.949803453561664,-0.6120033689932898
1791114943163040500,0.33104052734375,-3.9651194362580773,-8.950079347893595,-0.5867651751013472
1791114943173111600,0.341111572265625,-3.9688247205168006,-8.950272240117192,-0.5580663924267515
1791114943183182600,0.3511826171875,-3.973675375418365,-8.949652062392234,-0.5329236582659185
1791114943193253600,0.361253662109375,-3.975983944621682,-8.950183977311848,-0.5060864682121202
1791114943203324700,0.37132470703125,-3.9743654035091396,-8.952807311552762,-0.47120556283649057
1791114943213395700,0.381395751953125,-3.9728541221633553,-8.955448181450366,-0.4321513538315892
1791114943223466800,0.391466796875,-3.975147786058485,-8.956172988593577,-0.3943830564513802
1791114943233537800,0.401537841796875,-3.9716111363649365,-8.959351034107804,-0.3559630902294069
1791114943243608600,0.411608642578125,-3.9688217979073523,-8.962202916407584,-0.31265794578175987
1791114943253679600,0.4216796875,-3.9688250127777454,-8.963540887013076,-0.27158330033253875
1791114943263750700,0.431750732421875,-3.9692072900936006,-8.964484305343031,-0.2319921714393422
1791114943273821700,0.44182177734375,-3.969504519474506,-8.96525236710608,-0.1941019464462064
1791114943283892700,0.451892822265625,-3.968807769382,-8.966358867043256,-0.15288157238336278
1791114943293963800,0.4619638671875,-3.964150883486867,-8.969106119924783,-0.10510128268250264
1791114943304034800,0.472034912109375,-3.951125105436146,-8.975309650740027,-0.05302166551963892
1791114943314105600,0.482105712890625,-3.9421795824363826,-8.979398381358385,-0.00026823723431507456
1791114943324175600,0.492175537109375,-3.947758551612496,-8.976845189744234,0.04297928262730129
1791114943334246700,0.50224658203125,-3.9505049277111888,-8.975369271972776,0.08145481496141292
1791114943344317700,0.512317626953125,-3.9459520867124196,-8.97676043407023,0.13267806645669042
1791114943354388500,0.522388427734375,-3.9438337793841955,-8.976714841362833,0.18743174796728415
1791114943364459500,0.53245947265625,-3.936538946200907,-8.978768851283192,0.23613743628421796
1791114943374530600,0.542530517578125,-3.9299282958894968,-8.980237170270085,0.2852873612373136
1791114943384601600,0.5526015625,-3.9304932362958787,-8.978368453788757,0.3324662235794589
1791114943394672600,0.562672607421875,-3.9331919738605614,-8.975413111114502,0.3772837818840518
1791114943404743700,0.57274365234375,-3.934114641663432,-8.972842383843659,0.42570747492183
1791114943414814500,0.582814453125,-3.93387557221055,-8.97037862407863,0.4767661926383152
1791114943424885500,0.592885498046875,-3.928604938331246,-8.970154752194881,0.5222690297933295
1791114943434956500,0.60295654296875,-3.9174128054484725,-8.97213102070391,0.570206291021034
1791114943445027600,0.613027587890625,-3.920177301725745,-8.967720218524336,0.6185279849890619
1791114943455098600,0.6230986328125,-3.93089217248559,-8.960167611187696,0.6586833236362785
1791114943465169700,0.633169677734375,-3.9394495729506014,-8.953370206132531,0.6987731958318502
1791114943475240700,0.64324072265625,-3.9515158583194014,-8.944349864330887,0.7446620366297662
1791114943485311500,0.6533115234375,-3.953946592597663,-8.939302517813443,0.7909309627864509
1791114943495382500,0.663382568359375,-3.9425428627908228,-8.939632772681117,0.8424403468798846
1791114943505453600,0.67345361328125,-3.932288595280051,-8.938868802571296,0.896724310253188
1791114943515524600,0.683524658203125,-3.92634166957438,-8.936019258359075,0.9496260985530912
1791114943525595600,0.693595703125,-3.9167993497252462,-8.933722087332606,1.0087994414031505
1791114943535665400,0.70366552734375,-3.9170881035387515,-8.926950401240587,1.0660003151364623
1791114943545736400,0.713736328125,-3.9198905937388537,-8.918881076553463,1.1217833579611032
1791114943555807500,0.723807373046875,-3.9175148045182224,-8.913007216084003,1.1754802421614527
1791114943565878500,0.73387841796875,-3.9172497238412496,-8.905746869692205,1.2301223713226617
1791114943575949600,0.743949462890625,-3.9294966264739632,-8.89290784638524,1.2828227187663317
1791114943586020600,0.7540205078125,-3.9393598488405344,-8.880932746431231,1.3344940154232083
1791114943596091400,0.76409130859375,-3.947842722764611,-8.86827083325684,1.3923651896335183
1791114943606162400,0.774162353515625,-3.962527958460152,-8.852160240933298,1.4518972827933727
1791114943616233500,0.7842333984375,-3.9767233648121354,-8.836462321063875,1.5076394821509718
1791114943626304500,0.794304443359375,-3.9875817356958985,-8.822515044254065,1.5597494624860584
1791114943636375600,0.80437548828125,-3.993581268371641,-8.811236694392562,1.607423067808896
1791114943646446600,0.814446533203125,-3.990829047054052,-8.804237044763564,1.6519950538545847
1791114943656517600,0.824517578125,-3.9927196831062433,-8.794836763733626,1.6968882346786558
1791114943666588700,0.834588623046875,-3.998505573031306,-8.783770595318078,1.7400322337478398
1791114943676659700,0.84465966796875,-4.005991544872522,-8.773105408918857,1.7762419035091994
1791114943686730500,0.85473046875,-4.017947647865117,-8.76250744253695,1.8013703534163534
1791114943696801500,0.864801513671875,-4.029420058993995,-8.753783453333376,1.818088117852807
1791114943706872600,0.87487255859375,-4.0339191239789125,-8.748490607622266,1.833520957045257
1791114943716943600,0.884943603515625,-4.03203199505806,-8.74545986162424,1.8520346649877726
1791114943727014700,0.8950146484375,-4.033348338353633,-8.741149012687801,1.8694423113845287
1791114943737085700,0.905085693359375,-4.0358088832482695,-8.737883288890123,1.8793669085495173
1791114943747156700,0.91515673828125,-4.0365436272636055,-8.735833370622991,1.887308515203744
1791114943757226800,0.925226806640625,-4.0373420841649175,-8.733815601059794,1.8949217666864393
1791114943767297500,0.935297607421875,-4.040056019298732,-8.732062035390735,1.8972196683652698
1791114943777368600,0.94536865234375,-4.034591031891107,-8.734675432759524,1.8968179556965827
1791114943787439600,0.955439697265625,-4.02643519796431,-8.738375456321238,1.8971020333349704
1791114943797510700,0.9655107421875,-4.02659389565736,-8.737585767248273,1.9004003442279993
1791114943807581700,0.975581787109375,-4.032121719168126,-8.733892757949233,1.9056524195373057
1791114943817652700,0.98565283203125,-4.031577529288828,-8.733196592378615,1.9099901564806698
1791114943827723500,0.9957236328125,-4.031896678240597,-8.732484060195087,1.9125687747970221
1791114943837794600,1.005794677734375,-4.032993825827539,-8.73247821497619,1.9102794948160646
1791114943847865600,1.015865478515625,-4.039767850007117,-8.730029652780294,1.907156248228997
1791114943857936600,1.0259365234375,-4.050836941032111,-8.724977045565844,1.9067973517887293
1791114943868007700,1.036007568359375,-4.051045615346729,-8.724944312340021,1.9065036295391617
1791114943878078700,1.04607861328125,-4.047388554143906,-8.727447235071658,1.9028142735019324
1791114943888149500,1.0561494140625,-4.041452734354138,-8.731497971767187,1.8968353452228008
1791114943898220500,1.066220458984375,-4.034849975088238,-8.735888900202513,1.890668493156135
1791114943908291800,1.076291748046875,-4.029114354045689,-8.740344710567593,1.8822860108666122
1791114943918362600,1.086362548828125,-4.033016329920292,-8.741175316172837,1.8700342859283088
1791114943928433700,1.09643359375,-4.034094480545819,-8.744409475788473,1.8525044744566082
1791114943938504700,1.106504638671875,-4.030542341022193,-8.749202555283903,1.8375415908634662
1791114943948575700,1.11657568359375,-4.031531059798598,-8.750860843884944,1.8274523046560585
1791114943958646800,1.126646728515625,-4.0289351980865,-8.754829747515917,1.8141142457857726
1791114943968716500,1.136716552734375,-4.019958695426583,-8.7629353125602,1.7947903905041516
1791114943978787600,1.14678759765625,-4.016000020928681,-8.76916280877292,1.7731081355281173
1791114943988858600,1.156858642578125,-4.012883934734761,-8.775116748741269,1.7505609342858195
1791114943998929700,1.1669296875,-4.0132679656162855,-8.779511768829822,1.7274970156930387
1791114944009000700,1.177000732421875,-4.019027259795368,-8.781994233295322,1.7012870541594922
1791114944019071700,1.18707177734375,-4.0240424576088785,-8.785244175001978,1.6724090424604714
1791114944029142500,1.197142578125,-4.029986460705102,-8.788084366863966,1.642913629515469
1791114944039213600,1.207213623046875,-4.0407478009551765,-8.788370782589912,1.6147043108582495
1791114944049284600,1.21728466796875,-4.051151121547818,-8.789019601887464,1.584834511642903
1791114944059355600,1.227355712890625,-4.054339688456058,-8.793452615898847,1.5517381515964865
1791114944069426700,1.2374267578125,-4.05194782488346,-8.800811161968111,1.5158620977036654
1791114944079497700,1.247497802734375,-4.043791406434774,-8.810783105406164,1.4792736577577887
1791114944089568500,1.257568603515625,-4.034733362971246,-8.82104730978906,1.4423726447314023
1791114944099639600,1.2676396484375,-4.0306311883494255,-8.829443382212519,1.4019007874809204
1791114944109710600,1.277710693359375,-4.035964658331871,-8.834562624922395,1.3534715414851903
1791114944119781600,1.28778173828125,-4.0428979647263885,-8.839474946883321,1.2996392674021422
1791114944129852700,1.297852783203125,-4.046889664711058,-8.844820984086393,1.2498898787185548
1791114944139923700,1.307923828125,-4.041298420575261,-8.853618038526177,1.2048881229534745
1791114944149994500,1.317994384765625,-4.034938237893581,-8.862429121491312,1.1606092015702276
1791114944160065500,1.3280654296875,-4.03244232942462,-8.869458581736684,1.1146728683687745
1791114944170136600,1.338136474609375,-4.031914213897288,-8.875703029084205,1.0658079343695193
1791114944180207600,1.34820751953125,-4.0412113268136975,-8.87741041752398,1.0151683919131755
1791114944190278000,1.35827783203125,-4.047838635998964,-8.880582033297419,0.9595086101420223
1791114944200348700,1.3683486328125,-4.047115874682366,-8.887150305771828,0.8998952684395015
1791114944210419700,1.378419677734375,-4.052366634817421,-8.890500200721622,0.8412699148610234
1791114944220490800,1.38849072265625,-4.059063209846616,-8.892637212750316,0.784471922840178
1791114944230561800,1.398561767578125,-4.063570458137989,-8.895420121467113,0.7275256083898246
1791114944240632800,1.4086328125,-4.06592695813626,-8.89870571900904,0.672061129995063
1791114944250704000,1.418703857421875,-4.062277495718002,-8.904399546736478,0.6164122349441051
1791114944260774700,1.428774658203125,-4.05446652970612,-8.911917667281626,0.5562574798412621
1791114944270845700,1.438845703125,-4.0534401092678305,-8.915984770590066,0.4952202062828466
1791114944280916700,1.448916748046875,-4.05320776181668,-8.919145864969492,0.4367095651252195
1791114944290987800,1.45898779296875,-4.0495580071374775,-8.923505813744663,0.3775341033833101
1791114944301058800,1.469058837890625,-4.046228278192878,-8.927213436090947,0.32135943089257923
1791114944311129900,1.4791298828125,-4.039919825698435,-8.93184986371994,0.26736986562227827
1791114944321200600,1.48920068359375,-4.036239091359079,-8.9348163123101,0.21959572253441437
1791114944331271700,1.499271728515625,-4.04180403200984,-8.933262653127311,0.17617718084016815
1791114944341342700,1.5093427734375,-4.047078757542372,-8.931641773927211,0.1315919699867256
1791114944351413800,1.519413818359375,-4.053186719028652,-8.929398378914595,0.08885646038688719
1791114944361484800,1.52948486328125,-4.0561575515329835,-8.928352084732055,0.04999790638482664
1791114944371555800,1.539555908203125,-4.062262590409815,-8.925707123181223,0.012582276633498259
1791114944381626600,1.549626708984375,-4.064610322579742,-8.924615236291288,-0.02408456231083255
1791114944391697700,1.55969775390625,-4.067250023433566,-8.923248039591313,-0.05910716401236132
1791114944401767700,1.569767578125,-4.071287900647521,-8.921148436963557,-0.0899499638451729
1791114944411838700,1.579838623046875,-4.070117980085313,-8.921292813870311,-0.12269214929221198
1791114944421909800,1.58990966796875,-4.063427834796905,-8.923878738710284,-0.15277842253614216
1791114944431980500,1.59998046875,-4.0684015315562485,-8.921180585667491,-0.17611237197564913
1791114944442051600,1.610051513671875,-4.072544622710347,-8.91885126593709,-0.1971284729268402
1791114944452122600,1.62012255859375,-4.0804648943156,-8.91476370436251,-0.2171774276126176
1791114944462193700,1.630193603515625,-4.088411761666834,-8.910642240518332,-0.23604215921619906
1791114944472264700,1.6402646484375,-4.086380255839228,-8.910928656244277,-0.2592855625617318
1791114944482335700,1.650335693359375,-4.081467933878303,-8.912463610726594,-0.28286755021186544
1791114944492406500,1.660406494140625,-4.087984183904529,-8.90885184997022,-0.30186752556767316
1791114944502477600,1.6704775390625,-4.0999850028216835,-8.902914276614785,-0.314031791418232
1791114944512548600,1.680548583984375,-4.1225411180227995,-8.892215772467852,-0.32175069523248817
1791114944522619600,1.69061962890625,-4.139656211213767,-8.884003824439644,-0.3287859641641378
1791114944532690700,1.700690673828125,-4.135764172211289,-8.885266976243257,-0.343311186992377
1791114944542761700,1.71076171875,-4.126647384297848,-8.888823791942,-0.36052955789472907
1791114944552832500,1.72083251953125,-4.121540708808601,-8.890671465635299,-0.37317853852231053
1791114944562903600,1.730903564453125,-4.118236114305257,-8.891846939155458,-0.3815541161470115
1791114944572974600,1.740974609375,-4.118835833764076,-8.891513761678338,-0.3828516816768795
1791114944583045600,1.751045654296875,-4.115545267786086,-8.893107752871513,-0.38119397759772833
1791114944593116700,1.76111669921875,-4.098981963258981,-8.900772003889083,-0.380762381247431
1791114944603187700,1.771187744140625,-4.085233423891664,-8.907275978955626,-0.37642709198947993
1791114944613258500,1.781258544921875,-4.078465244930983,-8.91067964991927,-0.36920561630334703
1791114944623329500,1.79132958984375,-4.072103600944579,-8.91388867509365,-0.36184473214652385
1791114944633399800,1.80139990234375,-4.065665092329681,-8.917064967042208,-0.3559356907658279
1791114944643470800,1.811470947265625,-4.058167137789726,-8.920594894734025,-0.35306645547244697
1791114944653542000,1.8215419921875,-4.0493332584708925,-8.924699991965293,-0.35074206764549015
1791114944663612700,1.83161279296875,-4.043605236212909,-8.927478809028864,-0.3460714089533314
1791114944673683700,1.84168359375,-4.036603248496354,-8.930869035989046,-0.34028888002913443
1791114944683754800,1.851754638671875,-4.035734064446389,-8.931538898074626,-0.3329314664710313
1791114944693825800,1.86182568359375,-4.041188822720945,-8.929302517324686,-0.326716647076793
1791114944703896800,1.871896728515625,-4.043564904202521,-8.92832344315946,-0.32405323655381796
1791114944713967900,1.8819677734375,-4.039044211907685,-8.930252365395427,-0.32725111927967515
1791114944724038700,1.89203857421875,-4.034153224995732,-8.93220233041942,-0.33429168544095006
1791114944734109700,1.902109619140625,-4.028185841023921,-8.934598285645245,-0.34211452455371616
1791114944744180700,1.9121806640625,-4.021164271824062,-8.937460104817152,-0.34988431830499317
1791114944754251800,1.922251708984375,-4.016660822924972,-8.939034222266077,-0.36124161515422165
1791114944764322800,1.93232275390625,-4.010524512127041,-8.941071865573525,-0.37858145701177415
1791114944774393900,1.942393798828125,-4.00160266226381,-8.944191458898782,-0.3987613080682233
1791114944784464600,1.952464599609375,-3.9952945020303128,-8.945959053093194,-0.4216944033555686
1791114944794535700,1.96253564453125,-3.99148604965806,-8.946395106422901,-0.447706796490401
1791114944804606700,1.972606689453125,-3.9926147614270446,-8.944542172032595,-0.4739105474788695
1791114944814677800,1.982677734375,-3.996769543018937,-8.941262419709563,-0.5000288852062076
1791114944824748800,1.992748779296875,-4.00101492550373,-8.937773408550024,-0.5277162258159369
1791114944834819800,2.00281982421875,-4.002923973995447,-8.935146567177773,-0.5568949009619653
1791114944844891000,2.012890869140625,-4.0079055618003006,-8.930981848713754,-0.5870625140801071
1791114944854960600,2.022960693359375,-4.019007093790173,-8.924078060674667,-0.6154761962030083
1791114944865031700,2.03303173828125,-4.032335361918807,-8.916288721972704,-0.6406655094519257
1791114944875102700,2.043102783203125,-4.042755341385305,-8.909479041957855,-0.6691066641036421
1791114944885173800,2.053173828125,-4.054422982825338,-8.902061459177732,-0.6966616835705935
1791114944895244500,2.06324462890625,-4.07081297661215,-8.892491082277893,-0.7228167731117456
1791114944905316000,2.073316162109375,-4.077927192531526,-8.886997745558618,-0.7497679084014147
1791114944915387100,2.08338720703125,-4.087573849537969,-8.88059898443222,-0.7727079814188181
1791114944925458000,2.0934580078125,-4.10468251298815,-8.871288719773291,-0.7887958504538982
1791114944935529000,2.103529052734375,-4.114878912831843,-8.865200339770317,-0.8039750071462244
1791114944945600000,2.11360009765625,-4.118945431618393,-8.861721265482903,-0.8213261741153896
1791114944955671000,2.123671142578125,-4.120472202794254,-8.859445721766352,-0.838040431420505
1791114944965742000,2.1337421875,-4.113573967713117,-8.861064262878894,-0.8546630649194121
1791114944975813000,2.143813232421875,-4.108249850080907,-8.862149135506153,-0.8689082286972551
1791114944985884000,2.1538837890625,-4.107821395535767,-8.861402116531133,-0.8784993561241775
1791114944995955000,2.163954833984375,-4.104120202930272,-8.862607985189557,-0.8835990904159844
1791114945006026000,2.17402587890625,-4.101172459040582,-8.863699872079492,-0.886333776076883
1791114945016097000,2.184096923828125,-4.102695723085105,-8.862909598484634,-0.887189808384329
1791114945026168000,2.19416796875,-4.1066482601031655,-8.861151356640457,-0.8864776415269822
1791114945036239000,2.204239013671875,-4.111804035431146,-8.858836065435408,-0.8857072416763753
1791114945046310000,2.214309814453125,-4.110608688166737,-8.859346937566995,-0.8861468752026558
1791114945056381000,2.224380859375,-4.098914743241668,-8.864554443082213,-0.8882373446758836
1791114945066452000,2.234451904296875,-4.087518319958448,-8.870015631097555,-0.8862293658543378
1791114945076523000,2.24452294921875,-4.080683797763288,-8.873956477677822,-0.8782375633828341
1791114945086593000,2.254593017578125,-4.079616168531775,-8.875568004527688,-0.8668372676420957
1791114945096664000,2.2646640625,-4.082941805823147,-8.875299124458431,-0.853849994970858
1791114945106735000,2.274735107421875,-4.084832441875339,-8.87544993110597,-0.8431657385449856
1791114945116806100,2.28480615234375,-4.085161527699232,-8.875911118876934,-0.8366892360072582
1791114945126877200,2.294877197265625,-4.084451333603263,-8.876669828289748,-0.832092921192944
1791114945136948200,2.3049482421875,-4.079885048601031,-8.87914410944879,-0.8280854391172527
1791114945147019300,2.315019287109375,-4.076690051952005,-8.881077123337983,-0.8230779862187803
1791114945157090000,2.325090087890625,-4.072569464890659,-8.883513995096086,-0.8171526878230273
1791114945167161000,2.3351611328125,-4.0652454056128855,-8.887447242891788,-0.8108317411731928
1791114945177232100,2.345232177734375,-4.056640366613864,-8.891868566465376,-0.8054478561777622
1791114945187303200,2.35530322265625,-4.04609325363636,-8.897022880488633,-0.8015672153521328
1791114945197374200,2.365374267578125,-4.03885687264204,-8.900676142299174,-0.7974894445192068
1791114945207445200,2.3754453125,-4.034082790108025,-8.903190755468607,-0.7935690562050789
1791114945217516000,2.38551611328125,-4.038804557932913,-8.901345419862865,-0.79025415950343
1791114945227587000,2.395587158203125,-4.044849098794162,-8.898627977597712,-0.789945678076148
1791114945237658000,2.405658203125,-4.052948818619549,-8.894779485476016,-0.7917568922165781
1791114945247729200,2.415729248046875,-4.067240378822386,-8.88800370773077,-0.7945555099591612
1791114945257800200,2.42580029296875,-4.073404454410076,-8.88494315111637,-0.7972106275778263
1791114945267871200,2.435871337890625,-4.0762414314016695,-8.883314673131704,-0.8008465729273855
1791114945277942000,2.44594189453125,-4.080937480263412,-8.880899428683518,-0.8037248317774385
1791114945288013000,2.456012939453125,-4.081556781205535,-8.880335365059972,-0.8067888224579394
1791114945298084000,2.466083984375,-4.079861083203554,-8.880599568954109,-0.8124397608917207
1791114945308154000,2.476154052734375,-4.074607108198106,-8.882395804721117,-0.819141888878867
1791114945318225200,2.48622509765625,-4.065294213190675,-8.885936253806948,-0.8269820079199969
1791114945328296000,2.4962958984375,-4.0651007364451885,-8.88546746725142,-0.8329436197381466
1791114945338367000,2.506366943359375,-4.068586824995279,-8.883615701904892,-0.8356804242908954
1791114945348438000,2.51643798828125,-4.068572504208982,-8.88309723098874,-0.841246899311617
1791114945358509000,2.526509033203125,-4.063617512150109,-8.884321804347634,-0.8521909757174551
1791114945368580000,2.536580078125,-4.055542342244088,-8.886628912246227,-0.8664709916129708
1791114945378651100,2.546651123046875,-4.050310286809504,-8.887629613721371,-0.8805785735510289
1791114945388722000,2.556721923828125,-4.046659655347466,-8.887979742333293,-0.8937176757831126
1791114945398793000,2.56679296875,-4.0445337492346765,-8.887620261371135,-0.9068267482031136
1791114945408864000,2.576864013671875,-4.046444551292062,-8.885528842049837,-0.9187181884616613
1791114945418935000,2.58693505859375,-4.049166961993277,-8.882883295977114,-0.9322053004138171
1791114945429006000,2.597006103515625,-4.056197299021482,-8.878104245007037,-0.9470558827389031
1791114945439077000,2.6070771484375,-4.058073906548321,-8.875523580864071,-0.9630772624090314
1791114945449148000,2.61714794921875,-4.054971848879754,-8.874851965212821,-0.9821403478626162
1791114945459219000,2.627218994140625,-4.058314729566872,-8.871445371639728,-0.9989582847379147
1791114945469290000,2.6372900390625,-4.062041641135513,-8.868157436010241,-1.0129081188309936
1791114945479361000,2.647361083984375,-4.064409831571579,-8.865511889937519,-1.026477136912942
1791114945489432000,2.65743212890625,-4.0650574818253515,-8.863559002304077,-1.0406826993327587
1791114945499503000,2.667503173828125,-4.060486228387058,-8.86418619429171,-1.0531117535993457
1791114945509574000,2.677573974609375,-4.051952793319523,-8.866634756487608,-1.065297719825059
1791114945519645000,2.68764501953125,-4.0438638871490955,-8.868937772732973,-1.0767917582638562
1791114945529716000,2.697716064453125,-4.040881656467914,-8.869099100774527,-1.0866162560552357
1791114945539786000,2.707785888671875,-4.033270012420416,-8.871712498143316,-1.093542548187077
1791114945549857000,2.71785693359375,-4.025812974412739,-8.87457607088089,-1.0977827430400997
1791114945559928000,2.727927978515625,-4.027355819940567,-8.873955893155932,-1.0971369924824683
1791114945569999000,2.7379990234375,-4.0310558435022825,-8.872870436006783,-1.092311179761216
1791114945580070100,2.748070068359375,-4.03521880840063,-8.87151609878838,-1.0879334030684082
1791114945590141200,2.75814111328125,-4.036145275595784,-8.871593840199708,-1.08386242730245
1791114945600212200,2.768212158203125,-4.035231375621259,-8.872373007878661,-1.0808730362281203
1791114945610283300,2.778283203125,-4.034598922936618,-8.873221733662486,-1.0762573591262101
1791114945620354000,2.78835400390625,-4.027906439560652,-8.877534336164594,-1.0657144839324058
1791114945630425000,2.798425048828125,-4.025601377488672,-8.88052533467412,-1.0493800927903503
1791114945640496000,2.80849609375,-4.024149425114691,-8.883661879134177,-1.0281776572205126
1791114945650567200,2.818567138671875,-4.019555959844589,-8.888371956521272,-1.005181762362644
1791114945660638200,2.82863818359375,-4.022815838423371,-8.88949482307136,-0.9819466519214213
1791114945670709200,2.838709228515625,-4.023782637628913,-8.891679765895008,-0.9579062164466827
1791114945680780000,2.848780029296875,-4.019523811140656,-8.895981847003101,-0.9355937738083302
1791114945690851000,2.85885107421875,-4.016363009022176,-8.899831508168578,-0.912260098363459
1791114945700922000,2.868922119140625,-4.014339101979136,-8.903354421597719,-0.8864282494273036
1791114945710993200,2.8789931640625,-4.021628966726363,-8.902815492415428,-0.8583521286956965
1791114945721064200,2.889064208984375,-4.031099974904954,-8.901259495145082,-0.8295783080235123
1791114945731135200,2.89913525390625,-4.034265745459496,-8.90219531469047,-0.8037463860221207
1791114945741206300,2.909206298828125,-4.024740961267054,-8.90838773958981,-0.7826121933829039
1791114945751277000,2.919277099609375,-4.007715007664263,-8.917839458546043,-0.7620804966814816
1791114945761348000,2.92934814453125,-3.9891853715002537,-8.928084373706579,-0.7389867674723267
1791114945771419100,2.939419189453125,-3.9780397081077097,-8.934559122678637,-0.7205917905386537
1791114945781489200,2.9494892578125,-3.977425375601649,-8.936259496855735,-0.7026674267914146
1791114945791560000,2.959559814453125,-3.9805566593647,-8.936389260715245,-0.6830087135322391
1791114945801631000,2.969630859375,-3.9844758786350485,-8.936056667760013,-0.6642521367445587
1791114945811702000,2.979701904296875,-3.9825209451749917,-8.937839459523557,-0.651879634970799
1791114945821773000,2.98977294921875,-3.979959570254385,-8.939442218545079,-0.6454940255869179
1791114945831844000,2.999843994140625,-3.980409652109444,-8.939666090428828,-0.6396139545723796
1791114945841915100,3.0099150390625,-3.9815123526543377,-8.939425851932167,-0.6360790584445
1791114945851986000,3.01998583984375,-3.983669822949171,-8.938747806540132,-0.6320901349388063
1791114945862057000,3.030056884765625,-3.982108564981818,-8.93955327770412,-0.6305404943440109
1791114945872128000,3.0401279296875,-3.984840912555158,-8.938155685865878,-0.6331052302654833
1791114945882199000,3.050198974609375,-3.9829306950196623,-8.938450869420171,-0.640905455687642
1791114945892270000,3.06027001953125,-3.9846296078920362,-8.93682706761062,-0.6528738336399197
1791114945902340900,3.0703408203125,-3.991227983243763,-8.932935320869088,-0.665695686616376
1791114945912411600,3.08041162109375,-3.99695016028285,-8.929268030533194,-0.6804151899076998
1791114945922482700,3.090482666015625,-4.008547951357066,-8.922904340720176,-0.6955002385757864
1791114945932553700,3.1005537109375,-4.017246806119382,-8.917717877992986,-0.7116445139732211
1791114945942624800,3.110624755859375,-4.020463137817383,-8.914743246096371,-0.730502432243526
1791114945952695800,3.12069580078125,-4.017429176948965,-8.914331742686032,-0.7518823432721197
1791114945962766800,3.130766845703125,-4.020203025576472,-8.911304503819347,-0.7726604890152812
1791114945972837600,3.140837646484375,-4.027362249681353,-8.90659910260737,-0.7894492728613317
1791114945982908700,3.15090869140625,-4.032312273304164,-8.902821337634325,-0.8065957110386341
1791114945992979700,3.160979736328125,-4.032312857826054,-8.90092748671174,-0.8272448235746472
1791114946003050800,3.17105078125,-4.029385572202504,-8.900271653151512,-0.8482971831493079
1791114946013121800,3.181121826171875,-4.025557538346946,-8.900172284430266,-0.8672963365212082
1791114946023191800,3.19119189453125,-4.027595473915338,-8.897565316802263,-0.8844154483001678
1791114946033262800,3.201262939453125,-4.034084251412749,-8.893468402877449,-0.8959787525828927
1791114946043334000,3.211333984375,-4.039303447365761,-8.890098634183406,-0.9058574647795409
1791114946053405000,3.221405029296875,-4.043765979732573,-8.886744647580384,-0.9187572052977979
1791114946063476000,3.23147607421875,-4.049932685668766,-8.882409833246468,-0.933398163460195
1791114946073547000,3.241547119140625,-4.050687595689297,-8.880651006880402,-0.9467664713382721
1791114946083617800,3.25161767578125,-4.045846877659857,-8.881527789714932,-0.9591573124863206
1791114946093688800,3.261688720703125,-4.03943379574716,-8.883499382048845,-0.9678872930392622
1791114946103760000,3.271759765625,-4.03473540879786,-8.885092788720131,-0.97284316188097
1791114946113831000,3.281830810546875,-4.031381422194838,-8.886259494411945,-0.9760847010854631
1791114946123902000,3.29190185546875,-4.034331211911142,-8.88516936108768,-0.9738179251972585
1791114946133973000,3.301972900390625,-4.042126103571057,-8.882488159179687,-0.9659314097311347
1791114946144043800,3.312043701171875,-4.04910383362919,-8.880185142934321,-0.9578441840611398
1791114946154114800,3.32211474609375,-4.064035737562179,-8.87427621115148,-0.949332814694941
1791114946164185900,3.332185791015625,-4.081636568443477,-8.867261363953352,-0.939312063679099
1791114946174257000,3.3422568359375,-4.09343572730869,-8.862474714198708,-0.9331284066081047
1791114946184328000,3.352327880859375,-4.091849627161026,-8.863718576779961,-0.9282529095262289
1791114946194399000,3.36239892578125,-4.077280711321532,-8.871263000810146,-0.9202484667688607
1791114946204469800,3.3724697265625,-4.065875520209968,-8.878047546383739,-0.9051648063402622
1791114946214540800,3.382540771484375,-4.054776034046709,-8.885085774457455,-0.8856851759750396
1791114946224611800,3.39261181640625,-4.049358392912149,-8.889710511648655,-0.8637891321178525
1791114946234683000,3.402682861328125,-4.042545498026907,-8.894991082400082,-0.8410346448004246
1791114946244754000,3.41275390625,-4.028824431188404,-8.903131718757749,-0.8204930842921138
1791114946254825000,3.422824951171875,-4.009696829131245,-8.913428656366467,-0.8021878314685076
1791114946264896000,3.43289599609375,-4.00154771720618,-8.918952972745895,-0.7811923897128552
1791114946274965800,3.4429658203125,-3.9968244880765673,-8.923238687241076,-0.7560317180365324
1791114946285036800,3.453036865234375,-4.011231783613562,-8.919474950793385,-0.7234357087276876
1791114946295107800,3.46310791015625,-4.028362658895552,-8.914546846741437,-0.6881408887889235
1791114946305179000,3.473178955078125,-4.0388612565562125,-8.911824728301166,-0.6613513738017529
1791114946315249700,3.483249755859375,-4.0399201179593796,-8.912930643716454,-0.6396208227045833
1791114946325320700,3.49332080078125,-4.034503938129544,-8.917230386736989,-0.6133209178652614
1791114946335391700,3.503391845703125,-4.041306603881717,-8.916435436967015,-0.5791456765409558
1791114946345462800,3.513462890625,-4.051963606974482,-8.913978691464662,-0.541255433281511
1791114946355533800,3.523533935546875,-4.057031996279955,-8.913698120957612,-0.5068122982686385
1791114946365604900,3.53360498046875,-4.04544092720747,-8.920447595217823,-0.47999921974278986
1791114946375676000,3.543676025390625,-4.028721263074875,-8.929391364651918,-0.4535962563877925
1791114946385746700,3.55374658203125,-4.016642702746391,-8.936291645559669,-0.42385362721607084
1791114946395817700,3.563817626953125,-4.006982017214596,-8.942054446870088,-0.3926081192007288
1791114946405888800,3.573888671875,-4.005198640929162,-8.944229452821611,-0.3598889219036326
1791114946415959800,3.583959716796875,-4.015980731706321,-8.940702447739243,-0.3257522224914282
1791114946426030800,3.59403076171875,-4.015928709258139,-8.94186272369027,-0.2928948770989664
1791114946436102000,3.604101806640625,-4.0072096884906285,-8.94652662384808,-0.26892197216879576
1791114946446172700,3.614172607421875,-3.9951109621569514,-8.952575256362557,-0.24669545424822717
1791114946456243700,3.62424365234375,-3.979996102872491,-8.960087531688808,-0.21645050157755613
1791114946466314800,3.634314697265625,-3.9759772226199503,-8.962654751828312,-0.18108736564293504
1791114946476385800,3.6443857421875,-3.985044033911824,-8.959312455663085,-0.14327065341058187
1791114946486456800,3.654456787109375,-3.996041813266277,-8.954930295056105,-0.1060360062493477
1791114946496528000,3.66452783203125,-3.998243999485671,-8.954244650879502,-0.07703194788470864
1791114946506597600,3.67459765625,-3.991351609623432,-8.957483486670256,-0.05467312252109404
1791114946516668700,3.684668701171875,-3.9806215412944552,-8.962383533671497,-0.026634226244047748
1791114946526739700,3.69473974609375,-3.976671634624898,-8.964174508741497,0.006282633066596463
1791114946536810800,3.704810791015625,-3.975543799638748,-8.964590688326954,0.039309877966134804
1791114946546881800,3.7148818359375,-3.9574858726397153,-8.972416267386079,0.06654999996474943
1791114946556952800,3.724952880859375,-3.9243206851407884,-8.986743483424187,0.0923999508131761
1791114946567023900,3.73502392578125,-3.8964129797786473,-8.998556670814752,0.11964432429522275
1791114946577095000,3.745094970703125,-3.8751977577924728,-9.007350218123197,0.14442660937951876
1791114946587166000,3.755166015625,-3.866806361544132,-9.010487347105144,0.17119606795934958
1791114946597237000,3.765237060546875,-3.8623277548253534,-9.011710751420258,0.20465466718059033
1791114946607308000,3.77530810546875,-3.861811914257705,-9.011201632854341,0.23457612351793794
1791114946617378800,3.78537890625,-3.8683427773311734,-9.00769917769134,0.26014272738033906
1791114946627449900,3.795449951171875,-3.873238732679188,-9.004925036802888,0.2823945624052547
1791114946637521000,3.80552099609375,-3.880689340946078,-9.000942689168452,0.30602188703445715
1791114946647592000,3.815592041015625,-3.888950973334908,-8.99650909063518,0.33055834413152185
1791114946657663000,3.8256630859375,-3.9018867350146174,-8.989891718322038,0.357078029201366
1791114946667734000,3.835734130859375,-3.9175969298437234,-8.98188669104278,0.3854090380094945
1791114946677804800,3.8458046875,-3.9322394954413173,-8.97438844424188,0.4101730750510469
1791114946687875800,3.855875732421875,-3.966685078139603,-8.957690407419204,0.4422528419334441
1791114946697947000,3.86594677734375,-4.005763581335544,-8.938231673711538,0.4819270460002124
1791114946708018000,3.876017822265625,-3.9791760186612604,-8.948696369102597,0.5073282484341413
1791114946718089000,3.8860888671875,-3.92582816709429,-8.969742079740762,0.5495384372519329
1791114946728160000,3.896159912109375,-3.878093186973035,-8.988120616996287,0.5869206579240038
1791114946738230800,3.906230712890625,-3.8292519991755483,-9.00893076531291,0.5885361302966252
1791114946748301800,3.9163017578125,-3.8302532851725815,-9.007454847541451,0.6043921268045902
1791114946758371800,3.926371826171875,-3.8814310992240904,-8.981765110489725,0.6578418313108384
1791114946768443000,3.93644287109375,-3.9312329487472772,-8.956098169791698,0.7100083641387522
1791114946778514000,3.946513916015625,-3.9520626785472035,-8.94326206909418,0.7547437971178442
1791114946788584700,3.956584716796875,-3.9638834647223353,-8.934729218548537,0.7928747172653675
1791114946798655700,3.96665576171875,-3.9631554427087305,-8.931468170925974,0.8322628709323704
1791114946808726800,3.976726806640625,-3.968527491135895,-8.92446559868753,0.8803829779136926
1791114946818797800,3.9867978515625,-3.9977269898742436,-8.906332560625671,0.9304930166032165
1791114946828868900,3.996868896484375,-4.034368036790192,-8.88403188149035,0.9839831992503255
1791114946838940000,4.00693994140625,-4.065726759389043,-8.864313035541773,1.0315979870580136
1791114946849010700,4.0170107421875,-4.095139608617127,-8.846102256068587,1.0708308040328323
1791114946859081700,4.027081787109375,-4.110484185004234,-8.833832557082175,1.1125171516396104
1791114946869152800,4.03715283203125,-4.112512768222391,-8.826618387919664,1.1612146201174705
1791114946879223800,4.047223876953125,-4.113646448427438,-8.818761829200387,1.215625424740836
1791114946889294800,4.057294921875,-4.112762359069287,-8.812426196438073,1.2636093381218612
1791114946899366000,4.067365966796875,-4.131899313476682,-8.797771648141742,1.3026982165813445
1791114946909437400,4.0774375,-4.153350974567235,-8.78195623937249,1.3406380711361765
1791114946919508200,4.08750830078125,-4.161284982436895,-8.77227947948873,1.3788482670649886
1791114946929579300,4.097579345703125,-4.166707884268463,-8.763986282917857,1.4147317736119032
1791114946939650300,4.107650390625,-4.162761776991188,-8.759944314050674,1.4509220080204308
1791114946949721300,4.117721435546875,-4.149524986538291,-8.759519951158762,1.4908552283495664
1791114946959792400,4.12779248046875,-4.148210104547441,-8.754183266305922,1.5254577551752329
1791114946969863400,4.137863525390625,-4.157129031801223,-8.744169237291812,1.5582568858407437
1791114946979934200,4.147934326171875,-4.169820463331043,-8.731959744060038,1.5924385569058357
1791114946990005200,4.158005126953125,-4.176788548777997,-8.722724882724881,1.6244699180692432
1791114947000076300,4.168076171875,-4.177984188303351,-8.71802649577558,1.6464654767781495
1791114947010146300,4.178146240234375,-4.179248509150743,-8.714767786240577,1.660445632944256
1791114947020217300,4.18821728515625,-4.1773666409268975,-8.712842371135949,1.675223807620257
1791114947030288100,4.1982880859375,-4.171911882652342,-8.7115190135777,1.695576567558199
1791114947040359200,4.208359130859375,-4.168170942558348,-8.709304260137676,1.7160317649573087
1791114947050430200,4.21843017578125,-4.1500121855333445,-8.715439401891826,1.7288424389526247
1791114947060501200,4.228501220703125,-4.117051872956752,-8.730774918189644,1.7302718872338532
1791114947070572300,4.238572265625,-4.100834897649288,-8.738749550330638,1.7285232900008558
1791114947080643300,4.248643310546875,-4.109710862544179,-8.734257499608397,1.7301451921142637
1791114947090714000,4.258714111328125,-4.12067473962903,-8.728313496512174,1.7340588584266603
1791114947100785200,4.26878515625,-4.114992894600332,-8.732172510027885,1.728115147591382
1791114947110856200,4.278856201171875,-4.093205133423209,-8.74521553147435,1.71384258434996
1791114947120927200,4.28892724609375,-4.072765279723703,-8.7563156021595,1.7058431100286542
1791114947130998300,4.298998291015625,-4.071909539677202,-8.756477514722944,1.7070510245136916
1791114947141069300,4.3090693359375,-4.081784452481568,-8.751291636517644,1.710059412549436
1791114947151140000,4.31914013671875,-4.088682979823648,-8.749514689972996,1.7026570273384452
1791114947161211100,4.329211181640625,-4.0924540227949615,-8.751930518943071,1.6810487143814563
1791114947171282200,4.3392822265625,-4.087876339615881,-8.758434494009613,1.6581591294422744
1791114947181353200,4.349353271484375,-4.081083902996778,-8.764189696535468,1.6444247647307813
1791114947191424300,4.35942431640625,-4.086152584563195,-8.76321705211103,1.6370048438630997
1791114947201495300,4.369495361328125,-4.1012405558407306,-8.758006039464473,1.6271327075377107
1791114947211566300,4.37956640625,-4.110429824468493,-8.756570453703404,1.6115912934042513
1791114947221637400,4.389637451171875,-4.107570051123202,-8.761880250549316,1.5898789355508982
1791114947231708400,4.39970849609375,-4.102453731022775,-8.768300054463744,1.567542016058415
1791114947241779200,4.409779296875,-4.0931855519399045,-8.776496804922818,1.5457368653550743
1791114947251850200,4.419850341796875,-4.085288953471183,-8.784211909344792,1.522640505797416
1791114947261920300,4.429920166015625,-4.090301813197136,-8.785997623717785,1.4986884061932564
1791114947271991300,4.4399912109375,-4.091697359208762,-8.789633934393525,1.4733398837946354
1791114947282062300,4.450062255859375,-4.08142438699752,-8.79937674525082,1.4433756842941046
1791114947292133400,4.46013330078125,-4.0670919102624055,-8.811618971708416,1.408730487370491
1791114947302204400,4.470204345703125,-4.054011187154054,-8.823446187624334,1.371927381760627
1791114947312275500,4.480275390625,-4.049973602201044,-8.830833375266193,1.3358495216853916
1791114947322346200,4.49034619140625,-4.049453085458278,-8.83581993150711,1.3040744733706116
1791114947332417300,4.500417236328125,-4.045791640341282,-8.842135106003283,1.272245210650563
1791114947342488300,4.51048828125,-4.04147757653445,-8.849790589192509,1.2320913333080707
1791114947352559400,4.520559326171875,-4.029634870788454,-8.861282289543748,1.18747755394727
1791114947362630400,4.53063037109375,-4.020821741996706,-8.870667957526445,1.1465658439747988
1791114947372701400,4.540701416015625,-4.018161875137687,-8.87668327229321,1.1087111834853887
1791114947382772200,4.550772216796875,-4.016642995007336,-8.882457764041423,1.0671891595948486
1791114947392843300,4.56084326171875,-4.012485290805995,-8.88919730142951,1.0259309012070297
1791114947402914300,4.570914306640625,-4.008620139810443,-8.895658606398104,0.9841773335829377
1791114947412985300,4.5809853515625,-3.998785559016466,-8.904622834098339,0.9422184526450932
1791114947423056400,4.591056396484375,-3.9907779013887046,-8.912616170939803,0.8996388825256377
1791114947433127400,4.60112744140625,-3.9797365751534697,-8.921673922142386,0.8577949332043528
1791114947443198200,4.6111982421875,-3.972335651247203,-8.928950635147094,0.8153297101795672
1791114947453269200,4.621269287109375,-3.9662463944613933,-8.935219047892094,0.7753256896365434
1791114947463340300,4.63134033203125,-3.9607755618348714,-8.940590804058314,0.7405891611676663
1791114947473411300,4.641411376953125,-3.9571816289961337,-8.94475493800044,0.7088479420572519
1791114947483482400,4.651482421875,-3.9559176004096863,-8.947730154418945,0.6776580001540482
1791114947493553400,4.661553466796875,-3.953001128441095,-8.951286970117687,0.6470082295421511
1791114947503624200,4.671624267578125,-3.9503994215101,-8.954446895453334,0.6185556036483496
1791114947513694200,4.681694091796875,-3.951578402161598,-8.955895925217867,0.5893625711834057
1791114947523765200,4.69176513671875,-3.948139367623627,-8.95922594642341,0.5611119706677272
1791114947533836300,4.701836181640625,-3.9473026245385405,-8.961227933895588,0.5343820403806865
1791114947543907300,4.7119072265625,-3.9532033730149267,-8.95999225462079,0.5109905338013544
1791114947553978000,4.72197802734375,-3.956541285265982,-8.959705254372954,0.4897384869361296
1791114947564049200,4.732049072265625,-3.9582036655202506,-8.960040769937635,0.46976299934536214
1791114947574120200,4.7421201171875,-3.9660365511029956,-8.957514466330409,0.4515189386570826
1791114947584191200,4.752191162109375,-3.97251831433773,-8.955518908599018,0.43378012407720085
1791114947594262300,4.76226220703125,-3.9729149124398826,-8.95615019223988,0.41677930491566656
1791114947604333300,4.772333251953125,-3.9785698694616554,-8.954465015631914,0.3986526965945959
1791114947614404000,4.782404052734375,-3.9875820279568432,-8.951088817197084,0.384172299288772
1791114947624475100,4.79247509765625,-4.000011301419138,-8.94609816930294,0.37097653496600685
1791114947634546200,4.802546142578125,-4.012091907574236,-8.941158374813199,0.35945681409668173
1791114947644617200,4.8126171875,-4.017044269284606,-8.939483719599247,0.34551523637529463
1791114947654688300,4.822688232421875,-4.017270479255915,-8.93986833500266,0.3326921412898227
1791114947664759300,4.83275927734375,-4.019549237842858,-8.939190289610623,0.32324111645333464
1791114947674830000,4.842830078125,-4.020536787575483,-8.939043574616312,0.314894399596937
1791114947684901000,4.852901123046875,-4.018834075310826,-8.940095129495859,0.3066997680297121
1791114947694972200,4.86297216796875,-4.019992597696185,-8.939788840025663,0.30037009008415044
1791114947705043200,4.873043212890625,-4.013766562788188,-8.942792113494873,0.29415243941200897
1791114947715114200,4.8831142578125,-4.008588283367454,-8.945243598300218,0.29019913520896806
1791114947725185300,4.893185302734375,-4.011187359949946,-8.94415697210729,0.2877703736920841
1791114947735256300,4.90325634765625,-4.00760979372412,-8.945771421566604,0.28742866584863513
1791114947745327400,4.913327392578125,-4.000783454835415,-8.948754821291566,0.2896573564824648
1791114947755398400,4.9233984375,-4.001009080284834,-8.948507568532229,0.2941296247920021
1791114947765468400,4.933468505859375,-3.9913191686585545,-8.952726647531986,0.29741575205689297
1791114947775539500,4.94353955078125,-3.9793773864522572,-8.957950519660114,0.3001323906044476
1791114947785610200,4.9536103515625,-3.9823189928621052,-8.95639043073654,0.3075738474505022
1791114947795681300,4.963681396484375,-3.9869010599553585,-8.953861789041756,0.3214970127323642
1791114947805752300,4.97375244140625,-3.9821769540429113,-8.955486759895086,0.3345383536783978
1791114947815823400,4.9838232421875,-3.9780619199395177,-8.956813624584674,0.3477234504766762
1791114947825894400,4.993894287109375,-3.9690585292726754,-8.960237169292569,0.3620861396869644
1791114947835965400,5.00396533203125,-3.960392407736182,-8.963277267640828,0.38122627243213353
1791114947846036200,5.0140361328125,-3.9692651577606797,-8.95816620823741,0.4081400348534807
1791114947856107300,5.024107177734375,-3.9772579100802536,-8.9531679615587,0.43884186444617806
1791114947866178300,5.03417822265625,-3.9767870776981114,-8.952007685607672,0.46594325839411466
1791114947876249300,5.044249267578125,-3.976427888996899,-8.950850916787982,0.4906013873757794
1791114947886320400,5.0543203125,-3.9797985344737765,-8.948031183192134,0.5141401934713125
1791114947896391400,5.064391357421875,-3.980515742832422,-8.946102260956168,0.5414204145848751
1791114947906462000,5.0744619140625,-3.9843955068752166,-8.942323911461234,0.5743034972067922
1791114947916533000,5.084532958984375,-3.9826632762551304,-8.94108180244565,0.604847104030475
1791114947926604000,5.09460400390625,-3.981401585756242,-8.939715774789452,0.6327123584903777
1791114947936675000,5.104675048828125,-3.9910853599026797,-8.933183742672204,0.6632110301937908
1791114947946746000,5.11474609375,-4.003464656743407,-8.924888208013773,0.6992951008141041
1791114947956817200,5.124817138671875,-4.00139807960242,-8.923098401987552,0.7331501702733337
1791114947966888000,5.134887939453125,-3.99722108617872,-8.922646566566824,0.7608994702033698
1791114947976959000,5.144958984375,-3.9902559233412145,-8.923570111152529,0.7862241002697498
1791114947987030000,5.155030029296875,-3.9867067064270376,-8.922740674591063,0.813172532145679
1791114947997101000,5.16510107421875,-3.9949022878423333,-8.916371724081039,0.8422870560143142
1791114948007172000,5.175172119140625,-3.996476697552204,-8.912961038854718,0.8704496859855949
1791114948017243100,5.1852431640625,-3.994619379247725,-8.911779135593772,0.8908389054764062
1791114948027313000,5.19531298828125,-3.997334483425319,-8.909105532470345,0.9052805416744202
1791114948037384000,5.205384033203125,-4.006341088962555,-8.903062745174765,0.9247071266781538
1791114948047455000,5.215455078125,-4.008307712860405,-8.900357577869295,0.94206348127909
1791114948057526000,5.225526123046875,-4.007404334279895,-8.89926744454503,0.9561004821989685
1791114948067597000,5.23559716796875,-4.0115424569979306,-8.896324376830458,0.9660846275314688
1791114948077667800,5.245667724609375,-4.0211262779012324,-8.890580864742399,0.9790355867803097
1791114948087739000,5.25573876953125,-4.0396176278814675,-8.880285096177458,0.9961983185052871
1791114948097810000,5.265809814453125,-4.060971966077387,-8.868954723867773,1.010217783768475
1791114948107881000,5.275880859375,-4.061623123462498,-8.86868292118907,1.0099853632520883
1791114948117952000,5.285951904296875,-4.042427132344246,-8.878016566723584,1.0049763759836554
1791114948128023000,5.29602294921875,-4.032877213710546,-8.88231572522223,1.005362014300376
1791114948138093800,5.30609375,-4.033448876118659,-8.881517268320918,1.0101146156549454
1791114948148164900,5.316164794921875,-4.039439348705113,-8.87858472200036,1.011948260822892
1791114948158236000,5.32623583984375,-4.040894515949487,-8.878630899229645,1.0057169652178883
1791114948168307000,5.336306884765625,-4.037662402160466,-8.881149604052304,0.9964167104963213
1791114948178378000,5.3463779296875,-4.029994936272502,-8.885293864250183,0.9904865167297422
1791114948188449000,5.356448974609375,-4.025184321120381,-8.887679882603884,0.9886440306682139
1791114948198520000,5.36652001953125,-4.021870082005858,-8.889826246982812,0.9828148130580783
1791114948208591000,5.376591064453125,-4.0154073157325385,-8.893811517226695,0.9731510587863623
1791114948218662100,5.386662109375,-4.017135162438452,-8.894313621529935,0.961344301136583
1791114948228733200,5.396733154296875,-4.015468690530955,-8.895832793921231,0.9542236554764211
1791114948238804200,5.40680419921875,-4.013431924006342,-8.897314556911587,0.9489633237954228
1791114948248875300,5.416875244140625,-4.012291814060509,-8.898841328087448,0.9394332058407365
1791114948258946000,5.426946044921875,-4.0093738807871935,-8.901441281452774,0.9271651873547583
1791114948269017000,5.43701708984375,-3.999949049837887,-8.907185962584615,0.9126002170380204
1791114948279088000,5.447088134765625,-3.9904426780849693,-8.912810816729069,0.8992042905006558
1791114948289159200,5.4571591796875,-3.991245518900454,-8.913570110663771,0.8880432834085077
1791114948299229200,5.467229248046875,-3.994512411741912,-8.912827767863869,0.8807609443806111
1791114948309300000,5.477300048828125,-3.9973388673394914,-8.912104129764437,0.8752560633540153
1791114948319371000,5.48737109375,-3.99735143456012,-8.912554796141386,0.8706003465026616
1791114948329442000,5.497442138671875,-3.9943548830926416,-8.914381427046656,0.8656346869193017
1791114948339513000,5.50751318359375,-3.9899773986607787,-8.916790241754054,0.8610032277263701
1791114948349584100,5.517584228515625,-3.988197529506683,-8.917634291362761,0.8604960088565945
1791114948359655200,5.5276552734375,-3.9918969685465093,-8.915525336384773,0.8651868700865656
1791114948369726000,5.537725830078125,-3.9974110557928677,-8.91213744751215,0.8745825480066239
1791114948379797000,5.547796875,-4.007515393438935,-8.906720683160424,0.8834742949925363
1791114948389868000,5.557867919921875,-4.022030825525522,-8.89939837744832,0.891259907367453
1791114948399939000,5.56793896484375,-4.032103306728601,-8.893867631328105,0.9009094139181077
1791114948410010000,5.578010009765625,-4.037376863217354,-8.89046571393013,0.9108183020573108
1791114948420081200,5.5880810546875,-4.0373248407691715,-8.88943929349184,0.9210059340726584
1791114948430152000,5.59815185546875,-4.040175846286118,-8.886541818484664,0.9363368472605943
1791114948440223000,5.608222900390625,-4.045938355335593,-8.881983132266997,0.9545325752951204
1791114948450294000,5.6182939453125,-4.047546667315066,-8.879619325745105,0.9695880325425416
1791114948460365000,5.628364990234375,-4.04412487617284,-8.880435318303107,0.9763732357032596
1791114948470436000,5.63843603515625,-4.032169357702136,-8.885331858173013,0.9812582312658429
1791114948480507100,5.648507080078125,-4.022532637567818,-8.888601089102028,0.991160178207606
1791114948490578000,5.658577880859375,-4.016567591683566,-8.890057717651128,1.002218601708114
1791114948500649000,5.66864892578125,-4.014565896472335,-8.890144811412691,1.0094437306560575
1791114948510720000,5.678719970703125,-4.012572676828503,-8.891252480393648,1.007608770313859
1791114948520791000,5.688791015625,-4.008137616990506,-8.893902118119597,1.001864673703909
1791114948530862000,5.698862060546875,-4.004945250689983,-8.896237867590784,0.993857527532801
1791114948540933000,5.70893310546875,-4.002319578361511,-8.898379555794596,0.985221655004099
1791114948551004000,5.71900390625,-4.002865229545534,-8.899071629711985,0.9767232912499457
1791114948561074000,5.729073974609375,-4.007465124556422,-8.897780420857668,0.9696052759382873
1791114948571146000,5.73914599609375,-4.0141722209796304,-8.896110441818832,0.9570878858011216
1791114948581216000,5.749216064453125,-4.020883701317012,-8.895068823811412,0.9384185489054768
1791114948591287000,5.759287109375,-4.029712027677894,-8.892978573533892,0.9201867997094988
1791114948601357800,5.76935791015625,-4.034328289301693,-8.89277749800384,0.9017048020794988
1791114948611428900,5.779428955078125,-4.021580743670463,-8.900799476417898,0.8792393608365208
1791114948621500000,5.7895,-4.000494408760964,-8.913086126539111,0.8504960083678365
1791114948631571000,5.799571044921875,-3.9852687825784083,-8.922320987874269,0.8247393435597419
1791114948641642000,5.80964208984375,-3.988634167358279,-8.922603311946988,0.8051912510681897
1791114948651713000,5.819713134765625,-3.993725937539339,-8.921707239890099,0.7897253863889724
1791114948661783800,5.82978369140625,-3.9885920817822216,-8.925932748630643,0.767612631041184
1791114948671854800,5.839854736328125,-3.9773514335826037,-8.93341462881863,0.7383569451361894
1791114948681926000,5.84992578125,-3.965919062203169,-8.940584374317526,0.712612409157306
1791114948691997000,5.859996826171875,-3.9634649470493195,-8.942969223627447,0.6961690046828239
1791114948702068000,5.87006787109375,-3.966951327860355,-8.942634292584657,0.6804182586476206
1791114948712139000,5.880138916015625,-3.9728424317255615,-8.941544159260392,0.6600668869491666
1791114948722210000,5.8902099609375,-3.9821100262865423,-8.939004411649703,0.6382705040741712
1791114948732281000,5.900281005859375,-3.990243648381531,-8.93660494929254,0.6208443721726536
1791114948742352100,5.91035205078125,-4.002427422650158,-8.93218479476273,0.6058412296343595
1791114948752423200,5.920423095703125,-4.01303707946986,-8.928252716010808,0.5934940449649467
1791114948762494200,5.930494140625,-4.013013406333327,-8.929224775913358,0.5788392774729058
1791114948772565200,5.940565185546875,-4.014477633666992,-8.929615821057558,0.5624120204156264
1791114948782636300,5.95063623046875,-4.018999787266552,-8.928385987001658,0.5495063981458544
1791114948792707000,5.96070703125,-4.030740493942797,-8.923888675582408,0.5364032440099865
1791114948802778000,5.970778076171875,-4.040394165211915,-8.920487342706322,0.520119048685208
1791114948812849200,5.98084912109375,-4.044325951702892,-8.919739739209414,0.5020333568964154
1791114948822920200,5.990920166015625,-4.04033045232594,-8.922479977828264,0.4852510758563876
1791114948832990000,6.000989990234375,-4.033137033690512,-8.926480445641278,0.47132096937708556
1791114948843061000,6.01106103515625,-4.029266037476063,-8.928898028177022,0.4584426004404202
1791114948853132000,6.021132080078125,-4.033012822788954,-8.92806333091855,0.441428300742805
1791114948863203000,6.031203125,-4.039511244897544,-8.926084139800071,0.4216065789416432
1791114948873274000,6.041274169921875,-4.047248268890381,-8.923295385864376,0.40614513470921665
1791114948883345200,6.05134521484375,-4.056288192175328,-8.919592439693211,0.3971931454360485
1791114948893416200,6.061416259765625,-4.062390600703656,-8.917316895976661,0.3857843375952914
1791114948903487000,6.071487060546875,-4.059065547934174,-8.91950593045354,0.36985085540432483
1791114948913558500,6.08155859375,-4.0576799387946725,-8.920742778772116,0.3549151886116713
1791114948923629600,6.091629638671875,-4.064325075897574,-8.918025336506963,0.34709779285900294
1791114948933700600,6.10170068359375,-4.075900947400927,-8.912903755709529,0.3428439348068088
1791114948943771400,6.111771484375,-4.074858160349726,-8.913728516095876,0.33367669534776356
1791114948953842400,6.121842529296875,-4.065007505203783,-8.918704550942778,0.3206451816760003
1791114948963913500,6.13191357421875,-4.059446948467195,-8.921475769221782,0.3139231068793684
1791114948973984500,6.141984619140625,-4.060022118006646,-8.921046145632863,0.31866431005708873
1791114948984055600,6.1520556640625,-4.064077238616347,-8.918939528742433,0.3258499472448602
1791114948994126600,6.162126708984375,-4.065326946416497,-8.91829187848866,0.3279791778258979
1791114949004197400,6.172197265625,-4.05698523452878,-8.92217076574862,0.3257901798816398
1791114949014268400,6.182268310546875,-4.050778196582198,-8.925075255018472,0.32343229164388027
1791114949024339500,6.19233935546875,-4.05054117295593,-8.925206187921763,0.32277298748493194
1791114949034410500,6.202410400390625,-4.051057013523579,-8.925013880220055,0.32162484036311506
1791114949044481500,6.2124814453125,-4.044259023946523,-8.928224074438214,0.31806283703260124
1791114949054552600,6.222552490234375,-4.0378769216939805,-8.931340745154023,0.31161724108979105
1791114949064623400,6.232623291015625,-4.034539593964815,-8.932981498098373,0.30773776930794117
1791114949074694400,6.2426943359375,-4.035782579763233,-8.932395222643017,0.3084595442438498
1791114949084765400,6.252765380859375,-4.035810636813938,-8.932440230828522,0.30678898068312555
1791114949094836500,6.26283642578125,-4.035509315779805,-8.932845889019966,0.2988985744931735
1791114949104906500,6.272906494140625,-4.0340477187946435,-8.933912056946754,0.28647501838561146
1791114949114977300,6.282977294921875,-4.0321287334308025,-8.935154165962338,0.274491461130511
1791114949125048300,6.29304833984375,-4.026277377054095,-8.938232842755317,0.2597585321020335
1791114949135119400,6.303119384765625,-4.0184024058952925,-8.942329756680131,0.23992413348238914
1791114949145190400,6.3131904296875,-4.011672805379331,-8.945945024567841,0.2166131813259795
1791114949155261400,6.323261474609375,-4.007762353937328,-8.948171468445658,0.19606221366850657
1791114949165332500,6.33333251953125,-4.008313850340247,-8.948327535790204,0.1767753476627171
1791114949175403300,6.3434033203125,-3.995912049406767,-8.954311870896817,0.1528579723120667
1791114949185474300,6.353474365234375,-3.9786107859939333,-8.962500438049435,0.12091499268501064
1791114949195545300,6.36354541015625,-3.9683550571784374,-8.967438478973508,0.08718557716575451
1791114949205616400,6.373616455078125,-3.9687764974609014,-8.967481149071455,0.058914422485814424
1791114949215687400,6.3836875,-3.973838749286532,-8.965371025049686,0.033333712466247375
1791114949225758500,6.393758544921875,-3.9822546954542397,-8.961696720451116,0.0032483733727785872
1791114949235829200,6.403829345703125,-3.987470092014968,-8.959326484188438,-0.030660744097060523
1791114949245900300,6.413900390625,-3.992591380551457,-8.956879091036319,-0.06254272795161232
1791114949255971300,6.423971435546875,-4.002549295464158,-8.952153231558203,-0.09450330716744065
1791114949266042400,6.43404248046875,-4.005988914524019,-8.95021671053767,-0.12669030641713178
1791114949276113400,6.444113525390625,-4.0089784517288205,-8.948310584655404,-0.16192379722325131
1791114949286184400,6.454184326171875,-4.015331620147824,-8.944767212960123,-0.19658168923165648
1791114949296255200,6.464255126953125,-4.02458986235857,-8.939857813608645,-0.22804655735241247
1791114949306326300,6.474326171875,-4.03593864710778,-8.933952388957142,-0.2570504969860427
1791114949316397300,6.484397216796875,-4.045069171285629,-8.928822040331363,-0.2896977980907075
1791114949326468400,6.49446826171875,-4.0419945861458775,-8.928852435469627,-0.32900377163328226
1791114949336539400,6.504539306640625,-4.035925203104317,-8.930069410043954,-0.3681996906638145
1791114949346610400,6.5146103515625,-4.036409771750868,-8.928380726304649,-0.4022275959393009
1791114949356681500,6.524681396484375,-4.041956299962103,-8.924451570162176,-0.43260395643729715
1791114949366752500,6.53475244140625,-4.047008907176554,-8.9206416564852,-0.46288116740975527
1791114949376823600,6.544823486328125,-4.051014927947521,-8.917389961212873,-0.4897235450953245
1791114949386893600,6.5548935546875,-4.049212846961617,-8.91668502781391,-0.5167098612962291
1791114949396964600,6.564964599609375,-4.044069638854265,-8.917506865590811,-0.5421763109860941
1791114949407035400,6.575035400390625,-4.048027144308388,-8.91424114179313,-0.5658293911110609
1791114949417106400,6.5851064453125,-4.0553222697526214,-8.909566135719418,-0.5868238830186426
1791114949427177500,6.595177490234375,-4.056000607405602,-8.907832443794607,-0.6080797292761504
1791114949437248500,6.60524853515625,-4.0554929501444095,-8.906642941749096,-0.6285527545928955
1791114949447319600,6.615319580078125,-4.053858042418956,-8.906059588903188,-0.6470908663243055
1791114949457390600,6.625390625,-4.051750548745692,-8.905622951051592,-0.6660195117432623
1791114949467461400,6.63546142578125,-4.048765687716007,-8.905715890032052,-0.6827214940886944
1791114949477532400,6.645532470703125,-4.046065196585655,-8.905883063292503,-0.6964155267897993
1791114949487603500,6.655603515625,-4.045074139721692,-8.90540433986485,-0.7081914509098977
1791114949497674500,6.665674560546875,-4.042418072254955,-8.90570244602859,-0.7195183891534805
1791114949507745500,6.67574560546875,-4.042207059852779,-8.905003357848525,-0.7292823158640414
1791114949517816600,6.685816650390625,-4.046593019852042,-8.902598634794353,-0.7342970752861351
1791114949527887600,6.6958876953125,-4.052834252329171,-8.899600037500262,-0.7362281164139509
1791114949537958400,6.70595849609375,-4.054226583470404,-8.898715071359277,-0.7392532363887876
1791114949548029400,6.716029541015625,-4.047085187283158,-8.901518438342213,-0.7446261615987867
1791114949558100500,6.7261005859375,-4.030474828743935,-8.908754234814642,-0.7481716521859169
1791114949568171500,6.736171630859375,-4.028216236162185,-8.910323091566562,-0.7416220844119786
1791114949578242600,6.74624267578125,-4.039811689148843,-8.906468169704079,-0.7246723378505557
1791114949588313600,6.756313720703125,-4.050670644554495,-8.902758209270239,-0.7094665854122489
1791114949598384400,6.76638427734375,-4.051355411948263,-8.90292245992124,-0.7034756744343788
1791114949608455400,6.776455322265625,-4.039600969007611,-8.908578878247738,-0.6994433501783758
1791114949618526500,6.7865263671875,-4.025239850699902,-8.91586552812457,-0.6893268106378615
1791114949628597500,6.796597412109375,-4.0217961399868125,-8.918916732388734,-0.6696643710516392
1791114949638668500,6.80666845703125,-4.026237629565596,-8.918478925493359,-0.6484674153745174
1791114949648739600,6.816739501953125,-4.022404627273977,-8.921227347418665,-0.6343161404252052
1791114949658809300,6.826809326171875,-4.013526324291527,-8.925992954385281,-0.6234077929198741
1791114949668880400,6.83688037109375,-4.011736810526251,-8.927509204167126,-0.6131378894485533
1791114949678951400,6.846951416015625,-4.013403866955637,-8.927477055463195,-0.602612038454786
1791114949689022500,6.8570224609375,-4.014745344692469,-8.927715540394187,-0.5899936721611768
1791114949699093500,6.867093505859375,-4.015271706654131,-8.928200693562626,-0.5789718908766284
1791114949709164300,6.877164306640625,-4.014622595095634,-8.929260431748627,-0.5670141804488376
1791114949719235300,6.8872353515625,-4.018846934792399,-8.928096648666262,-0.5552789536653087
1791114949729306400,6.897306396484375,-4.025878148603439,-8.925649840036034,-0.5435581572659314
1791114949739377400,6.90737744140625,-4.037160882379115,-8.921129147741198,-0.5340107593828812
1791114949749448400,6.917448486328125,-4.043832907488942,-8.9185899846524,-0.5258648257955908
1791114949759519500,6.92751953125,-4.042228979423642,-8.91987417924404,-0.5163454118980094
1791114949769590300,6.93759033203125,-4.04160792491585,-8.92058378881812,-0.5088870952486991
1791114949779661300,6.947661376953125,-4.04627854707539,-8.918936606132984,-0.5005904280791059
1791114949789732400,6.957732421875,-4.051649134197831,-8.916800178626179,-0.49516438444238153
1791114949799803400,6.967803466796875,-4.059795908035338,-8.913339224517346,-0.49074539895635094
1791114949809874400,6.97787451171875,-4.057481785874068,-8.914571981182695,-0.4874884795196354
1791114949819945500,6.987945556640625,-4.048833492255211,-8.91847775644958,-0.48794038800559936
1791114949830016300,6.998016357421875,-4.045238390372694,-8.920181053236126,-0.4866336527885869
1791114949840087300,7.00808740234375,-4.049211677917838,-8.918571864473819,-0.48305458872541784
1791114949850158300,7.018158447265625,-4.053820633018017,-8.916700225383043,-0.47894397506881503
1791114949860229400,7.0282294921875,-4.056507095623016,-8.915683157294987,-0.4751232842694968
1791114949870300400,7.038300537109375,-4.057963724172115,-8.915202095779776,-0.4716803772740066
1791114949880371500,7.048371337890625,-4.05969946192354,-8.914680702254175,-0.466577245448716
1791114949890442500,7.0584423828125,-4.066839689067006,-8.911723021492362,-0.4608651879448443
1791114949900513500,7.068513427734375,-4.070195429235697,-8.910409016284346,-0.4566262352008372
1791114949910584000,7.078583984375,-4.069442272780836,-8.910784279337525,-0.4560138754561543
1791114949920655000,7.088655029296875,-4.0656764905065295,-8.912559472316502,-0.4548909358408302
1791114949930726000,7.098725830078125,-4.0610137593925,-8.91465322972536,-0.4555398647362366
1791114949940796000,7.1087958984375,-4.06292426918894,-8.913875815612077,-0.4537140740811825
1791114949950867000,7.118866943359375,-4.067817301927507,-8.911884934055804,-0.44895727147553116
1791114949960938000,7.12893798828125,-4.075395335966348,-8.908635576871037,-0.44469022514820095
1791114949971009000,7.139009033203125,-4.078621896797419,-8.907278317043184,-0.4422979231841862
1791114949981079800,7.149079833984375,-4.0807805361360305,-8.90637406167984,-0.4405864430911839
1791114949991150800,7.15915087890625,-4.083596762600541,-8.905265223655103,-0.4369087409591302
1791114950001222000,7.169221923828125,-4.084529951797426,-8.905029661333561,-0.4329292063362896
1791114950011293000,7.17929296875,-4.084064672373235,-8.905285681921242,-0.4320639678090811
1791114950021364000,7.189364013671875,-4.07915059684664,-8.907578761294484,-0.43122072191797195
1791114950031435000,7.19943505859375,-4.079613830444217,-8.90745484265387,-0.4293899993594736
1791114950041505800,7.209505859375,-4.083322329573333,-8.905983601057528,-0.42462457505594936
1791114950051576800,7.219576904296875,-4.0842219087615605,-8.905773173177241,-0.4203970935540274
1791114950061648000,7.22964794921875,-4.086472610297799,-8.904733308735489,-0.4205378171989694
1791114950071719000,7.239718994140625,-4.0860716282814735,-8.904889960601926,-0.4211083105633035
1791114950081790000,7.2497900390625,-4.087710627660155,-8.904124236926435,-0.4213990006055683
1791114950091861000,7.259861083984375,-4.085619792860746,-8.904967702013254,-0.4238619566529989
1791114950101931800,7.269931884765625,-4.078769488574564,-8.908115936911106,-0.42366420559119433
1791114950112002800,7.2800029296875,-4.0718060793027275,-8.911322623997926,-0.4232158773018047
1791114950122073900,7.290073974609375,-4.06843660286963,-8.912931228238344,-0.4217530016750097
1791114950132145000,7.300144775390625,-4.0699455461278555,-8.912456011942028,-0.41720509257968513
1791114950142216000,7.3102158203125,-4.068059293989837,-8.91349879899323,-0.4133137111643329
1791114950152287000,7.320286865234375,-4.067740145038068,-8.913743713665008,-0.4111673467854038
1791114950162357800,7.330357666015625,-4.070268786732853,-8.912700342091917,-0.4087662769930437
1791114950172428800,7.3404287109375,-4.076463257458806,-8.910051873409747,-0.4047381174555048
1791114950182499800,7.350499755859375,-4.079068471521139,-8.909074552810191,-0.3999501525266096
1791114950192571000,7.36057080078125,-4.075322270730138,-8.91088832423389,-0.3977489526879042
1791114950202642000,7.370641845703125,-4.067153869582713,-8.914735062789916,-0.39514001229852436
1791114950212713000,7.380712890625,-4.066702618683874,-8.915266977709532,-0.3877215527355671
1791114950222783000,7.390782958984375,-4.069989093008637,-8.914251078665256,-0.37644203383028507
1791114950232854000,7.40085400390625,-4.0707191608488555,-8.914348109298944,-0.36611667384468016
1791114950242925000,7.410925048828125,-4.072049824930727,-8.914142357593775,-0.3561775732303038
1791114950252995800,7.420995849609375,-4.065236930045486,-8.917638383015989,-0.34636889406256377
1791114950263067000,7.43106689453125,-4.057637268696725,-8.921447712171076,-0.33725718418303874
1791114950273138000,7.441137939453125,-4.0560678274229165,-8.922536091929674,-0.32717125897649674
1791114950283209000,7.451208984375,-4.056465010046959,-8.922798542258143,-0.31486024159900844
1791114950293280000,7.461280029296875,-4.05557682903558,-8.923629732385278,-0.30252889381954445
1791114950303351000,7.47135107421875,-4.054795031008124,-8.92435044787526,-0.29153460333012043
1791114950313422000,7.481422119140625,-4.052145393282175,-8.925884233313798,-0.2812352363022975
1791114950323493000,7.4914931640625,-4.053555260080099,-8.92554813322723,-0.2714068660533987
1791114950333564200,7.501564208984375,-4.064881540736556,-8.92081116783321,-0.2573911453835666
1791114950343635000,7.511635009765625,-4.076464426502585,-8.915928656488656,-0.24297248820234088
1791114950353706000,7.5217060546875,-4.080057190297544,-8.91444630897641,-0.2370321566342376
1791114950363777000,7.531777099609375,-4.076935258884728,-8.915993538418412,-0.2324945680035278
1791114950373848000,7.54184814453125,-4.068564905424416,-8.919964780136942,-0.226735657416936
1791114950383919000,7.551919189453125,-4.064283282582462,-8.92211348260343,-0.21879315571356564
1791114950393990100,7.561990234375,-4.066149368715286,-8.921571630811691,-0.20583651564260944
1791114950404061000,7.57206103515625,-4.068235819600522,-8.920868450978398,-0.19481425943402572
1791114950414132000,7.582132080078125,-4.065914098654687,-8.92198196517825,-0.19227663071518764
1791114950424203000,7.592203125,-4.062838344471157,-8.92340059980452,-0.1914254024470225
1791114950434274000,7.602274169921875,-4.064715536519885,-8.922645397523045,-0.18673032169966025
1791114950444345000,7.612344970703125,-4.062310228943825,-8.92386938636005,-0.1805424816438928
1791114950454416100,7.622416015625,-4.058982838086783,-8.925503125041724,-0.17450400519724935
1791114950464487000,7.63248681640625,-4.054258439913392,-8.927751780751347,-0.169222831657622
1791114950474558000,7.642557861328125,-4.052068820914626,-8.928834315291047,-0.16442726794416085
1791114950484629000,7.65262890625,-4.051962145669758,-8.928936606621741,-0.16151201981827615
1791114950494700000,7.662699951171875,-4.057630546694994,-8.926368217438458,-0.16116441195700318
1791114950504771000,7.67277099609375,-4.062202092394233,-8.924208409056067,-0.1656022665402852
1791114950514840800,7.6828408203125,-4.059998444870114,-8.925072916930914,-0.1728827606709674
1791114950524911900,7.692911865234375,-4.060194844225049,-8.924863658094406,-0.17894869138011707
1791114950534983000,7.70298291015625,-4.059734240975976,-8.925003358826041,-0.18234717471199108
1791114950545054000,7.713053955078125,-4.063888730306923,-8.923069760414958,-0.18446321701789273
1791114950555125000,7.723125,-4.068858043152094,-8.920700108674168,-0.189419980908744
1791114950565196000,7.733196044921875,-4.0734895023450255,-8.918424564957618,-0.1969485680489801
1791114950575266800,7.743266845703125,-4.074330629344284,-8.917852902549505,-0.20518333069719372
1791114950585337900,7.753337890625,-4.0675285481140016,-8.920745701381563,-0.2142511831686832
1791114950595409000,7.763408935546875,-4.062620025545359,-8.922768147119879,-0.22294326113034038
1791114950605480000,7.77347998046875,-4.061151122036576,-8.923218228974937,-0.23157270391825585
1791114950615551000,7.783551025390625,-4.062649251639843,-8.922344953271747,-0.23882758868364615
1791114950625622000,7.7936220703125,-4.057961386084556,-8.924215423318744,-0.24840373773714525
1791114950635692800,7.80369287109375,-4.05443876491636,-8.925473314425348,-0.26041876784274354
1791114950645763800,7.813763916015625,-4.052781937620043,-8.925948530721664,-0.269796106388513
1791114950655835000,7.8238349609375,-4.061438999067247,-8.921810115742684,-0.2764053867267445
1791114950665906000,7.833906005859375,-4.073557599145174,-8.916004644334317,-0.28527338751088827
1791114950675977000,7.84397705078125,-4.076536030434072,-8.914159308728575,-0.3000157054222189
1791114950686048000,7.854048095703125,-4.077939175230265,-8.91303410409093,-0.3140509710427373
1791114950696118800,7.864118896484375,-4.08022348677516,-8.91170665487945,-0.3219297415938228
1791114950706189800,7.87418994140625,-4.088705776177346,-8.907694496628642,-0.3253357141124084
1791114950716260900,7.8842607421875,-4.101734476837516,-8.901643526026605,-0.3269545109532773
1791114950726332000,7.894331787109375,-4.108603485824167,-8.898220565840601,-0.33383601409532127
1791114950736403000,7.90440283203125,-4.106348400373757,-8.898824961474537,-0.3452599099073559
1791114950746474000,7.914473876953125,-4.111567304065823,-8.896001136225461,-0.35575441591478885
1791114950756544800,7.924544677734375,-4.119581391434371,-8.891942800745367,-0.36439434356410055
1791114950766615800,7.93461572265625,-4.12726726976186,-8.887865760564804,-0.37667496580332516
1791114950776686800,7.944686767578125,-4.135117106479406,-8.883625638777017,-0.39039289083667095
1791114950786758000,7.9547578125,-4.133367924724519,-8.883783459687232,-0.40501503470074385
1791114950796829000,7.964828857421875,-4.12489878706485,-8.886981963467598,-0.42088648450616745
1791114950806899000,7.97489892578125,-4.12153281776309,-8.88791076875031,-0.43404670259151606
1791114950816970000,7.984969970703125,-4.119103544789552,-8.888402936181425,-0.44684298273529854
1791114950827041000,7.995041015625,-4.117525920209288,-8.888485938289762,-0.4595473468119278
1791114950837112000,8.005112060546875,-4.115420472362637,-8.888768262362479,-0.47276433658581224
1791114950847183000,8.01518310546875,-4.112182221093773,-8.889608804839849,-0.4849807344824075
1791114950857254100,8.025254150390625,-4.1095828522503375,-8.89001621659696,-0.4993286645149812
1791114950867325000,8.035324951171875,-4.108311517140269,-8.889794682800769,-0.5135292584987357
1791114950877396000,8.04539599609375,-4.110212090064585,-8.88817029646933,-0.5262690592149272
1791114950887467000,8.055467041015625,-4.113806607425213,-8.885817011341452,-0.5378144259821623
1791114950897538000,8.0655380859375,-4.1138691512674095,-8.885122014814614,-0.5487014019059017
1791114950907609300,8.075609375,-4.110105414819717,-8.886104596111178,-0.560855438623391
1791114950917680400,8.085680419921875,-4.107485295449197,-8.886477521076799,-0.5739962944211437
1791114950927751400,8.09575146484375,-4.103878795389831,-8.887263118496536,-0.5874747481428086
1791114950937822200,8.105822265625,-4.1061999318137765,-8.885307308253646,-0.600684760186635
1791114950947893200,8.115893310546875,-4.105966999840736,-8.884574317803978,-0.6130005268044769
1791114950957964300,8.12596435546875,-4.107247687301039,-8.883028841927647,-0.6266514510162174
1791114950968035300,8.136035400390625,-4.104947885926068,-8.883232840067148,-0.6387315457146614
1791114950978106400,8.1461064453125,-4.103786440931261,-8.882836534225941,-0.651561143606156
1791114950988177400,8.156177490234375,-4.102875463566184,-8.88231397165656,-0.6643045975841582
1791114950998248200,8.166248291015625,-4.103351556645333,-8.881076538816094,-0.6777678172040731
1791114951008319200,8.1763193359375,-4.098367923013866,-8.882235645723343,-0.6925671077333391
1791114951018390300,8.186390380859375,-4.086346938091516,-8.886594425454735,-0.707527214847505
1791114951028461300,8.19646142578125,-4.077410182920098,-8.889508851596712,-0.7223255555287003
1791114951038532400,8.206532470703126,-4.07576475380063,-8.889506513509154,-0.7315611475162208
1791114951048603400,8.216603271484376,-4.08025972713232,-8.886951568329334,-0.7375389067515731
1791114951058674400,8.22667431640625,-4.084658546613157,-8.884393116018176,-0.7439879367604851
1791114951068745200,8.2367451171875,-4.087695137830078,-8.882074902203678,-0.7549035177242011
1791114951078816300,8.246816162109376,-4.086989327648282,-8.881372891414165,-0.7668922078121453
1791114951088886300,8.25688623046875,-4.088471090638637,-8.879817478665709,-0.7769332709636538
1791114951098957300,8.266957275390626,-4.094022587285935,-8.876562860783935,-0.7848577072873711
1791114951109028000,8.277028076171876,-4.100853894610703,-8.872768729197979,-0.7920566058155148
1791114951119099100,8.28709912109375,-4.106658196975291,-8.86948254713416,-0.7987550074756145
1791114951129170200,8.297170166015626,-4.107055087338388,-8.868605179777742,-0.8064207197979092
1791114951139241200,8.3072412109375,-4.1048578695550555,-8.868647849875687,-0.8170720968674868
1791114951149312300,8.317312255859376,-4.104900539653003,-8.86782192044556,-0.8257727782607078
1791114951159383300,8.32738330078125,-4.105971676015853,-8.86683407845199,-0.8310526183597743
1791114951169454000,8.3374541015625,-4.109717000024021,-8.864420587569475,-0.8382489596046507
1791114951179525000,8.347525146484376,-4.114320109905302,-8.861849860298634,-0.8428326341331005
1791114951189596200,8.35759619140625,-4.1144428595021365,-8.86113031385243,-0.8497677671585232
1791114951199667200,8.367667236328124,-4.108054619769752,-8.863096060967445,-0.8601231569562107
1791114951209738200,8.37773828125,-4.10047600120902,-8.86588306133747,-0.8675207929268479
1791114951219809300,8.387809326171874,-4.0974630831286305,-8.867118740612268,-0.8691267668187618
1791114951229880300,8.39788037109375,-4.095750433991849,-8.867586942645907,-0.8724179903838784
1791114951239951000,8.407951171875,-4.092017969465256,-8.869012591534853,-0.8754353654436766
1791114951250022100,8.418022216796874,-4.089678420601785,-8.869740321287512,-0.8789818789441138
1791114951260093200,8.42809326171875,-4.085911177022755,-8.871257740113139,-0.8811961209274828
1791114951270164200,8.438164306640624,-4.086473487080633,-8.87093742211759,-0.8818102342378348
1791114951280235300,8.4482353515625,-4.089679005123674,-8.869321219092607,-0.8831987659867853
1791114951290306300,8.458306396484375,-4.092477695931494,-8.867741840946675,-0.8860898843184113
1791114951300377000,8.468377197265625,-4.098110733382404,-8.864826245760916,-0.8892239445604383
1791114951310448000,8.4784482421875,-4.100283985768258,-8.863524515512585,-0.8921857169754802
1791114951320519200,8.488519287109375,-4.093018670940399,-8.866094658261536,-0.8999714024156331
1791114951330590200,8.498590087890625,-4.080090508045256,-8.871145511910319,-0.9088592769440264
1791114951340661200,8.5086611328125,-4.075626806634665,-8.872772820851207,-0.9129938925307244
1791114951350732300,8.518732177734375,-4.077134288588166,-8.872285329595208,-0.9110019149959087
1791114951360803000,8.528802978515625,-4.081474948140978,-8.870632886213064,-0.9076372608684002
1791114951370874000,8.5388740234375,-4.095323440751433,-8.864127157580851,-0.908829685523361
1791114951380945200,8.548945068359375,-4.105554035125673,-8.858619792336224,-0.9163410110015422
1791114951391015200,8.55901513671875,-4.102971325156092,-8.858564262756705,-0.9283679142080247
1791114951401086200,8.569086181640625,-4.09663569239378,-8.860709458091854,-0.9358332085873932
1791114951411157200,8.5791572265625,-4.091034511385858,-8.863222902217506,-0.9365389457039535
1791114951421228300,8.589228271484375,-4.09249377028346,-8.862494003421068,-0.9370533249668777
1791114951431299300,8.59929931640625,-4.105884874515235,-8.856404454374314,-0.9360442940548062
1791114951441370400,8.609370361328125,-4.117911704656482,-8.850481494066118,-0.9392284770488738
1791114951451441400,8.61944140625,-4.121759027734399,-8.847670528298616,-0.9488011189710348
1791114951461512400,8.629512451171875,-4.117002188596129,-8.848844248253107,-0.9584540595877915
1791114951471583200,8.639583251953125,-4.112494063521922,-8.850373357516526,-0.9636709905184805
1791114951481654300,8.649654296875,-4.1140170353054994,-8.849500081813336,-0.9651947660196571
1791114951491725300,8.659725341796875,-4.124185670359433,-8.84488645053804,-0.9640854165382683
1791114951501796400,8.66979638671875,-4.1317736412703985,-8.841331972926854,-0.9642056819170712
1791114951511867400,8.679867431640625,-4.138516393528878,-8.837540763950347,-0.9700246703941374
1791114951521938400,8.6899384765625,-4.144347583900392,-8.833978687554596,-0.9775499513324349
1791114951532009200,8.70000927734375,-4.144138909585774,-8.833102489241957,-0.9863039703480899
1791114951542080300,8.710080322265625,-4.136346356013417,-8.835684322428703,-0.995845121153444
1791114951552151300,8.7201513671875,-4.131523173640669,-8.837297018322348,-1.0015428213384001
1791114951562222300,8.730222412109375,-4.132428013525903,-8.837073730960487,-0.9997782958839088
1791114951572293400,8.74029345703125,-4.142005989210308,-8.83328252198398,-0.9936297831915318
1791114951582364400,8.750364501953126,-4.148388968245685,-8.83043005516231,-0.9923526759278029
1791114951592435200,8.760435302734376,-4.144011483813822,-8.83186680996716,-0.9978399482324719
1791114951602506200,8.77050634765625,-4.126779486244916,-8.83934226041436,-1.0030537373580037
1791114951612577300,8.780577392578126,-4.11211324751079,-8.84656227479577,-0.9996274892363697
1791114951622648300,8.7906484375,-4.111749090373515,-8.848396504485606,-0.9847814369559288
1791114951632719400,8.80071923828125,-4.116074844618141,-8.848082031708955,-0.9694015700597316
1791114951642790400,8.810790283203126,-4.119373301641643,-8.847603308281302,-0.9597249563064426
1791114951652861200,8.820861083984376,-4.119915445694327,-8.84777223510742,-0.9558343786086887
1791114951662932200,8.83093212890625,-4.121415328863263,-8.847619090372323,-0.9507654778465628
1791114951673003300,8.841003173828126,-4.122967234480381,-8.847878033569454,-0.9415794971544295
1791114951683074300,8.85107421875,-4.129958408541977,-8.846197533136605,-0.9266129602994769
1791114951693144300,8.861144287109376,-4.129033987173438,-8.84805280561447,-0.9129181238807738
1791114951703215000,8.871215087890626,-4.118030947121977,-8.854276210173964,-0.9022218116909265
1791114951713286100,8.8812861328125,-4.115522471432388,-8.856911819374561,-0.8876815374240279
1791114951723357200,8.891357177734376,-4.120580047082901,-8.856605529904366,-0.8670375394545495
1791114951733428200,8.90142822265625,-4.12726726976186,-8.855375695848464,-0.8475674075700342
1791114951743499300,8.911499267578124,-4.133438651873171,-8.85383372710347,-0.8334815990723669
1791114951753570300,8.9215703125,-4.133519023633003,-8.854550350940228,-0.8254320019990206
1791114951763641000,8.93164111328125,-4.122627919523418,-8.86038154131174,-0.8172891006190329
1791114951773712100,8.941712158203124,-4.104046845433116,-8.870073498764633,-0.8055905525840819
1791114951783783200,8.951783203125,-4.084468869259953,-8.880394401770829,-0.7912487965639681
1791114951793854200,8.961854248046874,-4.070548772718012,-8.888155683422088,-0.7756985415369272
1791114951803925200,8.97192529296875,-4.070242775508762,-8.889986405980586,-0.7560673738718032
1791114951813996300,8.981996337890624,-4.076300175851583,-8.888998563987016,-0.7347538791429251
1791114951824067000,8.992067138671874,-4.08042748491466,-8.888457296717167,-0.7182111790124327
1791114951834138000,9.00213818359375,-4.08079193431288,-8.888941865363716,-0.7100912931818515
1791114951844209200,9.012209228515625,-4.0735868252396585,-8.892802632445097,-0.7030835333116352
1791114951854280200,9.0222802734375,-4.066411819043755,-8.897129263472557,-0.6897566534224897
1791114951864351200,9.032351318359375,-4.066753179827332,-8.89807385084629,-0.6754092713791877
1791114951874422300,9.04242236328125,-4.075270248281956,-8.8953131539613,-0.6602692776534705
1791114951884493000,9.0524931640625,-4.079763760308921,-8.894278550216555,-0.6463182745166123
1791114951894564000,9.062564208984375,-4.077190402689576,-8.896109857296944,-0.6372919413655996
1791114951904635100,9.07263525390625,-4.070635281957686,-8.89965848968923,-0.6295912307951599
1791114951914706000,9.082705810546875,-4.059671404872835,-8.9055715131253,-0.61665240037553
1791114951924777000,9.09277685546875,-4.05162312297374,-8.910128445777296,-0.6036204483123496
1791114951934847700,9.10284765625,-4.05505309742242,-8.909443970644473,-0.5905510137829929
1791114951944918800,9.112918701171875,-4.060603425025939,-8.907786266565322,-0.5772578900329768
1791114951954989800,9.12298974609375,-4.058127098040282,-8.909539832234382,-0.5675257832327857
1791114951965060900,9.133060791015625,-4.049540179219842,-8.91394537371695,-0.5596311940580606
1791114951975132000,9.1431318359375,-4.035944200065732,-8.920637564831972,-0.5511575994189828
1791114951985203000,9.153202880859375,-4.0199464204668995,-8.928317013418674,-0.5436714449146762
1791114951995273000,9.16327294921875,-4.014332379977405,-8.931391598558426,-0.5345685028634966
1791114952005344000,9.173343994140625,-4.015792515657842,-8.931545912337302,-0.5208620125396177
1791114952015415000,9.1834150390625,-4.018324079962074,-8.931134993448852,-0.5082340016348287
1791114952025486000,9.193486083984375,-4.024107924060523,-8.929178598684071,-0.4967113946886733
1791114952035557000,9.20355712890625,-4.027163219977915,-8.92828661828041,-0.4879078009102493
1791114952045628000,9.2136279296875,-4.029929177559912,-8.927553627830743,-0.4783902867088094
1791114952055699000,9.223698974609375,-4.033906556758284,-8.926261834454536,-0.46887120160479095
1791114952065770000,9.23377001953125,-4.037770830971002,-8.925155919039248,-0.45647787623871117
1791114952075841000,9.243841064453125,-4.0401556802809235,-8.924712266924978,-0.4438937410082668
1791114952085912000,9.253912109375,-4.044665266659855,-8.92330941438973,-0.43084659137595444
1791114952095983000,9.263983154296875,-4.047176664958894,-8.922797957736254,-0.41764227842055257
1791114952106054000,9.274053955078125,-4.047690459699928,-8.923043456929921,-0.40728685209024695
1791114952116125000,9.284125,-4.04421956871897,-8.925013295698164,-0.3985081735573709
1791114952126196000,9.294196044921875,-4.036743826010823,-8.928652528983354,-0.3927506694765761
1791114952136267000,9.30426708984375,-4.0284357241317625,-8.932604481479524,-0.38817568971123545
1791114952146338000,9.314338134765626,-4.026420000395179,-8.933645514965058,-0.3851051962247118
1791114952156409000,9.3244091796875,-4.024218983219564,-8.93464797000587,-0.3848479700606316
1791114952166480000,9.33447998046875,-4.0272234257325525,-8.933165037971735,-0.3878439735388383
1791114952176551000,9.344551025390626,-4.028261828869581,-8.932602727913856,-0.3900216463714838
1791114952186622000,9.3546220703125,-4.032864646489918,-8.930362255510687,-0.39372923218514766
1791114952196693000,9.36469287109375,-4.033928768590092,-8.929672519680857,-0.3984470544872805
1791114952206764000,9.374763916015626,-4.033596175634861,-8.929511191639303,-0.40534320720918476
1791114952216835000,9.3848349609375,-4.037749495922029,-8.927254937145113,-0.4136340291598811
1791114952226905900,9.39490576171875,-4.0439211702942846,-8.923985121694207,-0.42377197681460527
1791114952236977000,9.404976806640626,-4.045715067973733,-8.922548951411247,-0.43668004676979033
1791114952247048000,9.4150478515625,-4.044439348949492,-8.922361319884658,-0.4520618864273652
1791114952257119000,9.425118896484374,-4.0407931014016265,-8.923187833836675,-0.4680770920850336
1791114952267190000,9.43518994140625,-4.037079341575503,-8.923959402731061,-0.48511353054922074
1791114952277261000,9.445260986328124,-4.037456065933406,-8.922813155305384,-0.5027162611266598
1791114952287330800,9.455330810546876,-4.035255633279681,-8.922717293715477,-0.5217336442749947
1791114952297401900,9.46540185546875,-4.027368387161195,-8.924884700882433,-0.5450896776821464
1791114952307473000,9.475472900390624,-4.016022232760489,-8.92836143708229,-0.5712284371430054
1791114952317544000,9.4855439453125,-4.0048111029163005,-8.931704902291298,-0.5970803059538826
1791114952327615000,9.495614990234374,-3.997534097650647,-8.933331626710295,-0.6210587455756962
1791114952337685800,9.505685791015624,-3.9955262649595733,-8.932684560978412,-0.6428907842859626
1791114952347756800,9.5157568359375,-3.9939036321938035,-8.93190480877757,-0.6634776452407241
1791114952357827800,9.525827880859374,-3.9978932863518595,-8.928552575740218,-0.684233433021605
1791114952367899000,9.53589892578125,-4.009665264949202,-8.92194806290865,-0.7012994263738394
1791114952377970000,9.545969970703124,-4.031153750918805,-8.910929825288056,-0.7180079115252942
1791114952388041000,9.556041015625,-4.048018084219098,-8.901584489315749,-0.7387323543198406
1791114952398111700,9.56611181640625,-4.0444904946148394,-8.901137330070137,-0.7630488302569836
1791114952408182800,9.576182861328125,-4.03140567985326,-8.905073500475288,-0.786006219735369
1791114952418253800,9.58625390625,-4.025691978381574,-8.905933332175016,-0.8053159003611654
1791114952428324900,9.596324951171875,-4.028348338109255,-8.903377217951416,-0.820157714857906
1791114952438396000,9.60639599609375,-4.0324063813284035,-8.900195665305853,-0.8346269697152078
1791114952448467000,9.616467041015625,-4.027749203172326,-8.900756221798062,-0.8509780197311192
1791114952458537700,9.626537841796875,-4.019168714092672,-8.902932396793364,-0.8685901757240295
1791114952468608800,9.63660888671875,-4.010968164241314,-8.90484319885075,-0.8867248212210833
1791114952478679800,9.6466796875,-4.009056777662039,-8.904503591632842,-0.8987071546334773
1791114952488750800,9.656750732421875,-4.010983069549501,-8.903076189178227,-0.9042298635777085
1791114952498822000,9.66682177734375,-4.010062739834189,-8.903167959114908,-0.9073995065897703
1791114952508893000,9.676892822265625,-4.010035559566319,-8.902939995577931,-0.9097530839785933
1791114952518963700,9.686963623046875,-4.013291931013763,-8.901426668405533,-0.9102028005074709
1791114952529034800,9.69703466796875,-4.017132239829004,-8.89967602534592,-0.9103857558589428
1791114952539105800,9.707105712890625,-4.0220802176252,-8.898083787718415,-0.9040731386460363
1791114952549176800,9.7171767578125,-4.024763173098862,-8.89753433714211,-0.8975189677622168
1791114952559248000,9.727247802734375,-4.030466353176534,-8.895545209151505,-0.8916197536557913
1791114952569319000,9.73731884765625,-4.032451097252965,-8.895224891155957,-0.8858283838380128
1791114952579389700,9.7473896484375,-4.025748677004874,-8.89881970077753,-0.8801884051896631
1791114952589460700,9.757460693359375,-4.0119811406761405,-8.905735763776303,-0.8730785001192242
1791114952599531000,9.767531005859375,-4.000940983484685,-8.912115235680341,-0.8585195942170918
1791114952609602000,9.77760205078125,-3.994027550834417,-8.917259612831472,-0.8370237286586314
1791114952619673000,9.787673095703125,-3.9894335010424253,-8.921554095155,-0.8128221843380481
1791114952629743900,9.797743896484375,-3.9829046837955713,-8.926674506908654,-0.7882510760527104
1791114952639815000,9.80781494140625,-3.9743420226335524,-8.932395222643017,-0.766352840238437
1791114952649886000,9.817885986328125,-3.9686043557643886,-8.936811870041488,-0.7442801977053284
1791114952659957000,9.82795703125,-3.968470207990706,-8.938940114241838,-0.7190188421335071
1791114952670028000,9.838028076171875,-3.9693171802088614,-8.940724075049161,-0.6916317996446043
1791114952680099000,9.84809912109375,-3.9728085294559596,-8.941232024571299,-0.6644928136326372
1791114952690169900,9.858169921875,-3.971662866552174,-8.9435443931669,-0.6397573816310614
1791114952700241000,9.868240966796876,-3.962714128682017,-8.948972263434529,-0.6190008631978183
1791114952710312000,9.87831201171875,-3.9556332305103536,-8.953540302002429,-0.5978844619436189
1791114952720383000,9.888383056640626,-3.9527302025452253,-8.956461742407082,-0.57279930318892
1791114952730454000,9.8984541015625,-3.952688116969168,-8.958120615530014,-0.5465452467853203
1791114952740525000,9.908525146484376,-3.954985580256581,-8.958505815455316,-0.5230994527354836
1791114952750595800,9.918595947265626,-3.9564585754185915,-8.958812689447402,-0.5064588086558506
1791114952760667000,9.9286669921875,-3.956026321481168,-8.959812806400656,-0.49191524645332246
1791114952770738000,9.938738037109376,-3.953843132223189,-8.961368803671002,-0.48101917390767485
1791114952780809000,9.94880908203125,-3.95158395511955,-8.962804389432073,-0.47278183570988475
1791114952790880000,9.9588798828125,-3.9543373454809188,-8.961917669725418,-0.46652390782628206
1791114952800951000,9.968950927734374,-3.9525153907507655,-8.962917202156781,-0.4627275842832401
1791114952811021800,9.979021728515624,-3.955675900608301,-8.961444206994772,-0.4642416786406189
1791114952821092900,9.9890927734375,-3.964904039941728,-8.957170182937384,-0.4679829109955579
1791114952831164000,9.999163818359374,-3.975741660298407,-8.95212342094183,-0.47259058745410293
1791114952841235000,10.00923486328125,-3.985719156694412,-8.947389378157258,-0.47817280803322787
1791114952851306000,10.019305908203124,-3.994567356799543,-8.942994358068704,-0.4865059347556904
1791114952861377000,10.029376953125,-3.9925180230543016,-8.943099572008848,-0.5011678991734981
1791114952871448000,10.039447998046874,-3.9913931106775995,-8.94261324979663,-0.5184880499498918
1791114952881518800,10.049518798828124,-3.9965822037532925,-8.939331743907928,-0.5348502789469436
1791114952891590000,10.05958984375,-4.002925435300171,-8.935421876987814,-0.5524546169595792
1791114952901661000,10.069660888671875,-4.002399365599453,-8.934493071705102,-0.5709683249020948
1791114952911731200,10.079731201171874,-4.006003527571261,-8.93153129929006,-0.5916727843545377
1791114952921802200,10.08980224609375,-4.0104803807243705,-8.928239272007346,-0.6107291478063911
1791114952931873300,10.099873291015625,-4.015601669260859,-8.924730971625447,-0.6280982888236641
1791114952941944300,10.1099443359375,-4.024585478444397,-8.919436956870555,-0.6455535006891936
1791114952952015400,10.120015380859375,-4.036582790230215,-8.91277048471868,-0.6624938218351453
1791114952962086100,10.130086181640625,-4.0418963864684105,-8.909043573150038,-0.6800157422613352
1791114952972157200,10.1401572265625,-4.044554207500815,-8.9064272531718,-0.6982170963190496
1791114952982228200,10.150228271484375,-4.046296959514915,-8.90419028789997,-0.7164287525750697
1791114952992299300,10.16029931640625,-4.0492727604553105,-8.901492719379068,-0.7329489486128091
1791114953002370300,10.170370361328125,-4.05293800496459,-8.898381309360266,-0.7502598566368222
1791114953012441300,10.18044140625,-4.062061222618818,-8.893027673372625,-0.7642653664398938
1791114953022512000,10.19051220703125,-4.066159890109301,-8.889864240905641,-0.7791352379873394
1791114953032583200,10.200583251953125,-4.068816249836981,-8.887211096048354,-0.7953510442510247
1791114953042654200,10.210654296875,-4.076908955399692,-8.882422692728042,-0.8073246098350733
1791114953052725200,10.220725341796875,-4.075910884273052,-8.88171775932908,-0.8200218865837902
1791114953062796300,10.23079638671875,-4.063023053388298,-8.885741608017682,-0.8401380612868815
1791114953072867300,10.240867431640625,-4.050006919948756,-8.889861318296193,-0.8591936210211366
1791114953082938000,10.250938232421875,-4.0444624375641345,-8.890970156320929,-0.8736986778441816
1791114953093009200,10.261009033203125,-4.047130487729609,-8.889038895997405,-0.8809734911527484
1791114953103080200,10.271080078125,-4.046831504783034,-8.888876983433962,-0.8839823175799101
1791114953113151200,10.281151123046875,-4.042124057744443,-8.890656268066166,-0.8876019693817943
1791114953123222300,10.29122216796875,-4.034363068354129,-8.8933918305099,-0.8954789133019745
1791114953133293300,10.301293212890625,-4.031586589378119,-8.893997979709505,-0.9019427024886012
1791114953143364000,10.311364013671875,-4.041602664218843,-8.888947126060724,-0.9069003979612141
1791114953153435100,10.32143505859375,-4.0521638057217,-8.883702211144566,-0.9111382547266781
1791114953163506200,10.331506103515625,-4.055976057486236,-8.880924563124776,-0.9212116127125919
1791114953173577200,10.3415771484375,-4.054170469368994,-8.880639900964498,-0.9318374900147318
1791114953183648300,10.351648193359376,-4.045489150263369,-8.883688767141104,-0.9404653984326868
1791114953193719300,10.36171923828125,-4.029301985572278,-8.889977053630352,-0.9504821308605372
1791114953203790000,10.3717900390625,-4.0107007454767825,-8.89669496370852,-0.9661774934466928
1791114953213860400,10.3818603515625,-4.0054485240370035,-8.897854655137657,-0.9772106363754719
1791114953223931400,10.391931396484376,-4.013911231955886,-8.89436155232489,-0.9742833507519215
1791114953234002400,10.40200244140625,-4.008976113641261,-8.895882478281855,-0.9806927063375711
1791114953244073500,10.412073486328126,-3.980751012893021,-8.906405041339992,-0.9999711881075054
1791114953254144300,10.422144287109376,-3.9429523203745482,-8.921464663305878,-1.0153758971840143
1791114953264215300,10.43221533203125,-3.924158772577345,-8.9287349465698,-1.0242346917483955
1791114953274286300,10.442286376953126,-3.921842604589462,-8.929418837180734,-1.0271421766929327
1791114953284357400,10.452357421875,-3.9178473974734542,-8.931070696040987,-1.0280261929858476
1791114953294428400,10.462428466796876,-3.8978564565852283,-8.939467352986336,-1.0310340695649385
1791114953304499500,10.47249951171875,-3.862143630430102,-8.954322976812719,-1.0364975226026027
1791114953314570200,10.4825703125,-3.817855575892329,-8.972271305957436,-1.0453297944862394
1791114953324641300,10.492641357421874,-3.792280405130982,-8.98222279112935,-1.052925437247008
1791114953334712300,10.50271240234375,-3.7762145287320017,-8.98919613727331,-1.0511587929006665
1791114953344783400,10.512783447265624,-3.7622856643617153,-8.995910540220141,-1.0436362153761087
1791114953354854400,10.5228544921875,-3.746598558147251,-9.00309314520061,-1.0381244662173092
1791114953364925400,10.532925537109374,-3.7200282388687134,-9.013967590436339,-1.0393073923915623
1791114953374996200,10.542996337890624,-3.6779514306396246,-9.030086950588226,-1.0490900238025933
1791114953385067300,10.5530673828125,-3.627335342124104,-9.049816317930818,-1.0552968425534666
1791114953395138300,10.56313818359375,-3.586085632368922,-9.066510263100266,-1.0529897346548736
1791114953405209300,10.573209228515625,-3.5540742910802363,-9.080328360572457,-1.042390745359659
1791114953415280400,10.5832802734375,-3.532809969255328,-9.089878279206156,-1.0313774031098932
1791114953425351400,10.593351318359375,-3.5178333493977783,-9.096590344065428,-1.023362877349928
1791114953435422200,10.603422119140625,-3.5101404568076133,-9.100476830109953,-1.0151939647458492
1791114953445493200,10.6134931640625,-3.4950320272639392,-9.107152070090175,-1.0074243536576628
1791114953455564300,10.623564208984375,-3.4803199035614725,-9.113213562086225,-1.0035441512234509
1791114953465635300,10.63363525390625,-3.4723458559423683,-9.116768039697408,-0.9988664417359977
1791114953475706400,10.643706298828125,-3.4715716566994783,-9.117852912324667,-0.9916274303931742
1791114953485777400,10.65377734375,-3.4718253391996026,-9.118413468816875,-0.9855698108546436
1791114953495848400,10.663848388671875,-3.4749510700047015,-9.117539024069904,-0.9826474936671554
1791114953505919200,10.673919189453125,-3.4873721601605414,-9.113373136562108,-0.9772758836314082
1791114953515990300,10.683990234375,-3.4986136851429936,-9.1098654207021,-0.9697701841764151
1791114953526061300,10.694061279296875,-3.5051886796191334,-9.107804396519064,-0.9653691727384924
1791114953536131300,10.70413134765625,-3.5053020768657324,-9.10863500212431,-0.9570751724500208
1791114953546202000,10.7142021484375,-3.523004030033946,-9.103260907870531,-0.9431101407878101
1791114953556273200,10.724273193359375,-3.560857667610049,-9.090497872409223,-0.9238611773733049
1791114953566344200,10.73434423828125,-3.6005958037585017,-9.07663184414208,-0.9060138974502682
1791114953576415200,10.744415283203125,-3.636227673631906,-9.063273180875182,-0.8974029401671141
1791114953586486300,10.754486328125,-3.6581241558805107,-9.054836191919446,-0.8935710338540375
1791114953596557300,10.764557373046875,-3.681939331232011,-9.045859104737639,-0.8866462030269205
1791114953606628400,10.77462841796875,-3.7152088558882475,-9.033533291649817,-0.8734363736461848
1791114953616699100,10.78469921875,-3.7478760307371615,-9.021496816897391,-0.8581357094660401
1791114953626770200,10.794770263671875,-3.775433899748325,-9.011232027992605,-0.84509487997666
1791114953636841200,10.80484130859375,-3.810850665566325,-8.997677549892664,-0.8304308331996202
1791114953646912300,10.814912353515625,-3.855836054718494,-8.980342968732119,-0.8101591756738722
1791114953656983300,10.8249833984375,-3.9019276515468952,-8.96240106932819,-0.7878598847780376
1791114953667054300,10.835054443359375,-3.946712257429957,-8.944033053466677,-0.7733811314400285
1791114953677125000,10.845125,-3.9840176134735343,-8.928314090809225,-0.7636830365072935
1791114953687196200,10.855196044921875,-4.009596875888109,-8.917551873776317,-0.7555029449220746
1791114953697267200,10.86526708984375,-4.04159944934845,-8.904162230849266,-0.7428028916943817
1791114953707338200,10.875338134765625,-4.079102081529796,-8.888550820219516,-0.7245606211043893
1791114953717409300,10.8854091796875,-4.1158150246381755,-8.873172049301862,-0.7051832090046256
1791114953727480300,10.895480224609376,-4.156588349053264,-8.855556897634267,-0.6872185863122343
1791114953737551000,10.905551025390626,-4.195435381580889,-8.838369615989922,-0.6722565064366907
1791114953747622100,10.9156220703125,-4.232269612981379,-8.821524279651046,-0.662554685176909
1791114953757693200,10.925693115234376,-4.272124361246824,-8.80310774847269,-0.6516383735608309
1791114953767764200,10.93576416015625,-4.312717945180833,-8.784221261695027,-0.6389858127366751
1791114953777835300,10.945835205078126,-4.346202573892474,-8.7683421400398,-0.6301421426761895
1791114953787906300,10.95590625,-4.377761495238542,-8.753132880470156,-0.6230970464702695
1791114953797977000,10.96597705078125,-4.399761145600676,-8.742110551196337,-0.6228852303504944
1791114953808048000,10.976048095703124,-4.413637110739946,-8.735060632684826,-0.6236234084319323
1791114953818119200,10.986119140625,-4.429153536562621,-8.727441974374651,-0.6202765091568231
1791114953828190200,10.996190185546874,-4.4498669465065,-8.717691564732789,-0.6090341073915362
1791114953838261200,11.00626123046875,-4.468772430245578,-8.708131124705076,-0.6073716540720313
1791114953848332300,11.016332275390624,-4.47466265732795,-8.70456144952476,-0.6151452837482094
1791114953858402300,11.02640234375,-4.470115953809023,-8.706188173943758,-0.6250798908505588
1791114953868473300,11.036473388671874,-4.472102159190178,-8.704446298712492,-0.6350592138774692
1791114953878544400,11.04654443359375,-4.48042428959459,-8.699827406740187,-0.6396758408274501
1791114953888615400,11.056615478515624,-4.487158274024725,-8.69583336866796,-0.6467549854334443
1791114953898686500,11.0666865234375,-4.490948606218398,-8.693211787992716,-0.6556168487377464
1791114953908757200,11.07675732421875,-4.4810728166311975,-8.69760271642804,-0.6648945993665606
1791114953918828300,11.086828369140624,-4.4695323087021706,-8.702768136367201,-0.6748949651814997
1791114953928899300,11.0968994140625,-4.458464386720955,-8.707785087746382,-0.6833528507947921
1791114953938970000,11.10697021484375,-4.450980168445408,-8.710873116889596,-0.692704324246943
1791114953949041200,11.117041259765625,-4.451933815908432,-8.709996334055065,-0.6975874931786209
1791114953959112200,11.1271123046875,-4.450971985138953,-8.710048941025137,-0.7030458316497504
1791114953969183200,11.137183349609375,-4.455424872894585,-8.707654154843091,-0.7045132738538086
1791114953979254300,11.147254150390625,-4.457037861049175,-8.706549992993473,-0.7079358687136322
1791114953989325300,11.1573251953125,-4.4310196226954455,-8.719009077072142,-0.7178661649670451
1791114953999396000,11.16739599609375,-4.387112676429748,-8.740258785849809,-0.7290459498248993
1791114954009467100,11.177467041015625,-4.346030724456906,-8.759700568422675,-0.7416554021596908
1791114954019538200,11.1875380859375,-4.323756641067564,-8.769812212592363,-0.7522630862180143
1791114954029609200,11.197609130859375,-4.303542120556533,-8.779409477499128,-0.7562300170876085
1791114954039680300,11.20768017578125,-4.279892949421703,-8.791203960189224,-0.7534134252969175
1791114954049751300,11.217751220703125,-4.255563102546334,-8.803488856744766,-0.7477697933867573
1791114954059822000,11.227822021484375,-4.23222080540359,-8.815013290321826,-0.7444727246027439
1791114954069893000,11.23789306640625,-4.21251628024131,-8.823851261293887,-0.7514877179313451
1791114954079964200,11.247964111328125,-4.1932583298027515,-8.832439056897163,-0.7582760628972202
1791114954090035200,11.25803515625,-4.17116047976315,-8.842167839229106,-0.7667388438813388
1791114954100106200,11.268106201171875,-4.15518637330085,-8.849402466657757,-0.7699993800472468
1791114954110177300,11.27817724609375,-4.144626693102717,-8.854555611637235,-0.7676609271623194
1791114954120248000,11.288248046875,-4.136661121051013,-8.85859115076363,-0.7640619528222828
1791114954130319000,11.298319091796875,-4.1367590284675355,-8.858936603200435,-0.7595001978646964
1791114954140390100,11.30839013671875,-4.130031473778188,-8.862597463795542,-0.753378573179245
1791114954150461200,11.318461181640625,-4.123597056816518,-8.866187012720108,-0.7463548850875348
1791114954160531200,11.32853125,-4.122823149834573,-8.867246750906109,-0.7379944684993476
1791114954170603300,11.338603271484375,-4.128249851058423,-8.865704782161115,-0.7260956486519425
1791114954180673000,11.348673095703125,-4.123512008881569,-8.868966998827457,-0.7130583262939005
1791114954190744000,11.358744140625,-4.106926492522657,-8.8776529941082,-0.7005784916881471
1791114954200815000,11.368815185546875,-4.082252362254262,-8.889891713434457,-0.6895163418605923
1791114954210886100,11.37888623046875,-4.060059819668531,-8.901189352518319,-0.6746411365509033
1791114954220957200,11.388957275390625,-4.058481902827323,-8.903896857911349,-0.6478788748968393
1791114954231028000,11.399028076171875,-4.067281879876554,-8.902596881228686,-0.6093981549309566
1791114954241099000,11.40909912109375,-4.070967874912918,-8.90339183099866,-0.5720415070915594
1791114954251170000,11.419170166015626,-4.062882768134773,-8.908678831490874,-0.546634569036588
1791114954261241000,11.429240966796876,-4.054787724484503,-8.913791059938072,-0.5228725121118128
1791114954271312100,11.43931201171875,-4.055719744637608,-8.915280421712994,-0.489197292731516
1791114954281383200,11.449383056640626,-4.058272936251759,-8.916223255521059,-0.44918823068719355
1791114954291454000,11.459453857421876,-4.05885833492428,-8.917738336259125,-0.412295510565117
1791114954301525000,11.46952490234375,-4.0606902265265585,-8.918526271766424,-0.3755966325147077
1791114954311596000,11.479595947265626,-4.063862719082832,-8.918544391945003,-0.33909546899348497
1791114954321667000,11.4896669921875,-4.059560930235683,-8.921773875385522,-0.30382340887580067
1791114954331738000,11.499738037109376,-4.058155155090987,-8.923649021607638,-0.26503338549872857
1791114954341809200,11.50980908203125,-4.056199637109041,-8.92565685429871,-0.22421614887667818
1791114954351880200,11.519880126953124,-4.0515331066027285,-8.928638500458002,-0.1867432907790877
1791114954361951200,11.529951171875,-4.0514141563981765,-8.929352201685308,-0.15201664438340812
1791114954372022300,11.540022216796874,-4.054406908473372,-8.928573034006357,-0.11290353566496632
1791114954382093300,11.55009326171875,-4.058935784074664,-8.92690597757697,-0.07599862278159707
1791114954392164400,11.560164306640624,-4.06275768045038,-8.925404340842366,-0.03938403918088879
1791114954402235400,11.5702353515625,-4.05937183740437,-8.927031649783252,-0.0017482755747114424
1791114954412306200,11.58030615234375,-4.051270948535204,-8.930644579583406,0.03437174799380591
1791114954422377200,11.590377197265624,-4.049726933963597,-8.93114142318964,0.06924770548297092
1791114954432448300,11.6004482421875,-4.044446655473113,-8.933182573628425,0.10524326670276932
1791114954442519300,11.610519287109375,-4.0425846609935165,-8.933498799970746,0.1431744995597284
1791114954452590300,11.62059033203125,-4.030908251725137,-8.938111846724151,0.17976804493898524
1791114954462661400,11.630661376953125,-4.015063324600458,-8.94434460363388,0.21990825908230616
1791114954472732200,11.640732177734375,-4.010111255151033,-8.945339459890127,0.26512795018069446
1791114954482803200,11.65080322265625,-4.008858624741435,-8.944242312303185,0.3161966413019225
1791114954492874200,11.660874267578125,-4.011057888351381,-8.94137873956561,0.36544063774663954
1791114954502944300,11.6709443359375,-4.010102487322688,-8.93979351620078,0.4117719616150483
1791114954513015300,11.681015380859375,-4.008945133981109,-8.93781666316986,0.4627963752031326
1791114954523086000,11.691086181640625,-4.00799119425714,-8.935342382010816,0.5158056789981201
1791114954533157000,11.7011572265625,-4.010934261971712,-8.930557485821843,0.5726500309113413
1791114954543228200,11.711228271484375,-4.0085517507493496,-8.927811401984094,0.6293387904040515
1791114954553299200,11.72129931640625,-4.008782052373886,-8.923815610346198,0.6823301566835492
1791114954563370200,11.731370361328125,-4.013755749133229,-8.917550120210647,0.7331015818912535
1791114954573441300,11.741441162109375,-4.015976347792148,-8.912135109424591,0.7849745386000723
1791114954583512000,11.751511962890625,-4.021835595214367,-8.904994590020179,0.8344503710392862
1791114954593583000,11.7615830078125,-4.030563676071167,-8.896534804710745,0.8812617335096001
1791114954603654100,11.771654052734375,-4.04250224340707,-8.886489211514592,0.9267530263572931
1791114954613725200,11.78172509765625,-4.048546492007374,-8.878963492184877,0.9714141519911587
1791114954623796200,11.791796142578125,-4.0438022200897334,-8.876172984683514,1.015683209567517
1791114954633867300,11.8018671875,-4.036848455429077,-8.875037843173741,1.052586195355281
1791114954643938000,11.81193798828125,-4.0301103793457145,-8.874361551347375,1.0836497343998401
1791114954654009000,11.822009033203125,-4.027446713094413,-8.87183524774015,1.113823923389241
1791114954664080100,11.832080078125,-4.02795641618222,-8.867644810312985,1.144917638376355
1791114954674151200,11.842151123046875,-4.0196892308354375,-8.86803059476018,1.1706916196454316
1791114954684222200,11.85222216796875,-4.006990200521051,-8.871631834122539,1.1868201129518448
1791114954694293200,11.862293212890625,-4.004263113644719,-8.871409131282567,1.1976418050870299
1791114954704364000,11.872364013671875,-4.00896939163953,-8.866995406493544,1.2144648565288632
1791114954714435000,11.88243505859375,-4.024387617784738,-8.856286965474485,1.2413219568595288
1791114954724506000,11.892506103515625,-4.038974361541867,-8.846762765803932,1.261693421497941
1791114954734577200,11.9025771484375,-4.040975764492154,-8.844957177686691,1.267927931973338
1791114954744648200,11.912648193359376,-4.031824782048165,-8.849568470874429,1.2648800887100398
1791114954754719200,11.92271923828125,-4.01795933830291,-8.856229097807407,1.2623711746290325
1791114954764790000,11.9327900390625,-4.0056127746880055,-8.861531295868755,1.2643977120205758
1791114954774861000,11.942861083984376,-3.998257443489134,-8.864974129799007,1.2635409490607679
1791114954784932000,11.95293212890625,-3.99299645422101,-8.868346821102499,1.2564974602900445
1791114954795003100,11.963003173828126,-3.9898251307085153,-8.871157786870002,1.246685821980238
1791114954805074200,11.97307421875,-3.987433267135918,-8.873443267458677,1.2380528720609842
1791114954815145200,11.983145263671876,-3.9818779710963366,-8.877791525796056,1.2246888750318436
1791114954825216300,11.99321630859375,-3.974074603869021,-8.884263352158666,1.2029081281173974
1791114954835286000,12.0032861328125,-3.962488795493543,-8.892966298574208,1.176532893019542
1791114954845357000,12.013357177734376,-3.9478339549362658,-8.902834197115897,1.150879688585922
1791114954855428000,12.023427978515626,-3.9371041788682337,-8.910611845380068,1.1272097669240086
1791114954865499100,12.0334990234375,-3.919485520069301,-8.921635928219557,1.1011029735039919
1791114954875570200,12.043570068359376,-3.901568170584738,-8.933370205155015,1.0691329140737653
1791114954885641200,12.05364111328125,-3.891714008307457,-8.940957299283147,1.0412684633314608
1791114954895712300,12.063712158203124,-3.890408186405897,-8.944100273483992,1.0189106471814215
1791114954905783300,12.073783203125,-3.890396495968103,-8.94645531217754,0.9980694461394101
1791114954915854000,12.08385400390625,-3.8854216301649807,-8.95135886631012,0.9731704210739582
1791114954925925000,12.093925048828124,-3.8786090275406835,-8.957432048743962,0.9440273286979645
1791114954935996000,12.103995849609374,-3.8851813916683193,-8.957295855143666,0.9179301798891275
1791114954946067000,12.11406689453125,-3.900523337706923,-8.952760549801587,0.8968727057479321
1791114954956138000,12.124137939453124,-3.910176424454152,-8.950579114109278,0.876371915641427
1791114954966209000,12.134208984375,-3.9098794873341918,-8.953656037336588,0.8457263097479939
1791114954976280000,12.144280029296874,-3.898174144232273,-8.961958586257696,0.8111145767025649
1791114954986351000,12.15435107421875,-3.9043499102577566,-8.961531885278225,0.7857260876197367
1791114954996422000,12.164421875,-3.917152108685672,-8.956903640955685,0.7746995205622166
1791114955006493000,12.174492919921875,-3.9309509169355032,-8.95186213965714,0.7629935929384082
1791114955016564000,12.18456396484375,-3.9335184293359515,-8.952266044282913,0.7448132086034863
1791114955026635000,12.194635009765625,-3.937001010754704,-8.952489916166662,0.7234194151800125
1791114955036706000,12.2047060546875,-3.940804494690895,-8.951547082358598,0.7143139523781835
1791114955046777000,12.214777099609375,-3.942361953265965,-8.951067189887166,0.7117268584944307
1791114955056848000,12.224847900390625,-3.9407700078994035,-8.95249576138556,0.7025277991250157
1791114955066919000,12.2349189453125,-3.9398040854766965,-8.95406228004992,0.6878190364234149
1791114955076990000,12.244989990234375,-3.957828110206127,-8.946449466958642,0.6833795926712453
1791114955087061000,12.25506103515625,-3.9920553739786144,-8.930935086962581,0.6872337838813662
1791114955097132000,12.265132080078125,-4.023352721779048,-8.91664937197864,0.6902002324715256
1791114955107203000,12.275203125,-4.0425969359532,-8.908346238535643,0.684965765884146
1791114955117273900,12.28527392578125,-4.046505049307644,-8.90719180780351,0.6768470490973443
1791114955127345000,12.295344970703125,-4.04971085961163,-8.905787201702594,0.6761610395945609
1791114955137416000,12.305416015625,-4.067082850173115,-8.897409249457716,0.6821603530745953
1791114955147487000,12.315487060546875,-4.087041057835519,-8.88777983584702,0.6883662219773977
1791114955157558000,12.32555810546875,-4.099840918175876,-8.881770950821041,0.6898001272380352
1791114955167627800,12.335627685546875,-4.109636336003244,-8.877232138347626,0.6899500571027398
1791114955177698800,12.34569873046875,-4.111790006905794,-8.876118624147772,0.6914409532476217
1791114955187769900,12.355769775390625,-4.109638674090802,-8.876965011844039,0.6933580389153212
1791114955197841000,12.3658408203125,-4.112639317211508,-8.8752441794008,0.6975836937863379
1791114955207912000,12.375911865234375,-4.118061049999296,-8.87222687740624,0.7039533018834888
1791114955217983000,12.38598291015625,-4.129253182882071,-8.866505577149987,0.7104365994881838
1791114955228053800,12.3960537109375,-4.139487576648593,-8.860913456231355,0.7205849224064499
1791114955238124800,12.406124755859375,-4.142710922609269,-8.859299591293931,0.7218997313320636
1791114955248195800,12.41619580078125,-4.134992603316903,-8.863390075477957,0.7159186110958456
1791114955258267000,12.426266845703125,-4.12761301445961,-8.867216940289735,0.7110949903316796
1791114955268338000,12.436337890625,-4.12965445715934,-8.866324375364185,0.7103814352348446
1791114955278409000,12.446408935546875,-4.141533987784386,-8.860594307279586,0.7127083438124507
1791114955288479700,12.456479736328125,-4.152710923098027,-8.855227811810373,0.7143656825654209
1791114955298550800,12.46655078125,-4.1572070654734965,-8.853679413324594,0.7073791846789419
1791114955308621800,12.476621826171876,-4.151883532363176,-8.85719472796917,0.6945174380835145
1791114955318692900,12.48669287109375,-4.133947185917198,-8.866447709482907,0.6833510972291231
1791114955328764000,12.496763916015626,-4.115589691449702,-8.87552474990785,0.6762834238652139
1791114955338835000,12.5068349609375,-4.110673277835548,-8.878157436498999,0.6716277800790965
1791114955348906000,12.516906005859376,-4.109384699329734,-8.87936798133254,0.6634416240792721
1791114955358976800,12.526976806640626,-4.109097114560008,-8.880221967813371,0.6537175179224461
1791114955369047800,12.5370478515625,-4.11018344849199,-8.880178128671645,0.6474566308967769
1791114955379118800,12.547118896484376,-4.104210219301283,-8.883404689502715,0.641062765141204
1791114955389190000,12.55718994140625,-4.090700164864957,-8.890359330946206,0.6309238676384091
1791114955399261000,12.567260986328124,-4.080020657679438,-8.896364124318957,0.6152532011020928
1791114955409332000,12.57733203125,-4.075540005134046,-8.899393116751313,0.6009564532674848
1791114955419402800,12.58740283203125,-4.0724370706826445,-8.90139510422349,0.5923008531250059
1791114955429473800,12.597473876953124,-4.065912929610908,-8.904710512381792,0.5872588403698057
1791114955439544800,12.607544921875,-4.054834486235678,-8.910274576249718,0.5794151776647195
1791114955449616000,12.617615966796874,-4.039544270384312,-8.917872191771865,0.56923028559573
1791114955459687000,12.62768701171875,-4.03049324118346,-8.922516802707314,0.5605295676698908
1791114955469758000,12.637758056640624,-4.025029422819614,-8.925313739949464,0.5552374526111409
1791114955479828700,12.647828857421874,-4.022265803325176,-8.92683232781887,0.5508446244796738
1791114955489899800,12.657899658203124,-4.019204369927943,-8.9287349465698,0.5422891967760398
1791114955499970000,12.667969970703124,-4.010940983973443,-8.933027675327658,0.532702051404491
1791114955510041000,12.678041015625,-4.005483595350385,-8.935838641095161,0.5265840434482321
1791114955520112000,12.688112060546874,-4.007275447203218,-8.935106819689274,0.525362319633551
1791114955530183000,12.698182861328124,-4.012781643404066,-8.932786267787218,0.5227679922914132
1791114955540254000,12.70825390625,-4.0204748282551765,-8.929643293586373,0.517349949298054
1791114955550325000,12.718324951171875,-4.030735817767679,-8.925504294085503,0.5088473842928186
1791114955560396000,12.72839599609375,-4.034149425603449,-8.924642708820103,0.4967578641789034
1791114955570467000,12.738467041015625,-4.032874875622987,-8.925818766862154,0.4858606591220945
1791114955580538000,12.7485380859375,-4.033119205772876,-8.926057251793146,0.4794245981926098
1791114955590609000,12.75860888671875,-4.0311584270939225,-8.927138032767177,0.47577937355805183
1791114955600680000,12.768679931640625,-4.029515628322959,-8.928028259605169,0.47297633536867795
1791114955610751000,12.7787509765625,-4.03356168884337,-8.92629106054902,0.4712878342924639
