time,seconds_elapsed,z,y,x
1791114942891125800,0.059125732421875,0.08827951550483704,0.2520224153995514,0.10146983712911606
1791114942901196500,0.069196533203125,0.038982272148132324,0.22318223118782043,0.030795136466622353
1791114942911266600,0.0792666015625,-0.031417492777109146,0.15098436176776886,0.08694204688072205
1791114942921337600,0.089337646484375,-0.03254374489188194,0.11418028175830841,0.06549880653619766
1791114942931408600,0.09940869140625,0.0054193357937037945,0.14533820748329163,0.12184528261423111
1791114942941479700,0.109479736328125,0.040146421641111374,0.21542887389659882,0.05267287790775299
1791114942951550500,0.119550537109375,0.07344609498977661,0.2738063931465149,-0.05324498191475868
1791114942961621500,0.12962158203125,0.038677994161844254,0.2552630603313446,-0.11589530855417252
1791114942971692500,0.139692626953125,-0.07538177818059921,0.18313169479370117,-0.010254716500639915
1791114942981763600,0.149763671875,-0.10358944535255432,0.21132203936576843,-0.030644144862890244
1791114942991834600,0.159834716796875,-0.027031296864151955,0.2797929644584656,-0.012139283120632172
1791114943001905700,0.16990576171875,0.010944581590592861,0.2859605550765991,-0.02596242167055607
1791114943011976400,0.1799765625,0.022506725043058395,0.2942826747894287,-0.08132073283195496
1791114943022047500,0.190047607421875,-0.04703986272215843,0.24398541450500488,-0.05812219902873039
1791114943032118500,0.200118408203125,-0.1505247801542282,0.16752798855304718,0.1634501814842224
1791114943042189600,0.210189453125,-0.15865646302700043,0.22953277826309204,0.15750892460346222
1791114943052260600,0.220260498046875,-0.057395342737436295,0.23409052193164825,0.09240571409463882
1791114943062331600,0.23033154296875,-0.0609903447329998,0.17042286694049835,0.09288348257541656
1791114943072402400,0.24040234375,-0.10496000945568085,0.2877088189125061,0.005216898396611214
1791114943082473500,0.250473388671875,-0.11444538831710815,0.2667292356491089,0.032372355461120605
1791114943092544500,0.26054443359375,-0.110916867852211,0.2027360498905182,0.07191577553749084
1791114943102615600,0.270615478515625,-0.1672120988368988,0.18009784817695618,0.10918644815683365
1791114943112686600,0.2806865234375,-0.16307765245437622,0.16106057167053223,0.13152195513248444
1791114943122756600,0.290756591796875,-0.1276024878025055,0.12083830684423447,0.20091167092323303
1791114943132827600,0.30082763671875,-0.13838604092597961,0.07647018134593964,0.16215915977954865
1791114943142898400,0.3108984375,-0.159372016787529,0.10225677490234375,0.12520326673984528
1791114943152969500,0.320969482421875,-0.23069772124290466,0.1137855127453804,0.015999333932995796
1791114943163040500,0.33104052734375,-0.2804229259490967,0.11625612527132034,0.022446580231189728
1791114943173111600,0.341111572265625,-0.27908042073249817,0.0983993262052536,-0.0722011923789978
1791114943183182600,0.3511826171875,-0.20994369685649872,0.05908441171050072,-0.052416037768125534
1791114943193253600,0.361253662109375,-0.27561384439468384,0.05435200035572052,-0.0031008897349238396
1791114943203324700,0.37132470703125,-0.390669047832489,0.06640759855508804,-0.017979437485337257
1791114943213395700,0.381395751953125,-0.41139066219329834,0.11256720125675201,-0.03950605168938637
1791114943223466800,0.391466796875,-0.4353756308555603,0.07887715101242065,-0.04698127880692482
1791114943233537800,0.401537841796875,-0.5193208456039429,-0.02310650609433651,0.05056663602590561
1791114943243608600,0.411608642578125,-0.5172776579856873,0.015424108132719994,-0.04246210679411888
1791114943253679600,0.4216796875,-0.42369502782821655,0.05083600431680679,-0.07432761043310165
1791114943263750700,0.431750732421875,-0.37052100896835327,0.07772194594144821,-0.015093318186700344
1791114943273821700,0.44182177734375,-0.3735956847667694,0.10849396139383316,0.013298075646162033
1791114943283892700,0.451892822265625,-0.46816185116767883,0.047010891139507294,0.04413614794611931
1791114943293963800,0.4619638671875,-0.5602748394012451,-0.055932387709617615,0.07457044720649719
1791114943304034800,0.472034912109375,-0.5897062420845032,-0.07482299208641052,0.12735164165496826
1791114943314105600,0.482105712890625,-0.5176090002059937,-0.0010980330407619476,0.014609715901315212
1791114943324175600,0.492175537109375,-0.38944438099861145,-0.02217402309179306,-0.06288746744394302
1791114943334246700,0.50224658203125,-0.540155291557312,-0.1390397697687149,0.013733521103858948
1791114943344317700,0.512317626953125,-0.7418356537818909,-0.18599875271320343,-0.0018238669726997614
1791114943354388500,0.522388427734375,-0.699550449848175,-0.11674411594867706,0.010397608391940594
1791114943364459500,0.53245947265625,-0.6638843417167664,-0.13432471454143524,0.11924286931753159
1791114943374530600,0.542530517578125,-0.6849457025527954,-0.165591299533844,-0.02141052857041359
1791114943384601600,0.5526015625,-0.5935441851615906,-0.13503392040729523,-0.06858523190021515
1791114943394672600,0.562672607421875,-0.5965325832366943,-0.09771645069122314,-0.05609321594238281
1791114943404743700,0.57274365234375,-0.6613216996192932,-0.15909431874752045,0.013310626149177551
1791114943414814500,0.582814453125,-0.6438016295433044,-0.19497618079185486,0.01325479056686163
1791114943424885500,0.592885498046875,-0.6096702814102173,-0.20635133981704712,0.15264464914798737
1791114943434956500,0.60295654296875,-0.5962791442871094,-0.1522323340177536,0.04324902966618538
1791114943445027600,0.613027587890625,-0.4933067560195923,-0.0400615893304348,-0.11102548986673355
1791114943455098600,0.6230986328125,-0.4405687749385834,-0.06451062858104706,-0.0681547075510025
1791114943465169700,0.633169677734375,-0.5438418984413147,-0.09709600359201431,-0.11393524706363678
1791114943475240700,0.64324072265625,-0.550877571105957,-0.1286226361989975,-0.1755756288766861
1791114943485311500,0.6533115234375,-0.6304701566696167,-0.2113657146692276,0.07463367283344269
1791114943495382500,0.663382568359375,-0.7235626578330994,-0.2549245357513428,0.13178406655788422
1791114943505453600,0.67345361328125,-0.6581242680549622,-0.17596180737018585,0.03052615560591221
1791114943515524600,0.683524658203125,-0.6949169039726257,-0.29222768545150757,0.14884959161281586
1791114943525595600,0.693595703125,-0.7787361741065979,-0.33166348934173584,0.1579592078924179
1791114943535665400,0.70366552734375,-0.8374278545379639,-0.4324812591075897,-0.06052479147911072
1791114943545736400,0.713736328125,-0.9265540242195129,-0.6230413317680359,-0.10972855985164642
1791114943555807500,0.723807373046875,-0.9086811542510986,-0.6747260689735413,0.01836431585252285
1791114943565878500,0.73387841796875,-0.8975182175636292,-0.638357937335968,-0.0001555710332468152
1791114943575949600,0.743949462890625,-0.8759081363677979,-0.6921275854110718,-0.06541279703378677
1791114943586020600,0.7540205078125,-0.9235954880714417,-0.7211158275604248,0.027618609368801117
1791114943596091400,0.76409130859375,-1.0334404706954956,-0.7322841882705688,-0.019067443907260895
1791114943606162400,0.774162353515625,-1.0020347833633423,-0.7404310703277588,-0.04697923734784126
1791114943616233500,0.7842333984375,-0.9563508629798889,-0.719787061214447,0.04023054987192154
1791114943626304500,0.794304443359375,-0.9130809307098389,-0.764381468296051,0.026358678936958313
1791114943636375600,0.80437548828125,-0.8518301248550415,-0.815526008605957,0.14874494075775146
1791114943646446600,0.814446533203125,-0.800839364528656,-0.7531020045280457,0.1789260059595108
1791114943656517600,0.824517578125,-0.8034456372261047,-0.6665442585945129,0.11937790364027023
1791114943666588700,0.834588623046875,-0.7793099284172058,-0.6880620718002319,0.1270480751991272
1791114943676659700,0.84465966796875,-0.6605597138404846,-0.7293818593025208,0.13082747161388397
1791114943686730500,0.85473046875,-0.5199477672576904,-0.6743910312652588,-0.03218807280063629
1791114943696801500,0.864801513671875,-0.42951908707618713,-0.6149141788482666,0.01260392926633358
1791114943706872600,0.87487255859375,-0.4424961507320404,-0.5421273112297058,0.14771035313606262
1791114943716943600,0.884943603515625,-0.4575768709182739,-0.4853297173976898,0.176558256149292
1791114943727014700,0.8950146484375,-0.3749815821647644,-0.48080527782440186,0.0581999197602272
1791114943737085700,0.905085693359375,-0.2940196990966797,-0.5039384961128235,0.05651562288403511
1791114943747156700,0.91515673828125,-0.3193761706352234,-0.4848582446575165,0.14817096292972565
1791114943757226800,0.925226806640625,-0.3127017915248871,-0.47813618183135986,0.141457661986351
1791114943767297500,0.935297607421875,-0.20937754213809967,-0.5110105276107788,0.12291567027568817
1791114943777368600,0.94536865234375,-0.1771426945924759,-0.5523989200592041,0.20954127609729767
1791114943787439600,0.955439697265625,-0.19039830565452576,-0.5284709334373474,0.14992880821228027
1791114943797510700,0.9655107421875,-0.2238958775997162,-0.4660188853740692,0.0892026275396347
1791114943807581700,0.975581787109375,-0.27503761649131775,-0.5054200887680054,0.08940822631120682
1791114943817652700,0.98565283203125,-0.31876271963119507,-0.5900505781173706,0.13635896146297455
1791114943827723500,0.9957236328125,-0.27944567799568176,-0.5511162281036377,0.14213667809963226
1791114943837794600,1.005794677734375,-0.20441299676895142,-0.49282926321029663,0.10350395739078522
1791114943847865600,1.015865478515625,-0.23035511374473572,-0.5206371545791626,0.0010952951852232218
1791114943857936600,1.0259365234375,-0.2907174825668335,-0.6101982593536377,0.005073491018265486
1791114943868007700,1.036007568359375,-0.29213133454322815,-0.6334580183029175,0.0843035951256752
1791114943878078700,1.04607861328125,-0.2602500021457672,-0.5680449604988098,0.15048326551914215
1791114943888149500,1.0561494140625,-0.24482789635658264,-0.5447567105293274,0.14914903044700623
1791114943898220500,1.066220458984375,-0.22267894446849823,-0.5734490752220154,0.08561064302921295
1791114943908291800,1.076291748046875,-0.15250997245311737,-0.5681126713752747,0.02974071353673935
1791114943918362600,1.086362548828125,-0.04480336233973503,-0.5082286596298218,0.0511455275118351
1791114943928433700,1.09643359375,-0.014500848948955536,-0.4708314836025238,0.12781420350074768
1791114943938504700,1.106504638671875,-0.10639920830726624,-0.45712509751319885,0.08929938077926636
1791114943948575700,1.11657568359375,-0.12548820674419403,-0.44760698080062866,0.004792752675712109
1791114943958646800,1.126646728515625,-0.025448549538850784,-0.4152185916900635,0.15357913076877594
1791114943968716500,1.136716552734375,0.02715926803648472,-0.3823493421077728,0.15464597940444946
1791114943978787600,1.14678759765625,0.04162949323654175,-0.40966370701789856,0.11835300177335739
1791114943988858600,1.156858642578125,0.04947090148925781,-0.42152541875839233,0.005365998018532991
1791114943998929700,1.1669296875,0.06124741584062576,-0.4352627992630005,0.021234063431620598
1791114944009000700,1.177000732421875,0.09355875104665756,-0.44833359122276306,0.019490227103233337
1791114944019071700,1.18707177734375,0.1366657316684723,-0.44051480293273926,0.0008604469476267695
1791114944029142500,1.197142578125,0.1296118050813675,-0.4335136115550995,-0.07815607637166977
1791114944039213600,1.207213623046875,0.156889870762825,-0.43879473209381104,-0.1081288680434227
1791114944049284600,1.21728466796875,0.19507721066474915,-0.43612757325172424,-0.01306174136698246
1791114944059355600,1.227355712890625,0.22291558980941772,-0.4052206873893738,0.16831804811954498
1791114944069426700,1.2374267578125,0.2274397611618042,-0.3903200328350067,0.16500720381736755
1791114944079497700,1.247497802734375,0.24021773040294647,-0.3860253393650055,0.15504322946071625
1791114944089568500,1.257568603515625,0.2726055085659027,-0.35957616567611694,0.12556229531764984
1791114944099639600,1.2676396484375,0.3998311758041382,-0.32904544472694397,0.0478949137032032
1791114944109710600,1.277710693359375,0.45239055156707764,-0.29048848152160645,-0.012457639910280704
1791114944119781600,1.28778173828125,0.46261537075042725,-0.3000411093235016,-0.03960727900266647
1791114944129852700,1.297852783203125,0.4101601541042328,-0.28764623403549194,0.06424854695796967
1791114944139923700,1.307923828125,0.3981940448284149,-0.2425527572631836,0.12260425835847855
1791114944149994500,1.317994384765625,0.42770320177078247,-0.21754515171051025,0.0402635857462883
1791114944160065500,1.3280654296875,0.45893290638923645,-0.20123213529586792,0.0309534203261137
1791114944170136600,1.338136474609375,0.49799084663391113,-0.17703065276145935,-0.05369781702756882
1791114944180207600,1.34820751953125,0.5121899843215942,-0.13994339108467102,-0.09534146636724472
1791114944190278000,1.35827783203125,0.5880280137062073,-0.13253474235534668,0.026155663654208183
1791114944200348700,1.3683486328125,0.6306761503219604,-0.10305949300527573,-0.005203667096793652
1791114944210419700,1.378419677734375,0.6499007344245911,-0.06324470043182373,-0.10880009829998016
1791114944220490800,1.38849072265625,0.6702664494514465,-0.010954280383884907,-0.09260591864585876
1791114944230561800,1.398561767578125,0.6441065073013306,0.037833500653505325,-0.024146167561411858
1791114944240632800,1.4086328125,0.6223971247673035,0.11001955717802048,0.010444039478898048
1791114944250704000,1.418703857421875,0.6742525696754456,0.13573238253593445,0.12693603336811066
1791114944260774700,1.428774658203125,0.7796946167945862,0.1330237239599228,0.0818934366106987
1791114944270845700,1.438845703125,0.7790834307670593,0.1699785441160202,-0.04791462793946266
1791114944280916700,1.448916748046875,0.7325078248977661,0.17959052324295044,0.0127281928434968
1791114944290987800,1.45898779296875,0.7167195677757263,0.2067321389913559,0.022892415523529053
1791114944301058800,1.469058837890625,0.6770465970039368,0.2490418255329132,0.04131188616156578
1791114944311129900,1.4791298828125,0.6498224139213562,0.23733268678188324,0.05335656553506851
1791114944321200600,1.48920068359375,0.6260502338409424,0.22549840807914734,-0.014109557494521141
1791114944331271700,1.499271728515625,0.6189353466033936,0.2301168590784073,-0.07086444646120071
1791114944341342700,1.5093427734375,0.61504727602005,0.24646271765232086,-0.0736362412571907
1791114944351413800,1.519413818359375,0.554016649723053,0.23351576924324036,-0.09973681718111038
1791114944361484800,1.52948486328125,0.5162526369094849,0.22944094240665436,-0.08375681191682816
1791114944371555800,1.539555908203125,0.5076961517333984,0.211552232503891,-0.10020875185728073
1791114944381626600,1.549626708984375,0.5263714790344238,0.17256373167037964,-0.028292041271924973
1791114944391697700,1.55969775390625,0.4856642484664917,0.1678248941898346,-0.0640668198466301
1791114944401767700,1.569767578125,0.43653953075408936,0.1468205749988556,-0.057948142290115356
1791114944411838700,1.579838623046875,0.40576988458633423,0.11045777797698975,0.04846831038594246
1791114944421909800,1.58990966796875,0.3280836045742035,0.12004947662353516,-0.06416649371385574
1791114944431980500,1.59998046875,0.25838443636894226,0.11716046929359436,-0.14182719588279724
1791114944442051600,1.610051513671875,0.3046787679195404,0.09676427394151688,-0.10710157454013824
1791114944452122600,1.62012255859375,0.26820623874664307,0.13153770565986633,-0.128042533993721
1791114944462193700,1.630193603515625,0.25984010100364685,0.1291196495294571,-0.05639846995472908
1791114944472264700,1.6402646484375,0.30863213539123535,0.12255735695362091,0.011597889475524426
1791114944482335700,1.650335693359375,0.2702122926712036,0.10910496860742569,-0.04735507816076279
1791114944492406500,1.660406494140625,0.18246592581272125,0.11064960062503815,-0.1262408345937729
1791114944502477600,1.6704775390625,0.1544746458530426,0.10100185871124268,-0.22826498746871948
1791114944512548600,1.680548583984375,0.07160824537277222,0.0903974175453186,-0.2986379861831665
1791114944522619600,1.69061962890625,0.11353763937950134,0.04676283150911331,-0.07370051741600037
1791114944532690700,1.700690673828125,0.20354503393173218,0.03301212936639786,0.09735112637281418
1791114944542761700,1.71076171875,0.17505601048469543,0.026117034256458282,0.10065300762653351
1791114944552832500,1.72083251953125,0.12783683836460114,0.02507973089814186,0.06656960397958755
1791114944562903600,1.730903564453125,0.07832609862089157,0.03142283484339714,0.021605586633086205
1791114944572974600,1.740974609375,-0.04336011782288551,0.026761237531900406,-0.036148786544799805
1791114944583045600,1.751045654296875,-0.0672905221581459,-0.04967202618718147,0.0803775042295456
1791114944593116700,1.76111669921875,-0.06003713607788086,-0.08435864001512527,0.16553421318531036
1791114944603187700,1.771187744140625,-0.10465595871210098,-0.11354508996009827,0.09417834877967834
1791114944613258500,1.781258544921875,-0.1293272078037262,-0.1501808613538742,0.08392145484685898
1791114944623329500,1.79132958984375,-0.13990096747875214,-0.15377166867256165,0.00942694116383791
1791114944633399800,1.80139990234375,-0.13982851803302765,-0.1427224725484848,0.00885542668402195
1791114944643470800,1.811470947265625,-0.09706632047891617,-0.16274577379226685,0.12052283436059952
1791114944653542000,1.8215419921875,-0.08284557610750198,-0.16671042144298553,0.11108751595020294
1791114944663612700,1.83161279296875,-0.08725717663764954,-0.17004172503948212,0.060588810592889786
1791114944673683700,1.84168359375,-0.12530682981014252,-0.12095087021589279,0.03313561528921127
1791114944683754800,1.851754638671875,-0.14791348576545715,-0.12993088364601135,-0.04611056298017502
1791114944693825800,1.86182568359375,-0.12659434974193573,-0.1477535516023636,-0.08536449074745178
1791114944703896800,1.871896728515625,-0.06405927240848541,-0.1591215878725052,0.01588006317615509
1791114944713967900,1.8819677734375,0.016823064535856247,-0.14288802444934845,0.0147074731066823
1791114944724038700,1.89203857421875,0.030722161754965782,-0.1214943379163742,-0.035414859652519226
1791114944734109700,1.902109619140625,0.04399508982896805,-0.0796068087220192,0.024469511583447456
1791114944744180700,1.9121806640625,0.0961008071899414,-0.06639725714921951,0.025336913764476776
1791114944754251800,1.922251708984375,0.1518770009279251,-0.05518428236246109,0.003174886107444763
1791114944764322800,1.93232275390625,0.20500989258289337,-0.011507982388138771,0.04912225157022476
1791114944774393900,1.942393798828125,0.2330005019903183,0.020133299753069878,0.021742025390267372
1791114944784464600,1.952464599609375,0.2953411638736725,0.0332641638815403,-0.01557224988937378
1791114944794535700,1.96253564453125,0.31714874505996704,0.09429502487182617,-0.025535933673381805
1791114944804606700,1.972606689453125,0.32412096858024597,0.11345690488815308,-0.08106255531311035
1791114944814677800,1.982677734375,0.3394429385662079,0.12236091494560242,-0.050701189786195755
1791114944824748800,1.992748779296875,0.36692875623703003,0.15749827027320862,0.0272356104105711
1791114944834819800,2.00281982421875,0.3912239670753479,0.17719580233097076,-0.04219326376914978
1791114944844891000,2.012890869140625,0.3909932076931,0.16757367551326752,-0.07397987693548203
1791114944854960600,2.022960693359375,0.3727359175682068,0.20534688234329224,-0.13862411677837372
1791114944865031700,2.03303173828125,0.36009782552719116,0.2233317643404007,-0.1534075289964676
1791114944875102700,2.043102783203125,0.40765681862831116,0.22502899169921875,-0.16107237339019775
1791114944885173800,2.053173828125,0.4094735383987427,0.24681587517261505,-0.23600736260414124
1791114944895244500,2.06324462890625,0.399289071559906,0.2309650182723999,-0.13536091148853302
1791114944905316000,2.073316162109375,0.4354276955127716,0.2534729540348053,-0.07253460586071014
1791114944915387100,2.08338720703125,0.3289308249950409,0.27704697847366333,-0.1275603026151657
1791114944925458000,2.0934580078125,0.3006977140903473,0.2603136897087097,-0.14133185148239136
1791114944935529000,2.103529052734375,0.331350177526474,0.2611997425556183,0.0088765574619174
1791114944945600000,2.11360009765625,0.3353064954280853,0.2345019280910492,0.008781135082244873
1791114944955671000,2.123671142578125,0.28879305720329285,0.20051546394824982,0.07296224683523178
1791114944965742000,2.1337421875,0.24976550042629242,0.21610715985298157,0.16443651914596558
1791114944975813000,2.143813232421875,0.23776370286941528,0.2060561180114746,0.06365504860877991
1791114944985884000,2.1538837890625,0.19854684174060822,0.20567117631435394,-0.010956238955259323
1791114944995955000,2.163954833984375,0.17495229840278625,0.19403262436389923,0.04931189492344856
1791114945006026000,2.17402587890625,0.10963577032089233,0.16002047061920166,0.02588002383708954
1791114945016097000,2.184096923828125,0.03608831390738487,0.15644703805446625,0.0004332539392635226
1791114945026168000,2.19416796875,0.02600441314280033,0.147812157869339,-0.079925537109375
1791114945036239000,2.204239013671875,0.05698337033390999,0.12224580347537994,-0.06503181159496307
1791114945046310000,2.214309814453125,0.08781062811613083,0.0877729132771492,0.10532824695110321
1791114945056381000,2.224380859375,0.06231778860092163,0.06958937644958496,0.20754462480545044
1791114945066452000,2.234451904296875,-0.018354034051299095,0.077298603951931,0.14223609864711761
1791114945076523000,2.24452294921875,-0.08056627959012985,0.0524907261133194,0.03743112459778786
1791114945086593000,2.254593017578125,-0.1473393738269806,0.01975211501121521,0.009598826058208942
1791114945096664000,2.2646640625,-0.1517716646194458,-0.025691797956824303,-0.014979487285017967
1791114945106735000,2.274735107421875,-0.0830913782119751,-0.004350860137492418,-0.017533551901578903
1791114945116806100,2.28480615234375,-0.042693089693784714,-0.0008219056762754917,-0.05747643858194351
1791114945126877200,2.294877197265625,-0.04721798002719879,-0.018673978745937347,0.008764771744608879
1791114945136948200,2.3049482421875,-0.07135181128978729,-0.0051565710455179214,0.0852624773979187
1791114945147019300,2.315019287109375,-0.0739457756280899,0.005357928574085236,0.09247023612260818
1791114945157090000,2.325090087890625,-0.043213699012994766,0.014040897600352764,0.08940626680850983
1791114945167161000,2.3351611328125,-0.007887642830610275,0.028134575113654137,0.09321210533380508
1791114945177232100,2.345232177734375,-0.03198179602622986,0.0366969034075737,0.13901421427726746
1791114945187303200,2.35530322265625,-0.0370815210044384,0.03311578556895256,0.17515884339809418
1791114945197374200,2.365374267578125,-0.04912513494491577,0.026878662407398224,0.1612297147512436
1791114945207445200,2.3754453125,0.00824295450001955,0.023598356172442436,0.0336020290851593
1791114945217516000,2.38551611328125,0.02938632294535637,0.01621740683913231,-0.12077528983354568
1791114945227587000,2.395587158203125,0.034308191388845444,0.03609974682331085,-0.07661570608615875
1791114945237658000,2.405658203125,0.019852284342050552,0.038395658135414124,-0.08498842269182205
1791114945247729200,2.415729248046875,0.025518983602523804,0.025029705837368965,-0.06845321506261826
1791114945257800200,2.42580029296875,0.08657807111740112,0.029324321076273918,-0.06552053987979889
1791114945267871200,2.435871337890625,0.06899137794971466,0.04545212164521217,-0.07405819743871689
1791114945277942000,2.44594189453125,0.05238870158791542,0.04511949047446251,0.0293094702064991
1791114945288013000,2.456012939453125,0.06361496448516846,0.053000353276729584,0.023746490478515625
1791114945298084000,2.466083984375,0.09128867089748383,0.06647701561450958,0.02858385629951954
1791114945308154000,2.476154052734375,0.1395723670721054,0.05098826438188553,0.08893781900405884
1791114945318225200,2.48622509765625,0.11207868903875351,0.06641355901956558,0.012188713066279888
1791114945328296000,2.4962958984375,0.038701895624399185,0.09004838764667511,-0.009548083879053593
1791114945338367000,2.506366943359375,0.07602210342884064,0.10838345438241959,0.07630796730518341
1791114945348438000,2.51643798828125,0.16937176883220673,0.13149060308933258,0.0796598419547081
1791114945358509000,2.526509033203125,0.24130560457706451,0.12058734893798828,0.08379413187503815
1791114945368580000,2.536580078125,0.2508704960346222,0.1125631108880043,0.11310069262981415
1791114945378651100,2.546651123046875,0.2112426608800888,0.165159210562706,0.03744695335626602
1791114945388722000,2.556721923828125,0.19474554061889648,0.2004542499780655,0.05557670444250107
1791114945398793000,2.56679296875,0.21451391279697418,0.22994184494018555,-0.012461734935641289
1791114945408864000,2.576864013671875,0.2411300241947174,0.22504857182502747,-0.026346059516072273
1791114945418935000,2.58693505859375,0.2635112404823303,0.24751394987106323,-0.06670413911342621
1791114945429006000,2.597006103515625,0.300132691860199,0.2646247148513794,-0.08174733072519302
1791114945439077000,2.6070771484375,0.3408425450325012,0.2674151659011841,0.0089847007766366
1791114945449148000,2.61714794921875,0.3349856436252594,0.2929494380950928,0.05952826514840126
1791114945459219000,2.627218994140625,0.28915688395500183,0.3070317208766937,0.01256315503269434
1791114945469290000,2.6372900390625,0.2877797782421112,0.3288557529449463,0.00970681756734848
1791114945479361000,2.647361083984375,0.3149528205394745,0.35039860010147095,0.020790893584489822
1791114945489432000,2.65743212890625,0.35542047023773193,0.3352895677089691,0.034297823905944824
1791114945499503000,2.667503173828125,0.29887622594833374,0.32125231623649597,0.15450680255889893
1791114945509574000,2.677573974609375,0.2708510160446167,0.3287096321582794,0.15085700154304504
1791114945519645000,2.68764501953125,0.2601166367530823,0.3392868936061859,0.12288261950016022
1791114945529716000,2.697716064453125,0.26314327120780945,0.3014037609100342,0.11819975823163986
1791114945539786000,2.707785888671875,0.22941112518310547,0.277988463640213,0.19711853563785553
1791114945549857000,2.71785693359375,0.17811216413974762,0.277929425239563,0.09886828809976578
1791114945559928000,2.727927978515625,0.11327112466096878,0.2532815933227539,0.01319519616663456
1791114945569999000,2.7379990234375,0.05818258970975876,0.2594864070415497,-0.03292216360569
1791114945580070100,2.748070068359375,0.050338514149188995,0.24425393342971802,0.02732147090137005
1791114945590141200,2.75814111328125,0.047832973301410675,0.2058723270893097,0.04138324782252312
1791114945600212200,2.768212158203125,0.05914687737822533,0.16736409068107605,0.059303924441337585
1791114945610283300,2.778283203125,0.0032661408185958862,0.16423927247524261,0.09073138236999512
1791114945620354000,2.78835400390625,-0.06047608703374863,0.1457129865884781,0.13972795009613037
1791114945630425000,2.798425048828125,-0.16164182126522064,0.11957455426454544,0.04538484290242195
1791114945640496000,2.80849609375,-0.2347932606935501,0.08215953409671783,0.0500967763364315
1791114945650567200,2.818567138671875,-0.23671233654022217,0.06148781627416611,-0.048161882907152176
1791114945660638200,2.82863818359375,-0.26260945200920105,0.03220023214817047,-0.0735282301902771
1791114945670709200,2.838709228515625,-0.25205400586128235,0.0057108402252197266,0.083671934902668
1791114945680780000,2.848780029296875,-0.24912185966968536,-0.021693885326385498,0.09393975138664246
1791114945690851000,2.85885107421875,-0.2640419602394104,-0.06026102975010872,0.05867179483175278
1791114945700922000,2.868922119140625,-0.27826428413391113,-0.07394807785749435,-0.03428451344370842
1791114945710993200,2.8789931640625,-0.3393164277076721,-0.08445028960704803,-0.15320338308811188
1791114945721064200,2.889064208984375,-0.3807562589645386,-0.07925446331501007,-0.13672028481960297
1791114945731135200,2.89913525390625,-0.3323635756969452,-0.06520663946866989,0.003967923112213612
1791114945741206300,2.909206298828125,-0.31667062640190125,-0.1341143250465393,0.20275931060314178
1791114945751277000,2.919277099609375,-0.31069108843803406,-0.15806172788143158,0.17708462476730347
1791114945761348000,2.92934814453125,-0.23699823021888733,-0.09156844019889832,0.20554210245609283
1791114945771419100,2.939419189453125,-0.21120384335517883,-0.056172970682382584,0.07461227476596832
1791114945781489200,2.9494892578125,-0.2649911940097809,-0.10759115219116211,-0.017985567450523376
1791114945791560000,2.959559814453125,-0.2949816882610321,-0.08232596516609192,-0.08775400370359421
1791114945801631000,2.969630859375,-0.21134859323501587,-0.06259753555059433,-0.034356825053691864
1791114945811702000,2.979701904296875,-0.12246134877204895,-0.08496072143316269,0.08281658589839935
1791114945821773000,2.98977294921875,-0.09020327776670456,-0.04927996173501015,-0.02045893855392933
1791114945831844000,2.999843994140625,-0.04249190539121628,-0.006489162798970938,-0.06770388782024384
1791114945841915100,3.0099150390625,-0.033087752759456635,0.03564204275608063,-0.07325045019388199
1791114945851986000,3.01998583984375,-0.04206825792789459,0.05100344866514206,0.0011726990342140198
1791114945862057000,3.030056884765625,-0.019882526248693466,0.07195373624563217,-0.05183299630880356
1791114945872128000,3.0401279296875,0.04799598082900047,0.06470128148794174,-0.09731213748455048
1791114945882199000,3.050198974609375,0.15969747304916382,0.06468823552131653,0.03088950552046299
1791114945892270000,3.06027001953125,0.19918854534626007,0.08394256979227066,-0.04340745881199837
1791114945902340900,3.0703408203125,0.19019106030464172,0.0848831981420517,-0.09154808521270752
1791114945912411600,3.08041162109375,0.19914403557777405,0.13378281891345978,-0.16806715726852417
1791114945922482700,3.090482666015625,0.21112000942230225,0.17471320927143097,-0.23854105174541473
1791114945932553700,3.1005537109375,0.25558897852897644,0.18001602590084076,-0.10967232286930084
1791114945942624800,3.110624755859375,0.3037136495113373,0.20274770259857178,-0.02253209799528122
1791114945952695800,3.12069580078125,0.352234423160553,0.21341408789157867,0.005228711757808924
1791114945962766800,3.130766845703125,0.34692487120628357,0.24674488604068756,-0.08791188150644302
1791114945972837600,3.140837646484375,0.2978871762752533,0.2839093804359436,-0.04949222505092621
1791114945982908700,3.15090869140625,0.30753767490386963,0.29488080739974976,-0.016264500096440315
1791114945992979700,3.160979736328125,0.3301646113395691,0.28791889548301697,0.07670727372169495
1791114946003050800,3.17105078125,0.32369470596313477,0.2754206657409668,0.0427146852016449
1791114946013121800,3.181121826171875,0.29854604601860046,0.27436861395835876,0.020264901220798492
1791114946023191800,3.19119189453125,0.29582348465919495,0.26815760135650635,-0.0246418546885252
1791114946033262800,3.201262939453125,0.24792489409446716,0.27013880014419556,0.00894144456833601
1791114946043334000,3.211333984375,0.25259608030319214,0.27953335642814636,-0.043234676122665405
1791114946053405000,3.221405029296875,0.2634354829788208,0.2832329571247101,-0.03533056005835533
1791114946063476000,3.23147607421875,0.2800919711589813,0.28697389364242554,-0.008223043754696846
1791114946073547000,3.241547119140625,0.3093136250972748,0.29137808084487915,0.14451397955417633
1791114946083617800,3.25161767578125,0.305418998003006,0.28000929951667786,0.13255666196346283
1791114946093688800,3.261688720703125,0.2624454200267792,0.2755374014377594,0.08644888550043106
1791114946103760000,3.271759765625,0.15302333235740662,0.27593794465065,0.1442943513393402
1791114946113831000,3.281830810546875,0.11192937940359116,0.28143101930618286,0.08887630701065063
1791114946123902000,3.29190185546875,0.06280072033405304,0.2961851954460144,-0.031111087650060654
1791114946133973000,3.301972900390625,0.07445802539587021,0.27396735548973083,-0.0692465677857399
1791114946144043800,3.312043701171875,0.09197310358285904,0.2808244526386261,-0.07418220490217209
1791114946154114800,3.32211474609375,0.0294986292719841,0.3026005029678345,-0.14162662625312805
1791114946164185900,3.332185791015625,0.0375557541847229,0.281382292509079,-0.13347095251083374
1791114946174257000,3.3422568359375,0.09786254167556763,0.28424307703971863,0.01413451973348856
1791114946184328000,3.352327880859375,0.07816500216722488,0.26958397030830383,0.2627536654472351
1791114946194399000,3.36239892578125,-0.022983243688941002,0.18418334424495697,0.2028578817844391
1791114946204469800,3.3724697265625,-0.13581152260303497,0.2058074027299881,0.05298689380288124
1791114946214540800,3.382540771484375,-0.13814716041088104,0.24199025332927704,0.11400889605283737
1791114946224611800,3.39261181640625,-0.1854478269815445,0.20758061110973358,0.011418608948588371
1791114946234683000,3.402682861328125,-0.21077610552310944,0.13874615728855133,0.10267379134893417
1791114946244754000,3.41275390625,-0.17866504192352295,0.12599094212055206,0.24250519275665283
1791114946254825000,3.422824951171875,-0.18717525899410248,0.137978196144104,0.14024527370929718
1791114946264896000,3.43289599609375,-0.24332241714000702,0.10821817070245743,0.13147789239883423
1791114946274965800,3.4429658203125,-0.2502521872520447,0.07270485162734985,-0.05107918381690979
1791114946285036800,3.453036865234375,-0.3360357880592346,0.06490232050418854,-0.21647800505161285
1791114946295107800,3.46310791015625,-0.2953438460826874,0.09997546672821045,-0.21018001437187195
1791114946305179000,3.473178955078125,-0.2616548538208008,0.0885837972164154,-0.0781354308128357
1791114946315249700,3.483249755859375,-0.27157050371170044,0.03523356467485428,0.09984313696622849
1791114946325320700,3.49332080078125,-0.3228832185268402,0.003272971138358116,0.00745861791074276
1791114946335391700,3.503391845703125,-0.36174100637435913,0.028990745544433594,-0.12366384267807007
1791114946345462800,3.513462890625,-0.38297146558761597,0.023463089019060135,-0.13847261667251587
1791114946355533800,3.523533935546875,-0.35388296842575073,-0.02726408652961254,0.02552025392651558
1791114946365604900,3.53360498046875,-0.3028581440448761,-0.043834540992975235,0.23131096363067627
1791114946375676000,3.543676025390625,-0.32543182373046875,-0.05163261666893959,0.1475287824869156
1791114946385746700,3.55374658203125,-0.356045663356781,-0.04938144609332085,0.08146961033344269
1791114946395817700,3.563817626953125,-0.3786481022834778,-0.02821044996380806,0.10214502364397049
1791114946405888800,3.573888671875,-0.390811026096344,-0.06750965118408203,-0.08316917717456818
1791114946415959800,3.583959716796875,-0.39776697754859924,-0.07707400619983673,-0.06924021989107132
1791114946426030800,3.59403076171875,-0.2670435905456543,-0.020178232342004776,0.11340522021055222
1791114946436102000,3.604101806640625,-0.16837386786937714,-0.009031484834849834,0.15443380177021027
1791114946446172700,3.614172607421875,-0.25902363657951355,-0.025483429431915283,0.19922125339508057
1791114946456243700,3.62424365234375,-0.36012402176856995,-0.02286648377776146,0.11249011009931564
1791114946466314800,3.634314697265625,-0.38587865233421326,0.002851664088666439,-0.08683124929666519
1791114946476385800,3.6443857421875,-0.41387617588043213,-0.0006645442917943001,-0.167075052857399
1791114946486456800,3.654456787109375,-0.38297152519226074,0.007241847924888134,-0.02802235633134842
1791114946496528000,3.66452783203125,-0.22749055922031403,0.006882376037538052,0.04603699594736099
1791114946506597600,3.67459765625,-0.30585435032844543,-0.019348163157701492,0.15013623237609863
1791114946516668700,3.684668701171875,-0.401290625333786,-0.06691436469554901,0.11992724984884262
1791114946526739700,3.69473974609375,-0.4041961431503296,-0.026039106771349907,-0.08238057792186737
1791114946536810800,3.704810791015625,-0.3616117835044861,-0.007442649453878403,0.06246057525277138
1791114946546881800,3.7148818359375,-0.30992650985717773,-0.05371241271495819,0.2790416181087494
1791114946556952800,3.724952880859375,-0.3361413776874542,-0.051503293216228485,0.3408336639404297
1791114946567023900,3.73502392578125,-0.3115484118461609,-0.02764882519841194,0.22649484872817993
1791114946577095000,3.745094970703125,-0.31419122219085693,0.008867286145687103,0.1484895795583725
1791114946587166000,3.755166015625,-0.34522131085395813,-0.026861149817705154,0.006797697860747576
1791114946597237000,3.765237060546875,-0.41002407670021057,-0.05474834144115448,0.05485015735030174
1791114946607308000,3.77530810546875,-0.3263382315635681,0.025373123586177826,-0.11044851690530777
1791114946617378800,3.78537890625,-0.27217185497283936,0.02822926640510559,-0.07832252234220505
1791114946627449900,3.795449951171875,-0.2762909531593323,0.046543825417757034,-0.04457627981901169
1791114946637521000,3.80552099609375,-0.26729026436805725,0.057772960513830185,-0.15486131608486176
1791114946647592000,3.815592041015625,-0.3081679046154022,0.047844965010881424,-0.14901328086853027
1791114946657663000,3.8256630859375,-0.30938246846199036,0.06011751666665077,-0.2579795718193054
1791114946667734000,3.835734130859375,-0.2958352267742157,0.04595935344696045,-0.17201003432273865
1791114946677804800,3.8458046875,-0.26587364077568054,0.027657918632030487,-0.22612740099430084
1791114946687875800,3.855875732421875,-0.43262240290641785,0.06727830320596695,-0.5212512016296387
1791114946697947000,3.86594677734375,-0.45206403732299805,0.03051517717540264,-0.2987135946750641
1791114946708018000,3.876017822265625,-0.429429292678833,-0.17503824830055237,0.7726625204086304
1791114946718089000,3.8860888671875,-0.7170841097831726,-0.21756285429000854,0.399923712015152
1791114946728160000,3.896159912109375,-0.24354878067970276,-0.15006104111671448,0.5045835375785828
1791114946738230800,3.906230712890625,0.003650026861578226,-0.037589866667985916,0.2157997339963913
1791114946748301800,3.9163017578125,-0.5228142738342285,0.18834100663661957,-0.4703408181667328
1791114946758371800,3.926371826171875,-0.8445503115653992,-0.03970789164304733,-0.7448440194129944
1791114946768443000,3.93644287109375,-0.7328879833221436,-0.19328494369983673,-0.5353291630744934
1791114946778514000,3.946513916015625,-0.51204514503479,-0.14343783259391785,-0.34335339069366455
1791114946788584700,3.956584716796875,-0.5343491435050964,-0.21145841479301453,-0.0737280398607254
1791114946798655700,3.96665576171875,-0.6674284338951111,-0.20483076572418213,0.03904009610414505
1791114946808726800,3.976726806640625,-0.6804526448249817,-0.24211075901985168,-0.14362852275371552
1791114946818797800,3.9867978515625,-0.7950537204742432,-0.28255367279052734,-0.4024980962276459
1791114946828868900,3.996868896484375,-0.6558878421783447,-0.26802292466163635,-0.3613637089729309
1791114946838940000,4.00693994140625,-0.48440054059028625,-0.26526889204978943,-0.2974470853805542
1791114946849010700,4.0170107421875,-0.5687553882598877,-0.402965784072876,-0.2351893186569214
1791114946859081700,4.027081787109375,-0.7439629435539246,-0.5181524157524109,0.014993224292993546
1791114946869152800,4.03715283203125,-0.8246500492095947,-0.4595452845096588,-0.03527047857642174
1791114946879223800,4.047223876953125,-0.7906883955001831,-0.35257524251937866,0.14146064221858978
1791114946889294800,4.057294921875,-0.6477118134498596,-0.3973062336444855,-0.0026970624458044767
1791114946899366000,4.067365966796875,-0.6054658889770508,-0.5362605452537537,-0.12646746635437012
1791114946909437400,4.0774375,-0.6876797676086426,-0.5989838242530823,-0.14515246450901031
1791114946919508200,4.08750830078125,-0.6824600100517273,-0.6161891222000122,0.09389068931341171
1791114946929579300,4.097579345703125,-0.6951148509979248,-0.5623093843460083,0.1611749231815338
1791114946939650300,4.107650390625,-0.6869714260101318,-0.5537110567092896,0.2735714912414551
1791114946949721300,4.117721435546875,-0.6668059825897217,-0.5704277157783508,0.2193751037120819
1791114946959792400,4.12779248046875,-0.5933314561843872,-0.5798609852790833,0.04462653025984764
1791114946969863400,4.137863525390625,-0.6212357878684998,-0.5809486508369446,-0.06001332774758339
1791114946979934200,4.147934326171875,-0.6331272125244141,-0.6366924047470093,-0.053999464958906174
1791114946990005200,4.158005126953125,-0.5722545385360718,-0.6123855113983154,0.21823018789291382
1791114947000076300,4.168076171875,-0.47987738251686096,-0.5689095258712769,0.16876289248466492
1791114947010146300,4.178146240234375,-0.40921732783317566,-0.6058222651481628,0.10434236377477646
1791114947020217300,4.18821728515625,-0.4318293631076813,-0.5944334864616394,0.26566845178604126
1791114947030288100,4.1982880859375,-0.46359023451805115,-0.557021975517273,0.203422412276268
1791114947040359200,4.208359130859375,-0.434289813041687,-0.5261391997337341,0.18865139782428741
1791114947050430200,4.21843017578125,-0.32091984152793884,-0.4798761010169983,0.4838252663612366
1791114947060501200,4.228501220703125,-0.2617374360561371,-0.4544704556465149,0.4217073619365692
1791114947070572300,4.238572265625,-0.25520363450050354,-0.47488489747047424,0.10423113405704498
1791114947080643300,4.248643310546875,-0.2667292654514313,-0.4846927523612976,-0.08369164168834686
1791114947090714000,4.258714111328125,-0.21032564342021942,-0.49770230054855347,0.15721043944358826
1791114947100785200,4.26878515625,-0.055967725813388824,-0.48634395003318787,0.23559772968292236
1791114947110856200,4.278856201171875,-0.04209718480706215,-0.43334755301475525,0.42982953786849976
1791114947120927200,4.28892724609375,-0.16376252472400665,-0.37010085582733154,0.1915099173784256
1791114947130998300,4.298998291015625,-0.18883726000785828,-0.3784615695476532,-0.02477896772325039
1791114947141069300,4.3090693359375,-0.11242446303367615,-0.40672463178634644,0.07094894349575043
1791114947151140000,4.31914013671875,0.032898109406232834,-0.4333450496196747,0.15602467954158783
1791114947161211100,4.329211181640625,0.14354035258293152,-0.4577871561050415,0.14970296621322632
1791114947171282200,4.3392822265625,0.04154899716377258,-0.4487673044204712,0.29217594861984253
1791114947181353200,4.349353271484375,-0.07729119807481766,-0.4847177565097809,0.12324123829603195
1791114947191424300,4.35942431640625,-0.11995238065719604,-0.460500568151474,-0.07064726948738098
1791114947201495300,4.369495361328125,-0.03121005743741989,-0.43149736523628235,0.00516737112775445
1791114947211566300,4.37956640625,0.03782626613974571,-0.446880578994751,0.15701203048229218
1791114947221637400,4.389637451171875,0.04251128062605858,-0.4371722936630249,0.1644066721200943
1791114947231708400,4.39970849609375,0.04264364019036293,-0.4314829707145691,0.20482279360294342
1791114947241779200,4.409779296875,0.09385646879673004,-0.4328366219997406,0.19198432564735413
1791114947251850200,4.419850341796875,0.16779248416423798,-0.38700389862060547,0.11412335187196732
1791114947261920300,4.429920166015625,0.18626531958580017,-0.2910054624080658,-0.006039147265255451
1791114947271991300,4.4399912109375,0.20246878266334534,-0.2995302379131317,0.1047547459602356
1791114947282062300,4.450062255859375,0.22892038524150848,-0.32613447308540344,0.16948649287223816
1791114947292133400,4.46013330078125,0.2825513780117035,-0.29542821645736694,0.3176749050617218
1791114947302204400,4.470204345703125,0.3044804036617279,-0.24494165182113647,0.15277889370918274
1791114947312275500,4.480275390625,0.27849751710891724,-0.21410198509693146,0.0312346164137125
1791114947322346200,4.49034619140625,0.27220654487609863,-0.16261662542819977,0.05736692622303963
1791114947332417300,4.500417236328125,0.345438152551651,-0.13695360720157623,0.14899244904518127
1791114947342488300,4.51048828125,0.4273153841495514,-0.12556083500385284,0.17944936454296112
1791114947352559400,4.520559326171875,0.4520348608493805,-0.11300535500049591,0.17128518223762512
1791114947362630400,4.53063037109375,0.39839431643486023,-0.0838848203420639,-0.003313031978905201
1791114947372701400,4.540701416015625,0.4159269630908966,-0.06623712182044983,-0.029711615294218063
1791114947382772200,4.550772216796875,0.4505549371242523,-0.0173944178968668,0.02508147433400154
1791114947392843300,4.56084326171875,0.41971391439437866,-0.003611493855714798,0.02671159617602825
1791114947402914300,4.570914306640625,0.38974112272262573,-0.006857880391180515,-0.05156281590461731
1791114947412985300,4.5809853515625,0.4086972177028656,-0.006375315599143505,0.020752662792801857
1791114947423056400,4.591056396484375,0.4307211637496948,0.00034902337938547134,0.1062777116894722
1791114947433127400,4.60112744140625,0.47090426087379456,-0.0013636555522680283,0.10140866041183472
1791114947443198200,4.6111982421875,0.45776620507240295,-0.013685128651559353,0.09474506974220276
1791114947453269200,4.621269287109375,0.42661601305007935,0.0011433521285653114,0.03649082034826279
1791114947463340300,4.63134033203125,0.3196709156036377,0.014087380841374397,0.021782446652650833
1791114947473411300,4.641411376953125,0.33106473088264465,-0.020419199019670486,-0.02505696378648281
1791114947483482400,4.651482421875,0.354590505361557,-0.01105388905853033,0.04476482793688774
1791114947493553400,4.661553466796875,0.34786444902420044,-0.0025650630705058575,0.07875528186559677
1791114947503624200,4.671624267578125,0.347508043050766,-0.03224913403391838,0.07574031502008438
1791114947513694200,4.681694091796875,0.34605181217193604,-0.04225276783108711,0.08591784536838531
1791114947523765200,4.69176513671875,0.3246515691280365,-0.03279779106378555,0.10101361572742462
1791114947533836300,4.701836181640625,0.29375410079956055,-0.04841962829232216,0.02343493327498436
1791114947543907300,4.7119072265625,0.23255573213100433,-0.04784731566905975,0.02223784290254116
1791114947553978000,4.72197802734375,0.17124043405056,-0.022180836647748947,-0.0012874567182734609
1791114947564049200,4.732049072265625,0.1519230306148529,-0.030050352215766907,-0.14345683157444
1791114947574120200,4.7421201171875,0.10986772924661636,-0.03789069876074791,-0.15412065386772156
1791114947584191200,4.752191162109375,0.1879667490720749,-0.03820807486772537,-0.06018223986029625
1791114947594262300,4.76226220703125,0.23709328472614288,0.017088470980525017,-0.018994854763150215
1791114947604333300,4.772333251953125,0.20926935970783234,0.024240385740995407,-0.061043135821819305
1791114947614404000,4.782404052734375,0.09268227964639664,0.07176236808300018,-0.09588394314050674
1791114947624475100,4.79247509765625,0.07283119857311249,0.0967901200056076,-0.20638522505760193
1791114947634546200,4.802546142578125,0.13597369194030762,0.08700141310691833,-0.11213649809360504
1791114947644617200,4.8126171875,0.21325615048408508,0.0918540209531784,-0.04300974681973457
1791114947654688300,4.822688232421875,0.23683178424835205,0.10769157111644745,-0.03493610769510269
1791114947664759300,4.83275927734375,0.181365504860878,0.12672848999500275,-0.059204019606113434
1791114947674830000,4.842830078125,0.1489580273628235,0.13703571259975433,-0.0144394775852561
1791114947684901000,4.852901123046875,0.0836520567536354,0.15607614815235138,-0.031440332531929016
1791114947694972200,4.86297216796875,0.046460747718811035,0.1430775225162506,-0.052675314247608185
1791114947705043200,4.873043212890625,0.05913610756397247,0.12717090547084808,0.05837325379252434
1791114947715114200,4.8831142578125,0.08868174999952316,0.1264752894639969,-0.05112607777118683
1791114947725185300,4.893185302734375,0.14361970126628876,0.117057204246521,-0.01973986253142357
1791114947735256300,4.90325634765625,0.07719354331493378,0.1448318511247635,0.06161810830235481
1791114947745327400,4.913327392578125,0.00758791621774435,0.15408921241760254,0.01737114228308201
1791114947755398400,4.9233984375,-0.012623878195881844,0.1310829520225525,0.0743742436170578
1791114947765468400,4.933468505859375,0.04887693002820015,0.1023518443107605,0.16410678625106812
1791114947775539500,4.94353955078125,0.043863531202077866,0.09346354007720947,0.08973453938961029
1791114947785610200,4.9536103515625,-0.024559982120990753,0.08611025661230087,-0.012534414418041706
1791114947795681300,4.963681396484375,-0.11107783019542694,0.061930082738399506,0.06233023852109909
1791114947805752300,4.97375244140625,-0.12908637523651123,0.05406222492456436,0.03703410550951958
1791114947815823400,4.9838232421875,-0.15855984389781952,0.003338063135743141,0.06253040581941605
1791114947825894400,4.993894287109375,-0.21137839555740356,-0.0395733043551445,0.1348891705274582
1791114947835965400,5.00396533203125,-0.2765265107154846,-0.05429765582084656,0.0280053298920393
1791114947846036200,5.0140361328125,-0.3682023882865906,-0.07018634676933289,-0.13009019196033478
1791114947856107300,5.024107177734375,-0.3795416057109833,-0.11530348658561707,0.045802537351846695
1791114947866178300,5.03417822265625,-0.3787080943584442,-0.1413384974002838,-0.0015778832603245974
1791114947876249300,5.044249267578125,-0.39584288001060486,-0.22871947288513184,-0.033635418862104416
1791114947886320400,5.0543203125,-0.43469324707984924,-0.2751323878765106,-0.0675642117857933
1791114947896391400,5.064391357421875,-0.4876890778541565,-0.2665303647518158,-0.07531693577766418
1791114947906462000,5.0744619140625,-0.5171690583229065,-0.30789923667907715,-0.00937780924141407
1791114947916533000,5.084532958984375,-0.45595234632492065,-0.33424481749534607,0.015485994517803192
1791114947926604000,5.09460400390625,-0.45603320002555847,-0.32033655047416687,-0.00420007249340415
1791114947936675000,5.104675048828125,-0.5205687880516052,-0.35699015855789185,-0.1695927530527115
1791114947946746000,5.11474609375,-0.5766576528549194,-0.36910855770111084,0.0762024000287056
1791114947956817200,5.124817138671875,-0.4956970512866974,-0.3374424874782562,0.04666607826948166
1791114947966888000,5.134887939453125,-0.42593154311180115,-0.3758002817630768,0.05570990592241287
1791114947976959000,5.144958984375,-0.4554428160190582,-0.402913898229599,0.11921218037605286
1791114947987030000,5.155030029296875,-0.4734130799770355,-0.4117140471935272,0.02708725817501545
1791114947997101000,5.16510107421875,-0.5093073844909668,-0.3768812119960785,-0.001482868567109108
1791114948007172000,5.175172119140625,-0.43443772196769714,-0.35820022225379944,0.049011994153261185
1791114948017243100,5.1852431640625,-0.346431702375412,-0.39234885573387146,0.053713541477918625
1791114948027313000,5.19531298828125,-0.33690398931503296,-0.3867218792438507,-0.01913643069565296
1791114948037384000,5.205384033203125,-0.3733927607536316,-0.3957478404045105,0.05688749626278877
1791114948047455000,5.215455078125,-0.27762773633003235,-0.3804212212562561,0.023609623312950134
1791114948057526000,5.225526123046875,-0.19848711788654327,-0.33012422919273376,0.020706510171294212
1791114948067597000,5.23559716796875,-0.24758775532245636,-0.3035922646522522,-0.035390887409448624
1791114948077667800,5.245667724609375,-0.32789698243141174,-0.3250879943370819,-0.10757799446582794
1791114948087739000,5.25573876953125,-0.3979508876800537,-0.3064219057559967,-0.22314117848873138
1791114948097810000,5.265809814453125,-0.26071152091026306,-0.34571897983551025,-0.061816729605197906
1791114948107881000,5.275880859375,-0.09838712960481644,-0.3901830315589905,0.22647526860237122
1791114948117952000,5.285951904296875,-0.0690004825592041,-0.3427145779132843,0.3419022858142853
1791114948128023000,5.29602294921875,-0.15109890699386597,-0.28889888525009155,0.08147519081830978
1791114948138093800,5.30609375,-0.1785411834716797,-0.26495012640953064,-0.007707147393375635
1791114948148164900,5.316164794921875,-0.10289567708969116,-0.22099199891090393,0.036651965230703354
1791114948158236000,5.32623583984375,0.05433815345168114,-0.21553970873355865,0.06147289648652077
1791114948168307000,5.336306884765625,0.05146541818976402,-0.21684180200099945,0.1503046452999115
1791114948178378000,5.3463779296875,-0.0239409189671278,-0.20767787098884583,0.060986753553152084
1791114948188449000,5.356448974609375,-0.07839090377092361,-0.19823533296585083,0.08504606783390045
1791114948198520000,5.36652001953125,-0.01704898290336132,-0.16140194237232208,0.09593652933835983
1791114948208591000,5.376591064453125,0.09019876271486282,-0.13241030275821686,0.06736338883638382
1791114948218662100,5.386662109375,0.061620648950338364,-0.1343916803598404,-0.005461283028125763
1791114948228733200,5.396733154296875,0.039198555052280426,-0.12578825652599335,-0.02117374911904335
1791114948238804200,5.40680419921875,0.013380005955696106,-0.09773266315460205,0.03165271133184433
1791114948248875300,5.416875244140625,0.07322335243225098,-0.08866406977176666,-0.04387202486395836
1791114948258946000,5.426946044921875,0.08607390522956848,-0.07078467309474945,0.15992584824562073
1791114948269017000,5.43701708984375,0.1152433380484581,-0.08188722282648087,0.11091357469558716
1791114948279088000,5.447088134765625,0.08604737371206284,-0.09582994133234024,0.045504745095968246
1791114948289159200,5.4571591796875,0.05769042298197746,-0.049552056938409805,-0.05226903036236763
1791114948299229200,5.467229248046875,0.04575200378894806,-0.037691134959459305,-0.11220613121986389
1791114948309300000,5.477300048828125,-0.02144680730998516,-0.06704598665237427,-0.035992562770843506
1791114948319371000,5.48737109375,-0.006826319266110659,-0.11082781851291656,-0.03969009220600128
1791114948329442000,5.497442138671875,-0.05883513391017914,-0.1325017511844635,0.007760470733046532
1791114948339513000,5.50751318359375,-0.09168681502342224,-0.16584134101867676,0.06334223598241806
1791114948349584100,5.517584228515625,-0.10424110293388367,-0.2150002419948578,-0.02596108615398407
1791114948359655200,5.5276552734375,-0.14809857308864594,-0.23358990252017975,-0.05171065777540207
1791114948369726000,5.537725830078125,-0.20085544884204865,-0.2539665997028351,-0.04967907816171646
1791114948379797000,5.547796875,-0.2494184523820877,-0.29640620946884155,-0.06737525016069412
1791114948389868000,5.557867919921875,-0.27679726481437683,-0.31743887066841125,-0.08887935429811478
1791114948399939000,5.56793896484375,-0.2567572295665741,-0.32373619079589844,-0.04310813546180725
1791114948410010000,5.578010009765625,-0.24723003804683685,-0.35705581307411194,0.07102712243795395
1791114948420081200,5.5880810546875,-0.29345691204071045,-0.37261292338371277,0.01607785001397133
1791114948430152000,5.59815185546875,-0.3769982159137726,-0.37853172421455383,0.007520354352891445
1791114948440223000,5.608222900390625,-0.38562873005867004,-0.400860458612442,-0.01257852278649807
1791114948450294000,5.6182939453125,-0.3025484085083008,-0.4046765863895416,-0.02779506705701351
1791114948460365000,5.628364990234375,-0.23596593737602234,-0.4197399616241455,0.11964339017868042
1791114948470436000,5.63843603515625,-0.25283533334732056,-0.41341426968574524,0.21830613911151886
1791114948480507100,5.648507080078125,-0.3079774081707001,-0.40159571170806885,0.19708873331546783
1791114948490578000,5.658577880859375,-0.2608333230018616,-0.3879920542240143,0.09700032323598862
1791114948500649000,5.66864892578125,-0.18474096059799194,-0.3478851318359375,0.07057511061429977
1791114948510720000,5.678719970703125,-0.07499518990516663,-0.30920514464378357,0.048818424344062805
1791114948520791000,5.688791015625,-0.052911460399627686,-0.2761707603931427,0.17823579907417297
1791114948530862000,5.698862060546875,-0.04404034838080406,-0.2579652667045593,0.015884097665548325
1791114948540933000,5.70893310546875,0.04978308454155922,-0.2095324993133545,-0.02661782130599022
1791114948551004000,5.71900390625,0.04346290975809097,-0.13096608221530914,-0.08434683829545975
1791114948561074000,5.729073974609375,0.06939996778964996,-0.1572546809911728,-0.002632535994052887
1791114948571146000,5.73914599609375,0.11020919680595398,-0.14548642933368683,0.11148034781217575
1791114948581216000,5.749216064453125,0.1673143059015274,-0.11091940104961395,-0.02247026190161705
1791114948591287000,5.759287109375,0.14923621714115143,-0.1410144567489624,-0.021509021520614624
1791114948601357800,5.76935791015625,0.16006596386432648,-0.1364159733057022,-0.027973312884569168
1791114948611428900,5.779428955078125,0.22263683378696442,-0.16116303205490112,0.3033286929130554
1791114948621500000,5.7895,0.2760350704193115,-0.12899577617645264,0.30103811621665955
1791114948631571000,5.799571044921875,0.23340892791748047,-0.1353946328163147,0.08652456849813461
1791114948641642000,5.80964208984375,0.16075922548770905,-0.13735897839069366,-0.0746813639998436
1791114948651713000,5.819713134765625,0.16286462545394897,-0.15833750367164612,0.02270536497235298
1791114948661783800,5.82978369140625,0.21793586015701294,-0.18456563353538513,0.12791752815246582
1791114948671854800,5.839854736328125,0.2380271703004837,-0.21095022559165955,0.18845701217651367
1791114948681926000,5.84992578125,0.12953291833400726,-0.19347137212753296,0.10569155961275101
1791114948691997000,5.859996826171875,0.0643007755279541,-0.19607049226760864,0.020268460735678673
1791114948702068000,5.87006787109375,0.11784043163061142,-0.19410374760627747,-0.09569862484931946
1791114948712139000,5.880138916015625,0.17945390939712524,-0.17527326941490173,-0.061416398733854294
1791114948722210000,5.8902099609375,0.14593324065208435,-0.15333467721939087,-0.09920612722635269
1791114948732281000,5.900281005859375,0.10080957412719727,-0.15408341586589813,-0.13159701228141785
1791114948742352100,5.91035205078125,0.05218664929270744,-0.13617952167987823,-0.13974733650684357
1791114948752423200,5.920423095703125,0.059840038418769836,-0.10784290730953217,-0.10707010328769684
1791114948762494200,5.930494140625,0.11430168151855469,-0.06942015886306763,0.0496944822371006
1791114948772565200,5.940565185546875,0.14050620794296265,-0.03594086319208145,-0.053172122687101364
1791114948782636300,5.95063623046875,0.13802973926067352,-0.03892839699983597,-0.1282988339662552
1791114948792707000,5.96070703125,0.14374993741512299,-0.05567701533436775,-0.18443480134010315
1791114948802778000,5.970778076171875,0.19899454712867737,-0.023685529828071594,-0.21093431115150452
1791114948812849200,5.98084912109375,0.15330837666988373,0.0322575680911541,-0.031089600175619125
1791114948822920200,5.990920166015625,0.11837515234947205,0.021839017048478127,0.035630304366350174
1791114948832990000,6.000989990234375,0.0948471873998642,0.03717665374279022,0.08419891446828842
1791114948843061000,6.01106103515625,0.17850826680660248,0.031642600893974304,-0.04398142546415329
1791114948853132000,6.021132080078125,0.26842910051345825,-0.0013472167775034904,-0.09669843316078186
1791114948863203000,6.031203125,0.22040776908397675,-0.000948009081184864,-0.04538997262716293
1791114948873274000,6.041274169921875,0.12323595583438873,0.018183786422014236,-0.049796704202890396
1791114948883345200,6.05134521484375,0.09778864681720734,0.010105352848768234,-0.0756610557436943
1791114948893416200,6.061416259765625,0.16520868241786957,-0.006353787146508694,-0.03105485998094082
1791114948903487000,6.071487060546875,0.19764705002307892,0.00597185455262661,0.0034213578328490257
1791114948913558500,6.08155859375,0.09327492117881775,-0.01988133229315281,-0.024091919884085655
1791114948923629600,6.091629638671875,0.01612340845167637,-0.06446824222803116,-0.12880635261535645
1791114948933700600,6.10170068359375,0.017207071185112,-0.0829591378569603,-0.02516261301934719
1791114948943771400,6.111771484375,0.11028162389993668,-0.07929676026105881,0.09976521134376526
1791114948953842400,6.121842529296875,0.06007527559995651,-0.11279117316007614,0.09214645624160767
1791114948963913500,6.13191357421875,-0.10513418167829514,-0.18286612629890442,-0.019656239077448845
1791114948973984500,6.141984619140625,-0.22087322175502777,-0.22014223039150238,-0.054430603981018066
1791114948984055600,6.1520556640625,-0.20249155163764954,-0.2627219259738922,-0.02140660583972931
1791114948994126600,6.162126708984375,-0.11284385621547699,-0.31806889176368713,0.052242595702409744
1791114949004197400,6.172197265625,-0.09171939641237259,-0.33530300855636597,0.09267311543226242
1791114949014268400,6.182268310546875,-0.12185389548540115,-0.35382309556007385,-0.008837866596877575
1791114949024339500,6.19233935546875,-0.1595914363861084,-0.3319425582885742,-0.017581289634108543
1791114949034410500,6.202410400390625,-0.1510322540998459,-0.28997647762298584,-0.013168638572096825
1791114949044481500,6.2124814453125,-0.07297074049711227,-0.2821824848651886,0.06309284269809723
1791114949054552600,6.222552490234375,-0.035755231976509094,-0.3251243829727173,0.1053081527352333
1791114949064623400,6.232623291015625,-0.053505733609199524,-0.3421393036842346,0.04385225102305412
1791114949074694400,6.2426943359375,-0.07600659132003784,-0.3155190944671631,0.06575557589530945
1791114949084765400,6.252765380859375,-0.039997994899749756,-0.2753794193267822,0.04084702953696251
1791114949094836500,6.26283642578125,-0.02944333478808403,-0.2671757936477661,0.06950518488883972
1791114949104906500,6.272906494140625,-0.008762292563915253,-0.23495712876319885,0.026806462556123734
1791114949114977300,6.282977294921875,0.03584837540984154,-0.22392314672470093,0.030286898836493492
1791114949125048300,6.29304833984375,0.14598792791366577,-0.21396425366401672,0.038128841668367386
1791114949135119400,6.303119384765625,0.2087337225675583,-0.1667657196521759,0.011346417479217052
1791114949145190400,6.3131904296875,0.18655173480510712,-0.10639718919992447,0.05114655941724777
1791114949155261400,6.323261474609375,0.13253846764564514,-0.09185325354337692,0.0655437558889389
1791114949165332500,6.33333251953125,0.16983124613761902,-0.08591973036527634,0.11681413650512695
1791114949175403300,6.3434033203125,0.31444764137268066,-0.08947781473398209,0.19686780869960785
1791114949185474300,6.353474365234375,0.3835225999355316,-0.046691201627254486,0.12450546026229858
1791114949195545300,6.36354541015625,0.3853517174720764,-0.013616140931844711,0.016167497262358665
1791114949205616400,6.373616455078125,0.26101458072662354,0.01455717347562313,-0.004882661625742912
1791114949215687400,6.3836875,0.273388534784317,0.015108311548829079,-0.13324177265167236
1791114949225758500,6.393758544921875,0.30230167508125305,0.03511211276054382,-0.1001349613070488
1791114949235829200,6.403829345703125,0.35051247477531433,0.03895008936524391,-0.07515629380941391
1791114949245900300,6.413900390625,0.3676411509513855,0.03093424066901207,-0.052310097962617874
1791114949255971300,6.423971435546875,0.3841489553451538,0.04180746152997017,-0.06425673514604568
1791114949266042400,6.43404248046875,0.44311824440956116,0.058141957968473434,-0.068707674741745
1791114949276113400,6.444113525390625,0.38807612657546997,0.12049075216054916,-0.07838893681764603
1791114949286184400,6.454184326171875,0.38564333319664,0.12133657187223434,-0.0906653106212616
1791114949296255200,6.464255126953125,0.39296504855155945,0.13482269644737244,-0.05720261484384537
1791114949306326300,6.474326171875,0.44476404786109924,0.11449292302131653,-0.10060707479715347
1791114949316397300,6.484397216796875,0.5045772790908813,0.07965561747550964,0.028150837868452072
1791114949326468400,6.49446826171875,0.5350385308265686,0.12866497039794922,0.18047194182872772
1791114949336539400,6.504539306640625,0.4526534080505371,0.17098122835159302,0.12182662636041641
1791114949346610400,6.5146103515625,0.42040571570396423,0.17586439847946167,0.02235942706465721
1791114949356681500,6.524681396484375,0.43272072076797485,0.1816791146993637,-0.004094756208360195
1791114949366752500,6.53475244140625,0.46042612195014954,0.20882710814476013,-0.03675523027777672
1791114949376823600,6.544823486328125,0.4097735285758972,0.20360098779201508,0.03688637912273407
1791114949386893600,6.5548935546875,0.3886328339576721,0.1872534453868866,0.05145759880542755
1791114949396964600,6.564964599609375,0.35048210620880127,0.22241774201393127,0.011858073994517326
1791114949407035400,6.575035400390625,0.3310636579990387,0.22477543354034424,-0.0625397264957428
1791114949417106400,6.5851064453125,0.33940261602401733,0.21911609172821045,-0.04199683666229248
1791114949427177500,6.595177490234375,0.3238276541233063,0.22271642088890076,0.039494823664426804
1791114949437248500,6.60524853515625,0.33513912558555603,0.19024187326431274,-0.01404153648763895
1791114949447319600,6.615319580078125,0.3050403296947479,0.19089701771736145,-0.008616412058472633
1791114949457390600,6.625390625,0.28329402208328247,0.20623096823692322,-0.0181095153093338
1791114949467461400,6.63546142578125,0.2338271588087082,0.20711752772331238,-0.02357245795428753
1791114949477532400,6.645532470703125,0.2030506581068039,0.1765398383140564,0.04203767329454422
1791114949487603500,6.655603515625,0.20301976799964905,0.16473829746246338,0.007992353290319443
1791114949497674500,6.665674560546875,0.22220884263515472,0.17155605554580688,-0.006015192251652479
1791114949507745500,6.67574560546875,0.15535417199134827,0.18208833038806915,-0.08225137740373611
1791114949517816600,6.685816650390625,0.05083466321229935,0.19159957766532898,-0.10454513132572174
1791114949527887600,6.6958876953125,0.07523481547832489,0.19099637866020203,-0.03513249754905701
1791114949537958400,6.70595849609375,0.16386033594608307,0.1562596708536148,0.09983629733324051
1791114949548029400,6.716029541015625,0.19653359055519104,0.14853304624557495,0.207853302359581
1791114949558100500,6.7261005859375,0.10869651287794113,0.18896985054016113,0.10805004090070724
1791114949568171500,6.736171630859375,-0.09783615916967392,0.18502303957939148,-0.1241949200630188
1791114949578242600,6.74624267578125,-0.18433105945587158,0.1756654679775238,-0.22777637839317322
1791114949588313600,6.756313720703125,-0.10143432021141052,0.1806466430425644,-0.087334044277668
1791114949598384400,6.76638427734375,0.008586418814957142,0.12825945019721985,0.04341379553079605
1791114949608455400,6.776455322265625,-0.00932973064482212,0.05707847699522972,0.22147274017333984
1791114949618526500,6.7865263671875,-0.08621351420879364,0.07407861948013306,0.10451001673936844
1791114949628597500,6.796597412109375,-0.1746578961610794,0.08882880955934525,-0.009350771084427834
1791114949638668500,6.80666845703125,-0.20647640526294708,0.06464667618274689,-0.018873782828450203
1791114949648739600,6.816739501953125,-0.15875229239463806,0.05064856633543968,0.05456874519586563
1791114949658809300,6.826809326171875,-0.13406716287136078,0.015521974302828312,-0.015587911009788513
1791114949668880400,6.83688037109375,-0.08647913485765457,-0.04600876197218895,-0.025423230603337288
1791114949678951400,6.846951416015625,-0.11567407846450806,-0.006708464585244656,-0.10738180577754974
1791114949689022500,6.8570224609375,-0.15627636015415192,-0.027667276561260223,0.008466229774057865
1791114949699093500,6.867093505859375,-0.16134756803512573,-0.05112298205494881,0.06086857244372368
1791114949709164300,6.877164306640625,-0.14326684176921844,-0.04368530586361885,0.010370247066020966
1791114949719235300,6.8872353515625,-0.18131975829601288,-0.04412764310836792,-0.08077019453048706
1791114949729306400,6.897306396484375,-0.14784355461597443,-0.03204088658094406,-0.14004603028297424
1791114949739377400,6.90737744140625,-0.1254301220178604,-0.02711411751806736,-0.12619449198246002
1791114949749448400,6.917448486328125,-0.13625773787498474,-0.0011954358778893948,-0.10831483453512192
1791114949759519500,6.92751953125,-0.10028824210166931,-0.04473944008350372,0.015857238322496414
1791114949769590300,6.93759033203125,-0.0708475261926651,-0.03900059312582016,-0.06145060062408447
1791114949779661300,6.947661376953125,-0.03617578744888306,0.022809214890003204,-0.058118656277656555
1791114949789732400,6.957732421875,-0.037496715784072876,0.027729667723178864,0.02862475998699665
1791114949799803400,6.967803466796875,-0.038065530359745026,0.005406714044511318,0.016999589279294014
1791114949809874400,6.97787451171875,0.009079348295927048,0.01578851416707039,0.1078093871474266
1791114949819945500,6.987945556640625,0.022822612896561623,0.036007195711135864,0.07593178004026413
1791114949830016300,6.998016357421875,-0.006655917968600988,0.030556239187717438,-0.04020041599869728
1791114949840087300,7.00808740234375,-0.03808664530515671,0.03543072193861008,-0.027757881209254265
1791114949850158300,7.018158447265625,-0.015673749148845673,0.047264210879802704,-0.05024801194667816
1791114949860229400,7.0282294921875,-0.017116814851760864,0.06245531141757965,0.05059872940182686
1791114949870300400,7.038300537109375,-0.020779727026820183,0.044023044407367706,0.02604970894753933
1791114949880371500,7.048371337890625,-0.04434937611222267,0.04517605900764465,0.10457932204008102
1791114949890442500,7.0584423828125,-0.009698455221951008,0.06719373911619186,-0.03118489682674408
1791114949900513500,7.068513427734375,0.05991454795002937,0.04456289857625961,0.058009978383779526
1791114949910584000,7.078583984375,0.04245965927839279,0.0738464891910553,0.12482602149248123
1791114949920655000,7.088655029296875,0.06583694368600845,0.06065076217055321,0.10164449363946915
1791114949930726000,7.098725830078125,0.014601719565689564,0.05674843117594719,0.0579950213432312
1791114949940796000,7.1087958984375,-0.0031231322791427374,0.06692799180746078,-0.0068387119099497795
1791114949950867000,7.118866943359375,0.02907581627368927,0.061817657202482224,-0.007421411573886871
1791114949960938000,7.12893798828125,0.04178299009799957,0.08610960096120834,0.0009904393227770925
1791114949971009000,7.139009033203125,0.07769305258989334,0.09452731907367706,0.0024115019477903843
1791114949981079800,7.149079833984375,0.01726660132408142,0.0955979973077774,0.05544203519821167
1791114949991150800,7.15915087890625,-0.010563964024186134,0.11572776734828949,0.03496605530381203
1791114950001222000,7.169221923828125,0.052213624119758606,0.08973508328199387,0.06932130455970764
1791114950011293000,7.17929296875,0.06299463659524918,0.12400117516517639,0.05155935138463974
1791114950021364000,7.189364013671875,0.069127656519413,0.11883856356143951,0.041658952832221985
1791114950031435000,7.19943505859375,-0.010752001777291298,0.12134778499603271,-0.044872477650642395
1791114950041505800,7.209505859375,-0.03836850821971893,0.12046537548303604,-0.0073980288580060005
1791114950051576800,7.219576904296875,-0.004042762331664562,0.06403832137584686,0.003145159687846899
1791114950061648000,7.22964794921875,0.03587398678064346,0.04450428485870361,0.03788016736507416
1791114950071719000,7.239718994140625,0.06842313706874847,0.06871774792671204,0.02548847533762455
1791114950081790000,7.2497900390625,0.04207833111286163,0.03763363137841225,0.02496686577796936
1791114950091861000,7.259861083984375,0.03758957237005234,0.04708918184041977,0.04982880502939224
1791114950101931800,7.269931884765625,-0.00019089033594354987,0.07831748574972153,0.12793190777301788
1791114950112002800,7.2800029296875,0.017766805365681648,0.048320166766643524,0.07225852459669113
1791114950122073900,7.290073974609375,0.013705873861908913,0.045154865831136703,0.03279278799891472
1791114950132145000,7.300144775390625,-0.0036318376660346985,0.05332065001130104,0.032415151596069336
1791114950142216000,7.3102158203125,0.06077231094241142,0.007562566548585892,0.0386229045689106
1791114950152287000,7.320286865234375,0.005403327755630016,0.04642794281244278,-0.011793660931289196
1791114950162357800,7.330357666015625,-0.009164615534245968,0.03954866901040077,-0.05311701446771622
1791114950172428800,7.3404287109375,-0.07232014834880829,0.06934331357479095,-0.030047116801142693
1791114950182499800,7.350499755859375,-0.031208869069814682,0.08520609885454178,0.05677802115678787
1791114950192571000,7.36057080078125,0.05130678042769432,0.0446954220533371,0.09397253394126892
1791114950202642000,7.370641845703125,0.042689137160778046,0.028039153665304184,0.07895082235336304
1791114950212713000,7.380712890625,-0.043654005974531174,0.025838050991296768,-0.0482231080532074
1791114950222783000,7.390782958984375,-0.11011449992656708,0.055874478071928024,-0.012547236867249012
1791114950232854000,7.40085400390625,-0.14274807274341583,0.08218038082122803,-0.02261398546397686
1791114950242925000,7.410925048828125,-0.14301733672618866,0.030425656586885452,0.015710603445768356
1791114950252995800,7.420995849609375,-0.09550335258245468,0.0019705789163708687,0.13284441828727722
1791114950263067000,7.43106689453125,-0.03928699716925621,-0.029356952756643295,0.036420345306396484
1791114950273138000,7.441137939453125,-0.09373132884502411,-0.04209325462579727,0.03284318745136261
1791114950283209000,7.451208984375,-0.16910061240196228,-0.049048930406570435,-0.00435205502435565
1791114950293280000,7.461280029296875,-0.21570859849452972,-0.05334274470806122,-0.014814017340540886
1791114950303351000,7.47135107421875,-0.23660916090011597,-0.07544425129890442,-0.026781857013702393
1791114950313422000,7.481422119140625,-0.2129930555820465,-0.1086975485086441,0.02908220700919628
1791114950323493000,7.4914931640625,-0.1695883870124817,-0.1503583788871765,-0.06598833948373795
1791114950333564200,7.501564208984375,-0.20930863916873932,-0.1319303661584854,-0.16592292487621307
1791114950343635000,7.511635009765625,-0.16939984261989594,-0.1471961885690689,-0.1212536171078682
1791114950353706000,7.5217060546875,-0.1616889238357544,-0.13208621740341187,-0.059329260140657425
1791114950363777000,7.531777099609375,-0.15828630328178406,-0.10003918409347534,0.04900667071342468
1791114950373848000,7.54184814453125,-0.14499525725841522,-0.1118316575884819,0.0876976028084755
1791114950383919000,7.551919189453125,-0.16668272018432617,-0.11968696862459183,-0.005186948925256729
1791114950393990100,7.561990234375,-0.17917853593826294,-0.09830604493618011,-0.10924038290977478
1791114950404061000,7.57206103515625,-0.1335165947675705,-0.11193755269050598,-0.03778444230556488
1791114950414132000,7.582132080078125,-0.09348529577255249,-0.09109219163656235,0.03865254297852516
1791114950424203000,7.592203125,-0.11633507162332535,-0.10124704241752625,-0.02827739343047142
1791114950434274000,7.602274169921875,-0.14547111093997955,-0.12075016647577286,0.004376690834760666
1791114950444345000,7.612344970703125,-0.07884461432695389,-0.10945545136928558,0.035685453563928604
1791114950454416100,7.622416015625,-0.05475817993283272,-0.08950437605381012,0.017699794843792915
1791114950464487000,7.63248681640625,-0.08832728862762451,-0.08276847749948502,0.005059430375695229
1791114950474558000,7.642557861328125,-0.12287221103906631,-0.05591609328985214,0.0002564189489930868
1791114950484629000,7.65262890625,-0.09815406054258347,-0.03659889101982117,-0.06076416000723839
1791114950494700000,7.662699951171875,-0.03686034306883812,-0.0426836833357811,-0.09132713079452515
1791114950504771000,7.67277099609375,0.07552224397659302,-0.06119837984442711,-0.014745349995791912
1791114950514840800,7.6828408203125,0.11336523294448853,-0.05518096685409546,-0.010079225525259972
1791114950524911900,7.692911865234375,0.05085522681474686,-0.039918579161167145,0.003702473361045122
1791114950534983000,7.70298291015625,0.0175449438393116,-0.036535829305648804,-0.0008629836374893785
1791114950545054000,7.713053955078125,0.0031917565502226353,-0.01814952678978443,-0.010910672135651112
1791114950555125000,7.723125,0.06669856607913971,-0.027936644852161407,-0.08938097953796387
1791114950565196000,7.733196044921875,0.08978498727083206,-0.024458859115839005,-0.09062771499156952
1791114950575266800,7.743266845703125,0.08780812472105026,-0.01793304830789566,0.06350140273571014
1791114950585337900,7.753337890625,0.0950729176402092,-0.015597160905599594,0.09636501222848892
1791114950595409000,7.763408935546875,0.0993339791893959,0.003106219694018364,0.08577761054039001
1791114950605480000,7.77347998046875,0.11887213587760925,-0.003825319465249777,-0.029155276715755463
1791114950615551000,7.783551025390625,0.08792327344417572,0.01148359477519989,0.049836743623018265
1791114950625622000,7.7936220703125,0.11303510516881943,0.0062050605192780495,0.034609436988830566
1791114950635692800,7.80369287109375,0.08767461776733398,0.003110733814537525,0.024673447012901306
1791114950645763800,7.813763916015625,0.06855345517396927,0.026633568108081818,-0.029835641384124756
1791114950655835000,7.8238349609375,0.08357901126146317,0.014806204475462437,-0.14355207979679108
1791114950665906000,7.833906005859375,0.1362297683954239,-0.03098611906170845,-0.05558551847934723
1791114950675977000,7.84397705078125,0.19399826228618622,-0.06058609113097191,0.06637154519557953
1791114950686048000,7.854048095703125,0.10330961644649506,-0.026199359446763992,-0.050407424569129944
1791114950696118800,7.864118896484375,0.0018588867969810963,0.004867211915552616,-0.06164915859699249
1791114950706189800,7.87418994140625,-0.017356211319565773,0.015871085226535797,-0.17818182706832886
1791114950716260900,7.8842607421875,0.018836945295333862,-0.007786573376506567,-0.14518553018569946
1791114950726332000,7.894331787109375,0.09987796097993851,-0.03272198885679245,-0.015510412864387035
1791114950736403000,7.90440283203125,0.15360483527183533,-0.05864386633038521,-0.0064684487879276276
1791114950746474000,7.914473876953125,0.10158182680606842,-0.04200710356235504,-0.0910964161157608
1791114950756544800,7.924544677734375,0.10817421972751617,-0.019864249974489212,-0.04950050264596939
1791114950766615800,7.93461572265625,0.11697495728731155,-0.00919383205473423,-0.10732816159725189
1791114950776686800,7.944686767578125,0.1335614025592804,0.0026100967079401016,-0.06702201813459396
1791114950786758000,7.9547578125,0.168573796749115,-0.011939612217247486,0.004094096831977367
1791114950796829000,7.964828857421875,0.18448325991630554,-0.017125053331255913,0.031021852046251297
1791114950806899000,7.97489892578125,0.17004750669002533,0.010060778819024563,0.0705861896276474
1791114950816970000,7.984969970703125,0.14852648973464966,0.028438720852136612,0.055616024881601334
1791114950827041000,7.995041015625,0.12344955652952194,0.018796052783727646,0.08254338055849075
1791114950837112000,8.005112060546875,0.13353867828845978,0.014048169367015362,0.09004444628953934
1791114950847183000,8.01518310546875,0.16802778840065002,0.006364807486534119,0.052794042974710464
1791114950857254100,8.025254150390625,0.18697938323020935,0.013506606221199036,-0.006287387106567621
1791114950867325000,8.035324951171875,0.17928673326969147,0.04374770447611809,-0.032075438648462296
1791114950877396000,8.04539599609375,0.13688787817955017,0.0649520605802536,-0.07025185227394104
1791114950887467000,8.055467041015625,0.12418290972709656,0.05795847624540329,-0.03458895534276962
1791114950897538000,8.0655380859375,0.15984344482421875,0.05344148725271225,0.051565904170274734
1791114950907609300,8.075609375,0.1871197521686554,0.046547386795282364,0.08705044537782669
1791114950917680400,8.085680419921875,0.18311195075511932,0.027368899434804916,0.07070129364728928
1791114950927751400,8.09575146484375,0.17707853019237518,0.03707779943943024,0.03078700229525566
1791114950937822200,8.105822265625,0.1448066234588623,0.08798811584711075,-0.05059174448251724
1791114950947893200,8.115893310546875,0.16031989455223083,0.09333936870098114,-0.021375246345996857
1791114950957964300,8.12596435546875,0.17522507905960083,0.09628430008888245,-0.026422468945384026
1791114950968035300,8.136035400390625,0.20798169076442719,0.09408177435398102,0.03893683850765228
1791114950978106400,8.1461064453125,0.19408133625984192,0.0941009521484375,0.05689799413084984
1791114950988177400,8.156177490234375,0.22257669270038605,0.10133460909128189,0.061977289617061615
1791114950998248200,8.166248291015625,0.2253144234418869,0.11541260778903961,0.10617644339799881
1791114951008319200,8.1763193359375,0.26657402515411377,0.11104846000671387,0.0997990295290947
1791114951018390300,8.186390380859375,0.2407325655221939,0.13409465551376343,0.17795082926750183
1791114951028461300,8.19646142578125,0.1919078528881073,0.15142640471458435,0.07736228406429291
1791114951038532400,8.206532470703126,0.12166165560483932,0.1363646239042282,0.031738344579935074
1791114951048603400,8.216603271484376,0.10707971453666687,0.14445538818836212,0.02440030872821808
1791114951058674400,8.22667431640625,0.2054038941860199,0.13104823231697083,0.07430208474397659
1791114951068745200,8.2367451171875,0.242162823677063,0.10000442713499069,0.05362416058778763
1791114951078816300,8.246816162109376,0.25320670008659363,0.06451088190078735,0.00612321961671114
1791114951088886300,8.25688623046875,0.17231231927871704,0.11048434674739838,-0.09629978239536285
1791114951098957300,8.266957275390626,0.11779234558343887,0.11542050540447235,-0.08447534590959549
1791114951109028000,8.277028076171876,0.1152115985751152,0.10834169387817383,-0.07071594148874283
1791114951119099100,8.28709912109375,0.1271417737007141,0.11239849030971527,0.05547049269080162
1791114951129170200,8.297170166015626,0.1730452924966812,0.06606106460094452,0.021022284403443336
1791114951139241200,8.3072412109375,0.16483555734157562,0.052903980016708374,0.05948552116751671
1791114951149312300,8.317312255859376,0.10590506345033646,0.08744692802429199,-0.015118907205760479
1791114951159383300,8.32738330078125,0.07309012115001678,0.07409624755382538,0.017676057294011116
1791114951169454000,8.3374541015625,0.10834591090679169,0.09167911857366562,-0.08256883174180984
1791114951179525000,8.347525146484376,0.11255982518196106,0.10579466819763184,-0.06224838271737099
1791114951189596200,8.35759619140625,0.15305306017398834,0.09671474993228912,0.002724146004766226
1791114951199667200,8.367667236328124,0.18134169280529022,0.08657343685626984,0.10677731037139893
1791114951209738200,8.37773828125,0.11126422882080078,0.12271053344011307,0.026630258187651634
1791114951219809300,8.387809326171874,0.05847823992371559,0.10090244561433792,0.05718683451414108
1791114951229880300,8.39788037109375,0.09081925451755524,0.11408469080924988,-0.015056552365422249
1791114951239951000,8.407951171875,0.11913584917783737,0.11929596960544586,0.06495625525712967
1791114951250022100,8.418022216796874,0.08531011641025543,0.08759596198797226,0.01288461685180664
1791114951260093200,8.42809326171875,0.04714329540729523,0.09580489248037338,-0.005266955588012934
1791114951270164200,8.438164306640624,0.004933051764965057,0.10181105136871338,-0.038157567381858826
1791114951280235300,8.4482353515625,0.02847859263420105,0.06199945881962776,-0.038998596370220184
1791114951290306300,8.458306396484375,0.07579409331083298,0.07549433410167694,-0.006930527277290821
1791114951300377000,8.468377197265625,0.08668429404497147,0.09469439089298248,-0.069342240691185
1791114951310448000,8.4784482421875,0.133314847946167,0.061718884855508804,0.011526813730597496
1791114951320519200,8.488519287109375,0.16034619510173798,0.0764315277338028,0.15702861547470093
1791114951330590200,8.498590087890625,0.0926346555352211,0.12116534262895584,0.10865727812051773
1791114951340661200,8.5086611328125,-0.004959813319146633,0.09062740951776505,0.044061776250600815
1791114951350732300,8.518732177734375,0.021631911396980286,0.04901731014251709,-0.048418935388326645
1791114951360803000,8.528802978515625,0.07050012052059174,0.09731613844633102,-0.11852239072322845
1791114951370874000,8.5388740234375,0.07894639670848846,0.1278931200504303,-0.1639287918806076
1791114951380945200,8.548945068359375,0.09656800329685211,0.0675048679113388,0.0012678903294727206
1791114951391015200,8.55901513671875,0.0933663621544838,0.09051889181137085,0.11409393697977066
1791114951401086200,8.569086181640625,0.12275328487157822,0.12083710730075836,0.029285309836268425
1791114951411157200,8.5791572265625,0.11618230491876602,0.11055215448141098,0.04291805252432823
1791114951421228300,8.589228271484375,0.073267862200737,0.14634451270103455,-0.08464816212654114
1791114951431299300,8.59929931640625,0.068141870200634,0.18450194597244263,-0.16461706161499023
1791114951441370400,8.609370361328125,0.13831616938114166,0.16583478450775146,-0.03746817633509636
1791114951451441400,8.61944140625,0.22715243697166443,0.12871919572353363,0.10647469013929367
1791114951461512400,8.629512451171875,0.20197224617004395,0.13157597184181213,0.09354451298713684
1791114951471583200,8.639583251953125,0.13626836240291595,0.16361594200134277,0.06962975859642029
1791114951481654300,8.649654296875,0.09225402772426605,0.2077983170747757,-0.07014385610818863
1791114951491725300,8.659725341796875,0.05704900622367859,0.22563037276268005,-0.18366585671901703
1791114951501796400,8.66979638671875,0.10430120676755905,0.207795187830925,-0.12723320722579956
1791114951511867400,8.679867431640625,0.14270168542861938,0.2069261372089386,-0.1760750412940979
1791114951521938400,8.6899384765625,0.13308393955230713,0.20025253295898438,-0.09477006644010544
1791114951532009200,8.70000927734375,0.11992830783128738,0.19395223259925842,0.02021780051290989
1791114951542080300,8.710080322265625,0.1375107616186142,0.15218323469161987,0.10995141416788101
1791114951552151300,8.7201513671875,0.10505113005638123,0.17279383540153503,0.023399539291858673
1791114951562222300,8.730222412109375,0.052643850445747375,0.19044126570224762,-0.05745110288262367
1791114951572293400,8.74029345703125,0.02386927790939808,0.18275555968284607,-0.13068923354148865
1791114951582364400,8.750364501953126,0.10052677243947983,0.17150422930717468,-0.008232293650507927
1791114951592435200,8.760435302734376,0.13411074876785278,0.16935493052005768,0.07523903250694275
1791114951602506200,8.77050634765625,0.07479788362979889,0.13560336828231812,0.28828394412994385
1791114951612577300,8.780577392578126,-0.04460379481315613,0.15185920894145966,0.1546093374490738
1791114951622648300,8.7906484375,-0.09089965373277664,0.16504371166229248,0.052832648158073425
1791114951632719400,8.80071923828125,-0.02574094757437706,0.17019601166248322,-0.019040949642658234
1791114951642790400,8.810790283203126,0.06145387515425682,0.12226417660713196,0.017245152965188026
1791114951652861200,8.820861083984376,0.052865177392959595,0.09526176750659943,0.02829538658261299
1791114951662932200,8.83093212890625,-0.01701563596725464,0.085983045399189,0.13980193436145782
1791114951673003300,8.841003173828126,-0.06871011108160019,0.10325751453638077,0.06080547347664833
1791114951683074300,8.85107421875,-0.07983306795358658,0.08778560906648636,0.036756064742803574
1791114951693144300,8.861144287109376,-0.024849610403180122,0.06600960344076157,0.1362781524658203
1791114951703215000,8.871215087890626,-0.04391331225633621,0.06433846801519394,0.21552370488643646
1791114951713286100,8.8812861328125,-0.14587000012397766,0.07440034300088882,0.04685913398861885
1791114951723357200,8.891357177734376,-0.19070857763290405,0.06134872883558273,-0.00016483583021908998
1791114951733428200,8.90142822265625,-0.1146215945482254,0.07204995304346085,-0.018299605697393417
1791114951743499300,8.911499267578124,-0.05508662760257721,0.03797480836510658,0.009017502889037132
1791114951753570300,8.9215703125,-0.0438903346657753,0.02266605943441391,0.16816136240959167
1791114951763641000,8.93164111328125,-0.09649176150560379,0.04299023747444153,0.20577718317508698
1791114951773712100,8.941712158203124,-0.1501280814409256,0.03120046854019165,0.22236788272857666
1791114951783783200,8.951783203125,-0.17963777482509613,0.0016721384599804878,0.2114606499671936
1791114951793854200,8.961854248046874,-0.20272192358970642,0.018245341256260872,0.08976209163665771
1791114951803925200,8.97192529296875,-0.23714275658130646,0.008501367643475533,-0.008378058671951294
1791114951813996300,8.981996337890624,-0.21046939492225647,0.02363462559878826,-0.060316052287817
1791114951824067000,8.992067138671874,-0.10485135763883591,0.0008195927366614342,-0.018678858876228333
1791114951834138000,9.00213818359375,-0.06413660198450089,-0.04817153513431549,0.005562958307564259
1791114951844209200,9.012209228515625,-0.13392606377601624,-0.011444147676229477,0.11837606132030487
1791114951854280200,9.0222802734375,-0.1697269082069397,-0.0030634766444563866,0.05666961148381233
1791114951864351200,9.032351318359375,-0.13358302414417267,0.004985927604138851,-0.09229856729507446
1791114951874422300,9.04242236328125,-0.12201330065727234,0.040764834731817245,-0.07910945266485214
1791114951884493000,9.0524931640625,-0.13368433713912964,0.023615941405296326,0.0034016745630651712
1791114951894564000,9.062564208984375,-0.1072487011551857,-0.01022860687226057,0.11983887106180191
1791114951904635100,9.07263525390625,-0.1440112441778183,0.02801758050918579,0.14503662288188934
1791114951914706000,9.082705810546875,-0.14625218510627747,0.03870847821235657,0.15129826962947845
1791114951924777000,9.09277685546875,-0.10106286406517029,-0.015384051948785782,-0.0025634595658630133
1791114951934847700,9.10284765625,-0.12325398623943329,0.018383299931883812,-0.06787850707769394
1791114951944918800,9.112918701171875,-0.09153147786855698,0.023505356162786484,0.061696525663137436
1791114951954989800,9.12298974609375,-0.052408408373594284,0.02456996589899063,0.12490344792604446
1791114951965060900,9.133060791015625,-0.036462731659412384,0.04621720314025879,0.19225798547267914
1791114951975132000,9.1431318359375,-0.04300187900662422,0.044632840901613235,0.20898379385471344
1791114951985203000,9.153202880859375,-0.042845286428928375,0.03384117782115936,0.2188766449689865
1791114951995273000,9.16327294921875,-0.0815034806728363,0.047534435987472534,0.03825050964951515
1791114952005344000,9.173343994140625,-0.12434601783752441,0.04661191627383232,0.02301962673664093
1791114952015415000,9.1834150390625,-0.06498211622238159,0.017339132726192474,-0.024467559531331062
1791114952025486000,9.193486083984375,-0.04990941658616066,0.0018864069133996964,0.04980027675628662
1791114952035557000,9.20355712890625,-0.0305659007281065,-0.004423404112458229,0.05448995530605316
1791114952045628000,9.2136279296875,-0.06118745729327202,-0.016185522079467773,0.026227159425616264
1791114952055699000,9.223698974609375,-0.12178260833024979,-0.003504694439470768,0.013102466240525246
1791114952065770000,9.23377001953125,-0.14454704523086548,-0.016626089811325073,0.004822165239602327
1791114952075841000,9.243841064453125,-0.16746550798416138,-0.043347571045160294,0.008476265706121922
1791114952085912000,9.253912109375,-0.16178391873836517,-0.058219727128744125,-0.01756758615374565
1791114952095983000,9.263983154296875,-0.15706069767475128,-0.07310721278190613,0.06139302998781204
1791114952106054000,9.274053955078125,-0.11331003159284592,-0.10481905937194824,0.09523754566907883
1791114952116125000,9.284125,-0.06782609969377518,-0.14534951746463776,0.19378431141376495
1791114952126196000,9.294196044921875,-0.06064116209745407,-0.13866950571537018,0.13070733845233917
1791114952136267000,9.30426708984375,-0.049123749136924744,-0.10363560914993286,0.097543865442276
1791114952146338000,9.314338134765626,-0.05922192335128784,-0.10157112777233124,0.019861320033669472
1791114952156409000,9.3244091796875,0.025281528010964394,-0.12708957493305206,0.01351357251405716
1791114952166480000,9.33447998046875,0.05831244960427284,-0.11597354710102081,-0.03211569786071777
1791114952176551000,9.344551025390626,0.0671248510479927,-0.09745769202709198,-0.00040782970609143376
1791114952186622000,9.3546220703125,-0.006562685593962669,-0.11850918084383011,-0.04073821008205414
1791114952196693000,9.36469287109375,-0.02830284833908081,-0.11690542101860046,0.04072565212845802
1791114952206764000,9.374763916015626,-0.012905517593026161,-0.0888812392950058,-0.02475642040371895
1791114952216835000,9.3848349609375,0.0398416630923748,-0.07460778206586838,-0.14688166975975037
1791114952226905900,9.39490576171875,0.08347222954034805,-0.03869478777050972,-0.15683309733867645
1791114952236977000,9.404976806640626,0.1042727455496788,-0.012401608750224113,-0.060652799904346466
1791114952247048000,9.4150478515625,0.11006645113229752,-0.003001183271408081,-0.02282952144742012
1791114952257119000,9.425118896484374,0.12309542298316956,-0.001990743912756443,0.03786322474479675
1791114952267190000,9.43518994140625,0.19317808747291565,0.006673851050436497,0.04412005469202995
1791114952277261000,9.445260986328124,0.2185685634613037,0.03178173676133156,-0.03565271943807602
1791114952287330800,9.455330810546876,0.22662115097045898,0.06194789335131645,0.048139914870262146
1791114952297401900,9.46540185546875,0.26585623621940613,0.09779500216245651,0.060103487223386765
1791114952307473000,9.475472900390624,0.32341861724853516,0.0730089619755745,0.1475379914045334
1791114952317544000,9.4855439453125,0.3285256028175354,0.0952230840921402,0.10936383157968521
1791114952327615000,9.495614990234374,0.318991482257843,0.11156157404184341,0.10630466043949127
1791114952337685800,9.505685791015624,0.3110835552215576,0.1375635713338852,0.006008440628647804
1791114952347756800,9.5157568359375,0.2815898656845093,0.16985651850700378,-0.014368470758199692
1791114952357827800,9.525827880859374,0.25662198662757874,0.1870923787355423,-0.0722975954413414
1791114952367899000,9.53589892578125,0.24306410551071167,0.21110716462135315,-0.23102571070194244
1791114952377970000,9.545969970703124,0.2640191614627838,0.19314663112163544,-0.25801530480384827
1791114952388041000,9.556041015625,0.3376353085041046,0.15798145532608032,-0.1359053999185562
1791114952398111700,9.56611181640625,0.3590136170387268,0.2171863317489624,0.08096776157617569
1791114952408182800,9.576182861328125,0.30604973435401917,0.2410850077867508,0.12826336920261383
1791114952418253800,9.58625390625,0.25228774547576904,0.23513635993003845,-0.03562287241220474
1791114952428324900,9.596324951171875,0.24461516737937927,0.26570677757263184,-0.06124727427959442
1791114952438396000,9.60639599609375,0.28060877323150635,0.2666753828525543,-0.01601216569542885
1791114952448467000,9.616467041015625,0.3099418878555298,0.19691094756126404,0.05998779460787773
1791114952458537700,9.626537841796875,0.29481053352355957,0.16549934446811676,0.10177654772996902
1791114952468608800,9.63660888671875,0.2850436568260193,0.18708452582359314,0.11860267072916031
1791114952478679800,9.6466796875,0.21177583932876587,0.18338704109191895,0.10199253261089325
1791114952488750800,9.656750732421875,0.1390555500984192,0.17738747596740723,0.07400697469711304
1791114952498822000,9.66682177734375,0.122392937541008,0.17363613843917847,0.06602770835161209
1791114952508893000,9.676892822265625,0.10169964283704758,0.1743064522743225,-0.03301365301012993
1791114952518963700,9.686963623046875,0.1030738353729248,0.13397949934005737,0.03673373907804489
1791114952529034800,9.69703466796875,0.07881350815296173,0.15579450130462646,-0.026780521497130394
1791114952539105800,9.707105712890625,0.005540273152291775,0.1484120637178421,0.06090978905558586
1791114952549176800,9.7171767578125,0.0028201206587255,0.1228068470954895,-0.015335713513195515
1791114952559248000,9.727247802734375,-0.022962188348174095,0.1582641750574112,0.008938365615904331
1791114952569319000,9.73731884765625,0.00547424703836441,0.17405618727207184,0.08646218478679657
1791114952579389700,9.7473896484375,0.006679696496576071,0.1432821899652481,0.1301574856042862
1791114952589460700,9.757460693359375,-0.034686118364334106,0.13072405755519867,0.10556799173355103
1791114952599531000,9.767531005859375,-0.14760813117027283,0.09741289168596268,0.06773555278778076
1791114952609602000,9.77760205078125,-0.23179703950881958,0.06777483969926834,0.09963516145944595
1791114952619673000,9.787673095703125,-0.24789543449878693,0.06480400264263153,0.06681311875581741
1791114952629743900,9.797743896484375,-0.2567829489707947,0.025422770529985428,0.11926700174808502
1791114952639815000,9.80781494140625,-0.25034525990486145,-0.04491725191473961,0.12377271056175232
1791114952649886000,9.817885986328125,-0.3135508596897125,-0.06594344228506088,0.002750945510342717
1791114952659957000,9.82795703125,-0.32044437527656555,-0.058156684041023254,-0.006591037847101688
1791114952670028000,9.838028076171875,-0.33161768317222595,-0.049793560057878494,-0.11696894466876984
1791114952680099000,9.84809912109375,-0.35338863730430603,-0.09603732079267502,-0.0691961795091629
1791114952690169900,9.858169921875,-0.3176679015159607,-0.11568132787942886,0.03512277081608772
1791114952700241000,9.868240966796876,-0.2941986918449402,-0.13453292846679688,0.15858720242977142
1791114952710312000,9.87831201171875,-0.2923712134361267,-0.17111515998840332,0.04449818655848503
1791114952720383000,9.888383056640626,-0.3519619107246399,-0.21049605309963226,0.03520448878407478
1791114952730454000,9.8984541015625,-0.3797631859779358,-0.21698057651519775,-0.03495968505740166
1791114952740525000,9.908525146484376,-0.35568615794181824,-0.2399367094039917,0.006987216882407665
1791114952750595800,9.918595947265626,-0.30780038237571716,-0.2326636165380478,-0.04452550783753395
1791114952760667000,9.9286669921875,-0.24578994512557983,-0.2505534291267395,-0.029090244323015213
1791114952770738000,9.938738037109376,-0.18307650089263916,-0.2667883038520813,0.024073109030723572
1791114952780809000,9.94880908203125,-0.13708193600177765,-0.23089469969272614,0.02407602034509182
1791114952790880000,9.9588798828125,-0.13812614977359772,-0.184109628200531,0.0217987522482872
1791114952800951000,9.968950927734374,-0.073269322514534,-0.1692878156900406,0.023268941789865494
1791114952811021800,9.979021728515624,-0.05167534574866295,-0.11165887862443924,-0.04796183109283447
1791114952821092900,9.9890927734375,0.012074933387339115,-0.11199907958507538,-0.14470946788787842
1791114952831164000,9.999163818359374,0.029301058501005173,-0.07577795535326004,-0.08607517182826996
1791114952841235000,10.00923486328125,0.083043672144413,-0.028832854703068733,0.002116373274475336
1791114952851306000,10.019305908203124,0.135018989443779,-0.035463325679302216,0.09613022208213806
1791114952861377000,10.029376953125,0.23164613544940948,-0.026943009346723557,0.11933864653110504
1791114952871448000,10.039447998046874,0.25804606080055237,0.024215783923864365,0.024696556851267815
1791114952881518800,10.049518798828124,0.25091293454170227,0.04120103269815445,-0.06623310595750809
1791114952891590000,10.05958984375,0.20829090476036072,0.07482264190912247,-0.009108299389481544
1791114952901661000,10.069660888671875,0.2542603611946106,0.0955193042755127,0.051771581172943115
1791114952911731200,10.079731201171874,0.2650725245475769,0.10921887308359146,0.01205452997237444
1791114952921802200,10.08980224609375,0.2725042402744293,0.09635105729103088,0.011148771271109581
1791114952931873300,10.099873291015625,0.2833012342453003,0.08856931328773499,0.00411429675295949
1791114952941944300,10.1099443359375,0.309787780046463,0.10797543078660965,-0.05686052143573761
1791114952952015400,10.120015380859375,0.25648969411849976,0.13284163177013397,-0.04808726906776428
1791114952962086100,10.130086181640625,0.2553059458732605,0.12699681520462036,-0.04677639529109001
1791114952972157200,10.1401572265625,0.26993656158447266,0.1260756254196167,0.007229851558804512
1791114952982228200,10.150228271484375,0.30768486857414246,0.12606874108314514,-0.01139264740049839
1791114952992299300,10.16029931640625,0.2987805902957916,0.10373120754957199,0.05431392788887024
1791114953002370300,10.170370361328125,0.2606167495250702,0.12418662756681442,-0.03757326677441597
1791114953012441300,10.18044140625,0.1888703852891922,0.15969853103160858,-0.023106710985302925
1791114953022512000,10.19051220703125,0.2219572365283966,0.14513908326625824,0.0010055459570139647
1791114953032583200,10.200583251953125,0.23594389855861664,0.12278982996940613,0.027508527040481567
1791114953042654200,10.210654296875,0.2297486513853073,0.15397033095359802,-0.023651106283068657
1791114953052725200,10.220725341796875,0.30530625581741333,0.12990067899227142,0.14007125794887543
1791114953062796300,10.23079638671875,0.3585748076438904,0.17494671046733856,0.18790295720100403
1791114953072867300,10.240867431640625,0.28379082679748535,0.18238092958927155,0.1985018104314804
1791114953082938000,10.250938232421875,0.20615562796592712,0.14493884146213531,0.0505838580429554
1791114953093009200,10.261009033203125,0.13940270245075226,0.1791982799768448,0.038651831448078156
1791114953103080200,10.271080078125,0.13577400147914886,0.18474049866199493,0.09220552444458008
1791114953113151200,10.281151123046875,0.14867247641086578,0.1583147495985031,0.12625829875469208
1791114953123222300,10.29122216796875,0.1456262171268463,0.14625346660614014,0.05397551506757736
1791114953133293300,10.301293212890625,0.11281447112560272,0.12271565943956375,-0.02510705217719078
1791114953143364000,10.311364013671875,0.08597978204488754,0.13216912746429443,-0.13286346197128296
1791114953153435100,10.32143505859375,0.17865139245986938,0.12673813104629517,0.0024517651181668043
1791114953163506200,10.331506103515625,0.24466022849082947,0.131632000207901,-0.01903212070465088
1791114953173577200,10.3415771484375,0.20905375480651855,0.1312972456216812,0.09417938441038132
1791114953183648300,10.351648193359376,0.1470535844564438,0.14499332010746002,0.21335358917713165
1791114953193719300,10.36171923828125,0.19506585597991943,0.14248435199260712,0.2219124585390091
1791114953203790000,10.3717900390625,0.24144527316093445,0.1416526436805725,0.12129772454500198
1791114953213860400,10.3818603515625,0.14331097900867462,0.1574031114578247,-0.09655258059501648
1791114953223931400,10.391931396484376,0.10011137276887894,0.1830434501171112,-0.09631986171007156
1791114953234002400,10.40200244140625,0.29911184310913086,0.13235071301460266,0.23004546761512756
1791114953244073500,10.412073486328126,0.2791377902030945,0.19300131499767303,0.5444167256355286
1791114953254144300,10.422144287109376,0.17709530889987946,0.1470511257648468,0.3924112617969513
1791114953264215300,10.43221533203125,0.13342158496379852,0.14458587765693665,0.11135011911392212
1791114953274286300,10.442286376953126,0.14131252467632294,0.22473451495170593,-0.04525493457913399
1791114953284357400,10.452357421875,0.15134742856025696,0.19606894254684448,0.15985430777072906
1791114953294428400,10.462428466796876,0.14017146825790405,0.23512926697731018,0.3911093473434448
1791114953304499500,10.47249951171875,0.11451662331819534,0.18766625225543976,0.5331243872642517
1791114953314570200,10.4825703125,0.14211176335811615,0.13345973193645477,0.4584190249443054
1791114953324641300,10.492641357421874,0.09070497006177902,0.18092744052410126,0.21731165051460266
1791114953334712300,10.50271240234375,0.031939391046762466,0.19982950389385223,0.07031022012233734
1791114953344783400,10.512783447265624,-0.020741602405905724,0.19498537480831146,0.11655250936746597
1791114953354854400,10.5228544921875,0.015965012833476067,0.1381058394908905,0.19207894802093506
1791114953364925400,10.532925537109374,0.12236732989549637,0.10368634015321732,0.4621792435646057
1791114953374996200,10.542996337890624,0.17809078097343445,0.1309448629617691,0.5863209366798401
1791114953385067300,10.5530673828125,0.11858619749546051,0.11383085697889328,0.5850381851196289
1791114953395138300,10.56313818359375,-0.03671124950051308,0.0837176963686943,0.35434430837631226
1791114953405209300,10.573209228515625,-0.08933030813932419,0.06933482736349106,0.24756328761577606
1791114953415280400,10.5832802734375,-0.10856525599956512,0.057347677648067474,0.21986588835716248
1791114953425351400,10.593351318359375,-0.04594196751713753,0.04791737347841263,0.14342723786830902
1791114953435422200,10.603422119140625,-0.0868353322148323,0.056566253304481506,0.1302557736635208
1791114953445493200,10.6134931640625,-0.03918991610407829,0.019871672615408897,0.11410163342952728
1791114953455564300,10.623564208984375,-0.0414607934653759,-0.007092566229403019,0.09663156419992447
1791114953465635300,10.63363525390625,-0.084250807762146,0.025782225653529167,0.03961031883955002
1791114953475706400,10.643706298828125,-0.09249169379472733,0.05905415862798691,0.04169104993343353
1791114953485777400,10.65377734375,-0.018068687990307808,0.04526849463582039,0.02258818782866001
1791114953495848400,10.663848388671875,0.0417214073240757,0.043262336403131485,-0.07456152886152267
1791114953505919200,10.673919189453125,-0.03660843148827553,0.07941164076328278,-0.08366724103689194
1791114953515990300,10.683990234375,-0.015708474442362785,0.08857531100511551,-0.17897991836071014
1791114953526061300,10.694061279296875,-0.0790766105055809,0.04877100884914398,0.006277440115809441
1791114953536131300,10.70413134765625,-0.1360970139503479,0.04056501016020775,-0.032441992312669754
1791114953546202000,10.7142021484375,-0.17316307127475739,0.06586915254592896,-0.28360459208488464
1791114953556273200,10.724273193359375,-0.15946723520755768,0.09828221797943115,-0.4128187596797943
1791114953566344200,10.73434423828125,-0.08708473294973373,0.11693941056728363,-0.4374036192893982
1791114953576415200,10.744415283203125,-0.055629074573516846,0.11264985799789429,-0.3287349045276642
1791114953586486300,10.754486328125,-0.0484934002161026,0.09175336360931396,-0.1721591353416443
1791114953596557300,10.764557373046875,-0.07763397693634033,0.12571878731250763,-0.2629939913749695
1791114953606628400,10.77462841796875,-0.05918431282043457,0.12814001739025116,-0.3906186521053314
1791114953616699100,10.78469921875,-0.019903751090168953,0.1321781724691391,-0.2618580162525177
1791114953626770200,10.794770263671875,-0.060536786913871765,0.13181185722351074,-0.2849709689617157
1791114953636841200,10.80484130859375,-0.17922481894493103,0.10709666460752487,-0.3927682638168335
1791114953646912300,10.814912353515625,-0.24808786809444427,0.11846864223480225,-0.4528011083602905
1791114953656983300,10.8249833984375,-0.16410242021083832,0.10264760255813599,-0.48913806676864624
1791114953667054300,10.835054443359375,-0.05951153114438057,0.06092040613293648,-0.47734278440475464
1791114953677125000,10.845125,-0.03032994456589222,0.022672351449728012,-0.27469247579574585
1791114953687196200,10.855196044921875,-0.09660473465919495,0.003246665932238102,-0.247981458902359
1791114953697267200,10.86526708984375,-0.1860661804676056,0.005754564888775349,-0.3437308967113495
1791114953707338200,10.875338134765625,-0.20869292318820953,0.014406110160052776,-0.39962533116340637
1791114953717409300,10.8854091796875,-0.18705926835536957,0.0034051239490509033,-0.3999829888343811
1791114953727480300,10.895480224609376,-0.17926499247550964,-0.016628239303827286,-0.4753347337245941
1791114953737551000,10.905551025390626,-0.10149723291397095,-0.05528295412659645,-0.3971185088157654
1791114953747622100,10.9156220703125,-0.09274151176214218,-0.05090869963169098,-0.4509560763835907
1791114953757693200,10.925693115234376,-0.13784082233905792,-0.024538610130548477,-0.46651506423950195
1791114953767764200,10.93576416015625,-0.1629449874162674,-0.012128690257668495,-0.3443196415901184
1791114953777835300,10.945835205078126,-0.10183664411306381,0.0003969557583332062,-0.3187170922756195
1791114953787906300,10.95590625,-0.060275737196207047,-0.057565897703170776,-0.20756198465824127
1791114953797977000,10.96597705078125,0.004229753278195858,-0.11424515396356583,-0.2210005521774292
1791114953808048000,10.976048095703124,-0.017745934426784515,-0.07304510474205017,-0.10166362673044205
1791114953818119200,10.986119140625,-0.0997004508972168,0.05248858407139778,-0.2743310034275055
1791114953828190200,10.996190185546874,-0.12646816670894623,0.07052531838417053,-0.2286268025636673
1791114953838261200,11.00626123046875,0.016196565702557564,0.009743466973304749,-0.1630222350358963
1791114953848332300,11.016332275390624,0.1259925812482834,0.052034731954336166,-0.02292344532907009
1791114953858402300,11.02640234375,0.1566769778728485,0.05081447213888168,0.03700779750943184
1791114953868473300,11.036473388671874,0.12629154324531555,0.059419021010398865,-0.12580937147140503
1791114953878544400,11.04654443359375,0.10070202499628067,0.10288394242525101,-0.10154876857995987
1791114953888615400,11.056615478515624,0.14085713028907776,0.12132236361503601,-0.13843360543251038
1791114953898686500,11.0666865234375,0.12034998089075089,0.14357441663742065,-0.010411733761429787
1791114953908757200,11.07675732421875,0.16023051738739014,0.14845170080661774,0.1514732539653778
1791114953918828300,11.086828369140624,0.20497988164424896,0.15008662641048431,0.08887644857168198
1791114953928899300,11.0968994140625,0.19947293400764465,0.16966202855110168,0.19544526934623718
1791114953938970000,11.10697021484375,0.20833992958068848,0.205386221408844,0.029501840472221375
1791114953949041200,11.117041259765625,0.14355234801769257,0.2281682938337326,0.06301749497652054
1791114953959112200,11.1271123046875,0.16412021219730377,0.22433920204639435,-0.05622687190771103
1791114953969183200,11.137183349609375,0.15061835944652557,0.26282626390457153,-0.1254052221775055
1791114953979254300,11.147254150390625,0.20253296196460724,0.24220886826515198,0.12236249446868896
1791114953989325300,11.1573251953125,0.26576927304267883,0.27119913697242737,0.4277723431587219
1791114953999396000,11.16739599609375,0.23687025904655457,0.2992408871650696,0.47903820872306824
1791114954009467100,11.177467041015625,0.23381884396076202,0.2142629474401474,0.31653377413749695
1791114954019538200,11.1875380859375,0.202741339802742,0.25194162130355835,0.23825015127658844
1791114954029609200,11.197609130859375,0.16952353715896606,0.30846622586250305,0.24302487075328827
1791114954039680300,11.20768017578125,0.060920894145965576,0.26282259821891785,0.293308824300766
1791114954049751300,11.217751220703125,0.03534133359789848,0.2728573679924011,0.2555958330631256
1791114954059822000,11.227822021484375,0.1475842446088791,0.2568693459033966,0.3191279172897339
1791114954069893000,11.23789306640625,0.25428423285484314,0.21560852229595184,0.24797461926937103
1791114954079964200,11.247964111328125,0.266097754240036,0.23144155740737915,0.3201785385608673
1791114954090035200,11.25803515625,0.24499990046024323,0.2681955397129059,0.31796127557754517
1791114954100106200,11.268106201171875,0.12182576209306717,0.28005221486091614,0.2258414626121521
1791114954110177300,11.27817724609375,0.07863542437553406,0.24275656044483185,0.21744346618652344
1791114954120248000,11.288248046875,0.13221262395381927,0.2584311068058014,0.07549110800027847
1791114954130319000,11.298319091796875,0.12600824236869812,0.2722856402397156,0.07066024094820023
1791114954140390100,11.30839013671875,0.11386103928089142,0.2548334300518036,0.18179289996623993
1791114954150461200,11.318461181640625,0.01668134145438671,0.22959432005882263,0.19422976672649384
1791114954160531200,11.32853125,0.022011391818523407,0.1804659217596054,0.04891118407249451
1791114954170603300,11.338603271484375,-0.039823006838560104,0.22254252433776855,0.01273138914257288
1791114954180673000,11.348673095703125,-0.05327916145324707,0.23440183699131012,0.14551153779029846
1791114954190744000,11.358744140625,-0.040268514305353165,0.2112959921360016,0.2835887670516968
1791114954200815000,11.368815185546875,-0.07597910612821579,0.17683576047420502,0.3630892038345337
1791114954210886100,11.37888623046875,-0.14002522826194763,0.15630730986595154,0.1434434950351715
1791114954220957200,11.388957275390625,-0.30730554461479187,0.1427193284034729,-0.11080104112625122
1791114954231028000,11.399028076171875,-0.40539735555648804,0.08961066603660583,-0.18523241579532623
1791114954241099000,11.40909912109375,-0.3682563900947571,0.10602372884750366,0.07224172353744507
1791114954251170000,11.419170166015626,-0.218786358833313,0.0692661851644516,0.1061079353094101
1791114954261241000,11.429240966796876,-0.26897895336151123,0.05658154934644699,0.004860410001128912
1791114954271312100,11.43931201171875,-0.4216375946998596,0.10250408947467804,-0.09349759668111801
1791114954281383200,11.449383056640626,-0.3846513330936432,0.05958538502454758,-0.04416387155652046
1791114954291454000,11.459453857421876,-0.3486410677433014,0.0652233213186264,0.01621677540242672
1791114954301525000,11.46952490234375,-0.35299959778785706,0.06290291249752045,-0.032432518899440765
1791114954311596000,11.479595947265626,-0.3546970784664154,0.032987579703330994,0.050230659544467926
1791114954321667000,11.4896669921875,-0.3731818199157715,0.05011090636253357,0.060871586203575134
1791114954331738000,11.499738037109376,-0.44865259528160095,0.01438860222697258,-0.00815045740455389
1791114954341809200,11.50980908203125,-0.4332078695297241,0.0007486911490559578,0.03293599188327789
1791114954351880200,11.519880126953124,-0.3905441164970398,-0.008217052556574345,0.08058790862560272
1791114954361951200,11.529951171875,-0.4105423390865326,0.003599126823246479,-0.07571061700582504
1791114954372022300,11.540022216796874,-0.4419482946395874,0.017683709040284157,-0.05697022005915642
1791114954382093300,11.55009326171875,-0.41939690709114075,0.024241209030151367,-0.1655840426683426
1791114954392164400,11.560164306640624,-0.40466389060020447,0.007474800571799278,-0.04265017434954643
1791114954402235400,11.5702353515625,-0.4496699571609497,0.031026463955640793,0.04996151849627495
1791114954412306200,11.58030615234375,-0.42000237107276917,-0.025888221338391304,0.05420669540762901
1791114954422377200,11.590377197265624,-0.43227100372314453,-0.03086859919130802,0.031657442450523376
1791114954432448300,11.6004482421875,-0.3912392854690552,-0.023659856989979744,0.0014888676814734936
1791114954442519300,11.610519287109375,-0.4682437777519226,-0.02875794656574726,0.11979926377534866
1791114954452590300,11.62059033203125,-0.48577386140823364,-0.0312166977673769,0.14735683798789978
1791114954462661400,11.630661376953125,-0.5423002243041992,-0.07449120283126831,0.17659887671470642
1791114954472732200,11.640732177734375,-0.6994129419326782,-0.1056523248553276,-0.08303461223840714
1791114954482803200,11.65080322265625,-0.6854337453842163,-0.15532827377319336,-0.026558028534054756
1791114954492874200,11.660874267578125,-0.680898904800415,-0.20462094247341156,-0.08171022683382034
1791114954502944300,11.6709443359375,-0.648999035358429,-0.2279299944639206,-0.0800180584192276
1791114954513015300,11.681015380859375,-0.7294601798057556,-0.24933581054210663,0.03255091980099678
1791114954523086000,11.691086181640625,-0.79862380027771,-0.27911287546157837,-0.07814869284629822
1791114954533157000,11.7011572265625,-0.8247436285018921,-0.3434370160102844,0.10828933864831924
1791114954543228200,11.711228271484375,-0.8148455023765564,-0.3665156960487366,0.07887259125709534
1791114954553299200,11.72129931640625,-0.7736225128173828,-0.4320647418498993,-0.0041973888874053955
1791114954563370200,11.731370361328125,-0.8063935041427612,-0.4459241032600403,-0.051367029547691345
1791114954573441300,11.741441162109375,-0.8123438954353333,-0.4798225164413452,-0.09474930912256241
1791114954583512000,11.751511962890625,-0.8133934736251831,-0.5360594391822815,-0.11133600771427155
1791114954593583000,11.7615830078125,-0.7929312586784363,-0.553788959980011,-0.10930138826370239
1791114954603654100,11.771654052734375,-0.7659121751785278,-0.5927720665931702,0.004720248281955719
1791114954613725200,11.78172509765625,-0.748283863067627,-0.5807881355285645,0.050939735025167465
1791114954623796200,11.791796142578125,-0.7061494588851929,-0.5889469981193542,0.16868101060390472
1791114954633867300,11.8018671875,-0.6568155288696289,-0.5969603657722473,0.14085032045841217
1791114954643938000,11.81193798828125,-0.6115604639053345,-0.5260806083679199,0.11270470917224884
1791114954654009000,11.822009033203125,-0.6175439357757568,-0.507810115814209,0.03482154384255409
1791114954664080100,11.832080078125,-0.5566598176956177,-0.535295307636261,0.0682426169514656
1791114954674151200,11.842151123046875,-0.4287016689777374,-0.5145113468170166,0.18097729980945587
1791114954684222200,11.85222216796875,-0.3348422646522522,-0.49006855487823486,0.19551976025104523
1791114954694293200,11.862293212890625,-0.37164855003356934,-0.46683353185653687,0.07729265093803406
1791114954704364000,11.872364013671875,-0.49730393290519714,-0.4419279098510742,-0.04330912604928017
1791114954714435000,11.88243505859375,-0.4960584342479706,-0.4305340647697449,-0.12371641397476196
1791114954724506000,11.892506103515625,-0.2785892188549042,-0.4181698262691498,-0.08933153748512268
1791114954734577200,11.9025771484375,-0.11654990911483765,-0.40072959661483765,0.09038785845041275
1791114954744648200,11.912648193359376,-0.12050683051347733,-0.4273585379123688,0.19693879783153534
1791114954754719200,11.92271923828125,-0.16819670796394348,-0.41447892785072327,0.208543598651886
1791114954764790000,11.9327900390625,-0.2051810920238495,-0.35036998987197876,0.14760008454322815
1791114954774861000,11.942861083984376,-0.11595098674297333,-0.32571151852607727,0.22109590470790863
1791114954784932000,11.95293212890625,-0.03623884171247482,-0.31723546981811523,0.15706099569797516
1791114954795003100,11.963003173828126,-0.03358795493841171,-0.29489049315452576,0.07136856019496918
1791114954805074200,11.97307421875,-0.015161543153226376,-0.28622961044311523,0.10657927393913269
1791114954815145200,11.983145263671876,0.07423784583806992,-0.2603982985019684,0.05658561736345291
1791114954825216300,11.99321630859375,0.1639339029788971,-0.2670460641384125,0.16999314725399017
1791114954835286000,12.0032861328125,0.16368332505226135,-0.23112356662750244,0.21924419701099396
1791114954845357000,12.013357177734376,0.1816977560520172,-0.21504393219947815,0.25867760181427
1791114954855428000,12.023427978515626,0.22625134885311127,-0.18901598453521729,0.1179906576871872
1791114954865499100,12.0334990234375,0.29349055886268616,-0.16770297288894653,0.22804047167301178
1791114954875570200,12.043570068359376,0.2942410707473755,-0.1445167362689972,0.16500332951545715
1791114954885641200,12.05364111328125,0.16925226151943207,-0.1150139644742012,0.0751168504357338
1791114954895712300,12.063712158203124,0.12612949311733246,-0.12935400009155273,0.14151829481124878
1791114954905783300,12.073783203125,0.23234248161315918,-0.1611337661743164,-0.08206526935100555
1791114954915854000,12.08385400390625,0.2551027834415436,-0.16475753486156464,0.027134403586387634
1791114954925925000,12.093925048828124,0.29038408398628235,-0.1296783834695816,-0.0007443651556968689
1791114954935996000,12.103995849609374,0.1775577962398529,-0.0710192322731018,0.014443974010646343
1791114954946067000,12.11406689453125,0.2019435614347458,-0.1256084442138672,-0.03466738015413284
1791114954956138000,12.124137939453124,0.23427197337150574,-0.16412338614463806,-0.027977893128991127
1791114954966209000,12.134208984375,0.3225935697555542,-0.1664525866508484,0.05070839449763298
1791114954976280000,12.144280029296874,0.26999208331108093,-0.11852893233299255,0.0360671803355217
1791114954986351000,12.15435107421875,0.10123982280492783,-0.053483352065086365,-0.13191597163677216
1791114954996422000,12.164421875,0.10296313464641571,-0.056457310914993286,-0.17625324428081512
1791114955006493000,12.174492919921875,0.17912819981575012,-0.017216697335243225,-0.051630355417728424
1791114955016564000,12.18456396484375,0.3129359185695648,-0.046498291194438934,0.044485438615083694
1791114955026635000,12.194635009765625,0.16093572974205017,-0.013052982278168201,0.047925446182489395
1791114955036706000,12.2047060546875,-0.005030980799347162,-0.0018888739868998528,-0.00887996144592762
1791114955046777000,12.214777099609375,0.0007227789610624313,-0.011243759654462337,-0.1644463837146759
1791114955056848000,12.224847900390625,0.14185361564159393,0.020068250596523285,-0.05339590832591057
1791114955066919000,12.2349189453125,0.08416049927473068,0.0661044493317604,-0.21202869713306427
1791114955076990000,12.244989990234375,-0.10815607756376266,0.04127301275730133,-0.3663806617259979
1791114955087061000,12.25506103515625,-0.15804266929626465,-0.06258387863636017,-0.4836595952510834
1791114955097132000,12.265132080078125,-0.027291443198919296,-0.03662911057472229,-0.3921149671077728
1791114955107203000,12.275203125,0.07368284463882446,-0.053023796528577805,-0.21734046936035156
1791114955117273900,12.28527392578125,0.020756736397743225,-0.10652218759059906,-0.09120390564203262
1791114955127345000,12.295344970703125,-0.11741578578948975,-0.10617917031049728,-0.11722645163536072
1791114955137416000,12.305416015625,-0.14122092723846436,-0.05915309861302376,-0.3383772671222687
1791114955147487000,12.315487060546875,-0.10797614604234695,-0.061732638627290726,-0.22774048149585724
1791114955157558000,12.32555810546875,-0.0940118059515953,-0.11494266241788864,-0.16117562353610992
1791114955167627800,12.335627685546875,-0.10766716301441193,-0.169655442237854,-0.0544438436627388
