time,seconds_elapsed,z,y,x
1789996806008080000,0.036079833984375,0.151092529296875,-0.514862060546875,-0.046600341796875
1789996806018151000,0.04615087890625,-0.11761474609375,-0.8065032958984375,-0.1431884765625
1789996806028222000,0.056221923828125,-0.2987213134765625,-1.108154296875,-0.0244140625
1789996806038293000,0.06629296875,0.09185791015625,-1.3450775146484375,0.0130615234375
1789996806048364000,0.076364013671875,0.15850830078125,-1.232574462890625,0.07781982421875
1789996806058435800,0.086435791015625,-0.1701202392578125,-1.058837890625,-0.0453643798828125
1789996806068507000,0.0965068359375,-0.2565155029296875,-0.97979736328125,-0.105743408203125
1789996806078577700,0.10657763671875,-0.09075927734375,-0.955078125,0.03314208984375
1789996806088648700,0.116648681640625,0.2080078125,-0.9021453857421875,0.060516357421875
1789996806098719700,0.1267197265625,0.348724365234375,-0.762847900390625,-0.00701904296875
1789996806108790800,0.136790771484375,-0.074188232421875,-1.01336669921875,-0.1299896240234375
1789996806118861800,0.14686181640625,-0.520355224609375,-1.1896209716796875,-0.1870574951171875
1789996806128932900,0.156932861328125,-0.06805419921875,-1.19781494140625,-0.26416015625
1789996806139003600,0.167003662109375,0.561859130859375,-0.9704437255859375,-0.045013427734375
1789996806149075700,0.17707568359375,0.584869384765625,-0.8327178955078125,0.028839111328125
1789996806159146800,0.187146728515625,-0.139739990234375,-0.9197998046875,-0.0828857421875
1789996806169217800,0.1972177734375,-0.66650390625,-1.1346282958984375,-0.166656494140625
1789996806179288800,0.207288818359375,-0.4909210205078125,-1.35150146484375,-0.08514404296875
1789996806189359900,0.21735986328125,0.026031494140625,-1.2683868408203125,0.052703857421875
1789996806199431000,0.227430908203125,0.1881256103515625,-0.903656005859375,0.100433349609375
1789996806209501700,0.237501708984375,0.288604736328125,-0.605865478515625,-0.108489990234375
1789996806219572700,0.24757275390625,0.22686767578125,-0.548553466796875,-0.1929473876953125
1789996806229643800,0.257643798828125,0.0657196044921875,-1.011627197265625,-0.108367919921875
1789996806239715800,0.2677158203125,-0.23760986328125,-1.396087646484375,0.03668212890625
1789996806249787000,0.277786865234375,-0.44256591796875,-1.2296600341796875,-0.042572021484375
1789996806259858000,0.28785791015625,-0.19586181640625,-0.9357147216796875,-0.1969146728515625
1789996806269929000,0.297928955078125,0.3791961669921875,-0.7819366455078125,-0.06414794921875
1789996806280000000,0.308,0.1096649169921875,-0.86810302734375,0.176055908203125
1789996806290070800,0.31807080078125,-0.3791656494140625,-1.1134796142578125,0.0614166259765625
1789996806300141800,0.328141845703125,-0.29107666015625,-1.18560791015625,-0.0708160400390625
1789996806310212900,0.338212890625,0.143951416015625,-1.0638885498046875,-0.029571533203125
1789996806320284000,0.348283935546875,0.628631591796875,-0.8199462890625,0.030487060546875
1789996806330356000,0.35835595703125,0.1497344970703125,-0.645355224609375,-0.0250396728515625
1789996806340427000,0.368427001953125,-0.350616455078125,-0.7760772705078125,-0.224822998046875
1789996806350498000,0.378498046875,-0.194854736328125,-1.1822052001953125,-0.136444091796875
1789996806360568800,0.38856884765625,0.0883636474609375,-1.3092498779296875,0.0514068603515625
1789996806370640000,0.398639892578125,-0.0159759521484375,-1.1781768798828125,0.1544952392578125
1789996806380711000,0.4087109375,-0.074676513671875,-1.0194549560546875,0.03485107421875
1789996806390782000,0.418781982421875,-0.282440185546875,-0.90789794921875,0.067657470703125
1789996806400853000,0.42885302734375,-0.1025390625,-0.847320556640625,0.021331787109375
1789996806410924000,0.438924072265625,0.5292510986328125,-1.006561279296875,0.0764923095703125
1789996806420994800,0.448994873046875,0.1248321533203125,-0.9832305908203125,0.26727294921875
1789996806431066600,0.459066650390625,-0.6219482421875,-1.0565643310546875,0.0214080810546875
1789996806441137700,0.4691376953125,-0.2770233154296875,-1.1255645751953125,-0.142242431640625
1789996806451208700,0.479208740234375,0.22271728515625,-1.172119140625,0.08074951171875
1789996806461279700,0.48927978515625,0.2557525634765625,-0.937042236328125,0.140045166015625
1789996806471350800,0.499350830078125,0.288421630859375,-0.8768310546875,-0.116546630859375
1789996806481421800,0.509421875,-0.151641845703125,-0.789398193359375,-0.0694427490234375
1789996806491492900,0.519492919921875,-0.4669647216796875,-0.9696502685546875,-0.0911102294921875
1789996806501564000,0.52956396484375,0.014678955078125,-1.3179473876953125,0.00689697265625
1789996806511635000,0.539635009765625,0.1850433349609375,-1.224273681640625,0.2396392822265625
1789996806521706800,0.549706787109375,0.0543212890625,-0.959869384765625,0.0673828125
1789996806531777800,0.55977783203125,-0.0428924560546875,-0.8255157470703125,-0.30474853515625
1789996806541848800,0.569848876953125,-0.252410888671875,-0.9940948486328125,-0.3087921142578125
1789996806551919900,0.579919921875,-0.1519317626953125,-1.09454345703125,-0.1618804931640625
1789996806561990700,0.58999072265625,0.0881500244140625,-1.12677001953125,-0.0706634521484375
1789996806572061700,0.600061767578125,0.092041015625,-0.8945465087890625,-0.0335845947265625
1789996806582132700,0.6101328125,0.239013671875,-0.8838043212890625,-0.168182373046875
1789996806592203800,0.620203857421875,0.11199951171875,-1.028564453125,-0.193511962890625
1789996806602274800,0.63027490234375,-0.155487060546875,-1.0936431884765625,-0.13812255859375
1789996806612347000,0.640346923828125,-0.1841583251953125,-1.15936279296875,-0.0458221435546875
1789996806622418000,0.65041796875,0.2412567138671875,-1.107269287109375,-0.024505615234375
1789996806632489000,0.660489013671875,0.386749267578125,-0.9121551513671875,-0.01275634765625
1789996806642559700,0.670559814453125,0.1175537109375,-0.8131561279296875,-0.0452423095703125
1789996806652630800,0.680630859375,0.1074676513671875,-0.8273162841796875,-0.1676177978515625
1789996806662701800,0.690701904296875,0.0401611328125,-1.0129547119140625,-0.0973358154296875
1789996806672772900,0.70077294921875,-0.426727294921875,-1.1541900634765625,0.0252532958984375
1789996806682844000,0.710843994140625,-0.17236328125,-1.1679534912109375,-0.0523223876953125
1789996806692915000,0.7209150390625,0.483062744140625,-1.0184783935546875,0.1070098876953125
1789996806702985700,0.73098583984375,0.419586181640625,-0.8179779052734375,0.0797119140625
1789996806713057800,0.741057861328125,0.1159820556640625,-0.8236541748046875,-0.1987457275390625
1789996806723128800,0.75112890625,-0.1082611083984375,-0.9688262939453125,-0.2366790771484375
1789996806733200000,0.761199951171875,-0.3487548828125,-1.141998291015625,-0.1602325439453125
1789996806743271200,0.771271240234375,-0.3518524169921875,-1.302978515625,-0.00494384765625
1789996806753342200,0.78134228515625,0.059967041015625,-1.0742340087890625,0.1747589111328125
1789996806763413200,0.791413330078125,0.1912689208984375,-0.8408203125,0.115447998046875
1789996806773484000,0.801484130859375,0.2993316650390625,-0.7310943603515625,-0.09771728515625
1789996806783555000,0.81155517578125,0.0611724853515625,-0.893463134765625,-0.1241912841796875
1789996806793626000,0.821626220703125,-0.3529815673828125,-1.01788330078125,-0.045989990234375
1789996806803697200,0.831697265625,-0.1152191162109375,-1.1663970947265625,-0.027923583984375
1789996806813769200,0.841769287109375,0.1092071533203125,-1.05560302734375,0.0402984619140625
1789996806823840300,0.85184033203125,-0.0281982421875,-0.966583251953125,0.02728271484375
1789996806833911300,0.861911376953125,-0.281402587890625,-1.10540771484375,-0.0123291015625
1789996806843982300,0.871982421875,-0.0777587890625,-1.084503173828125,-0.142486572265625
1789996806854053000,0.88205322265625,0.210723876953125,-1.0342559814453125,-0.10540771484375
1789996806864124200,0.892124267578125,0.0108642578125,-1.09075927734375,0.0701141357421875
1789996806874195200,0.9021953125,-0.576629638671875,-1.1056365966796875,0.04595947265625
1789996806884266200,0.912266357421875,0.0443115234375,-0.922271728515625,-0.0946044921875
1789996806894337300,0.922337158203125,0.634735107421875,-0.80670166015625,-0.126922607421875
1789996806904409000,0.9324091796875,0.424072265625,-0.7037200927734375,0.025543212890625
1789996806914480000,0.942480224609375,-0.1864776611328125,-1.059600830078125,-0.1110992431640625
1789996806924551000,0.952551025390625,-0.528594970703125,-1.1326904296875,-0.1720123291015625
1789996806934622000,0.9626220703125,-0.6251678466796875,-1.2256622314453125,-0.084686279296875
1789996806944693000,0.97269287109375,0.5330657958984375,-1.1504364013671875,-0.0855255126953125
1789996806954764000,0.982763916015625,0.3780059814453125,-0.9157867431640625,0.16900634765625
1789996806964835000,0.9928349609375,-0.3710784912109375,-0.75970458984375,0.024871826171875
1789996806974906000,1.002906005859375,-0.4468841552734375,-1.0794830322265625,-0.267822265625
1789996806984977000,1.012976806640625,0.1330413818359375,-1.175811767578125,-0.1125030517578125
1789996806995048000,1.0230478515625,0.4085845947265625,-0.9666595458984375,0.099151611328125
1789996807005120000,1.0331201171875,0.2428131103515625,-0.8928070068359375,0.0564422607421875
1789996807015191000,1.04319091796875,-0.0721435546875,-0.7979736328125,-0.0283050537109375
1789996807025262000,1.053261962890625,-0.10699462890625,-0.965240478515625,-0.127105712890625
1789996807035333000,1.0633330078125,0.0213165283203125,-1.16937255859375,-0.115997314453125
1789996807045404200,1.073404052734375,-0.12176513671875,-1.3065948486328125,0.0350799560546875
1789996807055475000,1.083474853515625,-0.16400146484375,-1.036407470703125,0.10089111328125
1789996807065546000,1.0935458984375,0.0261383056640625,-0.9412078857421875,0.0028076171875
1789996807075617000,1.103616943359375,0.2647552490234375,-0.7969970703125,0.0066375732421875
1789996807085688000,1.11368798828125,0.449249267578125,-0.861114501953125,0.0570220947265625
1789996807095759000,1.123759033203125,-0.105682373046875,-0.92669677734375,0.0743560791015625
1789996807105831200,1.1338310546875,-0.6079254150390625,-1.1219329833984375,-0.006683349609375
1789996807115902200,1.143902099609375,-0.227569580078125,-1.255584716796875,-0.0811004638671875
1789996807125973200,1.15397314453125,0.3227386474609375,-1.0621795654296875,0.0666046142578125
1789996807136044000,1.1640439453125,0.4286651611328125,-0.7617340087890625,0.0970458984375
1789996807146115000,1.174114990234375,0.3715972900390625,-0.6868743896484375,0.0572967529296875
1789996807156186000,1.18418603515625,-0.0169525146484375,-0.8200531005859375,-0.0381317138671875
1789996807166257200,1.194257080078125,-0.0975341796875,-1.07012939453125,-0.0846099853515625
1789996807176328200,1.204328125,-0.090301513671875,-1.30474853515625,-0.066070556640625
1789996807186399200,1.214399169921875,-0.1169891357421875,-1.2143402099609375,-0.133087158203125
1789996807196470000,1.224469970703125,-0.3333282470703125,-1.0923309326171875,-0.1140594482421875
1789996807206542000,1.2345419921875,-0.1705780029296875,-1.0441436767578125,-0.14141845703125
1789996807216613000,1.244613037109375,0.18511962890625,-0.97979736328125,-0.1568603515625
1789996807226684200,1.25468408203125,0.4976959228515625,-0.8298187255859375,-0.106689453125
1789996807236755200,1.264755126953125,0.16546630859375,-0.661651611328125,-0.062286376953125
1789996807246826200,1.274826171875,-0.2957611083984375,-0.8369140625,-0.0993499755859375
1789996807256897300,1.284897216796875,-0.060821533203125,-1.206207275390625,-0.0430145263671875
1789996807266968000,1.294968017578125,0.1266632080078125,-1.3388824462890625,-0.03875732421875
1789996807277039000,1.3050390625,0.214752197265625,-1.1336517333984375,-0.015838623046875
1789996807287110100,1.315110107421875,0.4123687744140625,-0.8524017333984375,0.01708984375
1789996807297181200,1.32518115234375,-0.1121978759765625,-0.7604522705078125,0.1719818115234375
1789996807307253200,1.335253173828125,-0.410369873046875,-1.0670013427734375,0.25494384765625
1789996807317324300,1.34532421875,-0.1540374755859375,-1.17108154296875,0.108856201171875
1789996807327395300,1.355395263671875,0.2390594482421875,-1.0595245361328125,0.08270263671875
1789996807337466000,1.365466064453125,0.2994384765625,-1.0272674560546875,0.0632476806640625
1789996807347537200,1.375537109375,-0.3087615966796875,-0.9185791015625,0.0645294189453125
1789996807357608200,1.385608154296875,0.0088043212890625,-0.945770263671875,0.0500946044921875
1789996807367679200,1.39567919921875,0.4709014892578125,-0.97845458984375,-0.0848846435546875
1789996807377750300,1.405750244140625,-0.19134521484375,-0.9139556884765625,-0.0764617919921875
1789996807387821300,1.4158212890625,-0.1190643310546875,-0.9678955078125,-0.0089569091796875
1789996807397892000,1.42589208984375,0.0860748291015625,-0.8561859130859375,-0.0323944091796875
1789996807407964000,1.4359638671875,-0.2441558837890625,-0.83306884765625,-0.044281005859375
1789996807418035000,1.446034912109375,-0.3556976318359375,-1.2472076416015625,-0.0209197998046875
1789996807428106000,1.45610595703125,-0.2417449951171875,-1.3735504150390625,-0.086517333984375
1789996807438177000,1.466177001953125,-0.080902099609375,-1.094482421875,-0.01019287109375
1789996807448248000,1.476248046875,0.009063720703125,-0.8329925537109375,0.0709686279296875
1789996807458319000,1.486319091796875,0.3566131591796875,-0.771484375,-0.0838775634765625
1789996807468390000,1.496389892578125,0.19073486328125,-0.751373291015625,-0.0380401611328125
1789996807478461000,1.5064609375,-0.1409759521484375,-0.991546630859375,-0.0506439208984375
1789996807488532000,1.516531982421875,-0.3106536865234375,-1.246185302734375,-0.046844482421875
1789996807498603000,1.52660302734375,-0.0128021240234375,-1.272613525390625,-0.032318115234375
1789996807508675000,1.536675048828125,0.044708251953125,-1.0149078369140625,0.0373382568359375
1789996807518746000,1.54674609375,0.2555694580078125,-0.85552978515625,0.02691650390625
1789996807528817200,1.556817138671875,0.0291290283203125,-0.8147125244140625,0.070892333984375
1789996807538888200,1.56688818359375,-0.4102325439453125,-1.0200958251953125,0.1072235107421875
1789996807548959000,1.576958984375,-0.1033782958984375,-1.3646392822265625,-0.0606536865234375
1789996807559030000,1.587030029296875,0.1563720703125,-1.2283782958984375,-0.03741455078125
1789996807569101000,1.59710107421875,-0.1525115966796875,-0.8068695068359375,0.0441436767578125
1789996807579172000,1.607172119140625,0.2157135009765625,-0.6552581787109375,-0.0078277587890625
1789996807589243100,1.6172431640625,0.118133544921875,-0.872802734375,-0.01171875
1789996807599314200,1.627314208984375,-0.186614990234375,-0.9628753662109375,-0.0329742431640625
1789996807609386200,1.63738623046875,-0.0262298583984375,-1.1219482421875,-0.0895538330078125
1789996807619457000,1.64745703125,0.0822296142578125,-1.125335693359375,-0.074188232421875
1789996807629528000,1.657528076171875,-0.101318359375,-1.068115234375,-0.051422119140625
1789996807639599000,1.66759912109375,-0.210662841796875,-0.957794189453125,-0.0494842529296875
1789996807649670100,1.677670166015625,0.2124176025390625,-0.921356201171875,0.0193328857421875
1789996807659741200,1.6877412109375,0.3673248291015625,-0.9080047607421875,0.0125732421875
1789996807669812200,1.697812255859375,-0.38055419921875,-0.8690185546875,0.078887939453125
1789996807679883000,1.707883056640625,-0.22222900390625,-1.0238494873046875,0.0656585693359375
1789996807689954000,1.7179541015625,0.19158935546875,-1.202911376953125,0.0182952880859375
1789996807700025000,1.728025146484375,0.0254364013671875,-0.88787841796875,0.0213775634765625
1789996807710096100,1.73809619140625,0.132232666015625,-0.795562744140625,-0.0359649658203125
1789996807720168200,1.748168212890625,0.444488525390625,-0.9690704345703125,-0.0778656005859375
1789996807730239200,1.7582392578125,-0.427490234375,-1.1884918212890625,0.0401611328125
1789996807740310800,1.768310791015625,-0.5055999755859375,-1.237274169921875,0.0577545166015625
1789996807750381800,1.7783818359375,0.5643768310546875,-1.218658447265625,-0.0438232421875
1789996807760452900,1.788452880859375,0.4228057861328125,-1.02508544921875,0.0015716552734375
1789996807770524000,1.79852392578125,-0.4141845703125,-0.8829803466796875,0.0413970947265625
1789996807780595000,1.808594970703125,0.0229949951171875,-0.938812255859375,-0.108062744140625
1789996807790666000,1.818666015625,0.0346527099609375,-1.0296478271484375,-0.1644287109375
1789996807800737000,1.828737060546875,0.01116943359375,-0.8922271728515625,-0.0644989013671875
1789996807810808000,1.83880810546875,0.4345703125,-0.9617919921875,-0.2023162841796875
1789996807820880000,1.8488798828125,0.1717529296875,-0.805999755859375,-0.2488861083984375
1789996807830951000,1.858950927734375,-0.2476348876953125,-0.94085693359375,-0.11700439453125
1789996807841021700,1.869021728515625,0.2808074951171875,-1.0638427734375,-0.052581787109375
1789996807851092700,1.8790927734375,0.2423858642578125,-1.1040496826171875,-0.1267242431640625
1789996807861163800,1.889163818359375,-0.347503662109375,-1.071044921875,-0.1633758544921875
1789996807871234800,1.89923486328125,-0.0742950439453125,-1.0770721435546875,-0.153778076171875
1789996807881305900,1.909305908203125,-0.17303466796875,-1.0639801025390625,-0.17327880859375
1789996807891377000,1.919376953125,0.0472869873046875,-0.96636962890625,-0.15533447265625
1789996807901447700,1.92944775390625,0.51348876953125,-0.9373931884765625,-0.1505126953125
1789996807911518700,1.939518798828125,-0.0000152587890625,-0.8913116455078125,-0.0866546630859375
1789996807921589800,1.94958984375,-0.53314208984375,-1.0379791259765625,-0.0109405517578125
1789996807931661800,1.959661865234375,0.171142578125,-1.156951904296875,-0.0086822509765625
1789996807941732900,1.96973291015625,0.538848876953125,-0.9609527587890625,0.0086669921875
1789996807951804000,1.979803955078125,0.2667694091796875,-0.803680419921875,0.042755126953125
1789996807961875000,1.989875,-0.2580108642578125,-0.8501129150390625,0.0615692138671875
1789996807971945700,1.99994580078125,-0.4886322021484375,-1.0963897705078125,-0.0133514404296875
1789996807982016800,2.010016845703125,0.04443359375,-1.3213348388671875,-0.1236724853515625
1789996807992087800,2.020087890625,0.330413818359375,-1.2313079833984375,-0.1522369384765625
1789996808002158800,2.030158935546875,0.129852294921875,-0.840423583984375,-0.0772857666015625
1789996808012230000,2.04022998046875,-0.1976318359375,-0.62530517578125,-0.0387420654296875
1789996808022301000,2.050301025390625,0.2593994140625,-0.686614990234375,-0.10968017578125
1789996808032371700,2.060371826171875,0.210723876953125,-0.9723968505859375,-0.0524749755859375
1789996808042443800,2.07044384765625,-0.259796142578125,-1.3304290771484375,0.018096923828125
1789996808052514800,2.080514892578125,-0.350982666015625,-1.3405914306640625,-0.0588531494140625
1789996808062585900,2.0905859375,-0.2466583251953125,-1.029510498046875,-0.193634033203125
1789996808072657000,2.100656982421875,-0.076324462890625,-1.0650177001953125,-0.1212921142578125
1789996808082728000,2.11072802734375,0.22332763671875,-1.1260986328125,-0.1224517822265625
1789996808092799000,2.120799072265625,-0.2537384033203125,-0.9963836669921875,-0.125030517578125
1789996808102869800,2.130869873046875,-0.203857421875,-0.8150482177734375,-0.0732879638671875
1789996808112940800,2.14094091796875,0.1995697021484375,-0.891143798828125,-0.0998382568359375
1789996808123011800,2.15101171875,0.202392578125,-1.0038299560546875,-0.096710205078125
1789996808133083000,2.161082763671875,0.054595947265625,-0.9817352294921875,0.013427734375
1789996808143154000,2.17115380859375,-0.013702392578125,-0.9470672607421875,0.0070343017578125
1789996808153226000,2.18122607421875,-0.0170440673828125,-0.9391021728515625,-0.102020263671875
1789996808163297000,2.191297119140625,-0.25701904296875,-1.24951171875,0.0026397705078125
1789996808173367800,2.201367919921875,-0.0863037109375,-1.3366851806640625,-0.01373291015625
1789996808183438800,2.21143896484375,-0.066436767578125,-0.93524169921875,-0.126953125
1789996808193510000,2.221510009765625,0.2221832275390625,-0.6647186279296875,-0.0283203125
1789996808203581000,2.231580810546875,0.507781982421875,-0.7848358154296875,0.0051422119140625
1789996808213652000,2.24165185546875,0.092681884765625,-0.8432769775390625,0.0433197021484375
1789996808223723000,2.251722900390625,-0.477569580078125,-1.0156707763671875,0.0505523681640625
1789996808233794000,2.2617939453125,-0.05828857421875,-1.0456390380859375,0.121673583984375
1789996808243864800,2.27186474609375,-0.0345001220703125,-1.1077117919921875,0.09930419921875
1789996808253936600,2.2819365234375,0.09124755859375,-1.0055999755859375,0.0779266357421875
1789996808264007700,2.292007568359375,-0.022003173828125,-1.0111083984375,0.0963134765625
1789996808274078700,2.30207861328125,0.0982513427734375,-1.0256500244140625,0.1081390380859375
1789996808284149800,2.312149658203125,0.383636474609375,-0.96539306640625,0.05950927734375
1789996808294220800,2.322220703125,0.29949951171875,-0.9407501220703125,-0.052032470703125
1789996808304291800,2.332291748046875,0.0655670166015625,-0.968597412109375,-0.04547119140625
1789996808314363000,2.34236279296875,-0.436859130859375,-1.0271759033203125,-0.0167236328125
1789996808324434000,2.352433837890625,-0.2151031494140625,-1.0797271728515625,-0.084808349609375
1789996808334505000,2.3625048828125,0.2584228515625,-1.1069183349609375,-0.1974945068359375
1789996808344576000,2.372575927734375,0.3434906005859375,-1.0205078125,-0.286895751953125
1789996808354647000,2.38264697265625,-0.0003204345703125,-0.9162139892578125,-0.1721038818359375
1789996808364718000,2.392718017578125,0.1300201416015625,-0.66046142578125,-0.13177490234375
1789996808374790000,2.402789794921875,0.4712066650390625,-0.8700714111328125,-0.1967926025390625
1789996808384860700,2.412860595703125,-0.087890625,-1.275421142578125,-0.1095733642578125
1789996808394931700,2.422931640625,-0.3532867431640625,-1.4083099365234375,-0.06280517578125
1789996808405002800,2.433002685546875,-0.029998779296875,-1.20556640625,-0.1596832275390625
1789996808415073800,2.44307373046875,0.248626708984375,-1.002716064453125,-0.0640106201171875
1789996808425144800,2.453144775390625,0.228485107421875,-0.7083587646484375,-0.050567626953125
1789996808435216000,2.4632158203125,0.3284759521484375,-0.53240966796875,-0.019775390625
1789996808445286700,2.47328662109375,0.2501220703125,-0.8031158447265625,0.0961761474609375
1789996808455357700,2.483357666015625,-0.13360595703125,-1.2246551513671875,0.0717010498046875
1789996808465428700,2.4934287109375,-0.2704315185546875,-1.3580780029296875,0.082855224609375
1789996808475499800,2.503499755859375,0.1067352294921875,-1.2189788818359375,0.0051116943359375
1789996808485571800,2.51357177734375,0.4851837158203125,-0.903533935546875,0.0500030517578125
1789996808495643000,2.523642822265625,-0.1042633056640625,-0.725494384765625,0.142791748046875
1789996808505714000,2.5337138671875,-0.3052825927734375,-0.845550537109375,0.0957489013671875
1789996808515784700,2.54378466796875,0.1849212646484375,-1.0384979248046875,-0.014373779296875
1789996808525855700,2.553855712890625,0.0700531005859375,-1.1339569091796875,-0.12152099609375
1789996808535926800,2.5639267578125,-0.1158905029296875,-1.2519073486328125,-0.1768798828125
1789996808545997800,2.573997802734375,-0.317718505859375,-1.1320648193359375,-0.1723175048828125
1789996808556068900,2.58406884765625,-0.0070037841796875,-0.9750518798828125,-0.1128692626953125
1789996808566140000,2.594139892578125,0.2340545654296875,-0.8544158935546875,-0.124725341796875
1789996808576211000,2.6042109375,-0.087371826171875,-0.730560302734375,-0.080169677734375
1789996808586281700,2.61428173828125,-0.0819091796875,-0.842132568359375,-0.1001739501953125
1789996808596353800,2.624353759765625,-0.3143463134765625,-1.0077667236328125,-0.1563568115234375
1789996808606424800,2.6344248046875,-0.1968994140625,-1.2565765380859375,-0.140228271484375
1789996808616495900,2.644495849609375,0.307708740234375,-1.1341552734375,-0.1773681640625
1789996808626567000,2.65456689453125,0.435211181640625,-0.828765869140625,-0.1519775390625
1789996808636638000,2.664637939453125,-0.1292877197265625,-0.7977447509765625,0.0473175048828125
1789996808646709000,2.674708984375,-0.5535430908203125,-1.0137786865234375,0.10186767578125
1789996808656779800,2.68477978515625,0.054046630859375,-1.1399993896484375,-0.091339111328125
1789996808666850800,2.694850830078125,0.2651824951171875,-1.194793701171875,-0.2223968505859375
1789996808676921900,2.704921875,0.23443603515625,-0.9554595947265625,-0.072418212890625
1789996808686993000,2.714992919921875,0.28436279296875,-0.88409423828125,0.006683349609375
1789996808697064000,2.72506396484375,-0.286376953125,-1.1024627685546875,0.083465576171875
1789996808707135000,2.735135009765625,-0.390045166015625,-1.2340545654296875,0.129486083984375
1789996808717207000,2.74520703125,0.178863525390625,-1.146820068359375,0.0360870361328125
1789996808727277800,2.75527783203125,0.2209320068359375,-0.9250946044921875,0.0514678955078125
1789996808737348900,2.765348876953125,0.1091156005859375,-0.7226715087890625,0.03948974609375
1789996808747419600,2.775419677734375,-0.17364501953125,-0.9239959716796875,0.0327911376953125
1789996808757490700,2.78549072265625,-0.0467376708984375,-1.2312469482421875,0.0311279296875
1789996808767561700,2.795561767578125,-0.0684661865234375,-1.2359771728515625,0.002532958984375
1789996808777632800,2.8056328125,0.0236358642578125,-1.118682861328125,0.0458526611328125
1789996808787703600,2.81570361328125,-0.2078704833984375,-1.1139984130859375,0.0328369140625
1789996808797774600,2.825774658203125,-0.0639495849609375,-0.911041259765625,-0.023040771484375
1789996808807845600,2.835845703125,0.3903656005859375,-0.922607421875,-0.045135498046875
1789996808817916700,2.845916748046875,0.210205078125,-0.8708038330078125,-0.0653228759765625
1789996808827988700,2.85598876953125,-0.1696624755859375,-0.9471282958984375,-0.041046142578125
1789996808838059800,2.866059814453125,-0.334869384765625,-1.1597442626953125,-0.03424072265625
1789996808848130800,2.876130859375,-0.197265625,-1.1159515380859375,-0.0023651123046875
1789996808858201600,2.88620166015625,0.2678985595703125,-0.93170166015625,-0.0008392333984375
1789996808868272600,2.896272705078125,0.2905731201171875,-0.8008575439453125,-0.0994415283203125
1789996808878343700,2.90634375,-0.3964080810546875,-0.911590576171875,-0.06805419921875
1789996808888414700,2.916414794921875,-0.424407958984375,-1.1500396728515625,-0.11676025390625
1789996808898485800,2.92648583984375,-0.2615509033203125,-1.16998291015625,-0.1201324462890625
1789996808908556800,2.936556884765625,0.1493988037109375,-0.9703826904296875,-0.1682891845703125
1789996808918627600,2.946627685546875,0.450592041015625,-0.8421783447265625,-0.2398681640625
1789996808928698600,2.95669873046875,-0.1339569091796875,-0.8356781005859375,-0.10357666015625
1789996808938769700,2.966769775390625,-0.34112548828125,-0.9703216552734375,-0.0050201416015625
1789996808948841500,2.976841552734375,0.2503509521484375,-1.2552947998046875,-0.119476318359375
1789996808958912500,2.98691259765625,-0.210906982421875,-1.1259918212890625,-0.0991363525390625
1789996808968983600,2.996983642578125,0.0413360595703125,-0.893707275390625,-0.0705413818359375
1789996808979054600,3.0070546875,0.47979736328125,-0.828277587890625,-0.1480560302734375
1789996808989125400,3.01712548828125,0.0506744384765625,-0.8921966552734375,-0.0722198486328125
1789996808999196400,3.027196533203125,0.0221710205078125,-0.962554931640625,0.0474853515625
1789996809009267500,3.037267333984375,0.4449920654296875,-0.93572998046875,0.0129241943359375
1789996809019338500,3.04733837890625,0.22222900390625,-0.8031005859375,0.040557861328125
1789996809029409500,3.057409423828125,-0.00860595703125,-0.8908843994140625,0.0201263427734375
1789996809039480600,3.06748046875,0.0766143798828125,-1.086334228515625,0.005279541015625
1789996809049551600,3.077551513671875,-0.15826416015625,-1.13922119140625,-0.0350494384765625
1789996809059622400,3.087622314453125,0.1843109130859375,-1.0460357666015625,-0.06878662109375
1789996809069694500,3.097694580078125,0.123321533203125,-0.9900665283203125,-0.072418212890625
1789996809079765500,3.107765625,-0.1748046875,-1.213165283203125,-0.055877685546875
1789996809089836500,3.11783642578125,-0.2530364990234375,-1.211822509765625,0.049591064453125
1789996809099907600,3.127907470703125,0.0305023193359375,-1.137847900390625,-0.0963287353515625
1789996809109978600,3.137978515625,0.414764404296875,-0.931304931640625,-0.179840087890625
1789996809120049700,3.148049560546875,0.2232818603515625,-0.83514404296875,-0.1442718505859375
1789996809130120400,3.158120361328125,-0.0392913818359375,-0.8170166015625,-0.166351318359375
1789996809140191500,3.16819140625,-0.0105438232421875,-0.9440155029296875,-0.183135986328125
1789996809150262500,3.178262451171875,-0.0153656005859375,-1.0833282470703125,-0.150726318359375
1789996809160333600,3.18833349609375,-0.092132568359375,-1.248382568359375,-0.0601348876953125
1789996809170404600,3.198404541015625,-0.1949615478515625,-1.1780548095703125,0.0475616455078125
1789996809180475600,3.2084755859375,0.2788848876953125,-0.9641265869140625,-0.0153961181640625
1789996809190547700,3.218547607421875,-0.0020599365234375,-0.833648681640625,0.0747222900390625
1789996809200618500,3.228618408203125,-0.1750640869140625,-1.0069732666015625,0.048492431640625
1789996809210689500,3.238689453125,0.1302337646484375,-0.860321044921875,0.0899810791015625
1789996809220760600,3.248760498046875,-0.0142059326171875,-0.8774566650390625,0.0041046142578125
1789996809230831600,3.25883154296875,-0.0949554443359375,-1.13800048828125,0.0748291015625
1789996809240902700,3.268902587890625,-0.151153564453125,-1.137298583984375,0.053131103515625
1789996809250973700,3.2789736328125,-0.3362274169921875,-0.9483642578125,-0.0670166015625
1789996809261044500,3.28904443359375,0.15032958984375,-0.9104766845703125,-0.068511962890625
1789996809271115500,3.299115478515625,0.12933349609375,-0.959381103515625,-0.154632568359375
1789996809281186600,3.3091865234375,-0.1540679931640625,-0.8597259521484375,-0.1383056640625
1789996809291257600,3.319257568359375,-0.3236236572265625,-0.9067230224609375,-0.105560302734375
1789996809301328600,3.32932861328125,-0.0431976318359375,-1.02569580078125,-0.1184844970703125
1789996809311399700,3.339399658203125,0.1174468994140625,-0.9885406494140625,-0.1700439453125
1789996809321471700,3.3494716796875,0.0436859130859375,-0.95721435546875,-0.2385406494140625
1789996809331542500,3.35954248046875,0.0384521484375,-0.9841156005859375,-0.1830596923828125
1789996809341613600,3.369613525390625,0.1450653076171875,-0.9334869384765625,-0.286468505859375
1789996809351684600,3.3796845703125,0.1950225830078125,-0.8828277587890625,-0.259796142578125
1789996809361755600,3.389755615234375,0.1953125,-0.8709716796875,-0.212554931640625
1789996809371826700,3.39982666015625,-0.1589508056640625,-1.0708160400390625,-0.193267822265625
1789996809381897700,3.409897705078125,-0.4145965576171875,-1.3194427490234375,-0.022003173828125
1789996809391968500,3.419968505859375,-0.3901214599609375,-1.2393035888671875,-0.0298004150390625
1789996809402039600,3.43003955078125,-0.030487060546875,-1.0398101806640625,-0.1166839599609375
1789996809412110600,3.440110595703125,0.8254852294921875,-0.8729400634765625,-0.020233154296875
1789996809422181600,3.450181640625,0.2198486328125,-0.7534942626953125,0.20880126953125
1789996809432252700,3.460252685546875,-0.483612060546875,-0.9116058349609375,0.2462310791015625
1789996809442324700,3.47032470703125,0.042816162109375,-1.20745849609375,0.2010498046875
1789996809452395800,3.480395751953125,0.35931396484375,-1.2034759521484375,0.1561737060546875
1789996809462466800,3.490466796875,0.25396728515625,-0.944488525390625,0.1579437255859375
1789996809472537600,3.50053759765625,0.2872314453125,-0.8851470947265625,0.1424560546875
1789996809482608600,3.510608642578125,-0.2611083984375,-1.0889434814453125,0.101043701171875
1789996809492679700,3.5206796875,-0.4996337890625,-1.25323486328125,0.0250396728515625
1789996809502750700,3.530750732421875,0.2078857421875,-1.0909576416015625,-0.0695037841796875
1789996809512821800,3.54082177734375,0.5872344970703125,-0.892059326171875,-0.11651611328125
1789996809522892800,3.550892822265625,0.1563568115234375,-0.866180419921875,-0.0996551513671875
1789996809532963600,3.560963623046875,-0.4040374755859375,-0.953826904296875,-0.01214599609375
1789996809543034600,3.57103466796875,-0.2879180908203125,-1.06329345703125,-0.0960693359375
1789996809553105700,3.581105712890625,0.235809326171875,-1.1795806884765625,-0.1473388671875
1789996809563177500,3.591177490234375,0.3745574951171875,-0.8791961669921875,-0.0726318359375
1789996809573248500,3.60124853515625,0.3760833740234375,-0.6942596435546875,-0.0296630859375
1789996809583319600,3.611319580078125,0.141815185546875,-0.7997283935546875,0.0981903076171875
1789996809593390600,3.621390625,-0.2937164306640625,-0.912841796875,0.02947998046875
1789996809603461400,3.63146142578125,-0.3401336669921875,-1.361297607421875,-0.02191162109375
1789996809613532400,3.641532470703125,-0.2869873046875,-1.490692138671875,-0.0651092529296875
1789996809623603500,3.651603515625,0.044586181640625,-1.15667724609375,-0.0950775146484375
1789996809633674500,3.661674560546875,0.36639404296875,-0.718597412109375,-0.0499725341796875
1789996809643745500,3.67174560546875,0.413238525390625,-0.575164794921875,0.0436248779296875
1789996809653816600,3.681816650390625,0.38189697265625,-0.7264404296875,-0.025848388671875
1789996809663887600,3.6918876953125,0.159423828125,-0.9580078125,0.0364837646484375
1789996809673958700,3.701958740234375,0.09185791015625,-1.127166748046875,0.0798492431640625
1789996809684029700,3.71202978515625,-0.148162841796875,-1.1872100830078125,0.03997802734375
1789996809694100700,3.722100830078125,0.0431060791015625,-1.156585693359375,0.031890869140625
1789996809704172500,3.732172607421875,0.155975341796875,-1.0150604248046875,0.048583984375
1789996809714243600,3.74224365234375,-0.2252197265625,-0.8693695068359375,0.1183319091796875
1789996809724314600,3.752314697265625,-0.158721923828125,-1.004669189453125,0.0455322265625
1789996809734385400,3.762385498046875,0.2350311279296875,-1.1129913330078125,0.0384368896484375
1789996809744456700,3.772456787109375,0.0130615234375,-1.023040771484375,0.0665283203125
1789996809754527700,3.78252783203125,-0.186187744140625,-0.994781494140625,0.0341644287109375
1789996809764598800,3.792598876953125,0.1967620849609375,-0.982208251953125,0.00836181640625
1789996809774669800,3.802669921875,0.04681396484375,-0.9575042724609375,-0.0346221923828125
1789996809784740600,3.81274072265625,-0.1753997802734375,-1.0979766845703125,-0.097930908203125
1789996809794811600,3.822811767578125,0.0547027587890625,-1.0686187744140625,-0.0674896240234375
1789996809804882700,3.832882568359375,-0.27496337890625,-0.967926025390625,0.026397705078125
1789996809814953700,3.84295361328125,-0.1629486083984375,-0.9780120849609375,-0.0216064453125
1789996809825025800,3.85302587890625,-0.0728302001953125,-1.071624755859375,-0.0271148681640625
1789996809835096800,3.863096923828125,-0.3008575439453125,-0.94049072265625,0.0009613037109375
1789996809845167900,3.87316796875,-0.13507080078125,-0.984375,-0.0908050537109375
1789996809855238700,3.88323876953125,0.1881103515625,-0.8929901123046875,-0.0956878662109375
1789996809865309700,3.893309814453125,0.0641326904296875,-0.8758544921875,-0.1219940185546875
1789996809875380700,3.903380615234375,-0.1866912841796875,-1.113067626953125,-0.140289306640625
1789996809885451800,3.91345166015625,-0.2554168701171875,-1.1708221435546875,-0.079315185546875
1789996809895522800,3.923522705078125,-0.071044921875,-1.186767578125,-0.0195770263671875
1789996809905593900,3.93359375,0.02471923828125,-1.058319091796875,-0.009429931640625
1789996809915664600,3.94366455078125,-0.0531158447265625,-0.7254791259765625,0.0956573486328125
1789996809925735700,3.953735595703125,0.15313720703125,-0.745635986328125,0.0113983154296875
1789996809935806700,3.963806640625,-0.05853271484375,-0.9436492919921875,-0.060089111328125
1789996809945877800,3.973877685546875,-0.1909637451171875,-1.1064910888671875,-0.0641021728515625
1789996809955948800,3.98394873046875,0.1813201904296875,-1.0500640869140625,-0.0091552734375
1789996809966020900,3.994020751953125,0.3756866455078125,-0.8443145751953125,0.041351318359375
1789996809976092000,4.004091796875,-0.2673492431640625,-0.9085235595703125,0.07257080078125
1789996809986162700,4.01416259765625,-0.099212646484375,-1.19818115234375,0.1341094970703125
1789996809996233700,4.024233642578125,0.0117340087890625,-1.156494140625,0.032440185546875
1789996810006304800,4.0343046875,-0.1090850830078125,-1.0902557373046875,-0.010040283203125
1789996810016375800,4.044375732421875,-0.1103668212890625,-1.056182861328125,0.0369720458984375
1789996810026446800,4.05444677734375,0.1429595947265625,-0.84613037109375,-0.0851287841796875
1789996810036518000,4.064517822265625,-0.0884857177734375,-0.81488037109375,-0.0291290283203125
1789996810046588700,4.074588623046875,0.1092987060546875,-1.0644683837890625,-0.0915069580078125
1789996810056659700,4.08465966796875,0.03857421875,-1.22869873046875,-0.1188201904296875
1789996810066730800,4.094730712890625,-0.2870025634765625,-1.108673095703125,-0.0694122314453125
1789996810076801800,4.1048017578125,0.040618896484375,-0.937042236328125,-0.1289520263671875
1789996810086872800,4.114872802734375,0.1131439208984375,-0.9991607666015625,-0.1840972900390625
1789996810096945000,4.12494482421875,-0.03167724609375,-1.078155517578125,-0.1677703857421875
1789996810107016000,4.135015869140625,-0.0771026611328125,-0.9844512939453125,-0.15911865234375
1789996810117087000,4.1450869140625,-0.0419158935546875,-0.977325439453125,-0.1826324462890625
1789996810127157800,4.15515771484375,-0.110321044921875,-1.108551025390625,-0.1715087890625
1789996810137228800,4.165228759765625,0.1179046630859375,-1.081939697265625,-0.15655517578125
1789996810147299800,4.1752998046875,0.1987152099609375,-0.862152099609375,-0.13226318359375
1789996810157371000,4.185370849609375,0.138092041015625,-0.9705810546875,-0.1300201416015625
1789996810167442000,4.19544189453125,0.2252655029296875,-0.8377532958984375,-0.1049041748046875
1789996810177513000,4.205512939453125,0.0482330322265625,-0.83734130859375,-0.05230712890625
1789996810187583700,4.215583740234375,-0.59869384765625,-1.2841796875,0.128875732421875
1789996810197654800,4.22565478515625,-0.354583740234375,-1.35198974609375,0.0806732177734375
1789996810207725800,4.235725830078125,0.1982421875,-1.1494903564453125,-0.0317840576171875
1789996810217796900,4.245796875,0.2502288818359375,-0.8284912109375,-0.0622711181640625
1789996810227868000,4.255867919921875,0.2351531982421875,-0.7640838623046875,-0.0537109375
1789996810237939700,4.265939697265625,0.1595458984375,-0.7325592041015625,0.027587890625
1789996810248010800,4.2760107421875,-0.11090087890625,-0.914337158203125,0.0477142333984375
1789996810258081800,4.286081787109375,-0.01873779296875,-1.108001708984375,0.0118865966796875
1789996810268152800,4.29615283203125,0.47784423828125,-1.24700927734375,-0.0871124267578125
1789996810278224000,4.306223876953125,0.1396484375,-1.116973876953125,-0.07421875
1789996810288295000,4.316294921875,-0.0059661865234375,-0.9470062255859375,-0.1062774658203125
1789996810298366000,4.326365966796875,0.0946807861328125,-0.8647613525390625,-0.150665283203125
1789996810308437000,4.33643701171875,0.0858612060546875,-0.984344482421875,-0.1723480224609375
1789996810318507800,4.3465078125,0.062652587890625,-0.9344940185546875,-0.1517791748046875
1789996810328578800,4.356578857421875,0.2369842529296875,-0.881072998046875,-0.209136962890625
1789996810338649900,4.36664990234375,0.2828521728515625,-0.8973541259765625,-0.1299896240234375
1789996810348721000,4.376720947265625,-0.1259307861328125,-1.0185546875,-0.052520751953125
1789996810358792000,4.3867919921875,-0.3231964111328125,-1.16986083984375,0.0121002197265625
1789996810368863000,4.396863037109375,0.04486083984375,-1.10302734375,-0.0015106201171875
1789996810378933800,4.406933837890625,0.319976806640625,-0.8889617919921875,-0.0482330322265625
1789996810389005600,4.417005615234375,0.3467254638671875,-1.0413970947265625,-0.0776214599609375
1789996810399076600,4.42707666015625,-0.251617431640625,-1.104949951171875,0.0102386474609375
1789996810409147600,4.437147705078125,-0.5033721923828125,-1.0724029541015625,0.011749267578125
1789996810419218700,4.44721875,-0.1171112060546875,-1.1319427490234375,-0.0526580810546875
1789996810429289700,4.457289794921875,0.2156982421875,-1.037200927734375,-0.0827484130859375
1789996810439360800,4.46736083984375,-0.1278839111328125,-0.6661224365234375,-0.0762176513671875
1789996810449431600,4.477431640625,0.43798828125,-0.6667633056640625,-0.11126708984375
1789996810459502600,4.487502685546875,0.3820037841796875,-0.8188323974609375,-0.1533660888671875
1789996810469573600,4.49757373046875,-0.4417724609375,-0.98345947265625,-0.121429443359375
1789996810479644700,4.507644775390625,-0.343170166015625,-1.330535888671875,-0.1597137451171875
1789996810489715700,4.5177158203125,-0.253997802734375,-1.470428466796875,-0.2424163818359375
1789996810499786800,4.527786865234375,-0.287445068359375,-1.1352996826171875,-0.30194091796875
1789996810509857500,4.537857421875,0.084075927734375,-0.8900909423828125,-0.20892333984375
1789996810519928600,4.547928466796875,0.218841552734375,-0.736846923828125,-0.0093841552734375
1789996810530000600,4.558000732421875,-0.2898712158203125,-0.803009033203125,0.0915679931640625
1789996810540071700,4.56807177734375,-0.186614990234375,-0.9508056640625,0.1048126220703125
1789996810550142700,4.578142822265625,0.1087799072265625,-1.0384674072265625,0.119781494140625
1789996810560213800,4.5882138671875,0.0302734375,-1.0767669677734375,0.108489990234375
1789996810570284800,4.598284912109375,0.008514404296875,-1.11181640625,0.04248046875
1789996810580355800,4.60835595703125,-0.0206756591796875,-1.0858001708984375,0.0777740478515625
1789996810590426600,4.618426513671875,-0.0189208984375,-0.9286346435546875,0.029815673828125
1789996810600497700,4.62849755859375,0.224609375,-0.993499755859375,0.0111083984375
1789996810610568700,4.638568603515625,-0.0326995849609375,-1.0128021240234375,0.0189208984375
1789996810620639700,4.6486396484375,-0.0284423828125,-0.998046875,0.015838623046875
1789996810630710800,4.658710693359375,0.2524871826171875,-0.96099853515625,-0.0353546142578125
1789996810640781800,4.66878173828125,0.11456298828125,-0.93408203125,0.0119171142578125
1789996810650852600,4.6788525390625,0.196044921875,-0.9244842529296875,-0.0179290771484375
1789996810660923600,4.688923583984375,0.208038330078125,-0.9643096923828125,-0.105438232421875
1789996810670994700,4.69899462890625,-0.278228759765625,-1.11846923828125,-0.097930908203125
1789996810681066800,4.709066650390625,-0.1295928955078125,-1.2124176025390625,-0.0970611572265625
1789996810691137800,4.7191376953125,-0.01885986328125,-1.1725311279296875,-0.188323974609375
1789996810701208800,4.729208740234375,-0.050384521484375,-1.1170501708984375,-0.186920166015625
1789996810711279900,4.73927978515625,0.100494384765625,-0.86871337890625,-0.03753662109375
1789996810721350700,4.7493505859375,-0.039703369140625,-0.833526611328125,0.092193603515625
1789996810731421700,4.759421630859375,0.0235137939453125,-0.9903106689453125,0.100921630859375
1789996810741491700,4.76949169921875,0.0412139892578125,-1.007568359375,0.0055389404296875
1789996810751562800,4.779562744140625,0.48663330078125,-0.89508056640625,-0.07696533203125
1789996810761633800,4.7896337890625,0.31817626953125,-0.844085693359375,0.096923828125
1789996810771704800,4.799704833984375,-0.3211669921875,-1.0421905517578125,0.1274261474609375
1789996810781776000,4.80977587890625,-0.2142181396484375,-1.1847991943359375,0.0383758544921875
1789996810791847000,4.819846923828125,0.1307220458984375,-1.1738433837890625,-0.023681640625
1789996810801917700,4.829917724609375,0.119720458984375,-1.1974945068359375,-0.0814666748046875
1789996810811988700,4.83998876953125,-0.0437774658203125,-1.168548583984375,-0.01971435546875
1789996810822059800,4.850059814453125,-0.0062713623046875,-0.700042724609375,0.0519256591796875
1789996810832131800,4.8601318359375,0.5228118896484375,-0.4753875732421875,0.0018768310546875
1789996810842203000,4.870202880859375,0.2563629150390625,-0.8857574462890625,0.056396484375
1789996810852274000,4.88027392578125,-0.3781890869140625,-1.255950927734375,0.045928955078125
1789996810862345000,4.890344970703125,-0.522979736328125,-1.25146484375,0.0397796630859375
1789996810872415700,4.900415771484375,0.082244873046875,-1.1082000732421875,-0.087310791015625
1789996810882486800,4.91048681640625,0.611236572265625,-0.901458740234375,-0.16943359375
1789996810892557800,4.920557861328125,0.3069915771484375,-0.84588623046875,-0.0715484619140625
1789996810902628900,4.93062890625,-0.2007904052734375,-0.92828369140625,0.03118896484375
1789996810912700000,4.940699951171875,-0.5684814453125,-1.015625,0.03741455078125
1789996810922771000,4.95077099609375,-0.088623046875,-1.2177581787109375,-0.0195159912109375
1789996810932842000,4.960842041015625,0.3095245361328125,-1.1962890625,-0.114837646484375
1789996810942912800,4.970912841796875,0.025848388671875,-0.883697509765625,-0.07843017578125
1789996810952983800,4.98098388671875,0.03546142578125,-0.78582763671875,-0.007476806640625
1789996810963054800,4.991054931640625,-0.1087646484375,-0.831085205078125,-0.0285186767578125
1789996810973126000,5.0011259765625,-0.0750274658203125,-0.994964599609375,-0.08453369140625
1789996810983198000,5.011197998046875,0.1602325439453125,-1.1308135986328125,-0.0490264892578125
1789996810993269000,5.02126904296875,-0.3427734375,-1.289520263671875,-0.02850341796875
1789996811003340000,5.031340087890625,-0.566497802734375,-1.247283935546875,-0.026885986328125
1789996811013410800,5.041410888671875,0.0424041748046875,-1.0704345703125,-0.1058502197265625
1789996811023481900,5.05148193359375,0.388336181640625,-0.672882080078125,-0.031951904296875
1789996811033553000,5.061552978515625,0.155517578125,-0.5722198486328125,0.0509490966796875
1789996811043624000,5.0716240234375,0.168701171875,-0.7735595703125,0.0137786865234375
1789996811053695000,5.081695068359375,-0.50665283203125,-1.2504119873046875,-0.012603759765625
1789996811063766000,5.09176611328125,-0.3369903564453125,-1.4797515869140625,-0.001617431640625
1789996811073836800,5.1018369140625,0.0762481689453125,-1.3635711669921875,-0.0207061767578125
1789996811083907800,5.111907958984375,0.01837158203125,-0.860443115234375,0.0548553466796875
1789996811093979000,5.121978759765625,0.14459228515625,-0.6445465087890625,0.0396270751953125
1789996811104050000,5.1320498046875,0.3169403076171875,-0.6887359619140625,-0.0163421630859375
1789996811114121000,5.142120849609375,0.0895538330078125,-0.84649658203125,0.0354766845703125
1789996811124192000,5.15219189453125,0.04296875,-1.147796630859375,-0.0220794677734375
1789996811134264000,5.16226416015625,-0.0662384033203125,-1.24322509765625,-0.0143890380859375
1789996811144334800,5.1723349609375,-0.4460296630859375,-1.180389404296875,0.0543975830078125
1789996811154406000,5.182406005859375,-0.2975921630859375,-1.0755462646484375,0.017852783203125
1789996811164477000,5.192476806640625,0.4630126953125,-0.9376678466796875,-0.0216827392578125
1789996811174548000,5.2025478515625,0.397979736328125,-0.8460540771484375,-0.037078857421875
1789996811184619000,5.212618896484375,-0.196533203125,-0.9523162841796875,-0.03131103515625
1789996811194690000,5.22268994140625,-0.15802001953125,-0.993743896484375,-0.087615966796875
1789996811204760800,5.2327607421875,0.057525634765625,-1.0422515869140625,-0.1049652099609375
1789996811214831900,5.242831787109375,-0.149566650390625,-1.129791259765625,-0.0458526611328125
1789996811224903000,5.25290283203125,-0.1251678466796875,-0.9962615966796875,-0.02001953125
1789996811234974000,5.262973876953125,-0.010467529296875,-0.8873291015625,-0.0954132080078125
1789996811245045000,5.273044921875,-0.1875457763671875,-1.0498046875,-0.086883544921875
1789996811255116000,5.283115966796875,0.085906982421875,-1.0366973876953125,-0.025848388671875
1789996811265186800,5.293186767578125,0.466705322265625,-0.9590911865234375,-0.06744384765625
1789996811275257900,5.3032578125,0.1285247802734375,-0.8809661865234375,-0.042938232421875
1789996811285329000,5.313328857421875,-0.345245361328125,-1.020843505859375,-0.0007476806640625
1789996811295400000,5.32339990234375,-0.3320770263671875,-1.09930419921875,-0.0137481689453125
1789996811305472000,5.333471923828125,0.0363311767578125,-1.0941314697265625,-0.0889739990234375
1789996811315543000,5.34354296875,0.31744384765625,-1.123046875,-0.1165008544921875
1789996811325614000,5.353614013671875,0.007568359375,-1.1231536865234375,-0.0476837158203125
1789996811335685000,5.36368505859375,-0.2132415771484375,-0.9040069580078125,-0.057952880859375
1789996811345756000,5.373755859375,0.3337554931640625,-0.87738037109375,-0.16107177734375
1789996811355827000,5.383826904296875,0.3263092041015625,-0.7180938720703125,-0.093780517578125
1789996811365898000,5.39389794921875,0.19390869140625,-0.836151123046875,-0.03509521484375
1789996811375969000,5.403968994140625,-0.0465240478515625,-1.1423492431640625,-0.0456085205078125
1789996811386040000,5.4140400390625,-0.327728271484375,-1.1415557861328125,-0.1338653564453125
1789996811396111000,5.424111083984375,0.17926025390625,-1.1486053466796875,-0.2532196044921875
1789996811406182000,5.434181884765625,0.4319915771484375,-1.0386810302734375,-0.1789703369140625
1789996811416253000,5.4442529296875,-0.035675048828125,-0.8367919921875,-0.064422607421875
1789996811426324000,5.454323974609375,-0.1748809814453125,-0.759307861328125,-0.0127410888671875
1789996811436395000,5.46439501953125,-0.127410888671875,-1.17181396484375,-0.0267486572265625
1789996811446466000,5.474466064453125,-0.01904296875,-1.2546234130859375,-0.088836669921875
1789996811456537000,5.484537109375,-0.0629730224609375,-1.0937042236328125,-0.0965118408203125
1789996811466609000,5.49460888671875,0.0742645263671875,-0.9891204833984375,-0.0543212890625
1789996811476679700,5.5046796875,0.059783935546875,-0.924560546875,-0.1147918701171875
1789996811486750700,5.514750732421875,-0.1522369384765625,-0.8584136962890625,-0.129852294921875
1789996811496821800,5.52482177734375,0.0231781005859375,-1.0491790771484375,-0.0717315673828125
1789996811506892800,5.534892822265625,0.13946533203125,-1.1783599853515625,-0.1128387451171875
1789996811516963800,5.5449638671875,-0.5001983642578125,-1.187225341796875,-0.09307861328125
1789996811527035000,5.555034912109375,-0.3254852294921875,-1.0396881103515625,-0.152130126953125
1789996811537106000,5.56510595703125,0.2061309814453125,-0.9553070068359375,-0.1980743408203125
1789996811547177000,5.575177001953125,0.10931396484375,-0.9394989013671875,-0.0208892822265625
1789996811557248000,5.585248046875,0.1526336669921875,-0.827423095703125,-0.0441741943359375
1789996811567319000,5.595319091796875,0.2621612548828125,-0.7594757080078125,-0.138885498046875
1789996811577390000,5.60539013671875,0.0858154296875,-1.0186767578125,-0.1193389892578125
1789996811587461000,5.615461181640625,-0.159423828125,-1.2583770751953125,-0.0321197509765625
1789996811597532000,5.625531982421875,-0.2849273681640625,-1.2520751953125,0.000885009765625
1789996811607603000,5.63560302734375,-0.1847381591796875,-0.9688262939453125,-0.10430908203125
1789996811617674000,5.645674072265625,0.2079315185546875,-0.8943328857421875,-0.10601806640625
1789996811627745000,5.6557451171875,0.274322509765625,-0.7824554443359375,0.0308685302734375
1789996811637816000,5.665816162109375,0.0999298095703125,-0.82672119140625,0.133544921875
1789996811647888000,5.675887939453125,-0.0823516845703125,-0.9649658203125,0.063995361328125
1789996811657959000,5.685958984375,-0.2178497314453125,-1.1044464111328125,-0.0488739013671875
1789996811668029700,5.69602978515625,-0.0210723876953125,-1.2603912353515625,-0.1110687255859375
1789996811678100700,5.706100830078125,-0.1658172607421875,-1.0418548583984375,-0.0666961669921875
1789996811688171800,5.716171875,0.0384368896484375,-0.897735595703125,-0.1153717041015625
1789996811698242800,5.726242919921875,0.44744873046875,-0.959991455078125,-0.102447509765625
1789996811708313900,5.73631396484375,-0.044281005859375,-0.9736328125,0.0274200439453125
1789996811718385000,5.746385009765625,-0.2417755126953125,-1.06414794921875,-0.024658203125
1789996811728455700,5.75645556640625,0.172271728515625,-1.042938232421875,-0.1281280517578125
1789996811738526700,5.766526611328125,0.07373046875,-0.8296966552734375,0.022430419921875
1789996811748598300,5.776598388671875,0.2060394287109375,-0.907012939453125,0.0539093017578125
1789996811758669300,5.78666943359375,-0.2171173095703125,-1.09930419921875,0.10302734375
1789996811768740400,5.796740234375,-0.2534637451171875,-1.2584686279296875,0.00677490234375
1789996811778811400,5.806811279296875,-0.0051422119140625,-1.2284088134765625,0.0598602294921875
1789996811788882200,5.816882080078125,0.1700897216796875,-1.07989501953125,0.0015411376953125
1789996811798953200,5.826953125,0.2248382568359375,-0.8477935791015625,-0.0593414306640625
1789996811809024300,5.837024169921875,0.16815185546875,-0.6881256103515625,-0.0634613037109375
1789996811819096300,5.847096435546875,-0.09765625,-0.8624114990234375,-0.04510498046875
1789996811829167400,5.85716748046875,-0.3830108642578125,-1.221466064453125,0.0417022705078125
1789996811839238400,5.86723828125,0.1090545654296875,-1.2501373291015625,-0.06439208984375
1789996811849309400,5.877309326171875,0.03277587890625,-1.000579833984375,-0.0913848876953125
1789996811859380200,5.887380126953125,0.01043701171875,-0.8189849853515625,-0.0516815185546875
1789996811869451300,5.897451171875,0.06805419921875,-0.7536163330078125,-0.083770751953125
1789996811879522300,5.907522216796875,0.1027374267578125,-0.927734375,-0.07684326171875
1789996811889593300,5.91759326171875,0.2228240966796875,-1.1099853515625,-0.0287933349609375
1789996811899664400,5.927664306640625,-0.1627655029296875,-1.270538330078125,-0.090545654296875
1789996811909735400,5.9377353515625,-0.1689300537109375,-1.132598876953125,-0.19097900390625
1789996811919806200,5.94780615234375,-0.0675811767578125,-0.7845001220703125,-0.0980072021484375
1789996811929877200,5.957877197265625,0.3096160888671875,-0.7542877197265625,-0.051666259765625
1789996811939948300,5.9679482421875,0.2401123046875,-0.9030609130859375,0.16339111328125
1789996811950019300,5.978019287109375,-0.157989501953125,-0.911590576171875,0.12158203125
1789996811960090400,5.98809033203125,0.0005340576171875,-1.0278472900390625,-0.1661834716796875
1789996811970161400,5.998161376953125,0.205780029296875,-1.037506103515625,-0.12286376953125
1789996811980232200,6.008232177734375,-0.2087249755859375,-1.0410003662109375,-0.0500335693359375
1789996811990303200,6.01830322265625,-0.165008544921875,-1.1746673583984375,-0.135009765625
1789996812000375300,6.028375244140625,-0.0338897705078125,-1.1025848388671875,-0.0526580810546875
1789996812010446300,6.0384462890625,0.04656982421875,-0.9075927734375,-0.087188720703125
1789996812020517400,6.048517333984375,0.5576171875,-0.8411865234375,-0.1841888427734375
1789996812030588400,6.05858837890625,0.062957763671875,-0.74359130859375,0.043701171875
1789996812040659500,6.068659423828125,-0.531829833984375,-1.029388427734375,-0.083221435546875
1789996812050730500,6.07873046875,0.0183563232421875,-1.3376007080078125,-0.2109375
1789996812060801300,6.08880126953125,0.11767578125,-1.27093505859375,-0.044586181640625
1789996812070872300,6.098872314453125,-0.0258636474609375,-0.9677581787109375,-0.0735626220703125
1789996812080943400,6.108943359375,-0.064910888671875,-0.8392181396484375,-0.14910888671875
1789996812091014400,6.119014404296875,-0.103271484375,-0.8392181396484375,-0.0029449462890625
1789996812101085400,6.12908544921875,-0.0199432373046875,-1.0465850830078125,0.06097412109375
1789996812111156500,6.139156494140625,0.427703857421875,-1.1081085205078125,-0.05389404296875
1789996812121227300,6.149227294921875,0.1477508544921875,-0.9148712158203125,-0.066162109375
1789996812131298300,6.15929833984375,-0.240509033203125,-0.82745361328125,-0.139678955078125
1789996812141369300,6.169369384765625,-0.2272796630859375,-0.9189605712890625,-0.2132415771484375
1789996812151440400,6.1794404296875,-0.2311248779296875,-1.1823272705078125,-0.0145721435546875
1789996812161511400,6.189511474609375,0.0234832763671875,-1.3379058837890625,0.182861328125
1789996812171582500,6.19958251953125,0.0248260498046875,-1.0809478759765625,0.0198822021484375
1789996812181654500,6.209654541015625,0.013763427734375,-0.88153076171875,-0.1677703857421875
1789996812191725300,6.219725341796875,-0.032562255859375,-0.80657958984375,-0.1471710205078125
1789996812201796400,6.22979638671875,-0.0592041015625,-0.7771453857421875,-0.077484130859375
1789996812211867400,6.239867431640625,0.0280609130859375,-0.89990234375,0.130615234375
1789996812221938400,6.2499384765625,-0.160003662109375,-0.9741363525390625,0.251617431640625
1789996812232009500,6.260009521484375,-0.297760009765625,-1.1192474365234375,0.1293487548828125
1789996812242080500,6.27008056640625,0.061798095703125,-1.29022216796875,0.1156005859375
1789996812252151300,6.2801513671875,-0.025421142578125,-1.16986083984375,0.141998291015625
1789996812262222300,6.290222412109375,0.165557861328125,-0.97174072265625,-0.0351715087890625
1789996812272293400,6.30029345703125,0.1320648193359375,-0.8221435546875,-0.036895751953125
1789996812282364400,6.310364501953125,-0.307098388671875,-0.920318603515625,0.024749755859375
1789996812292435500,6.320435546875,-0.2144775390625,-1.118804931640625,0.0008697509765625
1789996812302506500,6.330506591796875,-0.19866943359375,-1.175384521484375,-0.04833984375
1789996812312577300,6.340577392578125,0.08758544921875,-1.1212615966796875,-0.197052001953125
1789996812322648300,6.3506484375,0.1912384033203125,-0.9285125732421875,-0.20556640625
1789996812332719400,6.36071923828125,0.1315155029296875,-0.8213043212890625,-0.2424774169921875
1789996812342790400,6.370790283203125,0.046600341796875,-0.8380126953125,-0.1072845458984375
1789996812352861400,6.380861328125,-0.1808929443359375,-1.1070556640625,-0.0862579345703125
1789996812362932500,6.390932373046875,-0.28741455078125,-1.148284912109375,0.0124359130859375
1789996812373004500,6.401004638671875,-0.06048583984375,-1.031951904296875,0.0869140625
1789996812383075600,6.41107568359375,0.17205810546875,-0.98443603515625,0.1521759033203125
1789996812393146400,6.421146484375,0.12890625,-0.9593963623046875,0.1775970458984375
1789996812403217400,6.431217529296875,-0.20574951171875,-1.0164642333984375,0.0858917236328125
1789996812413288400,6.441288330078125,-0.0501708984375,-1.067962646484375,0.11456298828125
1789996812423359500,6.451359375,0.1165924072265625,-0.969512939453125,0.2133331298828125
1789996812433430500,6.461430419921875,0.1228179931640625,-0.9352264404296875,0.1743316650390625
1789996812443501600,6.47150146484375,0.021087646484375,-0.853179931640625,0.129547119140625
1789996812453572400,6.481572265625,-0.1097259521484375,-0.8744964599609375,0.097137451171875
1789996812463643400,6.491643310546875,-0.1743011474609375,-1.0891571044921875,0.053436279296875
1789996812473714400,6.50171435546875,-0.2227630615234375,-1.0921630859375,0.03057861328125
1789996812483785500,6.511785400390625,0.26849365234375,-1.0047149658203125,-0.0087738037109375
1789996812493856500,6.5218564453125,0.51654052734375,-0.7879180908203125,0.0971221923828125
1789996812503927600,6.531927490234375,0.24884033203125,-0.7637939453125,-0.0442352294921875
1789996812513998300,6.541998291015625,-0.20013427734375,-0.9470672607421875,-0.0858001708984375
1789996812524069400,6.5520693359375,-0.3174896240234375,-1.2087860107421875,0.0066375732421875
1789996812534140400,6.562140380859375,-0.1889801025390625,-1.1942901611328125,0.110015869140625
1789996812544211500,6.57221142578125,0.2590179443359375,-1.0244903564453125,0.1075592041015625
1789996812554282500,6.582282470703125,0.411376953125,-0.851043701171875,0.22686767578125
1789996812564353500,6.592353515625,0.1887054443359375,-0.7964630126953125,0.1765594482421875
1789996812574425300,6.60242529296875,-0.2808685302734375,-1.10723876953125,0.0576629638671875
1789996812584496400,6.612496337890625,-0.611907958984375,-1.3942108154296875,0.177764892578125
1789996812594567400,6.6225673828125,-0.284027099609375,-1.254852294921875,0.1065521240234375
1789996812604638500,6.632638427734375,0.5618133544921875,-0.972015380859375,0.1523895263671875
1789996812614709500,6.64270947265625,0.7681884765625,-0.6482086181640625,0.2778778076171875
1789996812624780500,6.652780517578125,-0.004913330078125,-0.6091156005859375,0.1133880615234375
1789996812634851300,6.662851318359375,-0.466278076171875,-0.965545654296875,-0.03857421875
1789996812644922400,6.67292236328125,-0.3220062255859375,-1.313934326171875,0.017303466796875
1789996812654993400,6.682993408203125,-0.0924224853515625,-1.3480224609375,0.1545867919921875
1789996812665064400,6.693064453125,-0.024505615234375,-1.1732940673828125,0.184844970703125
1789996812675135500,6.703135498046875,0.0942840576171875,-0.8459320068359375,0.0334625244140625
1789996812685206500,6.71320654296875,0.1852569580078125,-0.631927490234375,-0.0578765869140625
1789996812695277600,6.723277587890625,-0.076446533203125,-0.75140380859375,-0.0003814697265625
1789996812705348400,6.733348388671875,-0.117523193359375,-1.0009307861328125,-0.0455169677734375
1789996812715419400,6.74341943359375,-0.0137176513671875,-1.0523834228515625,-0.0330657958984375
1789996812725490400,6.753490478515625,-0.1038360595703125,-0.993927001953125,-0.12506103515625
1789996812735561500,6.7635615234375,-0.1310577392578125,-1.0685882568359375,-0.1761322021484375
1789996812745632300,6.77363232421875,0.0188140869140625,-1.0702972412109375,-0.0787353515625
1789996812755703300,6.783703369140625,0.1607818603515625,-0.9987640380859375,-0.065643310546875
1789996812765774000,6.793774169921875,0.1884918212890625,-0.863494873046875,-0.0304107666015625
1789996812775845000,6.80384521484375,-0.139495849609375,-1.0067596435546875,0.028167724609375
1789996812785917000,6.8139169921875,-0.2855377197265625,-1.179718017578125,-0.0346527099609375
1789996812795988000,6.823988037109375,-0.467742919921875,-1.197540283203125,-0.0805511474609375
1789996812806059000,6.83405908203125,-0.0389862060546875,-1.09112548828125,-0.1270294189453125
1789996812816130000,6.844130126953125,0.3229217529296875,-0.9864349365234375,0.0820770263671875
1789996812826201000,6.854201171875,0.37139892578125,-0.8641357421875,0.094512939453125
1789996812836272000,6.864272216796875,0.124542236328125,-0.93695068359375,-0.060882568359375
1789996812846343200,6.87434326171875,0.0844268798828125,-1.05657958984375,-0.032501220703125
1789996812856414000,6.8844140625,-0.003631591796875,-1.094482421875,0.024505615234375
1789996812866485000,6.894485107421875,-0.2921600341796875,-1.1383209228515625,0.004913330078125
1789996812876556000,6.90455615234375,-0.1870574951171875,-1.0899505615234375,-0.052978515625
1789996812886627000,6.914626953125,0.2833709716796875,-0.9184417724609375,-0.05621337890625
1789996812896698000,6.924697998046875,0.5661468505859375,-0.81036376953125,0.0066986083984375
1789996812906769200,6.93476904296875,0.2947998046875,-0.79852294921875,0.0743560791015625
1789996812916840200,6.944840087890625,-0.334381103515625,-0.9527435302734375,-0.0077667236328125
1789996812926911200,6.9549111328125,-0.4269866943359375,-1.073638916015625,-0.0075531005859375
1789996812936982300,6.964982177734375,-0.01373291015625,-1.1735992431640625,-0.00604248046875
1789996812947053300,6.97505322265625,0.1588134765625,-0.95416259765625,-0.0203094482421875
1789996812957124000,6.9851240234375,0.2655181884765625,-0.7901611328125,0.2671356201171875
1789996812967195100,6.995195068359375,0.090087890625,-0.7951202392578125,0.0004425048828125
1789996812977266200,7.00526611328125,-0.360565185546875,-1.0587921142578125,-0.0483856201171875
1789996812987337200,7.015337158203125,-0.3484649658203125,-1.272491455078125,0.066802978515625
1789996812997408300,7.025408203125,0.133148193359375,-1.114471435546875,0.140899658203125
1789996813007480000,7.03547998046875,0.5780029296875,-0.7629547119140625,0.037109375
1789996813017551000,7.045551025390625,0.242218017578125,-0.823486328125,0.058563232421875
1789996813027622100,7.0556220703125,-0.62969970703125,-1.1879119873046875,0.0279083251953125
1789996813037693000,7.06569287109375,-0.878570556640625,-1.34124755859375,-0.0802764892578125
1789996813047764000,7.075763916015625,0.0390625,-1.370880126953125,-0.012908935546875
1789996813057835000,7.0858349609375,0.7118072509765625,-1.0110626220703125,0.1307525634765625
1789996813067906000,7.095906005859375,0.7042694091796875,-0.5962677001953125,-0.087646484375
1789996813077977000,7.10597705078125,0.1703338623046875,-0.561767578125,-0.380950927734375
1789996813088048000,7.116048095703125,-0.39837646484375,-1.0596923828125,-0.4627532958984375
1789996813098119000,7.126118896484375,-0.5781402587890625,-1.4490814208984375,-0.1772003173828125
1789996813108190000,7.13618994140625,0.0404815673828125,-1.3860015869140625,-0.178619384765625
1789996813118261000,7.146260986328125,0.547393798828125,-0.769927978515625,-0.226287841796875
1789996813128332000,7.15633203125,0.579437255859375,-0.563018798828125,-0.23681640625
1789996813138403000,7.166403076171875,-0.209381103515625,-0.8672637939453125,-0.238372802734375
1789996813148474000,7.17647412109375,-0.7312164306640625,-1.34375,-0.1229705810546875
1789996813158545000,7.186544921875,-0.456024169921875,-1.5587310791015625,0.0149383544921875
1789996813168616000,7.196615966796875,0.1639251708984375,-1.2780609130859375,-0.020263671875
1789996813178687000,7.20668701171875,0.4177398681640625,-0.7328643798828125,-0.0659942626953125
1789996813188758000,7.216758056640625,0.2772216796875,-0.609527587890625,-0.1529693603515625
1789996813198829000,7.2268291015625,-0.30401611328125,-0.7418212890625,-0.2833099365234375
1789996813208900000,7.236900146484375,-0.1722869873046875,-1.0581207275390625,-0.3235931396484375
1789996813218971100,7.24697119140625,-0.24688720703125,-1.376220703125,-0.04681396484375
1789996813229042200,7.257042236328125,-0.3205108642578125,-1.2552490234375,-0.012115478515625
1789996813239114000,7.267114013671875,-0.214141845703125,-1.1041412353515625,-0.06060791015625
1789996813249185000,7.27718505859375,0.1620025634765625,-0.8898162841796875,-0.113067626953125
1789996813259256000,7.287256103515625,0.278961181640625,-0.8799285888671875,-0.1835174560546875
1789996813269327000,7.2973271484375,0.2131195068359375,-0.84228515625,-0.132232666015625
1789996813279398100,7.307398193359375,-0.265838623046875,-0.921600341796875,-0.0685272216796875
1789996813289469000,7.317468994140625,-0.3869781494140625,-1.2285614013671875,-0.16265869140625
1789996813299540000,7.3275400390625,-0.0741424560546875,-1.4003753662109375,-0.02099609375
1789996813309611000,7.337611083984375,0.2634124755859375,-1.0533599853515625,0.123138427734375
1789996813319682000,7.34768212890625,0.5249481201171875,-0.776885986328125,-0.0213470458984375
1789996813329753000,7.357753173828125,0.0381011962890625,-0.7107696533203125,-0.0367584228515625
1789996813339824000,7.36782421875,-0.38873291015625,-0.98114013671875,-0.04620361328125
1789996813349895000,7.37789501953125,-0.1158905029296875,-1.187408447265625,-0.027252197265625
1789996813359966000,7.387966064453125,0.1540374755859375,-1.1120758056640625,0.0481414794921875
1789996813370037000,7.398037109375,0.2374267578125,-0.884246826171875,-0.0714874267578125
1789996813380108000,7.40810791015625,0.0445404052734375,-0.8382720947265625,-0.261962890625
1789996813390179000,7.418178955078125,-0.264068603515625,-1.00372314453125,-0.3469085693359375
1789996813400250000,7.42825,-0.1861114501953125,-1.134613037109375,-0.23773193359375
1789996813410321000,7.43832080078125,-0.108856201171875,-1.2335052490234375,-0.090667724609375
1789996813420392000,7.448391845703125,0.25274658203125,-0.9930267333984375,-0.1729278564453125
1789996813430463000,7.458462890625,0.0411376953125,-0.6877288818359375,-0.310333251953125
1789996813440534000,7.468533935546875,-0.1515350341796875,-0.740692138671875,-0.406219482421875
1789996813450605000,7.47860498046875,-0.1544342041015625,-1.0701446533203125,-0.2500457763671875
1789996813460676000,7.488676025390625,-0.3028106689453125,-1.1526336669921875,-0.1748046875
1789996813470748200,7.498748046875,-0.070220947265625,-0.983001708984375,-0.310150146484375
1789996813480819200,7.508819091796875,0.6150970458984375,-0.7448883056640625,-0.280181884765625
1789996813490890000,7.518889892578125,0.2013092041015625,-0.8282470703125,-0.10833740234375
1789996813500961000,7.5289609375,-0.7153167724609375,-1.206512451171875,-0.0978851318359375
1789996813511032000,7.539031982421875,-0.32855224609375,-1.3787994384765625,-0.2260894775390625
1789996813521103000,7.54910302734375,0.146392822265625,-1.1379241943359375,-0.1912078857421875
1789996813531174100,7.559174072265625,0.24224853515625,-0.818878173828125,-0.004425048828125
1789996813541245200,7.5692451171875,0.3313140869140625,-0.5440673828125,0.0099945068359375
1789996813551316000,7.57931591796875,-0.046356201171875,-0.705230712890625,0.069122314453125
1789996813561387000,7.589386962890625,-0.2458953857421875,-1.08935546875,0.1119842529296875
1789996813571458000,7.5994580078125,0.01043701171875,-1.4650726318359375,0.0670318603515625
1789996813581529000,7.609529052734375,0.052703857421875,-1.2836151123046875,0.0566864013671875
1789996813591600000,7.61960009765625,0.3123016357421875,-0.85906982421875,0.122222900390625
1789996813601671200,7.629671142578125,0.2422943115234375,-0.7274627685546875,0.183441162109375
1789996813611742000,7.639741943359375,-0.11102294921875,-0.8561553955078125,0.1439971923828125
1789996813621813000,7.64981298828125,-0.0568695068359375,-1.0453948974609375,0.0921173095703125
1789996813631884000,7.659884033203125,0.185333251953125,-1.074249267578125,0.0009765625
1789996813641955000,7.669955078125,0.3479461669921875,-0.8891143798828125,0.026031494140625
1789996813652026000,7.680026123046875,0.0688629150390625,-0.8572845458984375,0.0714874267578125
1789996813662097200,7.69009716796875,-0.127044677734375,-1.0479736328125,0.02996826171875
1789996813672168000,7.70016796875,-0.2321014404296875,-1.2868194580078125,-0.0980224609375
1789996813682239000,7.710239013671875,-0.24566650390625,-1.2998046875,-0.1859283447265625
1789996813692310000,7.72031005859375,0.189178466796875,-1.091522216796875,-0.15045166015625
1789996813702381000,7.730381103515625,0.534027099609375,-0.6955108642578125,-0.1047515869140625
1789996813712452000,7.7404521484375,-0.0219879150390625,-0.650421142578125,0.0017852783203125
1789996813722524200,7.750524169921875,-0.3071136474609375,-0.8016815185546875,-0.018951416015625
1789996813732595200,7.76059521484375,-0.12261962890625,-1.0778350830078125,-0.089691162109375
1789996813742666000,7.770666015625,-0.27471923828125,-1.268585205078125,-0.112884521484375
1789996813752737300,7.7807373046875,0.0005950927734375,-1.195770263671875,-0.1163787841796875
1789996813762808300,7.790808349609375,0.285491943359375,-0.989410400390625,-0.1156005859375
1789996813772879400,7.80087939453125,-0.12646484375,-0.9143218994140625,0.005645751953125
1789996813782950400,7.810950439453125,-0.2795562744140625,-1.03240966796875,0.0242462158203125
1789996813793021400,7.821021484375,-0.173828125,-1.083587646484375,-0.054779052734375
1789996813803092200,7.83109228515625,0.1658172607421875,-1.0412750244140625,-0.086578369140625
1789996813813163300,7.841163330078125,0.086944580078125,-1.054901123046875,0.0312652587890625
1789996813823234300,7.851234375,-0.0474853515625,-1.0564727783203125,0.0013427734375
1789996813833305300,7.861305419921875,0.0544891357421875,-0.983917236328125,-0.1002044677734375
1789996813843376400,7.87137646484375,0.21270751953125,-0.917938232421875,-0.090606689453125
1789996813853447400,7.881447509765625,0.0588226318359375,-0.7952880859375,-0.0335693359375
1789996813863518200,7.891518310546875,0.165008544921875,-0.74603271484375,-0.0264129638671875
1789996813873589200,7.90158935546875,-0.2700042724609375,-1.07562255859375,0.014923095703125
1789996813883660300,7.911660400390625,-0.10693359375,-1.329681396484375,-0.00091552734375
1789996813893731300,7.9217314453125,0.1891326904296875,-1.1360931396484375,-0.09649658203125
1789996813903802400,7.93180224609375,0.1631927490234375,-0.8495330810546875,-0.1169281005859375
1789996813913873400,7.941873291015625,-0.0721282958984375,-0.7626190185546875,-0.0959320068359375
1789996813923944400,7.9519443359375,-0.1612701416015625,-0.9653167724609375,-0.0839691162109375
1789996813934015200,7.96201513671875,-0.1973114013671875,-1.0885009765625,0.0128936767578125
1789996813944086300,7.972086181640625,0.19622802734375,-1.15777587890625,0.0146026611328125
1789996813954157300,7.9821572265625,0.19598388671875,-0.9704132080078125,-0.007476806640625
1789996813964228400,7.992228271484375,-0.13238525390625,-0.8627166748046875,-0.008209228515625
1789996813974299400,8.00229931640625,0.018951416015625,-0.9430084228515625,-0.113311767578125
1789996813984370400,8.012370361328125,0.0811920166015625,-1.07098388671875,-0.11962890625
1789996813994442500,8.0224423828125,-0.0850830078125,-1.147613525390625,0.002197265625
1789996814004513300,8.03251318359375,0.18927001953125,-1.083709716796875,-0.0503997802734375
1789996814014584300,8.042584228515626,-0.021240234375,-0.8843994140625,-0.027191162109375
1789996814024655400,8.0526552734375,-0.18145751953125,-0.951141357421875,-0.012054443359375
1789996814034726400,8.062726318359376,0.1502227783203125,-0.998687744140625,-0.0799713134765625
1789996814044797400,8.07279736328125,0.210723876953125,-0.8622589111328125,-0.026611328125
1789996814054868500,8.082868408203124,0.1757965087890625,-0.8227081298828125,-0.027801513671875
1789996814064939300,8.092939208984374,0.1437530517578125,-0.9256134033203125,-0.0796661376953125
1789996814075010300,8.10301025390625,-0.3571319580078125,-0.9508514404296875,-0.0448150634765625
1789996814085081300,8.113081298828124,-0.2809295654296875,-1.282196044921875,-0.075531005859375
1789996814095152400,8.12315234375,-0.1470794677734375,-1.38958740234375,0.0180511474609375
1789996814105223400,8.133223388671874,-0.207550048828125,-1.0783538818359375,0.0651397705078125
1789996814115294500,8.14329443359375,0.42816162109375,-0.8279571533203125,0.0081787109375
1789996814125365200,8.153365234375,0.650604248046875,-0.6136322021484375,0.0381927490234375
1789996814135436300,8.163436279296874,0.05242919921875,-0.692138671875,0.0872650146484375
1789996814145507300,8.17350732421875,-0.05853271484375,-1.0559844970703125,0.0304718017578125
1789996814155578400,8.183578369140625,-0.520904541015625,-1.24420166015625,0.063751220703125
1789996814165649400,8.1936494140625,-0.35498046875,-1.180755615234375,0.0386505126953125
1789996814175720400,8.203720458984375,0.3048095703125,-1.1938629150390625,-0.010589599609375
1789996814185791200,8.213791259765625,0.3339996337890625,-0.94134521484375,0.04901123046875
1789996814195862300,8.2238623046875,0.1612396240234375,-0.7349090576171875,0.054901123046875
1789996814205933300,8.233933349609375,0.147674560546875,-0.7876739501953125,-0.096435546875
1789996814216004400,8.24400439453125,0.191162109375,-0.8580169677734375,-0.0995330810546875
1789996814226075400,8.254075439453125,-0.3272552490234375,-1.1059417724609375,-0.0013275146484375
1789996814236146400,8.264146484375,-0.439971923828125,-1.2306671142578125,-0.0596923828125
1789996814246217200,8.27421728515625,0.0426177978515625,-1.0171661376953125,-0.1977081298828125
1789996814256288300,8.284288330078125,0.594818115234375,-0.823394775390625,-0.2400665283203125
1789996814266359300,8.294359375,0.3318939208984375,-0.747314453125,-0.156768798828125
1789996814276430300,8.304430419921875,-0.324798583984375,-0.9498443603515625,-0.1307830810546875
1789996814286501400,8.31450146484375,-0.4851226806640625,-1.2281646728515625,-0.1299896240234375
1789996814296573400,8.324573486328125,-0.3191986083984375,-1.391265869140625,-0.140106201171875
1789996814306644500,8.33464453125,-0.169891357421875,-1.3358612060546875,-0.0130157470703125
1789996814316715300,8.34471533203125,0.1939697265625,-0.8433074951171875,-0.032958984375
1789996814326786300,8.354786376953125,0.131378173828125,-0.49359130859375,-0.119659423828125
1789996814336857300,8.364857421875,0.459716796875,-0.5951690673828125,-0.1268463134765625
1789996814346928400,8.374928466796876,-0.0764923095703125,-0.997467041015625,-0.0356903076171875
1789996814356999400,8.38499951171875,-0.72698974609375,-1.4509735107421875,-0.0012969970703125
1789996814367070500,8.395070556640626,-0.338531494140625,-1.5620269775390625,-0.1560516357421875
1789996814377141500,8.4051416015625,0.1670379638671875,-1.0642852783203125,-0.1228485107421875
1789996814387212300,8.41521240234375,0.3944244384765625,-0.6478271484375,-0.0373992919921875
1789996814397283300,8.425283447265626,0.358428955078125,-0.687469482421875,-0.0120086669921875
1789996814407354400,8.435354248046876,-0.344146728515625,-0.972686767578125,-0.0308074951171875
1789996814417425400,8.44542529296875,-0.5699920654296875,-1.22967529296875,-0.0596923828125
1789996814427496400,8.455496337890626,0.223907470703125,-1.285003662109375,-0.0777130126953125
1789996814437567500,8.4655673828125,0.48614501953125,-0.96893310546875,0.048858642578125
1789996814447638300,8.47563818359375,-0.343017578125,-0.7619171142578125,0.088104248046875
1789996814457709300,8.485709228515624,-0.23114013671875,-0.956024169921875,-0.1151123046875
1789996814467780400,8.4957802734375,-0.095855712890625,-1.2039337158203125,-0.0882415771484375
1789996814477851400,8.505851318359374,-0.2491912841796875,-1.227935791015625,-0.0059051513671875
1789996814487922400,8.51592236328125,0.22637939453125,-1.023651123046875,0.00372314453125
1789996814497993500,8.525993408203124,0.4765777587890625,-0.6115264892578125,-0.0172882080078125
1789996814508064300,8.536064208984374,0.19976806640625,-0.617218017578125,-0.0955963134765625
1789996814518135300,8.54613525390625,-0.105804443359375,-0.9332427978515625,-0.1999664306640625
1789996814528206300,8.556206298828124,-0.5381317138671875,-1.3618621826171875,-0.1835174560546875
1789996814538277400,8.56627734375,-0.526580810546875,-1.36578369140625,-0.0953826904296875
1789996814548348400,8.576348388671875,0.008514404296875,-1.1430816650390625,-0.0738983154296875
1789996814558419500,8.58641943359375,0.3964691162109375,-0.8005828857421875,-0.0084381103515625
1789996814568490200,8.596490234375,0.7296142578125,-0.5633087158203125,0.0254974365234375
1789996814578561300,8.606561279296875,0.3703155517578125,-0.4872894287109375,0.0424041748046875
1789996814588632300,8.61663232421875,-0.537933349609375,-0.9489898681640625,-0.004791259765625
1789996814598704400,8.626704345703125,-0.6111602783203125,-1.528106689453125,-0.010040283203125
1789996814608775400,8.636775390625,-0.1924591064453125,-1.6417236328125,-0.0219268798828125
1789996814618846500,8.646846435546875,0.24285888671875,-1.1658782958984375,-0.0643157958984375
1789996814628917500,8.65691748046875,0.3746795654296875,-0.6589508056640625,0.0627593994140625
1789996814638988300,8.66698828125,0.35302734375,-0.503387451171875,0.090301513671875
1789996814649059300,8.677059326171875,0.4167938232421875,-0.648529052734375,0.042938232421875
1789996814659130400,8.68713037109375,-0.09527587890625,-1.1068878173828125,0.136016845703125
1789996814669201400,8.697201416015625,-0.788848876953125,-1.3612518310546875,0.0993499755859375
1789996814679272400,8.7072724609375,0.0574493408203125,-1.3724517822265625,-0.025848388671875
1789996814689343500,8.717343505859375,0.400054931640625,-1.0150604248046875,0.0516204833984375
1789996814699414300,8.727414306640625,0.13983154296875,-0.9891357421875,0.0167083740234375
1789996814709485300,8.7374853515625,-0.1044769287109375,-1.0752410888671875,-0.113494873046875
1789996814719556400,8.747556396484375,-0.2814483642578125,-0.904327392578125,0.004119873046875
1789996814729627400,8.75762744140625,0.1988677978515625,-0.8864898681640625,0.0831146240234375
1789996814739698400,8.767698486328126,0.4506988525390625,-1.064605712890625,0.1069793701171875
1789996814749769700,8.777769775390626,-0.1413116455078125,-0.9735870361328125,0.0439453125
1789996814759840500,8.787840576171876,-0.2144775390625,-0.9916229248046875,-0.0080108642578125
1789996814769911600,8.79791162109375,-0.2369842529296875,-1.075775146484375,-0.0028839111328125
1789996814779982600,8.807982666015626,0.0787811279296875,-0.9796142578125,-0.0460205078125
1789996814790053600,8.8180537109375,0.3704833984375,-0.9859619140625,-0.0111083984375
1789996814800124700,8.828124755859376,-0.133209228515625,-1.0132904052734375,-0.033233642578125
1789996814810195700,8.83819580078125,-0.2614898681640625,-1.1288909912109375,-0.149444580078125
1789996814820266800,8.848266845703124,0.1856689453125,-1.113861083984375,-0.086090087890625
1789996814830337500,8.858337646484374,0.0165863037109375,-0.973907470703125,0.0079345703125
1789996814840408600,8.86840869140625,-0.02130126953125,-0.9603424072265625,0.0037841796875
1789996814850479600,8.878479736328124,-0.1037445068359375,-0.794097900390625,0.0379638671875
1789996814860550700,8.888550537109374,-0.0768585205078125,-0.7420196533203125,-0.019134521484375
1789996814870621700,8.89862158203125,0.126617431640625,-1.0664520263671875,-0.0151824951171875
1789996814880692700,8.908692626953124,-0.0170440673828125,-1.2735748291015625,0.014678955078125
1789996814890763500,8.918763427734374,-0.12261962890625,-1.11065673828125,-0.066497802734375
1789996814900834600,8.92883447265625,0.09527587890625,-1.02716064453125,-0.062347412109375
1789996814910905600,8.938905517578124,0.2339324951171875,-0.991607666015625,-0.1010894775390625
1789996814920976600,8.9489765625,0.0785980224609375,-0.9946441650390625,-0.0753631591796875
1789996814931047700,8.959047607421875,-0.2408447265625,-0.84814453125,-0.0080718994140625
1789996814941118700,8.96911865234375,-0.315521240234375,-0.9418487548828125,-0.1624298095703125
1789996814951190800,8.979190673828125,0.2758026123046875,-1.03790283203125,-0.2193145751953125
1789996814961261600,8.989261474609375,0.3232269287109375,-0.9646453857421875,-0.11639404296875
1789996814971332600,8.99933251953125,-0.069488525390625,-0.95001220703125,-0.139801025390625
1789996814981403600,9.009403564453125,-0.2784423828125,-1.02557373046875,-0.1722564697265625
1789996814991474700,9.019474609375,-0.1222686767578125,-1.1566619873046875,-0.1615447998046875
1789996815001545700,9.029545654296875,-0.1248626708984375,-1.3282012939453125,-0.16253662109375
1789996815011616800,9.03961669921875,-0.16650390625,-1.1795501708984375,-0.1402130126953125
1789996815021687600,9.0496875,0.0370635986328125,-0.9114532470703125,-0.1694183349609375
1789996815031758600,9.059758544921875,0.1505584716796875,-0.8989410400390625,-0.08135986328125
1789996815041829600,9.06982958984375,-0.09979248046875,-0.855560302734375,-0.012298583984375
1789996815051900700,9.079900634765625,0.078887939453125,-0.9422607421875,-0.0124053955078125
1789996815061971700,9.0899716796875,0.3554534912109375,-0.9395599365234375,-0.0345916748046875
1789996815072042800,9.100042724609375,-0.1514892578125,-0.969329833984375,-0.0175018310546875
1789996815082113500,9.110113525390625,-0.4628143310546875,-1.2493743896484375,-0.053009033203125
1789996815092184600,9.1201845703125,-0.24945068359375,-1.4046173095703125,-0.0514068603515625
1789996815102255600,9.130255615234375,0.075469970703125,-1.130706787109375,-0.0321044921875
1789996815112326700,9.14032666015625,0.2911224365234375,-0.8398895263671875,0.0483245849609375
1789996815122397700,9.150397705078126,0.5984954833984375,-0.6989288330078125,0.0115966796875
1789996815132468700,9.16046875,0.2913970947265625,-0.66412353515625,0.05133056640625
1789996815142539500,9.17053955078125,-0.104705810546875,-0.843994140625,0.05987548828125
1789996815152610600,9.180610595703126,0.0927276611328125,-1.1256866455078125,-0.03564453125
1789996815162681600,9.190681640625,0.014068603515625,-1.146209716796875,-0.0507354736328125
1789996815172752600,9.200752685546876,-0.223358154296875,-0.970489501953125,0.0136260986328125
1789996815182823700,9.21082373046875,0.1375274658203125,-0.936676025390625,-0.01080322265625
1789996815192894700,9.220894775390626,0.0388641357421875,-0.90631103515625,-0.02288818359375
1789996815202965500,9.230965576171876,-0.0799407958984375,-1.0575103759765625,0.0277099609375
1789996815213036500,9.24103662109375,-0.3484649658203125,-1.236236572265625,0.0929718017578125
1789996815223107600,9.251107666015624,-0.3516998291015625,-1.1820526123046875,0.104156494140625
1789996815233178600,9.2611787109375,0.2005462646484375,-0.9313201904296875,0.0941009521484375
1789996815243249700,9.271249755859374,0.686248779296875,-0.704925537109375,0.11944580078125
1789996815253320700,9.28132080078125,0.34246826171875,-0.6263580322265625,0.1191253662109375
1789996815263391500,9.2913916015625,-0.0872039794921875,-0.8730316162109375,0.0809783935546875
1789996815273462500,9.301462646484374,-0.3482208251953125,-1.2468414306640625,0.1212921142578125
1789996815283533600,9.311533447265624,-0.4381256103515625,-1.401031494140625,-0.0063323974609375
1789996815293604600,9.3216044921875,-0.0349578857421875,-1.3581085205078125,-0.1616363525390625
1789996815303675600,9.331675537109374,0.3860931396484375,-0.99884033203125,-0.1533203125
1789996815313746700,9.34174658203125,0.0464630126953125,-0.6772308349609375,-0.0504150390625
1789996815323817500,9.3518173828125,0.09375,-0.7920684814453125,0.061737060546875
1789996815333888500,9.361888427734375,0.1513519287109375,-0.9921417236328125,-0.0083465576171875
1789996815343959600,9.37195947265625,0.0825653076171875,-1.1463775634765625,-0.1200103759765625
1789996815354030600,9.382030517578125,-0.135711669921875,-1.2156829833984375,-0.0952911376953125
1789996815364102700,9.3921025390625,-0.1080474853515625,-1.0130157470703125,-0.102691650390625
1789996815374173700,9.402173583984375,0.3661956787109375,-0.7996826171875,-0.180450439453125
1789996815384244700,9.41224462890625,0.2348175048828125,-0.8526611328125,-0.0902862548828125
1789996815394315800,9.422315673828125,-0.1418304443359375,-0.9908905029296875,0.0029144287109375
1789996815404386600,9.432386474609375,-0.33416748046875,-1.027679443359375,-0.005035400390625
1789996815414457600,9.44245751953125,-0.124359130859375,-1.1047821044921875,-0.0163726806640625
1789996815424528600,9.452528564453125,0.0489044189453125,-1.12774658203125,-0.106201171875
1789996815434599700,9.462599609375,-0.0499725341796875,-1.0740509033203125,-0.129730224609375
1789996815444670700,9.472670654296875,-0.0141143798828125,-0.915985107421875,-0.11456298828125
1789996815454741800,9.48274169921875,-0.2420501708984375,-0.7772216796875,-0.0597991943359375
1789996815464812500,9.4928125,-0.233154296875,-0.8938446044921875,-0.03289794921875
1789996815474883600,9.502883544921875,0.183380126953125,-1.0405120849609375,-0.113800048828125
1789996815484954600,9.51295458984375,0.1120758056640625,-1.1113128662109375,-0.0798187255859375
1789996815495025700,9.523025634765625,-0.2624664306640625,-1.1732177734375,-0.0110321044921875
1789996815505096700,9.5330966796875,-0.387451171875,-1.1275634765625,-0.0064697265625
1789996815515167700,9.543167724609376,0.025634765625,-0.9713897705078125,-0.0676422119140625
1789996815525238500,9.553238525390626,0.2821807861328125,-0.806060791015625,-0.0236053466796875
1789996815535309600,9.5633095703125,-0.1112518310546875,-0.7885284423828125,0.047943115234375
1789996815545380600,9.573380615234376,-0.1903076171875,-0.9168701171875,0.033905029296875
1789996815555451600,9.58345166015625,0.3850555419921875,-0.9957122802734375,-0.0225982666015625
1789996815565522700,9.593522705078126,0.3663482666015625,-0.925506591796875,-0.0460205078125
1789996815575593700,9.60359375,-0.4229736328125,-1.0798492431640625,0.0088043212890625
1789996815585664500,9.61366455078125,-0.36859130859375,-1.198089599609375,0.0421295166015625
1789996815595735600,9.623735595703126,-0.2061920166015625,-1.224609375,-0.0323486328125
1789996815605806600,9.633806640625,0.086639404296875,-1.147247314453125,0.020050048828125
1789996815615877600,9.643877685546874,0.43048095703125,-0.8943023681640625,-0.085052490234375
1789996815625948700,9.65394873046875,0.4604339599609375,-0.623077392578125,-0.161834716796875
1789996815636019700,9.664019775390624,-0.2097320556640625,-0.760955810546875,-0.078643798828125
1789996815646090500,9.674090576171874,-0.5588226318359375,-1.1593017578125,-0.0841064453125
1789996815656161500,9.68416162109375,-0.0977935791015625,-1.3845672607421875,-0.1223602294921875
1789996815666232600,9.694232666015624,0.21173095703125,-1.162628173828125,-0.0919647216796875
1789996815676303600,9.7043037109375,0.121002197265625,-0.9014739990234375,-0.07666015625
1789996815686374700,9.714374755859374,0.297149658203125,-0.7920379638671875,-0.1506805419921875
1789996815696445700,9.72444580078125,-0.088470458984375,-0.7846221923828125,-0.10321044921875
1789996815706516500,9.7345166015625,-0.2446136474609375,-0.987274169921875,-0.028900146484375
1789996815716587500,9.74458740234375,-0.1403656005859375,-1.319915771484375,0.0398101806640625
1789996815726658600,9.754658447265625,-0.1665191650390625,-1.2271270751953125,0.1040802001953125
1789996815736729600,9.7647294921875,-0.123046875,-0.8284912109375,0.0515899658203125
1789996815746800400,9.77480029296875,0.590728759765625,-0.74212646484375,-0.01715087890625
1789996815756871400,9.784871337890625,0.5539093017578125,-0.831451416015625,-0.0322418212890625
1789996815766942500,9.7949423828125,-0.5343475341796875,-0.9443206787109375,0.00872802734375
1789996815777013500,9.805013427734375,-0.909088134765625,-1.33575439453125,0.1026611328125
1789996815787084500,9.81508447265625,-0.2257232666015625,-1.5457611083984375,0.0269927978515625
1789996815797155300,9.8251552734375,0.2963104248046875,-1.158966064453125,-0.064605712890625
1789996815807226400,9.835226318359375,0.75714111328125,-0.6714935302734375,-0.0244903564453125
1789996815817297400,9.84529736328125,0.0902862548828125,-0.584320068359375,0.0414886474609375
1789996815827368400,9.855368408203125,-0.61566162109375,-0.9503936767578125,-0.07916259765625
1789996815837439500,9.865439453125,-0.3143157958984375,-1.17572021484375,-0.1234283447265625
1789996815847510500,9.875510498046875,0.5876617431640625,-1.172821044921875,-0.1432952880859375
1789996815857582600,9.88558251953125,0.7549285888671875,-0.985260009765625,-0.037933349609375
1789996815867653400,9.8956533203125,-0.1124420166015625,-0.7753448486328125,-0.001708984375
1789996815877724400,9.905724365234375,-0.4500732421875,-0.8399658203125,-0.0761260986328125
1789996815887795500,9.91579541015625,-0.0409393310546875,-1.1009368896484375,-0.08935546875
1789996815897866500,9.925866455078125,0.36541748046875,-1.22076416015625,-0.06707763671875
1789996815907937500,9.9359375,0.4105682373046875,-1.1002197265625,0.0260467529296875
1789996815918008600,9.946008544921876,0.1680908203125,-0.9448089599609375,-0.0567474365234375
1789996815928079400,9.956079345703126,-0.4248046875,-0.885101318359375,-0.01019287109375
1789996815938150400,9.966150390625,0.1124114990234375,-0.9172210693359375,-0.0256500244140625
1789996815948221400,9.976221435546876,0.2089996337890625,-1.049896240234375,0.0388641357421875
1789996815958292500,9.98629248046875,-0.2440185546875,-0.8349609375,0.0390167236328125
1789996815968363500,9.996363525390626,-0.3228912353515625,-0.82757568359375,-0.1081085205078125
1789996815978434600,10.0064345703125,0.0182037353515625,-1.121063232421875,-0.2159881591796875
1789996815988505300,10.01650537109375,-0.0520477294921875,-1.2989349365234375,-0.15631103515625
1789996815998576400,10.026576416015626,0.026092529296875,-1.1975250244140625,-0.2281036376953125
1789996816008647400,10.0366474609375,0.1028289794921875,-1.0380706787109375,-0.2322540283203125
1789996816018718500,10.046718505859374,0.026123046875,-0.9782867431640625,-0.214599609375
1789996816028789500,10.05678955078125,-0.229156494140625,-0.81658935546875,-0.129791259765625
1789996816038860500,10.066860595703124,-0.0351104736328125,-0.97235107421875,-0.0794830322265625
1789996816048931600,10.076931640625,0.335662841796875,-1.1026458740234375,-0.10125732421875
1789996816059002400,10.08700244140625,0.0391998291015625,-0.9945526123046875,-0.080078125
1789996816069073400,10.097073486328124,-0.23651123046875,-0.9275054931640625,-0.064056396484375
1789996816079144400,10.10714453125,-0.019073486328125,-1.00592041015625,-0.029327392578125
1789996816089215500,10.117215576171875,0.1749725341796875,-0.985748291015625,0.020904541015625
1789996816099286500,10.12728662109375,0.0008087158203125,-0.9692230224609375,0.0322418212890625
1789996816109357600,10.137357666015625,-0.2339324951171875,-1.2431793212890625,-0.056640625
1789996816119428400,10.147428466796875,-0.417694091796875,-1.2269439697265625,-0.0330657958984375
1789996816129499400,10.15749951171875,0.0149383544921875,-0.9547119140625,-0.0596466064453125
1789996816139570400,10.1675703125,0.6153717041015625,-0.881439208984375,0.01116943359375
1789996816149641500,10.177641357421875,0.398712158203125,-0.720062255859375,0.060699462890625
1789996816159712500,10.18771240234375,-0.3436126708984375,-0.80902099609375,0.0338134765625
1789996816169783600,10.197783447265625,-0.350372314453125,-1.014434814453125,-0.0251922607421875
1789996816179854300,10.207854248046875,0.1490936279296875,-1.1576995849609375,-0.0105743408203125
1789996816189925400,10.21792529296875,0.09295654296875,-1.17254638671875,-0.0349578857421875
1789996816199996400,10.227996337890625,-0.2033233642578125,-1.076080322265625,-0.0543365478515625
1789996816210067500,10.2380673828125,-0.2480316162109375,-1.040252685546875,-0.028533935546875
1789996816220138500,10.248138427734375,-0.08843994140625,-1.0452423095703125,-0.007415771484375
1789996816230209500,10.25820947265625,0.21978759765625,-1.039154052734375,-0.016265869140625
1789996816240280300,10.2682802734375,0.429656982421875,-0.8484649658203125,0.0139007568359375
1789996816250351400,10.278351318359375,0.1075286865234375,-0.7325439453125,0.010223388671875
1789996816260422400,10.28842236328125,-0.285064697265625,-0.9276580810546875,-0.097747802734375
1789996816270493400,10.298493408203125,-0.1705169677734375,-1.25927734375,-0.1556854248046875
1789996816280564500,10.308564453125,0.192352294921875,-1.2122955322265625,-0.1822357177734375
1789996816290635500,10.318635498046875,0.2254180908203125,-0.8201141357421875,-0.159210205078125
1789996816300706300,10.328706298828125,0.17095947265625,-0.7158966064453125,-0.1493377685546875
1789996816310777300,10.33877734375,-0.154571533203125,-0.9436798095703125,-0.084442138671875
1789996816320848400,10.348848388671875,-0.5749053955078125,-1.233001708984375,-0.0885009765625
1789996816330919400,10.35891943359375,-0.0498809814453125,-1.472381591796875,-0.0847930908203125
1789996816340990500,10.368990478515625,0.6231536865234375,-1.089996337890625,-0.152801513671875
1789996816351061500,10.3790615234375,0.4460906982421875,-0.6175689697265625,-0.1341094970703125
1789996816361132300,10.38913232421875,-0.0825042724609375,-0.66156005859375,0.0201568603515625
1789996816371203300,10.399203369140626,-0.4714508056640625,-0.981201171875,0.0705718994140625
1789996816381274400,10.4092744140625,-0.1805572509765625,-1.2379150390625,-0.040557861328125
1789996816391345400,10.419345458984376,0.3501739501953125,-1.3115386962890625,-0.0096893310546875
1789996816401416400,10.42941650390625,0.5824127197265625,-0.909088134765625,-0.02606201171875
1789996816411487500,10.439487548828126,0.219451904296875,-0.746124267578125,0.0193328857421875
1789996816421558300,10.449558349609376,-0.068267822265625,-0.779449462890625,0.0623321533203125
1789996816431629300,10.45962939453125,-0.0722808837890625,-0.9647216796875,0.0641632080078125
1789996816441700400,10.469700439453124,0.413543701171875,-1.11029052734375,-0.0370635986328125
1789996816451771400,10.479771484375,-0.1702423095703125,-1.084747314453125,-0.008453369140625
1789996816461843500,10.489843505859374,-0.441986083984375,-1.038726806640625,0.0935211181640625
1789996816471914500,10.49991455078125,0.0536346435546875,-0.98583984375,-0.0027008056640625
1789996816481985500,10.509985595703125,0.37451171875,-0.9700927734375,-0.1078338623046875
1789996816492056300,10.520056396484375,0.0145263671875,-1.024078369140625,-0.0991058349609375
1789996816502127400,10.53012744140625,0.015777587890625,-1.0089111328125,-0.0879058837890625
1789996816512198400,10.540198486328125,-0.186859130859375,-0.976806640625,-0.0267486572265625
1789996816522269400,10.55026953125,-0.160186767578125,-1.07574462890625,-0.05145263671875
1789996816532340500,10.560340576171875,0.248199462890625,-1.0918426513671875,-0.2163238525390625
1789996816542411500,10.57041162109375,0.01483154296875,-0.910552978515625,-0.1999664306640625
1789996816552482300,10.580482421875,-0.3221893310546875,-0.878936767578125,-0.09722900390625
1789996816562553300,10.59055322265625,-0.1952362060546875,-1.0629730224609375,-0.1267242431640625
1789996816572624400,10.600624267578125,0.185943603515625,-0.9329071044921875,-0.2054595947265625
1789996816582695400,10.6106953125,0.1837921142578125,-0.9467620849609375,-0.2197265625
1789996816592766500,10.620766357421875,0.0202178955078125,-0.9359130859375,-0.139007568359375
1789996816602837500,10.63083740234375,-0.0086212158203125,-0.84625244140625,-0.059326171875
1789996816612908300,10.640908203125,-0.3229522705078125,-1.0111083984375,-0.095367431640625
1789996816622979300,10.650979248046875,-0.3099822998046875,-1.305877685546875,-0.1260223388671875
1789996816633050400,10.66105029296875,-0.0709381103515625,-1.1920623779296875,-0.0631561279296875
1789996816643121400,10.671121337890625,0.0584716796875,-0.8489532470703125,0.074066162109375
1789996816653192400,10.6811923828125,0.34796142578125,-0.7253570556640625,0.15203857421875
1789996816663263500,10.691263427734375,0.1244354248046875,-0.8298492431640625,0.1199951171875
1789996816673334500,10.70133447265625,-0.2675933837890625,-0.957550048828125,0.1067962646484375
1789996816683405300,10.7114052734375,-0.306488037109375,-1.258697509765625,0.20330810546875
1789996816693476400,10.721476318359375,-0.2604522705078125,-1.307830810546875,0.169952392578125
1789996816703547400,10.73154736328125,-0.081146240234375,-1.20794677734375,0.1388702392578125
1789996816713618400,10.741618408203125,0.2906494140625,-0.99017333984375,0.12994384765625
1789996816723689500,10.751689453125,0.0126800537109375,-0.7868804931640625,0.1422882080078125
1789996816733760500,10.761760498046876,0.0881195068359375,-0.737457275390625,0.096893310546875
1789996816743831300,10.771831298828126,0.39642333984375,-0.8106689453125,-0.019927978515625
1789996816753902000,10.781902099609376,0.0976715087890625,-0.821685791015625,-0.0260009765625
1789996816763973000,10.79197314453125,0.0007781982421875,-1.0949859619140625,-0.056182861328125
1789996816774044200,10.802044189453126,-0.5190887451171875,-1.3115081787109375,-0.0131683349609375
1789996816784115200,10.812115234375,-0.2406463623046875,-1.22686767578125,-0.00250244140625
1789996816794186200,10.822186279296876,0.0287628173828125,-1.0363922119140625,-0.02679443359375
1789996816804257300,10.83225732421875,0.320037841796875,-0.84246826171875,-0.0875244140625
1789996816814328300,10.842328369140626,0.154205322265625,-0.7707366943359375,-0.157196044921875
1789996816824399000,10.852399169921876,-0.196533203125,-0.968536376953125,-0.173370361328125
1789996816834470100,10.86247021484375,-0.126251220703125,-1.206573486328125,-0.2078399658203125
1789996816844541200,10.872541259765624,0.1687774658203125,-1.21795654296875,-0.2368621826171875
1789996816854612200,10.8826123046875,0.099609375,-0.9449920654296875,-0.21978759765625
1789996816864683300,10.892683349609374,-0.13214111328125,-0.6817626953125,-0.087860107421875
1789996816874754300,10.90275439453125,-0.0977783203125,-0.7647247314453125,-0.0126953125
1789996816884825000,10.9128251953125,-0.0583038330078125,-1.00006103515625,0.018035888671875
1789996816894896000,10.922896240234374,0.01556396484375,-1.250396728515625,0.051910400390625
1789996816904967200,10.93296728515625,0.31988525390625,-1.0780792236328125,0.010467529296875
1789996816915038200,10.9430380859375,0.266082763671875,-0.8806915283203125,0.0307159423828125
1789996816925109200,10.953109130859374,0.1828155517578125,-0.8109588623046875,0.0023193359375
1789996816935180300,10.96318017578125,-0.152191162109375,-0.9973297119140625,0.12786865234375
1789996816945251000,10.9732509765625,-0.1656494140625,-0.995269775390625,0.1513214111328125
1789996816955322000,10.983322021484375,0.2756195068359375,-0.919525146484375,0.0792694091796875
1789996816965393200,10.99339306640625,0.2906951904296875,-0.8316497802734375,0.02581787109375
1789996816975464200,11.003464111328125,-0.3237762451171875,-0.924285888671875,0.059356689453125
1789996816985535200,11.01353515625,-0.4787750244140625,-1.2432098388671875,0.061767578125
1789996816995606300,11.023606201171875,-0.52642822265625,-1.28167724609375,-0.00579833984375
1789996817005677300,11.03367724609375,0.190521240234375,-1.1778564453125,-0.0546722412109375
1789996817015748000,11.043748046875,0.7244415283203125,-0.8939666748046875,-0.048309326171875
1789996817025819100,11.053819091796875,0.155517578125,-0.7153167724609375,-0.0023956298828125
1789996817035890200,11.06389013671875,-0.360107421875,-0.8357696533203125,-0.0593719482421875
1789996817045961200,11.073961181640625,0.192718505859375,-0.9252471923828125,-0.0020599365234375
1789996817056032300,11.0840322265625,0.1343994140625,-1.094024658203125,0.1125640869140625
1789996817066103300,11.094103271484375,-0.238861083984375,-1.3368682861328125,0.1244659423828125
1789996817076174000,11.104174072265625,-0.2532501220703125,-1.2714080810546875,0.02349853515625
1789996817086245000,11.1142451171875,-0.1275787353515625,-1.086822509765625,0.029998779296875
1789996817096316200,11.124316162109375,0.2426910400390625,-1.158843994140625,-0.010528564453125
1789996817106387200,11.13438720703125,0.343536376953125,-0.9755706787109375,0.0162353515625
1789996817116458200,11.144458251953125,0.184112548828125,-0.6909942626953125,0.0124664306640625
1789996817126529300,11.154529296875,0.064178466796875,-0.6427154541015625,0.02392578125
1789996817136600000,11.16460009765625,0.1032257080078125,-0.9025726318359375,0.0047760009765625
1789996817146671000,11.174671142578125,0.093597412109375,-1.042327880859375,-0.0914459228515625
1789996817156742100,11.1847421875,0.0843505859375,-1.03436279296875,-0.0989837646484375
1789996817166813200,11.194813232421875,-0.1944122314453125,-1.0343017578125,-0.1379547119140625
1789996817176884200,11.20488427734375,-0.1664581298828125,-0.9699249267578125,-0.1337738037109375
1789996817186955300,11.214955322265626,0.20111083984375,-0.904083251953125,-0.1687469482421875
1789996817197026000,11.225026123046876,0.1395416259765625,-0.877471923828125,-0.1826324462890625
1789996817207097000,11.23509716796875,-0.2712860107421875,-0.9075775146484375,-0.15899658203125
1789996817217168100,11.245168212890626,-0.1061553955078125,-1.0155181884765625,-0.170074462890625
1789996817227239200,11.2552392578125,0.0394287109375,-1.0031280517578125,-0.1079559326171875
1789996817237310200,11.265310302734376,-0.2397918701171875,-0.989898681640625,-0.1061859130859375
1789996817247381200,11.27538134765625,0.2653350830078125,-1.044281005859375,-0.1851654052734375
1789996817257452000,11.2854521484375,-0.0191802978515625,-1.0457305908203125,-0.0973663330078125
1789996817267523000,11.295523193359376,-0.7251739501953125,-1.3946380615234375,-0.0471038818359375
1789996817277594000,11.305593994140626,-0.6583251953125,-1.402496337890625,-0.1412811279296875
1789996817287665200,11.3156650390625,0.3265228271484375,-1.1434478759765625,-0.1455078125
1789996817297736200,11.325736083984374,0.4593505859375,-0.7825927734375,0.0156707763671875
1789996817307807200,11.33580712890625,-0.0885772705078125,-0.700958251953125,0.0446624755859375
1789996817317878000,11.3458779296875,-0.090667724609375,-0.8506622314453125,-0.0486297607421875
1789996817327949000,11.355948974609374,0.1168212890625,-1.2469482421875,-0.0790557861328125
1789996817338020000,11.36602001953125,-0.0286712646484375,-1.3972015380859375,0.001312255859375
1789996817348091100,11.376091064453124,-0.0388031005859375,-1.384918212890625,-0.0312652587890625
1789996817358162200,11.386162109375,0.3362274169921875,-1.149810791015625,-0.1233978271484375
1789996817368233200,11.396233154296874,0.116912841796875,-0.8889312744140625,-0.05712890625
1789996817378304000,11.406303955078124,-0.1611175537109375,-0.8956146240234375,-0.0857086181640625
1789996817388375000,11.416375,0.0377655029296875,-1.0039215087890625,-0.065582275390625
1789996817398446000,11.426446044921875,0.2200469970703125,-0.8900299072265625,-0.0812225341796875
1789996817408517000,11.43651708984375,-0.19000244140625,-0.9966583251953125,-0.048553466796875
1789996817418588200,11.446588134765625,-0.05010986328125,-1.1562652587890625,-0.1134033203125
1789996817428659200,11.4566591796875,0.3307952880859375,-1.038665771484375,-0.1669769287109375
1789996817438730000,11.46672998046875,0.345123291015625,-0.702423095703125,-0.09619140625
1789996817448801000,11.476801025390625,0.1323699951171875,-0.549835205078125,-0.03839111328125
1789996817458872000,11.4868720703125,0.0703887939453125,-0.6077728271484375,-0.0106201171875
1789996817468943000,11.496943115234375,-0.25274658203125,-0.8204803466796875,0.047119140625
1789996817479014100,11.50701416015625,-0.621490478515625,-1.316986083984375,0.0163116455078125
1789996817489085200,11.517085205078125,-0.27001953125,-1.365509033203125,-0.03802490234375
1789996817499156000,11.527156005859375,0.3823394775390625,-1.141998291015625,-0.029266357421875
1789996817509227000,11.53722705078125,0.3085479736328125,-0.896026611328125,-0.003204345703125
1789996817519298000,11.547298095703125,0.4199371337890625,-0.68463134765625,-0.02886962890625
1789996817529370000,11.5573701171875,0.778045654296875,-0.62420654296875,-0.0362091064453125
1789996817539441200,11.567441162109375,-0.0418853759765625,-0.8672637939453125,-0.038299560546875
1789996817549511200,11.57751123046875,-0.6967620849609375,-1.20965576171875,-0.0414276123046875
1789996817559582000,11.58758203125,-0.2866668701171875,-1.4456634521484375,-0.0877685546875
1789996817569653000,11.597653076171875,-0.0645751953125,-1.19903564453125,-0.0827484130859375
1789996817579724000,11.60772412109375,0.3338165283203125,-1.020294189453125,-0.1468658447265625
1789996817589796000,11.617796142578126,0.3737030029296875,-0.983551025390625,-0.0763092041015625
1789996817599867100,11.6278671875,-0.137237548828125,-0.8044586181640625,0.067230224609375
1789996817609937200,11.637937255859375,-0.1572265625,-1.1867218017578125,-0.107635498046875
1789996817620009200,11.64800927734375,-0.0055389404296875,-1.42254638671875,-0.2706451416015625
1789996817630080300,11.658080322265626,0.091339111328125,-1.2112274169921875,-0.2995452880859375
1789996817640151000,11.668151123046876,0.3778533935546875,-0.9952392578125,-0.281890869140625
1789996817650222000,11.67822216796875,-0.0131378173828125,-0.9146270751953125,-0.057373046875
1789996817660293000,11.688293212890626,0.0350494384765625,-0.8686065673828125,-0.0611114501953125
1789996817670364200,11.6983642578125,0.16680908203125,-1.04156494140625,0.024505615234375
1789996817680435200,11.708435302734374,0.080535888671875,-1.0512542724609375,-0.0291748046875
1789996817690506200,11.71850634765625,-0.368011474609375,-1.0260467529296875,-0.0210723876953125
1789996817700577000,11.728576904296874,-0.2790679931640625,-1.02032470703125,-0.014739990234375
1789996817710648000,11.73864794921875,-0.3197174072265625,-0.9733428955078125,0.0320587158203125
1789996817720719000,11.748718994140624,0.1000823974609375,-0.8563995361328125,0.0141143798828125
1789996817730790100,11.7587900390625,0.60369873046875,-0.730224609375,-0.00701904296875
1789996817740861200,11.768861083984374,0.261322021484375,-0.69232177734375,-0.0155181884765625
1789996817750932000,11.778931884765624,-0.4955291748046875,-0.8633270263671875,0.0311126708984375
1789996817761003000,11.7890029296875,-0.581329345703125,-1.222320556640625,-0.02093505859375
1789996817771073800,11.79907373046875,-0.1684722900390625,-1.1037139892578125,-0.0702667236328125
1789996817781144800,11.809144775390624,0.234039306640625,-0.8748016357421875,-0.00762939453125
1789996817791215900,11.8192158203125,0.1848602294921875,-0.6876373291015625,0.10406494140625
1789996817801287000,11.829286865234375,-0.4892120361328125,-0.84454345703125,0.0478057861328125
1789996817811358000,11.83935791015625,-0.5709381103515625,-1.187286376953125,-0.0412750244140625
1789996817821429000,11.849428955078125,-0.126861572265625,-1.265777587890625,0.04412841796875
1789996817831499800,11.859499755859375,0.4271392822265625,-1.0493927001953125,0.0344085693359375
1789996817841570800,11.86957080078125,0.4470977783203125,-0.799713134765625,0.0259857177734375
1789996817851641900,11.879641845703125,-0.344757080078125,-0.794158935546875,0.031280517578125
1789996817861713000,11.889712890625,-0.462493896484375,-1.0597991943359375,-0.10150146484375
1789996817871784000,11.899783935546875,0.2149810791015625,-1.1243896484375,-0.070831298828125
1789996817881855000,11.90985498046875,0.43353271484375,-1.088134765625,0.015716552734375
1789996817891925800,11.91992578125,0.213226318359375,-0.9562530517578125,-0.0804595947265625
1789996817901996800,11.929996826171875,-0.0795745849609375,-0.93194580078125,-0.0869140625
1789996817912067800,11.94006787109375,-0.2812957763671875,-1.1241607666015625,-0.080657958984375
1789996817922139000,11.950138916015625,-0.0446319580078125,-1.2910003662109375,-0.0276031494140625
1789996817932210000,11.9602099609375,0.31134033203125,-1.224761962890625,0.0064849853515625
1789996817942281000,11.970281005859375,0.294036865234375,-0.858795166015625,-0.1008453369140625
1789996817952351700,11.980351806640625,-0.1273651123046875,-0.726776123046875,-0.1656341552734375
1789996817962422800,11.9904228515625,0.0621795654296875,-0.771697998046875,-0.0420379638671875
1789996817972493800,12.000493896484375,0.2386627197265625,-0.8525238037109375,-0.0469970703125
1789996817982564900,12.01056494140625,-0.1323699951171875,-1.091522216796875,-0.087890625
1789996817992636000,12.020635986328125,-0.559814453125,-1.4001007080078125,-0.0876922607421875
1789996818002707000,12.03070703125,-0.55609130859375,-1.4495391845703125,-0.08660888671875
1789996818012777700,12.04077783203125,0.24951171875,-1.1166839599609375,-0.1709747314453125
1789996818022848800,12.050848876953125,0.75,-0.6793975830078125,-0.01861572265625
1789996818032919800,12.060919921875,0.4748077392578125,-0.290679931640625,0.1089935302734375
1789996818042990800,12.070990966796876,-0.1040802001953125,-0.3329010009765625,0.067962646484375
1789996818053062000,12.081061767578126,-0.6719818115234375,-1.042999267578125,0.0589599609375
1789996818063133000,12.0911328125,-0.497589111328125,-1.554962158203125,0.0612030029296875
1789996818073203700,12.10120361328125,0.26708984375,-1.569427490234375,-0.030303955078125
1789996818083274800,12.111274658203126,0.3637847900390625,-1.1872100830078125,-0.031829833984375
1789996818093345800,12.121345703125,-0.2779998779296875,-0.77130126953125,-0.01568603515625
1789996818103416800,12.131416748046876,-0.2144012451171875,-0.7559356689453125,-0.0271148681640625
1789996818113488000,12.14148779296875,0.0331573486328125,-0.86029052734375,0.044219970703125
1789996818123559000,12.151558837890626,0.06536865234375,-1.14703369140625,0.048797607421875
1789996818133629700,12.161629638671876,0.1542816162109375,-1.27630615234375,0.048370361328125
1789996818143700700,12.17170068359375,-0.2476043701171875,-1.17529296875,0.08740234375
1789996818153771800,12.181771728515624,-0.032562255859375,-0.9481353759765625,0.0010223388671875
1789996818163842800,12.1918427734375,0.35809326171875,-0.8941650390625,-0.1009979248046875
1789996818173913900,12.201913818359374,0.5189056396484375,-0.8129730224609375,-0.046966552734375
1789996818183985000,12.21198486328125,0.1171417236328125,-0.76422119140625,-0.1044769287109375
1789996818194055700,12.2220556640625,-0.1807098388671875,-0.87945556640625,-0.08892822265625
1789996818204126700,12.232126708984374,0.0996551513671875,-0.9751129150390625,-0.0703277587890625
1789996818214197800,12.24219775390625,0.3043060302734375,-1.0601654052734375,0.021392822265625
1789996818224268800,12.252268798828124,-0.1471099853515625,-1.1650543212890625,0.0831146240234375
1789996818234339800,12.26233984375,-0.1793365478515625,-1.07183837890625,-0.0413055419921875
1789996818244411000,12.272410888671875,0.1426849365234375,-0.9235076904296875,-0.0708465576171875
1789996818254482000,12.28248193359375,0.49365234375,-1.0607757568359375,0.015838623046875
1789996818264552700,12.292552734375,0.17169189453125,-0.9897308349609375,0.0988616943359375
1789996818274623700,12.302623779296875,-0.5712432861328125,-1.02593994140625,0.0784912109375
1789996818284694800,12.31269482421875,-0.5577392578125,-1.1909942626953125,-0.0691375732421875
1789996818294765800,12.322765869140625,-0.3032684326171875,-1.2046356201171875,-0.0982818603515625
1789996818304836900,12.3328369140625,0.2454376220703125,-1.0291290283203125,-0.0956878662109375
1789996818314908000,12.342907958984375,0.549468994140625,-0.8726348876953125,-0.0045013427734375
1789996818324979000,12.35297900390625,-0.1297607421875,-0.832977294921875,-0.0001068115234375
1789996818335050000,12.363050048828125,-0.3964080810546875,-0.80517578125,-0.0759124755859375
1789996818345121000,12.37312109375,-0.23760986328125,-1.0249786376953125,-0.1049652099609375
1789996818355192000,12.383192138671875,-0.18927001953125,-1.2903594970703125,0.046844482421875
1789996818365263000,12.39326318359375,0.19476318359375,-1.1830596923828125,0.02667236328125
1789996818375334000,12.403333984375,0.1200408935546875,-0.7341156005859375,0.0090484619140625
1789996818385405000,12.413405029296875,0.3543548583984375,-0.519775390625,-0.0634765625
1789996818395476000,12.42347607421875,0.5225372314453125,-0.811370849609375,-0.0600128173828125
1789996818405547000,12.433547119140625,-0.57830810546875,-1.28125,0.094818115234375
1789996818415618000,12.4436181640625,-0.9376220703125,-1.4107208251953125,-0.02764892578125
1789996818425689000,12.453689208984375,0.1287689208984375,-1.2734222412109375,-0.1090545654296875
1789996818435759900,12.463759765625,0.6625213623046875,-0.75750732421875,0.0026397705078125
1789996818445831000,12.473830810546875,0.46612548828125,-0.423736572265625,0.0852203369140625
1789996818455902000,12.48390185546875,-0.1147918701171875,-0.508819580078125,0.0957794189453125
1789996818465973000,12.493972900390625,-0.6162261962890625,-0.9231414794921875,-0.0889739990234375
1789996818476044000,12.5040439453125,-0.561676025390625,-1.409088134765625,-0.253448486328125
1789996818486115000,12.514114990234376,0.13165283203125,-1.570159912109375,-0.18267822265625
1789996818496185900,12.524185791015626,0.4384002685546875,-1.23699951171875,-0.1628265380859375
1789996818506257000,12.5342568359375,0.2686767578125,-0.8074798583984375,-0.071502685546875
1789996818516328000,12.544327880859376,-0.17193603515625,-0.7220458984375,-0.07879638671875
1789996818526399000,12.55439892578125,-0.08392333984375,-0.776519775390625,-0.1813812255859375
1789996818536470000,12.564469970703126,0.2860260009765625,-0.963043212890625,-0.04144287109375
1789996818546541000,12.574541015625,0.1898651123046875,-1.0374298095703125,0.0274658203125
1789996818556612000,12.584612060546876,-0.21484375,-1.108642578125,0.0166778564453125
1789996818566683000,12.594682861328126,-0.3948516845703125,-1.239837646484375,0.0032501220703125
1789996818576754000,12.60475390625,-0.0871124267578125,-1.2467193603515625,-0.0146026611328125
1789996818586825000,12.614824951171874,0.346466064453125,-1.0130615234375,0.0033721923828125
1789996818596896000,12.62489599609375,0.399810791015625,-0.80450439453125,0.091400146484375
1789996818606967000,12.634967041015624,-0.0378265380859375,-0.886566162109375,0.082366943359375
1789996818617038000,12.6450380859375,-0.418426513671875,-1.1534423828125,-0.0177154541015625
1789996818627108900,12.65510888671875,-0.2770843505859375,-1.409881591796875,-0.0359344482421875
1789996818637180000,12.665179931640624,0.0776214599609375,-1.3814697265625,-0.0699005126953125
1789996818647251000,12.6752509765625,0.0636138916015625,-0.9952392578125,-0.0746307373046875
1789996818657322000,12.685322021484374,0.4490509033203125,-0.7302093505859375,-0.1280975341796875
1789996818667393000,12.69539306640625,0.464752197265625,-0.56695556640625,-0.0974273681640625
1789996818677464000,12.705464111328125,-0.0383758544921875,-0.856414794921875,-0.0378570556640625
1789996818687534800,12.715534912109375,-0.3274688720703125,-1.2324371337890625,-0.11212158203125
1789996818697606000,12.72560595703125,-0.6663818359375,-1.379302978515625,-0.0508575439453125
1789996818707677000,12.735677001953125,-0.489959716796875,-1.451812744140625,-0.09307861328125
1789996818717748000,12.745748046875,0.5420989990234375,-1.01385498046875,-0.1908111572265625
1789996818727819000,12.755819091796875,1.02227783203125,-0.4210357666015625,-0.1167449951171875
1789996818737890000,12.76589013671875,0.73785400390625,-0.4204254150390625,-0.1039276123046875
1789996818747960800,12.7759609375,-0.6635894775390625,-0.8143310546875,-0.1037445068359375
1789996818758032100,12.7860322265625,-0.9601287841796875,-1.3442840576171875,-0.1322784423828125
1789996818768103200,12.796103271484375,-0.09368896484375,-1.5005035400390625,-0.2149200439453125
1789996818778174200,12.80617431640625,0.4646759033203125,-1.3147430419921875,-0.2569732666015625
1789996818788245200,12.816245361328125,0.1899566650390625,-0.789794921875,-0.0830078125
1789996818798316000,12.82631591796875,-0.2061004638671875,-0.4909820556640625,0.0492095947265625
1789996818808387000,12.836386962890625,-0.2748870849609375,-0.7725830078125,-0.0111083984375
1789996818818458000,12.8464580078125,0.1721954345703125,-1.2588348388671875,-0.1253662109375
1789996818828529200,12.856529052734375,0.0279083251953125,-1.3975982666015625,-0.0828399658203125
1789996818838600200,12.86660009765625,-0.269683837890625,-1.0921173095703125,-0.023773193359375
1789996818848671200,12.876671142578125,-0.11151123046875,-0.89056396484375,-0.0778350830078125
1789996818858742000,12.886741943359375,0.3628387451171875,-0.7557830810546875,0.0224456787109375
1789996818868813000,12.89681298828125,0.6597137451171875,-0.750946044921875,0.040863037109375
1789996818878884000,12.906884033203125,0.10760498046875,-0.9955902099609375,0.0128173828125
1789996818888955100,12.916955078125,-0.583343505859375,-1.379608154296875,0.053558349609375
1789996818899026200,12.927026123046875,-0.4282684326171875,-1.5101776123046875,-0.0180816650390625
1789996818909097200,12.93709716796875,0.0502777099609375,-1.302337646484375,-0.0511474609375
1789996818919168000,12.94716796875,0.5622406005859375,-0.733856201171875,0.028656005859375
1789996818929239000,12.957239013671876,0.419158935546875,-0.3621826171875,0.02008056640625
