time,seconds_elapsed,z,y,x
1789996806030738000,0.058738037109375,0.1518279625440482,-9.796143219032883,-0.42764878171533344
1789996806040809000,0.06880908203125,0.14928796833818778,-9.796389302748441,-0.42289362307749684
1789996806050880000,0.0788798828125,0.14407383215278385,-9.796431972846388,-0.42372324230205266
1789996806060952000,0.0889521484375,0.14274670260171404,-9.796420282408594,-0.4244599590787664
1789996806071022800,0.09902294921875,0.14338732945965602,-9.796552384355664,-0.42116402280591425
1789996806081094000,0.109093994140625,0.14593001794610172,-9.796734755185247,-0.4160092703912407
1789996806091165000,0.1191650390625,0.14659752367781476,-9.796823017990588,-0.413707459722273
1789996806101236000,0.129236083984375,0.14323992034560068,-9.796813665640354,-0.41512616741377856
1789996806111307000,0.13930712890625,0.1390778413632419,-9.796806066855787,-0.4166881195008755
1789996806121378000,0.1493779296875,0.1416736574095674,-9.796972071072458,-0.41191505988016724
1789996806131448800,0.15944873046875,0.1471761455496773,-9.797307002115248,-0.4018705261299386
1789996806141520000,0.169519775390625,0.1448695399745833,-9.797594002363086,-0.3956764937954023
1789996806151591700,0.179591796875,0.13160839139856398,-9.79767875803709,-0.3982106153829023
1789996806161662700,0.189662841796875,0.1168980760606937,-9.797712660306692,-0.40196587626319374
1789996806171733800,0.199733642578125,0.1128450926091522,-9.797983878463507,-0.39643556853439654
1789996806181804800,0.2098046875,0.12022132959873415,-9.798334591597317,-0.38546781899202615
1789996806191875800,0.219875732421875,0.1299839868008159,-9.79855378730595,-0.3766313093246892
1789996806201947000,0.22994677734375,0.13476311996928417,-9.798575414615868,-0.37438166723437605
1789996806212017700,0.240017578125,0.13211024910663255,-9.798711023694276,-0.371785476728715
1789996806222088700,0.250088623046875,0.12896130182272753,-9.799102653360366,-0.3624298750907182
1789996806232159700,0.26015966796875,0.12420254472200758,-9.799456289103627,-0.354437159303762
1789996806242231800,0.270231689453125,0.11858720732457004,-9.799623462364076,-0.35168493798617273
1789996806252302800,0.280302734375,0.12005750820599495,-9.799832721200584,-0.3453491225607693
1789996806262374000,0.290373779296875,0.129203366950294,-9.800224935388565,-0.3305812866156921
1789996806272445000,0.30044482421875,0.1317209027291741,-9.800655143499373,-0.3165867731306702
1789996806282515700,0.310515625,0.13203854471044615,-9.800840436938405,-0.3105954602940008
1789996806292586800,0.320586669921875,0.13609788483753799,-9.800957925838231,-0.3051090647721663
1789996806302657800,0.33065771484375,0.1453207452076487,-9.801167184674739,-0.293893222220242
1789996806312728800,0.340728759765625,0.15493229436809197,-9.801437233787775,-0.27965814144499596
1789996806322799900,0.3507998046875,0.15209495205031706,-9.801673965153098,-0.27288210797142237
1789996806332872000,0.360871826171875,0.14504994717594236,-9.801734170907736,-0.27453341884240506
1789996806342943000,0.37094287109375,0.14271294646258464,-9.80187445616126,-0.2707113032709807
1789996806353013800,0.381013671875,0.14130888835093938,-9.802105342307685,-0.2629997790455818
1789996806363084800,0.391084716796875,0.1409160987742245,-9.802343827238678,-0.2541521634623408
1789996806373155800,0.40115576171875,0.14199550977507605,-9.802480020838976,-0.24824337780997155
1789996806383227000,0.411226806640625,0.1386946141993161,-9.80254607181251,-0.2474778550638817
1789996806393298000,0.4212978515625,0.13830684785759076,-9.802540226593614,-0.24793336201272903
1789996806403369000,0.431368896484375,0.14402409299323335,-9.80252678259015,-0.2451435851637274
1789996806413439700,0.441439697265625,0.13852666462073102,-9.802537303984165,-0.24789659193260594
1789996806423510800,0.4515107421875,0.13141854051542468,-9.802348503413796,-0.25902146826544775
1789996806433582800,0.461582763671875,0.1335248742780648,-9.80207670073509,-0.26808347551804035
1789996806443654000,0.47165380859375,0.13716981578483245,-9.801942260700464,-0.27115954022882505
1789996806453725000,0.481724853515625,0.13830563314803876,-9.801697930550574,-0.2792410850767046
1789996806463796000,0.4917958984375,0.13890305105191655,-9.80127765931189,-0.29334954379759726
1789996806473867000,0.501866943359375,0.12970559911769813,-9.8009257771343,-0.30892588311396535
1789996806483937800,0.511937744140625,0.12408857208667322,-9.800644037583469,-0.3199550074547529
1789996806494008800,0.5220087890625,0.1292251312575303,-9.800480955976248,-0.32293858984280377
1789996806504080000,0.532079833984375,0.1319714708236046,-9.800285141143203,-0.3276885243162513
1789996806514151000,0.54215087890625,0.1287235475440975,-9.799696527600288,-0.34610026972163466
1789996806524223000,0.552222900390625,0.12567857209132052,-9.798868260082601,-0.3698779260743409
1789996806534294000,0.5622939453125,0.12467225372614338,-9.798213595566153,-0.38711723016686733
1789996806544365000,0.572364990234375,0.1270692866642028,-9.797857621735334,-0.3952793477039784
1789996806554436000,0.58243603515625,0.13276112336395307,-9.797663560467958,-0.3981971713794395
1789996806564507000,0.5925068359375,0.13499869142398238,-9.797427998146414,-0.4031967697650194
1789996806574578000,0.602577880859375,0.13956451063533312,-9.797055073180793,-0.41064288451988246
1789996806584649000,0.61264892578125,0.137758831186546,-9.796749952754377,-0.41844453471414744
1789996806594720000,0.622719970703125,0.13415673330766148,-9.79663246385455,-0.42235071183983236
1789996806604791000,0.632791015625,0.13660788931944406,-9.796598561584949,-0.42235798183083534
1789996806614862800,0.64286279296875,0.1444916739723645,-9.79648399529457,-0.4223758097484708
1789996806624934000,0.652933837890625,0.14853732350082136,-9.796357738566398,-0.42389589545521883
1789996806635004700,0.663004638671875,0.14755333569846116,-9.796285257852077,-0.4259129708986729
1789996806645075700,0.67307568359375,0.14855685931835322,-9.796220960444211,-0.4270495737131685
1789996806655146800,0.683146728515625,0.14895611516847274,-9.796301624464988,-0.4250588748199865
1789996806665217800,0.6932177734375,0.1492320003672503,-9.79654303200543,-0.41938053692262617
1789996806675288800,0.703288818359375,0.1605630119977519,-9.796834123906493,-0.4082425453798845
1789996806685359900,0.71335986328125,0.17568795428480952,-9.797255564188957,-0.39155170548297463
1789996806695430700,0.7234306640625,0.18265717224292455,-9.797526782345772,-0.38146541495025155
1789996806705501700,0.733501708984375,0.1847905675424263,-9.79762030584812,-0.3779902861855924
1789996806715573800,0.74357373046875,0.18438810595506802,-9.797834825381637,-0.37255350195914505
1789996806725644800,0.753644775390625,0.18368746513873338,-9.798308288112283,-0.3602802958413958
1789996806735715800,0.7637158203125,0.19008761450462042,-9.798901577830314,-0.3402729883402586
1789996806745787100,0.773787109375,0.2034837967703119,-9.799332370463013,-0.3195050717301667
1789996806755858200,0.783858154296875,0.21405503954207522,-9.799496621114015,-0.30732487765811384
1789996806765929200,0.79392919921875,0.22118929360248146,-9.79954162929952,-0.30075143581824376
1789996806776000000,0.804,0.22182545434786005,-9.799849087813495,-0.2900680744415149
1789996806786071000,0.814071044921875,0.2188290124782361,-9.800321966022253,-0.27602027813298624
1789996806796142000,0.82414208984375,0.22095219691097734,-9.800714764732122,-0.25993595276186243
1789996806806213000,0.834213134765625,0.22362121519083156,-9.801133282405138,-0.24120032743066547
1789996806816285200,0.84428515625,0.22185190396336837,-9.801513221633433,-0.22693709827316924
1789996806826356200,0.854356201171875,0.21937886491334063,-9.801775671961902,-0.21784882406815886
1789996806836427300,0.86442724609375,0.2196624128287658,-9.801976162970066,-0.20832785753430796
1789996806846498000,0.874498046875,0.22367647077571598,-9.802144505274295,-0.19569012895310298
1789996806856569000,0.884569091796875,0.2229231316577643,-9.802398187774418,-0.18359220633702353
1789996806866640100,0.89464013671875,0.21891402388056738,-9.8026033549577,-0.17733036946328357
1789996806876711200,0.904711181640625,0.22447123788259923,-9.802558931294083,-0.1727814557209611
1789996806886782200,0.9147822265625,0.2260721154742874,-9.802636672705411,-0.16611732165664433
1789996806896853200,0.924853271484375,0.22126608516573903,-9.802772866305709,-0.1646247267450206
1789996806906925300,0.93492529296875,0.20822099962634966,-9.802982709664105,-0.16896648227637634
1789996806916996000,0.94499609375,0.19345427792612463,-9.80321885650754,-0.1728517444781959
1789996806927067100,0.955067138671875,0.1856197483755648,-9.803413502296804,-0.1704234944179654
1789996806937138200,0.96513818359375,0.19447962065218016,-9.803374923852086,-0.16253096933616323
1789996806947209200,0.975209228515625,0.1922059583654627,-9.80349942701459,-0.15762619136087597
1789996806957280300,0.9852802734375,0.18291688262503594,-9.803597626692056,-0.16249737759381533
1789996806967351300,0.995351318359375,0.18018563103023916,-9.803604640954733,-0.16506719154920427
1789996806977422000,1.005422119140625,0.1852062904701568,-9.803602302867173,-0.15955368882473558
1789996806987493000,1.0154931640625,0.18925817794315516,-9.803681213322282,-0.14964270919314585
1789996806997564200,1.025564208984375,0.18846171206953002,-9.803743757164478,-0.14658660955815575
1789996807007636000,1.035635986328125,0.18025522566772997,-9.803840787798165,-0.15024515033201313
1789996807017707000,1.04570703125,0.1729226908225566,-9.803915606600045,-0.15395822517154736
1789996807027778000,1.055778076171875,0.17069480390632524,-9.80396295287311,-0.15349150270894169
1789996807037849000,1.06584912109375,0.1704771060350351,-9.804027834802865,-0.14958087773700243
1789996807047919900,1.075919921875,0.1715796969820745,-9.80405764541924,-0.1462874622147996
1789996807057991000,1.085990966796875,0.1730376407054253,-9.804059983506798,-0.14448281481247394
1789996807068062000,1.09606201171875,0.17850277424352243,-9.803984580183029,-0.1429458601693157
1789996807078133000,1.106133056640625,0.18362842842787502,-9.803941325563192,-0.1393888892069459
1789996807088204000,1.1162041015625,0.18084161072093993,-9.803993932533263,-0.13928570282710714
1789996807098275000,1.126275146484375,0.17725560546033084,-9.804037187153101,-0.14075460633588954
1789996807108347100,1.13634716796875,0.1838778731442988,-9.803960030263662,-0.13762998977564275
1789996807118418200,1.146418212890625,0.19748331424649804,-9.803862999629974,-0.12507139084525407
1789996807128489000,1.156489013671875,0.2094810096248053,-9.803765384474396,-0.11261132951905019
1789996807138560000,1.16656005859375,0.21435084415087474,-9.803753109514712,-0.10425591789954342
1789996807148631000,1.176631103515625,0.2093861526818946,-9.803931973212956,-0.09714500818210653
1789996807158702000,1.1867021484375,0.20338338686944915,-9.804130126133561,-0.08965412270375527
1789996807168773000,1.196773193359375,0.2002053048226051,-9.804289700609445,-0.07873225812972523
1789996807178844200,1.20684423828125,0.19799226841563358,-9.804425309687852,-0.06646225774921477
1789996807188915000,1.2169150390625,0.19589304938036947,-9.804534030759333,-0.05580958833827171
1789996807198986000,1.226986083984375,0.1980859197821468,-9.804525262930989,-0.04956053788086865
1789996807209058000,1.23705810546875,0.20690787120116874,-9.804362765845656,-0.04544144865686539
1789996807219129000,1.247129150390625,0.2146293688313104,-9.804213712763787,-0.04169907009103335
1789996807229200100,1.2572001953125,0.21763269709944724,-9.804157598662377,-0.03893398929187097
1789996807239271200,1.267271240234375,0.21737706010425462,-9.804161105793714,-0.039287273408682086
1789996807249342200,1.27734228515625,0.21941921519003807,-9.804106745257974,-0.04189596263631247
1789996807259413000,1.2874130859375,0.2201846283382736,-9.804068751335144,-0.04646007394776679
1789996807269484000,1.297484130859375,0.22309993126308544,-9.803970551657676,-0.05283865080266259
1789996807279555000,1.30755517578125,0.2246988178270869,-9.803896317377687,-0.05906943495101295
1789996807289626000,1.317626220703125,0.21789533009100703,-9.804027250280976,-0.06283535422263667
1789996807299697200,1.327697265625,0.21235939633902162,-9.804116682130097,-0.06763581330692395
1789996807309769200,1.337769287109375,0.21156493975939228,-9.804048293069004,-0.07906486935126594
1789996807319840300,1.34784033203125,0.21716053127674384,-9.803778828477858,-0.09555251482627354
1789996807329911000,1.3579111328125,0.22310597741138188,-9.803436298650503,-0.11516337035573088
1789996807339982000,1.367982177734375,0.22314472025288268,-9.80314286866188,-0.1378811332588084
1789996807350053000,1.37805322265625,0.22534155444372445,-9.802717336726188,-0.1622967404551804
1789996807360124200,1.388124267578125,0.22525299937743692,-9.802288882181047,-0.1865108154637739
1789996807370195200,1.3981953125,0.2204428956819698,-9.801903682255745,-0.21092737250821664
1789996807380266200,1.408266357421875,0.22031333275185896,-9.80140976125896,-0.23282129747355357
1789996807390337000,1.4183369140625,0.21329525241702793,-9.80109061230719,-0.25205475279167294
1789996807400408000,1.428407958984375,0.2020038421445526,-9.800743990826605,-0.27388092801673336
1789996807410480000,1.438480224609375,0.19841960871592162,-9.800205646166205,-0.29498558403421193
1789996807420551200,1.44855126953125,0.2006663464630954,-9.799589560094475,-0.3133129390917718
1789996807430622200,1.458622314453125,0.2015048796464689,-9.799097977185248,-0.327835385441035
1789996807440693200,1.468693359375,0.20250897865509612,-9.798559632524848,-0.3429722008289769
1789996807450764300,1.478764404296875,0.20681496875332667,-9.797830149206519,-0.3607543065613136
1789996807460835300,1.48883544921875,0.20692233811793848,-9.797273684367537,-0.3754912724440917
1789996807470906000,1.498906005859375,0.2005629043549299,-9.796960965156554,-0.38694231199137863
1789996807480977200,1.50897705078125,0.19502512570573016,-9.796778594326973,-0.394328915111348
1789996807491048200,1.519048095703125,0.1908684992166236,-9.79663304837644,-0.399953769255802
1789996807501119200,1.529119140625,0.19005743856206536,-9.796455353721976,-0.4046285926664248
1789996807511191000,1.53919091796875,0.1911450328693725,-9.796228559228778,-0.4095629437960684
1789996807521262000,1.549261962890625,0.18431894970899446,-9.796193487915396,-0.4134898349162191
1789996807531333000,1.5593330078125,0.17509535868652165,-9.796196995046735,-0.41739915384706106
1789996807541404000,1.56940380859375,0.1733114344118163,-9.795994750472902,-0.4228724341589957
1789996807551475000,1.579474853515625,0.17403633288657291,-9.795882522270082,-0.42520840282589195
1789996807561546000,1.5895458984375,0.17269469075296073,-9.795857972350715,-0.42630547734759744
1789996807571617000,1.599616943359375,0.17498022614056244,-9.795601951763034,-0.4312366136068478
1789996807581688000,1.60968798828125,0.17141140947677194,-9.795331318128108,-0.43875648771766573
1789996807591759000,1.619759033203125,0.16715062849344683,-9.794988788300753,-0.44795076131410894
1789996807601830000,1.629829833984375,0.16684532540393993,-9.79450948035121,-0.4584316771876067
1789996807611902000,1.63990185546875,0.16534231869615612,-9.794033679533005,-0.4690098794231191
1789996807621973000,1.649972900390625,0.15975584206702187,-9.793533913317322,-0.48123727363776414
1789996807632044000,1.6600439453125,0.1552804319523275,-9.792918996289371,-0.49500104710683224
1789996807642115000,1.670114990234375,0.15400509652057662,-9.79219477366805,-0.509506359658204
1789996807652186000,1.68018603515625,0.1484031848602928,-9.79141209885776,-0.5259355529442429
1789996807662257200,1.690257080078125,0.1348066303174477,-9.790576232555509,-0.5448238298201933
1789996807672328000,1.700327880859375,0.13161573445480315,-9.78947090166211,-0.5651095524039119
1789996807682399000,1.71039892578125,0.12771400517537257,-9.788253927087784,-0.5866689481852576
1789996807692470000,1.720469970703125,0.12029172795382327,-9.786909526741503,-0.6101931412335485
1789996807702541000,1.730541015625,0.11889485763479024,-9.785174665772914,-0.6376610669389366
1789996807712612000,1.740612060546875,0.1171539139852859,-9.78342869888842,-0.6642284636080265
1789996807722684200,1.75068408203125,0.10377754153176211,-9.781934660938381,-0.6880369900230318
1789996807732755200,1.760755126953125,0.09716157572441733,-9.78016414413452,-0.7136769696488976
1789996807742827000,1.770826904296875,0.10040071290927008,-9.778100197342038,-0.7409910199668258
1789996807752897800,1.780897705078125,0.0968034830017481,-9.77615666205883,-0.7666649749275296
1789996807762968800,1.79096875,0.09069690975495613,-9.774119018751382,-0.792943179391697
1789996807773039900,1.801039794921875,0.08936282987329178,-9.771986098375915,-0.8189573260921984
1789996807783111000,1.81111083984375,0.08589223115327768,-9.770240716013312,-0.8398871552657335
1789996807793182000,1.821181884765625,0.08948576213321648,-9.768674197348952,-0.8575321175497025
1789996807803253000,1.8312529296875,0.09917277854951098,-9.767121707209943,-0.8740042366620153
1789996807813324000,1.841323974609375,0.09927416569790802,-9.76591642307341,-0.8873557395357639
1789996807823395800,1.851395751953125,0.09596518728039227,-9.76513433278501,-0.8962732054848224
1789996807833467000,1.861466796875,0.09888554083965718,-9.764619369000195,-0.9015720425453037
1789996807843538000,1.871537841796875,0.09837634920850395,-9.764216048896312,-0.9059764880493283
1789996807853609000,1.88160888671875,0.0960181869761087,-9.763916189166903,-0.9094625035341829
1789996807863680000,1.891679931640625,0.0962171892800834,-9.763905083250998,-0.9095658908434212
1789996807873751000,1.9017509765625,0.09353797839977777,-9.764375038850307,-0.9047684274338186
1789996807883822000,1.911822021484375,0.10126404260718264,-9.765089324599504,-0.8961878652889281
1789996807893892900,1.921892822265625,0.11073011888233013,-9.766044433367252,-0.8845928506936878
1789996807903964000,1.9319638671875,0.1124525313613005,-9.767326289871335,-0.8701088366586714
1789996807914035000,1.942034912109375,0.11104807139085605,-9.76861983681321,-0.8556387780837714
1789996807924106000,1.95210595703125,0.11769603977166115,-9.769838564953208,-0.8407134500220418
1789996807934177800,1.962177734375,0.1239616851708386,-9.771090026319026,-0.825116433243826
1789996807944248800,1.972248779296875,0.12704712963132186,-9.772121122932434,-0.8123403921704739
1789996807954320000,1.98231982421875,0.12424284933293238,-9.77305986508727,-0.8014093213766813
1789996807964390700,1.992390625,0.11841187815712764,-9.773815651890635,-0.7930257431086152
1789996807974461700,2.002461669921875,0.12204280027169734,-9.774611186182499,-0.7825991147056222
1789996807984532700,2.01253271484375,0.12791545516476036,-9.775590260347723,-0.7693105940654873
1789996807994603800,2.022603759765625,0.13334367249226198,-9.776695006719232,-0.7542085211973637
1789996808004674800,2.0326748046875,0.13585835872692986,-9.777750068730116,-0.7399478675894439
1789996808014745900,2.042745849609375,0.134483910302259,-9.778626851564646,-0.7285413613036275
1789996808024816600,2.052816650390625,0.12837171103227882,-9.77958839007318,-0.7166374268896878
1789996808034887700,2.0628876953125,0.12269753785338253,-9.780531808403135,-0.7046389460600913
1789996808044959700,2.072959716796875,0.11904813023405149,-9.781312145125865,-0.694377591221407
1789996808055030800,2.08303076171875,0.1119235299179796,-9.781855165961383,-0.687870693545416
1789996808065101800,2.093101806640625,0.11029993817098438,-9.7823303822577,-0.681342314689979
1789996808075172900,2.1031728515625,0.11440147347198798,-9.78290964345038,-0.6723026836659759
1789996808085244000,2.113243896484375,0.1132828538387548,-9.783555540138483,-0.6630310705170035
1789996808095314700,2.123314697265625,0.11341796972681767,-9.783992762511968,-0.6565303833860904
1789996808105385700,2.1333857421875,0.11424508646703324,-9.784312495985626,-0.6516124354019761
1789996808115456800,2.143456787109375,0.11618231074046342,-9.784700033998488,-0.6454172340236604
1789996808125527800,2.15352783203125,0.11748343820059672,-9.785133164718747,-0.6385668566722422
1789996808135598800,2.163598876953125,0.11464080778635106,-9.785542914563417,-0.6327647462647408
1789996808145670000,2.173669921875,0.10840457114474847,-9.785766786447168,-0.6304109496802092
1789996808155742000,2.183741943359375,0.10501164990398101,-9.786046772432327,-0.6266376416865735
1789996808165813000,2.19381298828125,0.10824152607014402,-9.786254277703165,-0.6228221019864082
1789996808175883800,2.2038837890625,0.10891941619855351,-9.786492762634158,-0.6189383924208581
1789996808185954800,2.213954833984375,0.11186765327858737,-9.786627787190675,-0.616269757733494
1789996808196025900,2.22402587890625,0.11551779155028052,-9.78667630250752,-0.6148372407123446
1789996808206097000,2.234096923828125,0.11152036507772281,-9.786776840272545,-0.6139748517293483
1789996808216168000,2.24416796875,0.10508568325457163,-9.78676631887853,-0.6152735132377595
1789996808226239000,2.254239013671875,0.10425779932937584,-9.786730078521371,-0.615983853464201
1789996808236309800,2.264309814453125,0.10450472329515031,-9.786554137432574,-0.6187423583921045
1789996808246380800,2.274380859375,0.10914124225568957,-9.786143218544124,-0.6243863556284457
1789996808256452900,2.284452880859375,0.11293960249219089,-9.785877261084318,-0.6279010126858949
1789996808266524000,2.29452392578125,0.11819375102757476,-9.785876676562427,-0.6269115632571279
1789996808276595000,2.304594970703125,0.12140468503125011,-9.786019299903511,-0.624079043244943
1789996808286666000,2.314666015625,0.12242157045621424,-9.786026898688077,-0.6237664701644331
1789996808296737000,2.324737060546875,0.11994057642859406,-9.786156662547588,-0.6222159527868032
1789996808306807800,2.334807861328125,0.11503973484290764,-9.786500361418723,-0.6177166686061769
1789996808316878800,2.34487890625,0.11549502259604633,-9.78667279537618,-0.614895254509896
1789996808326950000,2.354949951171875,0.12065419545751065,-9.786690331032872,-0.6135877521079033
1789996808337021000,2.36502099609375,0.12665608448712154,-9.786676887029408,-0.6126343969058246
1789996808347092000,2.375092041015625,0.1293748784591444,-9.78693641474843,-0.6078824166057631
1789996808357163000,2.3851630859375,0.1316476639630273,-9.787292973101138,-0.6016159766221418
1789996808367233800,2.39523388671875,0.13093770732907578,-9.787563022214174,-0.5973682560497895
1789996808377305900,2.405305908203125,0.12553485277169382,-9.787954067358374,-0.5920981701597571
1789996808387377000,2.415376953125,0.12399538651104085,-9.788362063637376,-0.5856523550212382
1789996808397448000,2.425447998046875,0.1249396085585933,-9.788553786817193,-0.5822371032176539
1789996808407519000,2.43551904296875,0.12876418094858527,-9.788778827744721,-0.5775967665985227
1789996808417590000,2.445590087890625,0.13377620955747552,-9.789036017376183,-0.5720936026049778
1789996808427661000,2.4556611328125,0.13934440161124803,-9.789241184559463,-0.5672265445578843
1789996808437731800,2.46573193359375,0.13965950457556173,-9.789562671598791,-0.5615680073395372
1789996808447803000,2.475802978515625,0.13276077630408106,-9.789821614795922,-0.558719157247059
1789996808457874000,2.4858740234375,0.12656327337082474,-9.789812262445688,-0.5603045998075976
1789996808467945000,2.495945068359375,0.12704962298250758,-9.789374455550313,-0.567811797099933
1789996808478016000,2.50601611328125,0.12996744665796867,-9.78887585837841,-0.575690750314109
1789996808488087800,2.516087890625,0.12494346274980343,-9.788457925227284,-0.5838461093168705
1789996808498158800,2.526158935546875,0.12065418632435612,-9.78770155390203,-0.5972826966581866
1789996808508230000,2.53622998046875,0.1185445280934684,-9.786634216931462,-0.6149113288618624
1789996808518300700,2.54630078125,0.11595112319993786,-9.785511934903264,-0.633019890069589
1789996808528371700,2.556371826171875,0.11548796266759745,-9.784361595824361,-0.6506491433277726
1789996808538442800,2.56644287109375,0.11118260275702922,-9.783249250668288,-0.667879095070064
1789996808548513800,2.576513671875,0.10927152670500799,-9.782243873018025,-0.6827762930158525
1789996808558584800,2.586584716796875,0.10706413458753376,-9.78124726319611,-0.6972307156302034
1789996808568656000,2.59665576171875,0.10347733474248089,-9.780285140165686,-0.7111141334235668
1789996808578726700,2.6067265625,0.10067182146823032,-9.77927274825275,-0.7253083707317709
1789996808588797700,2.616797607421875,0.09174646447366103,-9.778418761771917,-0.737915265783295
1789996808598869800,2.626869873046875,0.08784650702620855,-9.777595170429349,-0.7492050138216465
1789996808608940800,2.63694091796875,0.09008118900940754,-9.77686568711102,-0.7583939901884644
1789996808619011800,2.64701171875,0.09146869784505106,-9.77647230387926,-0.7632861461441963
1789996808629083000,2.657082763671875,0.0851967414360959,-9.7764360635221,-0.7644738946240395
1789996808639154000,2.66715380859375,0.07817199389846063,-9.776282918787002,-0.7671605764247477
1789996808649224700,2.677224609375,0.07864185816622339,-9.775748665779828,-0.7739213757965713
1789996808659295700,2.687295654296875,0.08162398838270456,-9.775256498348712,-0.7798007892239839
1789996808669366800,2.69736669921875,0.08716894569136202,-9.775369311073423,-0.7778017974264919
1789996808679437800,2.707437744140625,0.08891123191458172,-9.775651050624251,-0.774052966286987
1789996808689508900,2.7175087890625,0.08223665865464136,-9.776165429887175,-0.7682599159687757
1789996808699580000,2.727579833984375,0.08030748982350341,-9.776636554530262,-0.7624468457758427
1789996808709650700,2.737650634765625,0.08643011915595271,-9.776983760532737,-0.7572991076238453
1789996808719722800,2.74772265625,0.09231872053681872,-9.77742507455945,-0.75087944983989
1789996808729793800,2.757793701171875,0.09493693107804282,-9.777847683885692,-0.7450280203979462
1789996808739864800,2.76786474609375,0.09505727865523658,-9.778251003989578,-0.7397141318988054
1789996808749935600,2.777935546875,0.09776214456660673,-9.778652570527791,-0.7340210348237305
1789996808760006700,2.788006591796875,0.10223199259019457,-9.77923241624236,-0.7256397215779871
1789996808770077700,2.79807763671875,0.10906243226528167,-9.779687174272537,-0.7184706336662173
1789996808780148500,2.8081484375,0.11204841667297295,-9.779939103206992,-0.7145900659058243
1789996808790219500,2.818219482421875,0.11789324284419417,-9.780086402723192,-0.7116302662521601
1789996808800290600,2.82829052734375,0.12578880013329907,-9.780210321363807,-0.7085445751965046
1789996808810361600,2.838361572265625,0.1288882731191348,-9.780496152567864,-0.7040412724278867
1789996808820432600,2.8484326171875,0.1293658092366997,-9.780728792279959,-0.7007198729202151
1789996808830504700,2.858504638671875,0.12722519874512217,-9.780884275102615,-0.6989335740253328
1789996808840575700,2.86857568359375,0.128126915091509,-9.78104268053472,-0.6965667718287557
1789996808850646500,2.878646484375,0.13401251166453584,-9.780983059301972,-0.6962917542796582
1789996808860717600,2.888717529296875,0.13677555577023887,-9.780715932798385,-0.6994986605621873
1789996808870788600,2.89878857421875,0.13303930098451675,-9.780601366508007,-0.701804599417001
1789996808880859600,2.908859619140625,0.1314020551715046,-9.780526547706126,-0.7031381861083209
1789996808890930700,2.9189306640625,0.13279723585695027,-9.7806130569458,-0.7016852108210325
1789996808901001700,2.929001708984375,0.14302067897119558,-9.78067092461288,-0.6988707379221916
1789996808911072500,2.939072509765625,0.15360245227012784,-9.78079893490672,-0.6948160557039081
1789996808921143600,2.9491435546875,0.1525066837895196,-9.781356568789482,-0.6871634951241314
1789996808931214600,2.959214599609375,0.15435601058378814,-9.781738261583447,-0.6812736333679408
1789996808941285600,2.96928564453125,0.1606436577522196,-9.781554721710085,-0.6824795750916004
1789996808951357700,2.979357666015625,0.1635649885590188,-9.781443662551045,-0.6833727976042777
1789996808961428700,2.9894287109375,0.17434519790634512,-9.781102886289357,-0.6855787101507187
1789996808971499800,2.999499755859375,0.18065776032032443,-9.780789582556485,-0.688400270377472
1789996808981570800,3.00957080078125,0.1805815715452656,-9.780962601035833,-0.6859668326854705
1789996808991641600,3.0196416015625,0.1855991622452624,-9.781373519924282,-0.6787276021469384
1789996809001712600,3.029712646484375,0.1905385000772774,-9.781655259475112,-0.6732697751324623
1789996809011783700,3.03978369140625,0.1869233052548021,-9.782124630552529,-0.6674372695866971
1789996809021854700,3.049854736328125,0.18278757542325183,-9.782429750978945,-0.6641221536893397
1789996809031925800,3.05992578125,0.1767096437490545,-9.782714997661113,-0.6615667701181024
1789996809041996800,3.069996826171875,0.16933301403382792,-9.783107211849092,-0.6576735620718449
1789996809052067600,3.080067626953125,0.16715249165697021,-9.783564307966827,-0.6513915591929108
1789996809062138600,3.090138671875,0.1621511397057213,-9.784171041688323,-0.6434934994194657
1789996809072210400,3.10021044921875,0.15740560741275547,-9.784820445507764,-0.634745837079361
1789996809082281500,3.110281494140625,0.153527304674685,-9.785532393169403,-0.6246360926058143
1789996809092352500,3.1203525390625,0.1543370684213005,-9.78593045257628,-0.6181721572887152
1789996809102423600,3.130423583984375,0.1566677215922624,-9.786313314414024,-0.6114882590780034
1789996809112494600,3.14049462890625,0.15626290365103632,-9.786903681522608,-0.6020708807827905
1789996809122565600,3.150565673828125,0.15217635585661046,-9.787627904143928,-0.5912675645545125
1789996809132636700,3.16063671875,0.14552467941506764,-9.78842577652335,-0.5796023342672735
1789996809142707700,3.170707763671875,0.13757125445888377,-9.789314249795675,-0.5663813989706337
1789996809152778800,3.18077880859375,0.13217448258241637,-9.790203307589888,-0.5520944784102961
1789996809162849800,3.190849853515625,0.12864640892096793,-9.791049695286155,-0.5377709521666169
1789996809172920600,3.200920654296875,0.12693761397539638,-9.791673964664339,-0.526699413456209
1789996809182991600,3.21099169921875,0.12109596614195033,-9.79234674935937,-0.5154626377141103
1789996809193063400,3.2210634765625,0.11797492064512334,-9.792895615413784,-0.5056541046768427
1789996809203134500,3.231134521484375,0.11419975862111896,-9.793452080252766,-0.4956205672446638
1789996809213205500,3.24120556640625,0.10745106067904271,-9.793886380016803,-0.48852907461374995
1789996809223276500,3.251276611328125,0.10342291027465834,-9.794323602390289,-0.48053917183838785
1789996809233347600,3.26134765625,0.09793384787170216,-9.794784205639361,-0.47222913373056796
1789996809243418600,3.271418701171875,0.09168466955013573,-9.795075297540425,-0.46740328447669743
1789996809253489400,3.281489501953125,0.0925096765316557,-9.795293324205279,-0.462669314757362
1789996809263560400,3.291560546875,0.0903309533862397,-9.795603120806813,-0.4564993939507752
1789996809273631500,3.301631591796875,0.08567128187897614,-9.796028068220615,-0.4481718567188829
1789996809283702500,3.31170263671875,0.0824603204758372,-9.796424958583712,-0.44004875601790844
1789996809293773600,3.321773681640625,0.08426807315070181,-9.796724233791231,-0.43298495511151847
1789996809303844600,3.3318447265625,0.08761401344458572,-9.796997205513716,-0.42610845693815497
1789996809313915400,3.341915283203125,0.0901504548533354,-9.797216401222348,-0.42048908268641677
1789996809323987700,3.35198779296875,0.09359122469066641,-9.797549578699469,-0.4118586900504306
1789996809334058500,3.36205859375,0.095509351537982,-9.797921334621309,-0.4025033806733787
1789996809344129500,3.372129638671875,0.0957506677468773,-9.798429868665337,-0.389855021100305
1789996809354200600,3.38220068359375,0.09288310382077469,-9.799034264299273,-0.37510873939990996
1789996809364271600,3.392271728515625,0.08623557383138686,-9.799656195589899,-0.36014231214281167
1789996809374342700,3.4023427734375,0.08016592592834494,-9.800300338712335,-0.3435835376603529
1789996809384413700,3.41241357421875,0.07830196782052516,-9.800839852416514,-0.3283134512815624
1789996809394484500,3.422484375,0.08633587413439527,-9.801137958580254,-0.3172584983797744
1789996809404555500,3.432555419921875,0.09694742151708341,-9.801470551535486,-0.3036256760803051
1789996809414626600,3.44262646484375,0.09457534949034452,-9.802045136553048,-0.2852051263139583
1789996809424697600,3.452697509765625,0.09610561866438946,-9.802430336478352,-0.2710959186743945
1789996809434768600,3.4627685546875,0.10449371784394607,-9.80265888453722,-0.2595065483686514
1789996809444840700,3.4728408203125,0.10997533672596327,-9.802873404070734,-0.24894796414906156
1789996809454911700,3.482911865234375,0.11368817410347982,-9.803042915418743,-0.2404045374104753
1789996809464982500,3.492982421875,0.11651230074665508,-9.803190799456834,-0.23294669568520038
1789996809475053600,3.503053466796875,0.11069304740810766,-9.803413502296804,-0.22631330381901935
1789996809485124600,3.51312451171875,0.10754894069610163,-9.803616331392526,-0.21896405530106275
1789996809495195600,3.523195556640625,0.11176092323479242,-9.803687643063068,-0.21363067665016278
1789996809505266700,3.5332666015625,0.11706375148380174,-9.803716284635662,-0.20944471446871757
1789996809515337700,3.543337646484375,0.11839878121353685,-9.803822667619585,-0.20354772885199635
1789996809525408500,3.553408447265625,0.1161873979075346,-9.804030757412313,-0.19463221739800646
1789996809535479600,3.5634794921875,0.11873877202393486,-9.804146492746472,-0.18707075090147554
1789996809545550600,3.573550537109375,0.12561151647078803,-9.804118435695766,-0.18408837408982215
1789996809555621600,3.58362158203125,0.13230194488698616,-9.804054722809791,-0.18272236469993366
1789996809565693700,3.593693603515625,0.13830100263869388,-9.803972889745236,-0.1826553821446374
1789996809575764700,3.6037646484375,0.13517276934925465,-9.804060568028687,-0.18029184961738065
1789996809585835800,3.613835693359375,0.12566416910663247,-9.804183317625522,-0.1804724303486757
1789996809595906600,3.623906494140625,0.12108748144139535,-9.804118435695766,-0.1870753174787387
1789996809605977600,3.6339775390625,0.12358346297559328,-9.803921451818942,-0.19548342739986255
1789996809616048600,3.644048583984375,0.13190660716015845,-9.803656663402915,-0.2031888689443469
1789996809626119700,3.65411962890625,0.14081875761328264,-9.803379600027203,-0.21048602194888516
1789996809636190700,3.664190673828125,0.1505507091498468,-9.803082078385353,-0.2175483615505509
1789996809646261800,3.67426171875,0.1572460877357982,-9.802760006824135,-0.22708563989838584
1789996809656332500,3.68433251953125,0.1566112056320533,-9.80254607181251,-0.23649552900688722
1789996809666403600,3.694403564453125,0.15125602614129893,-9.802345580804348,-0.24801519507728514
1789996809676474600,3.704474609375,0.14332917866478673,-9.802019417589902,-0.2650325269822031
1789996809686545700,3.714545654296875,0.13986856248266993,-9.801506207370757,-0.2850870894248597
1789996809696616700,3.72461669921875,0.13491076654535716,-9.800929868787527,-0.306520904331468
1789996809706688800,3.734688720703125,0.12770960299489087,-9.800312613672018,-0.32855485882200297
1789996809716759800,3.744759765625,0.12768751902724615,-9.799380885779858,-0.35524818342570214
1789996809726830800,3.754830810546875,0.13106880462914705,-9.798314133331179,-0.38247996228765696
1789996809736901600,3.764901611328125,0.12977355892052872,-9.79725205705762,-0.40917778040338304
1789996809746972700,3.77497265625,0.13188182891192846,-9.795938636371492,-0.43886078834235664
1789996809757043700,3.785043701171875,0.1346168433663901,-9.794511818438767,-0.46880051098875697
1789996809767114800,3.79511474609375,0.13075290708038956,-9.793143452695011,-0.49761491939965635
1789996809777185800,3.805185791015625,0.12624080908396282,-9.791658767095207,-0.5271280871970578
1789996809787256800,3.8152568359375,0.12124732077876105,-9.790288063263892,-0.5531344524499029
1789996809797328000,3.825327880859375,0.11151541490796953,-9.789125449225306,-0.575309167117998
1789996809807399000,3.83539892578125,0.10649936771108769,-9.787854114115238,-0.5974561900615691
1789996809817470000,3.845469970703125,0.10028043839731253,-9.78669325364232,-0.6172230398703367
1789996809827541800,3.855541748046875,0.09279137954986653,-9.785690798601507,-0.6340688146006316
1789996809837612800,3.86561279296875,0.09174717685971409,-9.784542797610163,-0.6516849891815334
1789996809847683600,3.87568359375,0.09203700838545337,-9.783498256993294,-0.6671438395980746
1789996809857754600,3.885754638671875,0.08847795506385155,-9.782695708438753,-0.6792836285945028
1789996809867825700,3.89582568359375,0.08363005837495438,-9.78214450429678,-0.6877890066113322
1789996809877896700,3.905896728515625,0.078221157669276,-9.78187971588075,-0.6921852688089013
1789996809887967700,3.9159677734375,0.07733974432540126,-9.781679809394479,-0.695104005799815
1789996809898038800,3.926038818359375,0.07653118158860597,-9.781484579083322,-0.6979181133724749
1789996809908109600,3.936109619140625,0.07479089552622754,-9.781314483213425,-0.7004760542269796
1789996809918180600,3.9461806640625,0.07382023299632127,-9.78098890452087,-0.705124099228531
1789996809928251600,3.956251708984375,0.06967160258400254,-9.780746912458538,-0.7088891508504748
1789996809938322700,3.96632275390625,0.06867227108203805,-9.78076386359334,-0.7087490847926586
1789996809948393700,3.976393798828125,0.07091009943697135,-9.780936297550797,-0.7061508119277655
1789996809958464800,3.98646484375,0.06882698671971448,-9.781219790667295,-0.7024271882947534
1789996809968536800,3.996536865234375,0.06371842523405793,-9.781422619763017,-0.7000722957316786
1789996809978607600,4.006607666015625,0.0631879533528583,-9.781551799100637,-0.6983217988025396
1789996809988678700,4.0166787109375,0.059747804570035076,-9.781485163605213,-0.6995568935554474
1789996809998749700,4.026749755859375,0.0575588340252405,-9.781234403714537,-0.7032465418536216
1789996810008820700,4.03682080078125,0.06137772559311706,-9.780879598927497,-0.7078161147914827
1789996810018891800,4.046891845703125,0.06338554458445869,-9.780475694301725,-0.7132086214847863
1789996810028962800,4.056962890625,0.06141187902446836,-9.780119135949015,-0.7182523878056556
1789996810039033900,4.067033935546875,0.06307849706243723,-9.779646842262148,-0.72450604137294
1789996810049104600,4.077104736328125,0.06386798977258148,-9.779237092417478,-0.7299339847058057
1789996810059175700,4.08717578125,0.06385054544743615,-9.778774151080846,-0.7361146461021155
1789996810069246700,4.097246826171875,0.06548500564831775,-9.778018948799371,-0.7459439661990851
1789996810079317800,4.10731787109375,0.06485181774473749,-9.777391756811737,-0.7541742536015809
1789996810089388800,4.117388916015625,0.0648493609261699,-9.777001296189427,-0.7592213809233158
1789996810099460900,4.1274609375,0.06593683193589095,-9.776708450722694,-0.7628982428051531
1789996810109532000,4.137531982421875,0.06525982772347051,-9.776396316033601,-0.7669389695633202
1789996810119602700,4.147602783203125,0.06613700785022228,-9.776330265060066,-0.7677064468044787
1789996810129673700,4.157673828125,0.06863371547020505,-9.776384041073918,-0.7667998533535748
1789996810139744800,4.167744873046875,0.07100443579007405,-9.776460028919576,-0.7656214572239667
1789996810149815800,4.17781591796875,0.0730579890527064,-9.77654829172492,-0.7643011684056371
1789996810159886800,4.187886962890625,0.07126981329456902,-9.776820094403623,-0.7609856141168624
1789996810169958000,4.1979580078125,0.06410807300561573,-9.777179575365782,-0.7569721406918019
1789996810180028700,4.208028564453125,0.05840871058653574,-9.777690447497367,-0.7508182942371815
1789996810190099700,4.218099609375,0.06203576937674079,-9.77796575730741,-0.7469582578081637
1789996810200170800,4.228170654296875,0.06919142698477954,-9.778029470193385,-0.7454905964083969
1789996810210241800,4.23824169921875,0.0776846670392435,-9.77813293056786,-0.7432894331023097
1789996810220312800,4.248312744140625,0.08965775769925675,-9.778388366633653,-0.7385786981280893
1789996810230383900,4.2583837890625,0.09713644128316082,-9.779003283661604,-0.7294030926994979
1789996810240456000,4.2684560546875,0.10042497056769206,-9.779825705960393,-0.7178393500253558
1789996810250526700,4.278526611328125,0.10666767348269932,-9.780607796248793,-0.7062072913553565
1789996810260597800,4.28859765625,0.11788393615973182,-9.781250770327448,-0.6954194284245372
1789996810270668800,4.298668701171875,0.12311262146029621,-9.782098327067494,-0.6824929460298269
1789996810280739800,4.30873974609375,0.12740853768908417,-9.782885678052901,-0.6703204968728125
1789996810290811000,4.318810791015625,0.12802160981982014,-9.783569568663834,-0.6601457243390381
1789996810300882000,4.3288818359375,0.12891546252015978,-9.784204943957924,-0.6504718870647251
1789996810310952700,4.33895263671875,0.13157860818165354,-9.784956054586171,-0.6385287896841764
1789996810321023700,4.349023681640625,0.1350820862579625,-9.785710087823867,-0.6261128140948713
1789996810331094800,4.3590947265625,0.1346460329282563,-9.78671312738657,-0.6103179001243785
1789996810341165800,4.369165771484375,0.1305349626139272,-9.787840085589885,-0.5928769359799102
1789996810351236900,4.37923681640625,0.1291512440374121,-9.788841956108808,-0.576439340191707
1789996810361308000,4.389307861328125,0.13268519031722098,-9.789611771437524,-0.5623596326412633
1789996810371378700,4.399378662109375,0.134431577326823,-9.790240132468938,-0.5509204296622425
1789996810381449700,4.40944970703125,0.1348695029532071,-9.790839851927757,-0.5400802885549143
1789996810391521800,4.419521728515625,0.12817968645836225,-9.791734754940867,-0.5252412870697677
1789996810401592800,4.4295927734375,0.1231630090738181,-9.792482358437775,-0.5123514468910172
1789996810411664000,4.439663818359375,0.12369644009708426,-9.792973356825113,-0.502760355996713
1789996810421735000,4.44973486328125,0.12416783873480744,-9.793452664774655,-0.4931773753436282
1789996810431806000,4.459805908203125,0.12422205314007587,-9.793971720212697,-0.48277708695828914
1789996810441877000,4.469876953125,0.13119113410087302,-9.794230078887939,-0.47565224004704504
1789996810451947800,4.47994775390625,0.12487620619987137,-9.794724584406614,-0.4670928302880376
1789996810462018800,4.490018798828125,0.11089890871113166,-9.795373403704167,-0.4569095456542447
1789996810472089900,4.50008984375,0.10090735639031044,-9.79581471773088,-0.44969333066511896
1789996810482161000,4.510160888671875,0.09317362946625798,-9.796145557120441,-0.4441040592906996
1789996810492232000,4.52023193359375,0.08799032681053504,-9.796513805910944,-0.4370008396893739
1789996810502303000,4.530302978515625,0.08826495163398794,-9.796983176988363,-0.4262840692333877
1789996810512373800,4.540373779296875,0.08495389085724019,-9.797515676429867,-0.414548586721532
1789996810522444800,4.55044482421875,0.07998903499147854,-9.797966927328705,-0.40478104328177866
1789996810532516600,4.5605166015625,0.07953006657706573,-9.798198397997021,-0.39921084193401035
1789996810542587600,4.570587646484375,0.07961647535203956,-9.798356218907237,-0.3953306394997984
1789996810552658700,4.58065869140625,0.07928637574799359,-9.798472538763285,-0.3924766383081674
1789996810562729700,4.590729736328125,0.08119002654538489,-9.798523976689577,-0.39081615775004025
1789996810572800800,4.60080078125,0.08393153467271476,-9.798581844356656,-0.38878826865162697
1789996810582871600,4.61087158203125,0.08599501567431725,-9.798636789414285,-0.38695371016822755
1789996810592942600,4.620942626953125,0.0905884170123376,-9.798691149950027,-0.38448721045684064
1789996810603013600,4.631013671875,0.0934044516806025,-9.798803962674736,-0.38092988330144434
1789996810613084700,4.641084716796875,0.09881250300290993,-9.798834357813,-0.37877179195210336
1789996810623155700,4.65115576171875,0.10328057919451966,-9.798855985122918,-0.37702450989335773
1789996810633226800,4.661226806640625,0.10344387086429632,-9.798960614541173,-0.3742401033392176
1789996810643297800,4.6712978515625,0.10599089759914204,-9.799062321349977,-0.37085484481509773
1789996810653368800,4.681368896484375,0.10375867243451066,-9.799143569892644,-0.36936091646291314
1789996810663440000,4.69143994140625,0.09948127824310213,-9.799315419328213,-0.36593262251466513
1789996810673511000,4.701510986328125,0.09671593258245847,-9.799512987726926,-0.3613258593715727
1789996810683582700,4.711582763671875,0.09451688816822133,-9.799648596805334,-0.3582505801120773
1789996810693653800,4.72165380859375,0.09805608601188287,-9.79980524867177,-0.3529717994589358
1789996810703724800,4.731724853515625,0.10430341030308045,-9.800053670474886,-0.34418340324964375
1789996810713795600,4.741795654296875,0.10994440273158251,-9.800313782715797,-0.3348521688679233
1789996810723866600,4.75186669921875,0.11607742559388279,-9.800451145359872,-0.3286996741201728
1789996810733937700,4.761937744140625,0.12401642016591503,-9.80044003944397,-0.3261567847043276
1789996810744008000,4.772008056640625,0.1343593432076741,-9.800324888631701,-0.3255230899106711
1789996810754079000,4.782078857421875,0.1391059258134104,-9.800396784824132,-0.3213732402222231
1789996810764150000,4.79214990234375,0.1382771559722256,-9.800521872508526,-0.3178844482583925
1789996810774221000,4.802220947265625,0.13881375620011238,-9.800483878585696,-0.31883597682956605
1789996810784292000,4.8122919921875,0.14251147820688784,-9.800356452813745,-0.3210424373652786
1789996810794363000,4.82236279296875,0.14892877050382083,-9.800143686845898,-0.32461938253659756
1789996810804434000,4.832433837890625,0.15673497814219445,-9.799911047133802,-0.3279554316241294
1789996810814505000,4.8425048828125,0.15957675917306913,-9.799779529708623,-0.3305120573043823
1789996810824576000,4.852575927734375,0.16422588188685475,-9.799546305474639,-0.33510307488907126
1789996810834647800,4.862647705078125,0.16426022254787384,-9.799312496718764,-0.34187052319739014
1789996810844718800,4.87271875,0.15957526133572683,-9.79900153107345,-0.3528034936873242
1789996810854790000,4.882789794921875,0.1546538792855106,-9.798588858619333,-0.36623058254793284
1789996810864861000,4.89286083984375,0.1579559347718954,-9.797997906988858,-0.38037078811395914
1789996810874931700,4.902931640625,0.1647268354126252,-9.797393511354922,-0.3929004166781902
1789996810885002800,4.913002685546875,0.16356014798711985,-9.79706091839969,-0.4015778998589143
1789996810895073800,4.92307373046875,0.15589819852449,-9.796920048624276,-0.4080115861682221
1789996810905144800,4.933144775390625,0.1458576194301713,-9.796629541245101,-0.4185298749100417
1789996810915216000,4.9432158203125,0.14673646635762416,-9.796054371705651,-0.43149679891299453
1789996810925287000,4.953286865234375,0.15110894582080653,-9.795423088064789,-0.44413460055943577
1789996810935357700,4.963357666015625,0.14890028419485316,-9.795045486924051,-0.4530934579648077
1789996810945428700,4.9734287109375,0.14701153870564884,-9.794745042672753,-0.4601533864136785
1789996810955499800,4.983499755859375,0.1427193122712895,-9.7944136187613,-0.46847032918632026
1789996810965570800,4.99357080078125,0.14132711812737397,-9.793936064377426,-0.47875422465037554
1789996810975641900,5.003641845703125,0.13868693321635947,-9.793546188277006,-0.48745428498908877
1789996810985714000,5.0137138671875,0.13173327815355731,-9.793343359181284,-0.49337823167797173
1789996810995785000,5.023784912109375,0.13007415843545458,-9.793006090050936,-0.5004876983569935
1789996811005855700,5.033855712890625,0.1355450001951307,-9.792488203656672,-0.5091083002513275
1789996811015926800,5.0439267578125,0.13943553222711197,-9.79215736426711,-0.5143969812439755
1789996811025997800,5.053997802734375,0.13979706814903764,-9.791824771311878,-0.5205921095570549
1789996811036068900,5.06406884765625,0.13741484918761998,-9.791295194479822,-0.5310769344206899
1789996811046140000,5.074139892578125,0.12858824899294413,-9.790828746011853,-0.5417799320796505
1789996811056211000,5.0842109375,0.12847791135311126,-9.790453482958673,-0.5485336075909435
1789996811066281700,5.09428173828125,0.1313437217135448,-9.790206814721227,-0.5522448101337999
1789996811076352800,5.104352783203125,0.13412387221767566,-9.789972421443462,-0.5557349538045003
1789996811086423800,5.114423828125,0.13790877931755965,-9.789506557497381,-0.5629714078640565
1789996811096494800,5.124494873046875,0.13615287556094116,-9.788973473533988,-0.5725682709120213
1789996811106566000,5.13456591796875,0.1307257816114463,-9.788679459023475,-0.5788594069454819
1789996811116637000,5.144636962890625,0.12662330559552645,-9.788216517686843,-0.5874891419943422
1789996811126707700,5.154707763671875,0.1210083061248064,-9.787864635509251,-0.5945148393800482
1789996811136779800,5.16477978515625,0.11252064642775803,-9.787558346039056,-0.6011615839181468
1789996811146850800,5.174850830078125,0.11176356271645053,-9.787004803809523,-0.6102483420195057
1789996811156921900,5.184921875,0.11640213663675822,-9.78626538361907,-0.6211540226437151
1789996811166993000,5.194992919921875,0.11574570028833113,-9.785640529718995,-0.6310520971279591
1789996811177064000,5.20506396484375,0.11073692308245225,-9.78495956171751,-0.6424188559252768
1789996811187135000,5.215135009765625,0.10637722090245223,-9.783999776774644,-0.657578285003826
1789996811197205800,5.225205810546875,0.10205583230569026,-9.783010765737295,-0.6728017192292958
1789996811207276800,5.23527685546875,0.0988370985880494,-9.78204981175065,-0.6870949599325656
1789996811217347800,5.245347900390625,0.09770610353043302,-9.780980721214412,-0.7023273811820894
1789996811227419000,5.2554189453125,0.09557029707813634,-9.779711139670013,-0.7200802608199417
1789996811237490000,5.265489990234375,0.09369742501149884,-9.778456755694746,-0.7371664932426065
1789996811247561000,5.27556103515625,0.09582756890798919,-9.77719886458814,-0.7533980815973133
1789996811257632000,5.285632080078125,0.09644267773218453,-9.776039173159003,-0.7682097932167351
1789996811267702800,5.295702880859375,0.0914550529121887,-9.774992294454574,-0.7820168578382581
1789996811277773800,5.30577392578125,0.08400029819314368,-9.773855983901024,-0.7969248694390058
1789996811287844900,5.315844970703125,0.07804098792993464,-9.772643685501814,-0.8122383931007235
1789996811297916000,5.325916015625,0.0779831385291647,-9.771590961578488,-0.8247910737469792
1789996811307988000,5.335988037109375,0.08069611468175425,-9.770909993577003,-0.8325886688206344
1789996811318059000,5.34605908203125,0.07970827268818392,-9.770315534815191,-0.8396277006119489
1789996811328130000,5.356130126953125,0.07984247526079416,-9.769625214463472,-0.8476216219753027
1789996811338200800,5.366200927734375,0.08358749787486158,-9.768980486819148,-0.8546483788069337
1789996811348271900,5.37627197265625,0.08385169263584538,-9.768884040707349,-0.8557373430874198
1789996811358343000,5.386343017578125,0.08390794373457319,-9.768889885926246,-0.8556541948486119
1789996811368414000,5.3964140625,0.07942898995592258,-9.768898069232701,-0.8559881760433316
1789996811378485000,5.406485107421875,0.07462459448203444,-9.768869427660107,-0.8567471777170896
1789996811388556000,5.41655615234375,0.07695324749215506,-9.76891677393317,-0.8559947519145905
1789996811398626800,5.426626708984375,0.08041010994776152,-9.769541627833247,-0.8485200321197509
1789996811408697900,5.43669775390625,0.07895950928064994,-9.770408473795651,-0.838621957635507
1789996811418769000,5.446768798828125,0.07709207144095562,-9.771201085478067,-0.829507507809624
1789996811428840000,5.45683984375,0.07755070192865096,-9.772098326578735,-0.8188233244489878
1789996811438911000,5.466910888671875,0.07906940852906555,-9.773311794021724,-0.8040651696477085
1789996811448982000,5.47698193359375,0.08367893901797942,-9.774584882697463,-0.7879390874940901
1789996811459052800,5.487052734375,0.09278357070274651,-9.775856217807531,-0.7709894870631396
1789996811469124900,5.497124755859375,0.09614386831554583,-9.777001880711316,-0.7558996891546994
1789996811479196000,5.50719580078125,0.09697572516296059,-9.778231130245327,-0.7397133281812072
1789996811489267000,5.517266845703125,0.10100525467367842,-9.77966379339695,-0.7199749007493257
1789996811499338000,5.527337890625,0.10411452753432095,-9.781104055333136,-0.6996763552166522
1789996811509409000,5.537408935546875,0.10293099857186898,-9.782346164348722,-0.682262132948637
1789996811519480000,5.54747998046875,0.10821886671376414,-9.783436297672987,-0.6656188950531184
1789996811529550800,5.55755078125,0.11840279980152844,-9.784629891371726,-0.6460731406491249
1789996811539622000,5.567621826171875,0.1269389017501846,-9.785912916919589,-0.624647052391246
1789996811549693000,5.57769287109375,0.13581439172104,-9.786873870906232,-0.6074908234722912
1789996811559764000,5.587763916015625,0.13935865846546366,-9.787591079264878,-0.5950080662570894
1789996811569835000,5.5978349609375,0.1392211496909149,-9.788364986246824,-0.5821668875256553
1789996811579906000,5.607906005859375,0.13838218724927864,-9.789205528724192,-0.5680644932193681
1789996811589976800,5.617976806640625,0.1371847667587921,-9.789964822658895,-0.5551379012268036
1789996811600047900,5.6280478515625,0.14098248767447658,-9.790644037094712,-0.5420577991729602
1789996811610119000,5.638118896484375,0.14940644361870362,-9.791326174139975,-0.527266765015386
1789996811620190000,5.64818994140625,0.15583024785481392,-9.792123461997509,-0.5103272841196507
1789996811630261000,5.658260986328125,0.157170812276192,-9.792891523760556,-0.4949496457131579
1789996811640332000,5.66833203125,0.15355779114449397,-9.793362648403644,-0.4866966715548187
1789996811650404000,5.678404052734375,0.1535844599557109,-9.793676536658406,-0.48030156369023025
1789996811660475100,5.68847509765625,0.15674551780251786,-9.794027249792217,-0.4720625449920073
1789996811670546000,5.6985458984375,0.157505250128638,-9.7944872685194,-0.4621786816962063
1789996811680617000,5.708616943359375,0.16242904333164915,-9.79495430150926,-0.4504286592023447
1789996811690688000,5.71868798828125,0.16672674052556977,-9.79553473174572,-0.4360197562301531
1789996811700759000,5.728759033203125,0.16236302889073267,-9.796062555012107,-0.4256644760303199
1789996811710830000,5.738830078125,0.1599646625121124,-9.796437233543395,-0.41787787727471437
1789996811720901000,5.748901123046875,0.1602286472105421,-9.796834123906493,-0.40836840024925763
1789996811730972000,5.758971923828125,0.15832306931754572,-9.797272515323758,-0.3984566990984604
1789996811741043000,5.76904296875,0.15815394156202672,-9.797592248797416,-0.3905618541954085
1789996811751114500,5.779114501953125,0.15297962593035772,-9.797783387455343,-0.3878569426182657
1789996811761185300,5.789185302734375,0.15162620202740654,-9.797817874246835,-0.38750272235311567
1789996811771256300,5.79925634765625,0.15424067710842937,-9.797992646291851,-0.38202483893129974
1789996811781327400,5.809327392578125,0.1593749347243458,-9.798140530329942,-0.3760902247179299
1789996811791398400,5.8193984375,0.16346642355537042,-9.79816449572742,-0.3736941233616322
1789996811801469400,5.829469482421875,0.16158309402680024,-9.798422854402661,-0.367685530596599
1789996811811540500,5.83954052734375,0.1550530894698575,-9.798824420940875,-0.35971747432686385
1789996811821612300,5.8496123046875,0.15191319314208812,-9.799042447605729,-0.3550785624798387
1789996811831683300,5.859683349609375,0.1555600160786882,-9.799112590232491,-0.35153756540473546
1789996811841754400,5.86975439453125,0.15573506211834026,-9.799239431482553,-0.34790446959938853
1789996811851825400,5.879825439453125,0.15599203255409375,-9.79941361900568,-0.34282135764881966
1789996811861896200,5.889896240234375,0.1573411821407266,-9.799645674195885,-0.33550409343801435
1789996811871967200,5.89996728515625,0.15857658742088823,-9.799811678412556,-0.3300209858518094
1789996811882038300,5.910038330078125,0.15743673320338128,-9.800001648026704,-0.32491854814626275
1789996811892109300,5.920109375,0.15010403396142646,-9.800192202162743,-0.32261600682493297
1789996811902180400,5.930180419921875,0.1472007868005894,-9.800345931419729,-0.3192958859588951
1789996811912251400,5.94025146484375,0.14849511006060057,-9.800724117082357,-0.3068118866346776
1789996811922322200,5.950322265625,0.155225505161006,-9.801112239617108,-0.29068558528535066
1789996811932393200,5.960393310546875,0.15351661888388915,-9.801532510855793,-0.2770707187676802
1789996811942464300,5.97046435546875,0.146919924032595,-9.801899006080626,-0.26756193586196747
1789996811952535300,5.980535400390625,0.14856717978296802,-9.80206150316596,-0.2605734469478018
1789996811962606300,5.9906064453125,0.1503157678828109,-9.802326291581988,-0.24939687696034088
1789996811972677400,6.000677490234375,0.14860573082822373,-9.802719674813746,-0.23453356301784514
1789996811982748200,6.010748046875,0.1492066741297487,-9.803057528465986,-0.21954254930876194
1789996811992819200,6.020819091796875,0.1511146175097674,-9.803410579687357,-0.2017614847560413
1789996812002891300,6.030891357421875,0.15648365199593825,-9.80364672653079,-0.1855025334703736
1789996812012962300,6.04096240234375,0.1643102539683692,-9.803840787798165,-0.16764493308272213
1789996812023033300,6.051033447265625,0.1592970654488541,-9.8042411852926,-0.14792522861761973
1789996812033104400,6.0611044921875,0.15215253658960573,-9.804564425897597,-0.13333470373451708
1789996812043175400,6.071175537109375,0.15628248513434082,-9.804697112366556,-0.11775468375687487
1789996812053246200,6.08124609375,0.1576662676429376,-9.804890004590153,-0.09823799105058424
1789996812063317200,6.091317138671875,0.15995258848182856,-9.805033212453127,-0.07816240408620796
1789996812073388300,6.10138818359375,0.1633074153350666,-9.805143102568387,-0.05374778783710207
1789996812083459300,6.111459228515625,0.16449909107135607,-9.805227858242391,-0.028392093628889413
1789996812093530400,6.1215302734375,0.1674656127267517,-9.805217921370268,-0.003737921301012102
1789996812103601400,6.131601318359375,0.17220235892506316,-9.805113291952013,0.021907905541628133
1789996812113672200,6.141672119140625,0.17004638646757228,-9.805078805160521,0.043386415823199784
1789996812123743200,6.1517431640625,0.16283650988768786,-9.80509984794855,0.06241305999022442
1789996812133814300,6.161814208984375,0.15932567048883065,-9.804992295920849,0.08464239548896439
1789996812143885300,6.17188525390625,0.15727986214123665,-9.804793558478355,0.10813017465015873
1789996812153956400,6.181956298828125,0.16000680288709698,-9.804424725165962,0.13431648131348192
1789996812164027400,6.19202734375,0.16016356435138732,-9.804103238126634,0.1558952211161144
1789996812174098200,6.20209814453125,0.1596497330777347,-9.803793441525102,0.17474736723275855
1789996812184170200,6.212170166015625,0.1573803085747175,-9.803391874986886,0.19779603345748037
1789996812194241300,6.2222412109375,0.15392962013157083,-9.802892693293094,0.2235439852361567
1789996812204312300,6.232312255859375,0.15141053171642124,-9.802298234531284,0.2497997404064983
1789996812214383400,6.24238330078125,0.14720215677376836,-9.801785024312139,0.271532428661827
1789996812224454400,6.252454345703125,0.1467317719161976,-9.801324421063065,0.2879363779087551
1789996812234525400,6.262525390625,0.15085085200704634,-9.800697229075432,0.3065435545546934
1789996812244596200,6.27259619140625,0.15155021418174727,-9.800144855889677,0.32342341421768067
1789996812254667300,6.282667236328125,0.15332495050299913,-9.799621124276518,0.33811643136087804
1789996812264738300,6.29273828125,0.1518976941788569,-9.799106160491704,0.35328258244115857
1789996812274809300,6.302809326171875,0.1471385443524923,-9.79862977515161,0.3681922014771029
1789996812284880400,6.31288037109375,0.14504288724749348,-9.798182615905999,0.3807360046971589
1789996812294951400,6.322951416015625,0.1442223189790733,-9.79775299231708,0.3919519933795556
1789996812305022200,6.333022216796875,0.14907197836679406,-9.797350256735086,0.4000907665736973
1789996812315093200,6.34309326171875,0.15357653237758204,-9.796772749108076,0.41237986438032237
1789996812325164300,6.353164306640625,0.1526807799811009,-9.796180628433824,0.4264924512870609
1789996812335235300,6.3632353515625,0.14967652926435693,-9.795635854032636,0.4398892546072602
1789996812345306400,6.373306396484375,0.14420284709362313,-9.79528864803016,0.4493548559583723
1789996812355377400,6.38337744140625,0.14335265087191945,-9.794909293323755,0.4578219112588092
1789996812365448400,6.393448486328125,0.1462154107587412,-9.79426398115754,0.4705278097053989
1789996812375520500,6.4035205078125,0.14957377214278095,-9.79378175059855,0.4794252557797357
1789996812385591300,6.41359130859375,0.15107709851097315,-9.793530990707874,0.48405569205936044
1789996812395662300,6.423662353515625,0.15078084637760183,-9.793432206508516,0.4861118574041873
1789996812405733400,6.4337333984375,0.15367166331512852,-9.793136438432335,0.4911765203826129
1789996812415804400,6.443804443359375,0.15376248340373858,-9.792918996289371,0.49545025217905636
1789996812425875500,6.45387548828125,0.15246161167193203,-9.79286814288497,0.49684685763660813
1789996812435946500,6.463946533203125,0.15055818007024935,-9.79305402084589,0.4937950688505545
1789996812446017300,6.474017333984375,0.14782141205011867,-9.793457340949773,0.4865721318596974
1789996812456088300,6.48408837890625,0.14565852579465136,-9.79407810319662,0.4745551289927214
1789996812466159400,6.494159423828125,0.147147266515065,-9.794722246319054,0.46060138590950517
1789996812476230400,6.50423046875,0.15614128656536339,-9.79516122225821,0.44815074086561796
1789996812486301400,6.514301513671875,0.16107479744479059,-9.795745744147895,0.43336748815570025
1789996812496372500,6.52437255859375,0.1573996891286224,-9.796912449839711,0.407556499344483
1789996812506443300,6.534443359375,0.1493283186148852,-9.798339852294326,0.3750052059601992
1789996812516514300,6.544514404296875,0.14503036569263786,-9.799605342185497,0.34221919050458816
1789996812526585300,6.55458544921875,0.14646270918385124,-9.800721778994799,0.30789482303317633
1789996812536656400,6.564656494140625,0.15163408393976277,-9.801618435573577,0.27507654927577824
1789996812546727400,6.5747275390625,0.15438563853707163,-9.802410462734102,0.24350365420328451
1789996812556798500,6.584798583984375,0.14856765470700337,-9.803349204888939,0.20649925386765972
1789996812566869200,6.594869140625,0.14067476429902015,-9.804274503040313,0.16371022398229687
1789996812576941300,6.60494140625,0.13652970038354395,-9.804929167556763,0.1229791860726662
1789996812587012400,6.615012451171875,0.1417337626995053,-9.805254161727428,0.08535925678773783
1789996812597083400,6.62508349609375,0.15419124847613275,-9.805295078259705,0.05283621225040406
1789996812607154400,6.635154541015625,0.1546358504384756,-9.805410229071974,0.01968443450561026
1789996812617225500,6.6452255859375,0.14412890507457776,-9.805559866675734,-0.025029099452216177
1789996812627296500,6.655296630859375,0.13258294465229845,-9.805480956220626,-0.07307686728311237
1789996812637367300,6.6653671875,0.12727454517902806,-9.80515713109374,-0.1144686752229929
1789996812647438300,6.675438232421875,0.12348673373600468,-9.804698281410335,-0.15173253934555686
1789996812657509400,6.68550927734375,0.12277500527007505,-9.804030757412313,-0.1905059495145455
1789996812667580400,6.695580322265625,0.12318809784930199,-9.803075064122677,-0.23432870636181904
1789996812677651500,6.7056513671875,0.12006967356782405,-9.80195044400692,-0.27881027417769655
1789996812687722500,6.715722412109375,0.11183206137539818,-9.80077497048676,-0.32043460766524073
1789996812697793300,6.725793212890625,0.10507396541731431,-9.799415957093238,-0.36164544671475884
1789996812707864300,6.7358642578125,0.1005933494045399,-9.797899707311391,-0.4017682347992435
1789996812717935400,6.745935302734375,0.093384523137426,-9.796194656959175,-0.4429657394431531
1789996812728006400,6.75600634765625,0.08777239147722721,-9.794475578081608,-0.48055290810279544
1789996812738077400,6.766077392578125,0.08494744285014458,-9.792837747746706,-0.513316894389689
1789996812748148200,6.776148193359375,0.08247047654367051,-9.791166599664091,-0.5446262979540973
1789996812758219000,6.786218994140625,0.076330092358822,-9.789503634887932,-0.5746196504838764
1789996812768290000,6.7962900390625,0.06663185586219188,-9.787835409414768,-0.6035166956769302
1789996812778361000,6.806361083984375,0.05900678151096217,-9.785974291718006,-0.6337379021458327
1789996812788433200,6.81643310546875,0.0571698438408086,-9.784161104816198,-0.6613154987707733
1789996812798504200,6.826504150390625,0.0647781040545553,-9.782582311192154,-0.6835708774596452
1789996812808575200,6.8365751953125,0.07455130091696045,-9.781346631917357,-0.7000588517282158
1789996812818646300,6.846646240234375,0.07686116702822036,-9.779842072573304,-0.7205225246947258
1789996812828717000,6.856717041015625,0.07491860899254679,-9.77814988170266,-0.7433554840758443
1789996812838788000,6.8667880859375,0.07392290335292928,-9.776636554530262,-0.7630841938313097
1789996812848859100,6.876859130859375,0.07060651794709265,-9.77509224769771,-0.7829157794393599
1789996812858930200,6.88693017578125,0.06499411229225807,-9.773118901798128,-0.8076473389834166
1789996812869001200,6.897001220703125,0.066015176135418,-9.770998256382345,-0.8328408900160342
1789996812879072300,6.907072265625,0.07189247980413492,-9.769120772072672,-0.8541053579714148
1789996812889143000,6.91714306640625,0.07397720452316571,-9.766967977952957,-0.8782111137673259
1789996812899214000,6.927214111328125,0.06531001897417009,-9.76453753593564,-0.9054966686431318
1789996812909285000,6.93728515625,0.051390392789687024,-9.761395146256685,-0.9396224448025225
1789996812919356200,6.947356201171875,0.04351673223855905,-9.757819041335582,-0.9764590142905711
1789996812929427200,6.95742724609375,0.041311331148771564,-9.754264563724398,-1.0114205106217413
1789996812939498200,6.967498291015625,0.04267431746451184,-9.751143216833471,-1.0410357505541294
1789996812949569300,6.9775693359375,0.033988212585914876,-9.74758289400339,-1.0741791646126657
1789996812959640000,6.98764013671875,0.02434196885471465,-9.742853527393937,-1.116512651016563
1789996812969711000,6.997711181640625,0.013455570602999067,-9.738419928860663,-1.1547153212260455
1789996812979782100,7.0077822265625,0.011639601513993693,-9.734338797026872,-1.188654196511209
1789996812989853200,7.017853271484375,0.013253869451861827,-9.730857384651898,-1.2168022134352474
1789996812999924200,7.02792431640625,0.011303097285336116,-9.72697791287005,-1.2474535914823413
1789996813009996300,7.037996337890625,-0.001487823837322503,-9.722662387758493,-1.2807139099188147
1789996813020067300,7.0480673828125,-0.01991171305599855,-9.717497552341221,-1.3191788112610578
1789996813030138000,7.05813818359375,-0.028553654565883334,-9.712309336048364,-1.3566950335763395
1789996813040209200,7.068209228515625,-0.016673868212511295,-9.708733231127262,-1.3822532532028853
1789996813050280200,7.0782802734375,-0.005066626606648788,-9.705386843308807,-1.4056506415337324
1789996813060351200,7.088351318359375,-0.0084263482598908,-9.700223761457204,-1.4408322834216056
1789996813070422300,7.09842236328125,-0.023618728047504554,-9.69402315325141,-1.4818074140191078
1789996813080493300,7.108493408203125,-0.040372237367485644,-9.68829542325437,-1.518452552588284
1789996813090564000,7.118564208984375,-0.050518404861283485,-9.683755441737175,-1.5468424885094165
1789996813100635100,7.12863525390625,-0.04954846385058481,-9.679960725629329,-1.5704457746759055
1789996813110706200,7.1387060546875,-0.04969316498432308,-9.676562315362691,-1.591242625119537
1789996813120777200,7.148777099609375,-0.056128061436605634,-9.673754856726527,-1.608018111092597
1789996813130848300,7.15884814453125,-0.07262603194280527,-9.67076444273889,-1.6252477705739437
1789996813140919300,7.168919189453125,-0.08768494152263738,-9.667699209949374,-1.642640511662513
1789996813150990000,7.178989990234375,-0.0920451642924454,-9.665175828951597,-1.6571889692358672
1789996813161061000,7.18906103515625,-0.08637748478641732,-9.663313542211055,-1.6683207502335309
1789996813171132200,7.199132080078125,-0.08202135366983711,-9.661936993160843,-1.6764882745981216
1789996813181203200,7.209203125,-0.0859236035390757,-9.66103156875372,-1.6815039108030496
1789996813191274200,7.219274169921875,-0.09720968004930763,-9.660054832676053,-1.6864985042199492
1789996813201345300,7.22934521484375,-0.10179745536413974,-9.659644498309493,-1.6885742875806986
1789996813211416000,7.239416015625,-0.10300155219058506,-9.661337858223915,-1.6787787236228584
1789996813221487000,7.249487060546875,-0.10006225646883249,-9.663732644405961,-1.6651149399295448
1789996813231558100,7.25955810546875,-0.09265809942586346,-9.666361239343882,-1.6502316974438727
1789996813241630000,7.2696298828125,-0.08120904177310877,-9.669666126108169,-1.6313602621048688
1789996813251701000,7.279700927734375,-0.06868449580937158,-9.67290729998648,-1.6126089460141957
1789996813261772000,7.28977197265625,-0.06273973466132302,-9.676065471756457,-1.5938018080830574
1789996813271843000,7.299843017578125,-0.06156569961300119,-9.679560912656784,-1.5724848792880772
1789996813281914000,7.3099140625,-0.055707913495507085,-9.683259182652831,-1.5497591066084802
1789996813291985200,7.319985107421875,-0.04142933607182931,-9.688069213283061,-1.5198656342566013
1789996813302056200,7.33005615234375,-0.02397535946544958,-9.693282564017176,-1.4866339573927223
1789996813312127200,7.340127197265625,-0.01139460350217996,-9.69737947794199,-1.4598212076604364
1789996813322198300,7.3501982421875,-0.008751766551419859,-9.701004682701825,-1.4355612111508846
1789996813332269300,7.360269287109375,-0.006041832880931906,-9.704618781545758,-1.4109306277632712
1789996813342340000,7.370340087890625,0.003064550371626683,-9.709136551231145,-1.3795052696689962
1789996813352411100,7.3804111328125,0.015249948914704145,-9.714459207558631,-1.3414331670366226
1789996813362482200,7.390482177734375,0.026436694377951788,-9.718986914116144,-1.3080398698702453
1789996813372553200,7.40055322265625,0.032558825953479385,-9.722348499503731,-1.2826762960329652
1789996813382624300,7.410624267578125,0.034681211235199585,-9.725699563497304,-1.2569549947991967
1789996813392695300,7.4206953125,0.041516781459841876,-9.730326638776063,-1.2204219383023678
1789996813402766000,7.43076611328125,0.053871427916502575,-9.735585582217574,-1.1772262090459464
1789996813412837000,7.440837158203125,0.06776281895376741,-9.740279877513647,-1.1369927636612207
1789996813422908200,7.450908203125,0.07432448815745302,-9.744527598085998,-1.0995706493701785
1789996813432979200,7.460979248046875,0.07931575710610486,-9.748643216711281,-1.0621022847846149
1789996813443050200,7.47105029296875,0.08627033461751415,-9.752895028936862,-1.0217629678726197
1789996813453121300,7.481121337890625,0.09202565587437711,-9.757139826899767,-0.9798653156027197
1789996813463192300,7.4911923828125,0.10434829062442294,-9.761137956625223,-0.937914691036567
1789996813473264000,7.50126416015625,0.11924066626462153,-9.765275202560424,-0.8919513967629522
1789996813483335000,7.5113349609375,0.12249451696141622,-9.769483175644279,-0.8441371408604085
1789996813493406000,7.521406005859375,0.12043341057999059,-9.77303999134302,-0.8022120891269295
1789996813503477000,7.53147705078125,0.1254752041394822,-9.776231480860709,-0.7615398869987576
1789996813513548000,7.541548095703125,0.13357405631518923,-9.779380884802341,-0.7185077508062124
1789996813523619000,7.551619140625,0.1460780663809739,-9.782361946439742,-0.6741259535703807
1789996813533690000,7.561690185546875,0.15591482086572794,-9.784954301020502,-0.6330578109271824
1789996813543761000,7.571760986328125,0.15628513374915345,-9.787228091171384,-0.5967715687982738
1789996813553832000,7.58183203125,0.1553356144719757,-9.789029587635397,-0.5666949218992143
1789996813563903000,7.591903076171875,0.15927843381362036,-9.790364635631441,-0.5420221798703074
1789996813573974000,7.60197412109375,0.1648374561802484,-9.791491593834758,-0.5195350382521748
1789996813584045000,7.612045166015625,0.17162192868860437,-9.79249463339746,-0.49799595460649576
1789996813594116000,7.6221162109375,0.1736756463480182,-9.793474292084575,-0.4776007437663152
1789996813604187100,7.632187255859375,0.17177500035846605,-9.794332954740524,-0.46035628857463595
1789996813614258200,7.642258056640625,0.17470816773353143,-9.79492039923966,-0.446554448117502
1789996813624329200,7.6523291015625,0.17935913534453138,-9.79536405135393,-0.43480362190604205
1789996813634400300,7.662400146484375,0.18262993717612697,-9.79586907826662,-0.4218791122727096
1789996813644471300,7.67247119140625,0.1803709244692698,-9.796398655098676,-0.4103934763360768
1789996813654542000,7.6825419921875,0.17787337203249334,-9.796751121798158,-0.40302557791657745
1789996813664613000,7.692613037109375,0.17555334985340013,-9.79695219732821,-0.3991342695664614
1789996813674684200,7.70268408203125,0.1756479876006022,-9.797059749355912,-0.39641039756052193
1789996813684755200,7.712755126953125,0.18169238233137874,-9.79711995511055,-0.3921588410632685
1789996813694826200,7.722826171875,0.1851205484154634,-9.797225169050693,-0.3879435249231756
1789996813704897300,7.732897216796875,0.18162669668402523,-9.797423906493187,-0.3845658286510035
1789996813714968300,7.74296826171875,0.17633648132141677,-9.797523275214433,-0.38448512809760865
1789996813725040000,7.7530400390625,0.17163519002897665,-9.7975478251338,-0.38601332404557614
1789996813735111000,7.76311083984375,0.16713548572324216,-9.797561269137264,-0.3876351896263659
1789996813745182000,7.773181884765625,0.1715893233269453,-9.797439688584207,-0.3887282455600798
1789996813755253200,7.783253173828125,0.1748425895018503,-9.797357855519651,-0.389362890201807
1789996813765324300,7.79332421875,0.17113356064977123,-9.797447287368774,-0.38876576455887407
1789996813775395300,7.803395263671875,0.16980779193872586,-9.797421568405628,-0.389993297059834
1789996813785466400,7.81346630859375,0.1723194824987091,-9.79724679636061,-0.3932470746913925
1789996813795537400,7.823537353515625,0.17893024240797384,-9.796978500813244,-0.3969899875467643
1789996813805608200,7.833608154296875,0.1824808840942569,-9.796844645300506,-0.3986746892306953
1789996813815679200,7.84367919921875,0.1854176681985147,-9.796656429252028,-0.40190793553087856
1789996813825750300,7.853750244140625,0.1884680139461532,-9.796391640836,-0.40691505963578817
1789996813835821300,7.8638212890625,0.19165163068464025,-9.796171276083587,-0.41072033367026595
1789996813845892400,7.873892333984375,0.19345979435145855,-9.796133866682649,-0.4108037011047825
1789996813855963400,7.88396337890625,0.19344554663039742,-9.796196410524844,-0.40928394419159736
1789996813866034200,7.8940341796875,0.18844366495618595,-9.79642963475883,-0.4060326873106882
1789996813876105200,7.904105224609375,0.18835229687830432,-9.79657985688448,-0.40240196612551804
1789996813886176300,7.91417626953125,0.18908826473634688,-9.796715465962887,-0.3987493253694847
1789996813896247300,7.924247314453125,0.18860932211298495,-9.796884392789005,-0.39479306202437725
1789996813906318300,7.934318359375,0.18733279937114566,-9.797179576343297,-0.3880165536267683
1789996813916389400,7.944389404296875,0.18473849029531703,-9.79758348096907,-0.3789920471066609
1789996813926460200,7.954460205078125,0.1818760500689037,-9.79806980318129,-0.3676307682020589
1789996813936531200,7.96453125,0.18441303946692494,-9.798390121176839,-0.3576646334502846
1789996813946602200,7.974602294921875,0.18375819228738546,-9.798636204892397,-0.35118425845503803
1789996813956673300,7.98467333984375,0.18235828062789514,-9.798789349627494,-0.34764081369452177
1789996813966744300,7.994744384765625,0.18167227112511172,-9.798905669483542,-0.34468850322756917
1789996813976815400,8.0048154296875,0.17941185191245748,-9.79911492832005,-0.3399125575300306
1789996813986886100,8.01488623046875,0.17750143344756214,-9.799365688210726,-0.3336466290030628
1789996813996958200,8.024958251953125,0.18005307242544366,-9.799472071194648,-0.3291106295412406
1789996814007029200,8.035029296875,0.1754266730001196,-9.799639828976987,-0.326596747024171
1789996814017100300,8.045100341796875,0.17387345220874995,-9.79971347873509,-0.32523444569502025
1789996814027171300,8.05517138671875,0.17353294994169846,-9.799744458395242,-0.32450134564749894
1789996814037242400,8.065242431640625,0.17176731024235486,-9.799867792513966,-0.3217272412916645
1789996814047313400,8.0753134765625,0.16885863798772915,-9.799929167312383,-0.32135329341273755
1789996814057384200,8.08538427734375,0.16142344648567958,-9.79993267444372,-0.3250289131855592
1789996814067455200,8.095455322265625,0.14862087359842843,-9.79999112663269,-0.32933830081727355
1789996814077526300,8.1055263671875,0.14381835042121818,-9.79985902468562,-0.3353728682737797
1789996814087597300,8.115597412109375,0.1412099854205735,-9.799699450209737,-0.3411009270643815
1789996814097668400,8.12566845703125,0.14187902552224696,-9.799465641453862,-0.3475074331058189
1789996814107739400,8.135739501953125,0.14991974516939371,-9.799162859115004,-0.3525896317409351
1789996814117810200,8.14581005859375,0.1478591319783125,-9.798999192985892,-0.3579613513745367
1789996814127881200,8.155881103515625,0.13841318517574108,-9.798785842496157,-0.3674879621978849
1789996814137952300,8.1659521484375,0.12811604663762263,-9.798428115099668,-0.3804793265223503
1789996814148023300,8.176023193359375,0.11575614861710928,-9.798054021090268,-0.3938962593151256
1789996814158094300,8.18609423828125,0.11336099710888228,-9.797561269137264,-0.40664424333777277
1789996814168165400,8.196165283203126,0.11846615649447775,-9.79709891232252,-0.4162106016496196
1789996814178236200,8.206236083984376,0.11743841174878179,-9.796805482333898,-0.42331356552261856
1789996814188307200,8.21630712890625,0.11222810235512443,-9.796513805910944,-0.4313911831140518
1789996814198378200,8.226378173828126,0.10609056771448813,-9.796118084591626,-0.44181342760287223
1789996814208449300,8.23644921875,0.09735336283631622,-9.795726454925537,-0.452367481777817
1789996814218520300,8.246520263671876,0.08581316543454304,-9.795468680772185,-0.4602335024451837
1789996814228591400,8.25659130859375,0.07871597371520474,-9.79512264381349,-0.4688139184596017
1789996814238662100,8.266662109375,0.07873483367930166,-9.794821615040302,-0.47506044816635545
1789996814248733200,8.276733154296876,0.08154354355763643,-9.794743289107084,-0.476175898594968
1789996814258804200,8.28680419921875,0.07618270607765298,-9.794892342188954,-0.4739616931442171
1789996814268875300,8.296875244140624,0.06452567279660143,-9.794960731250047,-0.47430404030848294
1789996814278946300,8.3069462890625,0.054287895196327006,-9.79499287995398,-0.4749093857904896
1789996814289017300,8.317017333984374,0.052388171655382024,-9.795212075662612,-0.4705714661840349
1789996814299089400,8.32708935546875,0.05879640386302489,-9.79562708620429,-0.46111017568185925
1789996814309160400,8.337160400390625,0.06841418640143238,-9.79605378718376,-0.45062615453582255
1789996814319231200,8.347231201171875,0.0719651294818148,-9.796479903641343,-0.44070488183908163
1789996814329302300,8.35730224609375,0.07460832376724574,-9.796986099597811,-0.428844640436396
1789996814339373300,8.367373291015625,0.0684190680725267,-9.79764076411426,-0.4146603034676984
1789996814349444400,8.3774443359375,0.06580601319703273,-9.798128255370258,-0.403410120254755
1789996814359515400,8.387515380859375,0.06994424551292322,-9.798668353596328,-0.3893364040536806
1789996814369586400,8.39758642578125,0.07551305405462626,-9.799476162847876,-0.36733668062631036
1789996814379657200,8.4076572265625,0.08306991287469863,-9.80025065435171,-0.34433833808302877
1789996814389728300,8.417728271484375,0.08599982884675264,-9.800799520406127,-0.32758663484435524
1789996814399799300,8.42779931640625,0.07687273873500526,-9.801354231679438,-0.3129483800956979
1789996814409870300,8.437870361328125,0.07118225374212488,-9.801919464346765,-0.29614374109338965
1789996814419941400,8.44794140625,0.07822879298646003,-9.802503401714564,-0.27422988758487626
1789996814430012400,8.458012451171875,0.08345507626738399,-9.803132347267866,-0.2490885051309131
1789996814440083200,8.468083251953125,0.07991100131920538,-9.803635620614886,-0.2296359089030884
1789996814450154200,8.478154296875,0.07833307534484192,-9.80390976138115,-0.2181634247089736
1789996814460225300,8.488225341796875,0.07792529826154931,-9.804224818679689,-0.20377044995827598
1789996814470296300,8.49829638671875,0.08558758565089665,-9.804539291456342,-0.1845475525667891
1789996814480367400,8.508367431640625,0.10111652389527298,-9.804761409774422,-0.16375475724376737
1789996814490438400,8.5184384765625,0.10642955387788824,-9.804976513829827,-0.14651116056861355
1789996814500509200,8.52850927734375,0.10450964606544003,-9.805127904999255,-0.1376168745657429
1789996814510580200,8.538580322265625,0.10115432602185756,-9.805222013023496,-0.1334053395516239
1789996814520651300,8.5486513671875,0.09928865088098682,-9.805351776883006,-0.12495012995260767
1789996814530722300,8.558722412109375,0.10324493249240331,-9.805489724048972,-0.10999817874543368
1789996814540793300,8.56879345703125,0.11244063086095266,-9.80556629641652,-0.09283594021080062
1789996814550864400,8.578864501953126,0.12721351744048295,-9.805514273968338,-0.07806864312184043
1789996814560935200,8.58893505859375,0.14071552556767128,-9.80539795411229,-0.06891203465466388
1789996814571006200,8.599006103515626,0.13874722116938792,-9.805451730126142,-0.06505918145168106
1789996814581077200,8.6090771484375,0.12775727806151843,-9.805589677292108,-0.06687172446609474
1789996814591148300,8.619148193359376,0.12601424291962757,-9.805599029642343,-0.06879376487012487
1789996814601220400,8.629220458984374,0.13382418601820245,-9.805520119187236,-0.06500515884265769
1789996814611291400,8.63929150390625,0.1473888749849051,-9.805365805408359,-0.05896628510379232
1789996814621362400,8.649362548828124,0.15706199987316502,-9.805238964158296,-0.05507349718264304
1789996814631433200,8.65943310546875,0.1607570367325097,-9.805161807268858,-0.05798108715845737
1789996814641504300,8.669504150390624,0.1594899942050688,-9.805127320477366,-0.0665981453888351
1789996814651575300,8.6795751953125,0.15042976791760884,-9.805196878582239,-0.07661606969335116
1789996814661646300,8.689646240234374,0.14637504916670732,-9.805189864319562,-0.0849023615994025
1789996814671717400,8.69971728515625,0.1527159426260274,-9.805034381496906,-0.09134296170668676
1789996814681788400,8.709788330078124,0.15397862863875925,-9.804937350863218,-0.09928180101509206
1789996814691859200,8.719859130859374,0.15304392333822325,-9.804776607343554,-0.11534852679744362
1789996814701930200,8.72993017578125,0.1505896985865198,-9.804535784325003,-0.1370675975193735
1789996814712001300,8.740001220703125,0.14707446614033542,-9.804375625327229,-0.15164761014161632
1789996814722072300,8.750072265625,0.14917612372785805,-9.804153507009149,-0.1634531804813072
1789996814732143400,8.760143310546875,0.1500474540691357,-9.803888134071231,-0.1779386192884296
1789996814742214400,8.77021435546875,0.1442395075758919,-9.803593535038829,-0.19780947746094316
1789996814752285700,8.78028564453125,0.13956926900884137,-9.803124748483299,-0.22277665412547065
1789996814762356500,8.7903564453125,0.13637723150188102,-9.802628489398955,-0.24546351956678553
1789996814772427500,8.800427490234375,0.1365392079974059,-9.80208020786643,-0.26639678280642254
1789996814782498600,8.81049853515625,0.14038790104850193,-9.801503284761308,-0.2849929631343111
1789996814792569600,8.820569580078125,0.13694173351684585,-9.801026314899325,-0.30255441185329107
1789996814802640600,8.830640625,0.13286290323799474,-9.800503167808055,-0.32073644015602765
1789996814812711700,8.840711669921875,0.1314771479680203,-9.79999171115458,-0.33653635909520085
1789996814822782500,8.850782470703125,0.128128823920805,-9.799570270872115,-0.3498613392882049
1789996814832853500,8.860853515625,0.12893811274338512,-9.799028419080376,-0.36441710338518024
1789996814842924500,8.870924560546875,0.12507901702928356,-9.798589443141221,-0.37732984951548276
1789996814852995600,8.88099560546875,0.12255489624598995,-9.798115395888686,-0.39027664404585954
1789996814863066600,8.891066650390625,0.12371220392179674,-9.797613876107334,-0.4023009169038385
1789996814873137700,8.9011376953125,0.12519628673340194,-9.797187759649754,-0.41209523875266313
1789996814883208400,8.91120849609375,0.1254432746312581,-9.796739431360363,-0.4225518969677388
1789996814893279500,8.921279541015625,0.12549376270947976,-9.796395732489227,-0.43039691137969494
1789996814903350500,8.9313505859375,0.1271971325612627,-9.796292272114753,-0.4322843325614929
1789996814913421600,8.941421630859375,0.12744586489163337,-9.79633669577837,-0.43122835723515596
1789996814923492600,8.95149267578125,0.1248973585857544,-9.796471720334887,-0.4288867625450715
1789996814933563600,8.961563720703126,0.12358271405692212,-9.79655881409645,-0.42727081524841487
1789996814943634400,8.971634521484376,0.1292069380137138,-9.796698514828085,-0.4223281346818432
1789996814953706500,8.98170654296875,0.13262318533114156,-9.79709774327874,-0.4119061093887314
1789996814963777500,8.991777587890626,0.13391393752773292,-9.797425075536966,-0.40361700447108595
1789996814973848600,9.0018486328125,0.1333916489529889,-9.797761760145425,-0.39553094784487036
1789996814983919600,9.011919677734374,0.1354150719388388,-9.798227624091506,-0.3830988979035988
1789996814993990700,9.02199072265625,0.1392666601999197,-9.79874024978876,-0.3683587171504274
1789996815004061700,9.032061767578124,0.14628842119602486,-9.799192085209489,-0.3532942363463342
1789996815014132500,9.042132568359374,0.15598631519936024,-9.799604173141717,-0.33735085381586105
1789996815024203500,9.05220361328125,0.16307767996611072,-9.80012264405787,-0.3183942244114354
1789996815034274600,9.062274658203124,0.16688841562699525,-9.800656897065043,-0.29939821284469215
1789996815044345600,9.072345703125,0.17547756293714045,-9.801020469680427,-0.28209351536575705
1789996815054416600,9.082416748046874,0.18024302377328275,-9.801330850803852,-0.26795818690424783
1789996815064487700,9.09248779296875,0.17746632560156284,-9.80168740915656,-0.25652795268297196
1789996815074558500,9.102558349609374,0.17786679616123438,-9.801937584525346,-0.24649288088083265
1789996815084629500,9.11262939453125,0.18492371066911145,-9.802075531691312,-0.23558846063194794
1789996815094700500,9.122700439453125,0.1945909538058564,-9.802180745631455,-0.22313251835843548
1789996815104771600,9.132771484375,0.20616457855319603,-9.802235690689086,-0.20992946577835828
1789996815114842600,9.142842529296875,0.21760917009338734,-9.802225169295072,-0.19859699284313245
1789996815124913700,9.15291357421875,0.21810762113481758,-9.802364285504817,-0.19098147633811458
1789996815134984400,9.162984375,0.21528925751214845,-9.80249054223299,-0.18763912537395952
1789996815145055500,9.173055419921875,0.2124978549616411,-9.802549578943848,-0.18773242968060075
1789996815155126500,9.18312646484375,0.20796724406098946,-9.802655961927771,-0.18730174664575605
1789996815165197600,9.193197509765625,0.20458255179245025,-9.802754746127128,-0.1858064483203925
1789996815175268600,9.2032685546875,0.20462372405305504,-9.802755915170907,-0.18572861557751894
1789996815185339600,9.213339599609375,0.19895621807696295,-9.80282722684145,-0.18813998756818473
1789996815195410400,9.223410400390625,0.19596602328503504,-9.802791571006178,-0.19305431882310659
1789996815205481500,9.2334814453125,0.1948215294250287,-9.802689864197372,-0.19928694786867127
1789996815215552500,9.243552490234375,0.19753584815133363,-9.802458978050947,-0.20776520041655747
1789996815225623600,9.25362353515625,0.20567831113990395,-9.802112356570362,-0.21604005761314182
1789996815235694600,9.263694580078125,0.21265277152871712,-9.801715466207265,-0.2270454540184699
1789996815245765600,9.273765625,0.2115205891610123,-9.801355985245108,-0.2430603491488844
1789996815255836700,9.283836669921875,0.20641166691575197,-9.800992412629723,-0.2613886723208241
1789996815265907500,9.293907470703125,0.19788343774629755,-9.800651636368036,-0.2801063601365313
1789996815275978500,9.303978515625,0.19265636901408434,-9.800096340572834,-0.3022859153765253
1789996815286049500,9.314049560546875,0.1967309615092352,-9.799297299149632,-0.32476240773648024
1789996815296120600,9.32412060546875,0.20245328467879442,-9.798604640710353,-0.341657684164308
1789996815306191600,9.334191650390625,0.20133407139051704,-9.798083831706643,-0.35696046723630276
1789996815316262700,9.3442626953125,0.2012477265476249,-9.797440857627988,-0.37420357072111216
1789996815326333400,9.35433349609375,0.19710047067506237,-9.796732417097687,-0.3944278819737956
1789996815336404500,9.364404541015626,0.19453063845336435,-9.795879599660635,-0.41631059142537413
1789996815346475500,9.3744755859375,0.19165179508142172,-9.795095755806564,-0.4355959413275122
1789996815356546600,9.384546630859376,0.1874000193884596,-9.794346398743986,-0.45391474775243545
1789996815366618600,9.39461865234375,0.18334736473048105,-9.793582428634165,-0.47172049008868633
1789996815376689700,9.404689697265624,0.1763503454499878,-9.79296225090921,-0.48700884277652945
1789996815386760700,9.4147607421875,0.1685184279816225,-9.792424490770697,-0.5004124046310782
1789996815396831500,9.42483154296875,0.15904769379766656,-9.79189666750431,-0.5136485009642318
1789996815406902500,9.434902587890624,0.15277238552100025,-9.791360660931467,-0.5256655768964439
1789996815416973600,9.4449736328125,0.14797342427405527,-9.790669756057857,-0.5397036007296294
1789996815427044600,9.455044677734374,0.1464180571913719,-9.789889419335127,-0.5540885383043438
1789996815437115600,9.46511572265625,0.14251425468586384,-9.789292037963866,-0.5655672330435365
1789996815447186700,9.475186767578125,0.13694893957576715,-9.788854815590382,-0.5744069941138849
1789996815457257500,9.485257568359375,0.13754064012491143,-9.788357971984148,-0.5826636945992708
1789996815467328500,9.49532861328125,0.14100432504694907,-9.787824888020753,-0.5907442713327705
1789996815477399600,9.505399658203125,0.13853309436151756,-9.787545486557484,-0.5959396114861593
1789996815487470600,9.515470703125,0.1333527691141702,-9.787435596442222,-0.5989306099956855
1789996815497541600,9.525541748046875,0.13143992123017087,-9.78734850268066,-0.6007553777374327
1789996815507612700,9.53561279296875,0.13537929737255908,-9.787054488170146,-0.6046607511455193
1789996815517683500,9.545683349609375,0.13708902389989233,-9.786870948296785,-0.6072449954850598
1789996815527754500,9.55575439453125,0.13411652002828195,-9.786922386223077,-0.6070747900173068
1789996815537825500,9.565825439453125,0.1328081225771457,-9.786982591977715,-0.6064181527394801
1789996815547896600,9.575896484375,0.13530851542497985,-9.78706442504227,-0.6045291606551035
1789996815557967600,9.585967529296875,0.1307068577152677,-9.78729063501358,-0.6018585897389799
1789996815568038700,9.59603857421875,0.12373238819329999,-9.787549578210712,-0.5991081219870596
1789996815578109400,9.606109375,0.12072440201635472,-9.787801507145165,-0.5956118043038994
1789996815588180500,9.616180419921875,0.11924939756034873,-9.7880376539886,-0.5920130126269534
1789996815598251500,9.62625146484375,0.12424034684859216,-9.788336929196118,-0.586016475625895
1789996815608322600,9.636322509765625,0.13041340032718143,-9.788546188032626,-0.5811659668548033
1789996815618393600,9.6463935546875,0.12943459102343768,-9.78865374006033,-0.5795869540350511
1789996815628464600,9.656464599609375,0.12080013413368723,-9.788963536661862,-0.5761956310963258
1789996815638535400,9.666535400390625,0.11574279594519175,-9.789269826132058,-0.5720108196923509
1789996815648606500,9.6766064453125,0.11660327609889208,-9.789336461627483,-0.570711902455613
1789996815658677500,9.686677490234375,0.11780802137930876,-9.789599496477841,-0.5659203938627615
1789996815668748500,9.69674853515625,0.12001022586501203,-9.789868376547098,-0.5607860266489908
1789996815678819600,9.706819580078125,0.12061681345603428,-9.789818107664585,-0.5615258852308616
1789996815688890600,9.716890625,0.11068138436977751,-9.789756732866168,-0.5646291484758258
1789996815698961400,9.72696142578125,0.10529662259151228,-9.789629891616105,-0.5678523117734119
1789996815709032400,9.737032470703125,0.1047814213446807,-9.789375040072201,-0.5723268999041989
1789996815719103500,9.747103515625,0.10189628522926941,-9.789092131477593,-0.5776642423441634
1789996815729174500,9.757174560546876,0.10021054236572235,-9.788593534305692,-0.5863183446493
1789996815739245600,9.76724560546875,0.10428612124156206,-9.787781048879026,-0.5990285904774442
1789996815749316400,9.77731640625,0.09849661458730698,-9.787076700001954,-0.6114037591323256
1789996815759387400,9.787387451171876,0.08307564849574119,-9.786412098613381,-0.6242005507327616
1789996815769458400,9.79745849609375,0.07553138429576065,-9.785746912702917,-0.6354945365548134
1789996815779529500,9.807529541015626,0.07865080865765921,-9.7849203987509,-0.6477202502690256
1789996815789600300,9.817600341796876,0.08442182067399844,-9.784038939741253,-0.6601729776721448
1789996815799671300,9.82767138671875,0.09147441519978455,-9.783110718980431,-0.6728879362080246
1789996815809742300,9.837742431640624,0.08750172130968421,-9.782101249676943,-0.6879309723652899
1789996815819813400,9.8478134765625,0.08416015579681843,-9.780842189526558,-0.7059847346458583
1789996815829884400,9.857884521484374,0.08702935455758123,-9.779855516576767,-0.7192008476369083
1789996815839955500,9.86795556640625,0.09666318861506878,-9.779323601657152,-0.7251737845666706
1789996815850026500,9.878026611328124,0.10393806585571728,-9.779109666645526,-0.7270414781346917
1789996815860098600,9.8880986328125,0.10056265287217683,-9.778768305861949,-0.7321103058315813
1789996815870169300,9.89816943359375,0.0990267759412527,-9.778200735107063,-0.7398518598690629
1789996815880240400,9.908240478515625,0.10078284409465267,-9.777788062652945,-0.7450611189499498
1789996815890311400,9.9183115234375,0.10628169723926112,-9.777812028050421,-0.7439722277346998
1789996815900382500,9.928382568359375,0.11381095109977758,-9.778229961201548,-0.7373434572447091
1789996815910453500,9.93845361328125,0.11315292558246291,-9.778591195729375,-0.7326411978378892
1789996815920524500,9.948524658203125,0.10684736829800531,-9.779165196225046,-0.7259026833631098
1789996815930595300,9.95859521484375,0.10944263635505921,-9.779853178489208,-0.7161738279659301
1789996815940666400,9.968666259765625,0.10803656894941814,-9.780599028420447,-0.7061357604891061
1789996815950737400,9.9787373046875,0.10734095136807299,-9.781220959711074,-0.697569519130513
1789996815960808400,9.988808349609375,0.10951297077806665,-9.78169442244172,-0.690554233540967
1789996815970879500,9.99887939453125,0.11423177946088835,-9.782219323098658,-0.6822855868894606
1789996815980950500,10.008950439453125,0.11736807732577435,-9.783156311687826,-0.6681803430389612
1789996815991021300,10.019021240234375,0.1223283940137364,-9.78398867085874,-0.6549957211647183
1789996816001092400,10.02909228515625,0.1293467483432032,-9.784765500450133,-0.6419016271181405
1789996816011163400,10.039163330078125,0.13139156117695383,-9.785603120318054,-0.6285436945036054
1789996816021234400,10.049234375,0.13081240044897421,-9.786513220900297,-0.6143370361052454
1789996816031305500,10.059305419921875,0.13472329028239474,-9.787278360053897,-0.6011866818267851
1789996816041376500,10.06937646484375,0.13931930370260961,-9.787900875866413,-0.5898976644407957
1789996816051447300,10.079447265625,0.13772422566404566,-9.788514623850583,-0.5799933794114739
1789996816061518300,10.089518310546875,0.1349245393423829,-9.789012636500596,-0.5721936289133503
1789996816071589400,10.09958935546875,0.1355269713480957,-9.789441675567627,-0.5646802576085552
1789996816081660400,10.109660400390625,0.13532735712276772,-9.789996386840938,-0.5550319201016798
1789996816091731500,10.1197314453125,0.1325315341254696,-9.7904973221004,-0.5468130674086511
1789996816101802500,10.129802490234376,0.1306887010040693,-9.790764448603987,-0.5424665261043236
1789996816111873300,10.139873291015626,0.1309611430035904,-9.790968446743488,-0.5386918298712
1789996816121944300,10.1499443359375,0.13951004050173796,-9.791152571138738,-0.5331601339029148
1789996816132015400,10.160015380859376,0.14989378874422982,-9.791278827866911,-0.5279879554294049
1789996816142086400,10.17008642578125,0.14990544264940545,-9.791370597803592,-0.5262949243085459
1789996816152157400,10.180157470703126,0.14223486235574817,-9.791348970493674,-0.5288002216603607
1789996816162228500,10.190228515625,0.1390778139637783,-9.791239080378412,-0.5316725622262806
1789996816172299300,10.20029931640625,0.14033112935996614,-9.791137958091497,-0.533233674063161
1789996816182370300,10.210370361328126,0.14001254666377788,-9.791087104687094,-0.5342379557348788
1789996816192441300,10.22044140625,0.1382475645515602,-9.791081259468196,-0.5348003753906115
1789996816202512400,10.230512451171874,0.13755505224275402,-9.791200501933693,-0.5327916293840855
1789996816212583400,10.24058349609375,0.1415106397344265,-9.79139339415729,-0.5281980545161291
1789996816222654500,10.250654541015624,0.14924878710526973,-9.791581025683879,-0.5225433532226831
1789996816232725500,10.2607255859375,0.15555196063639595,-9.791880885413288,-0.5150117521414533
1789996816242796500,10.270796630859374,0.15450975810708478,-9.792224584284424,-0.5087794336231425
1789996816252867600,10.28086767578125,0.15317779711727053,-9.792350256490707,-0.5067405847392976
1789996816262938600,10.290938720703124,0.15612616206146776,-9.792461315649748,-0.5037184969717636
1789996816273009700,10.301009765625,0.16026064978400245,-9.792800338345765,-0.4957459471900016
1789996816283080700,10.311080810546875,0.16225240812310948,-9.793245744025707,-0.4862232818894088
1789996816293151500,10.3211513671875,0.1647455401130952,-9.793680043789744,-0.47652076650988306
1789996816303222500,10.331222412109375,0.16259597913008184,-9.79419091592133,-0.46667164573390035
1789996816313293600,10.34129345703125,0.16103557967925444,-9.794622877597808,-0.4580715751709416
1789996816323364600,10.351364501953125,0.16760379735473543,-9.794991710910201,-0.447727583550103
1789996816333435600,10.361435546875,0.17517843386009335,-9.795390354838966,-0.4359123503329232
1789996816343506700,10.371506591796875,0.17749293961385265,-9.79582933077812,-0.42499848640225824
1789996816353577500,10.381577392578125,0.17625769873047248,-9.796301624464988,-0.41448805217333134
1789996816363648500,10.3916484375,0.17279526505060494,-9.796835877472162,-0.4031520173078403
1789996816373719600,10.401719482421875,0.17419782532490788,-9.797105926585196,-0.39592349082641304
1789996816383790600,10.41179052734375,0.18333507150448858,-9.797294727155565,-0.38701176049839703
1789996816393861600,10.421861572265625,0.1909471722097136,-9.797526197823881,-0.3773381424197927
1789996816403932700,10.4319326171875,0.19120964080449193,-9.797841839644311,-0.368969250264205
1789996816414003500,10.44200341796875,0.18396122231250628,-9.798191968256235,-0.36331904248278585
1789996816424074500,10.452074462890625,0.17848039801493287,-9.798451495975256,-0.35901739976610986
1789996816434145500,10.4621455078125,0.17703072892958296,-9.798613993060588,-0.3552588144175708
1789996816444216600,10.472216552734375,0.17040409559775144,-9.798862414863706,-0.35162973720021545
1789996816454287600,10.48228759765625,0.1650059263486415,-9.799145907980202,-0.3462349654845893
1789996816464359400,10.492359375,0.16383754015639423,-9.799266319489478,-0.34342151549905536
1789996816474430500,10.502430419921875,0.1642480754523538,-9.799303728890418,-0.34214075497351587
1789996816484501500,10.51250146484375,0.16340890294816343,-9.79935692038238,-0.34102884820885954
1789996816494572300,10.522572265625,0.16308129669530316,-9.799499543723464,-0.33702834386322644
1789996816504643300,10.532643310546876,0.1564707742480561,-9.799778360664844,-0.33201435162611304
1789996816514714400,10.54271435546875,0.1528834812126588,-9.799958393406868,-0.32837446075379845
1789996816524785400,10.552785400390626,0.1555249812979251,-9.80002736698985,-0.32507677091527726
1789996816534856400,10.5628564453125,0.15163640376101248,-9.800252992439269,-0.32002211787421253
1789996816544927500,10.572927490234376,0.14847955629844217,-9.800616565054655,-0.31025676639154554
1789996816554998300,10.582998291015626,0.14556149516096337,-9.800878430861234,-0.30330362278539685
1789996816565069300,10.5930693359375,0.14708727995613588,-9.801012870895862,-0.2981584053840488
1789996816575140400,10.603140380859376,0.1479847311193589,-9.801218622601032,-0.290868686767295
1789996816585211400,10.61321142578125,0.14566071775173767,-9.801495685976743,-0.28259026764044537
1789996816595282400,10.623282470703124,0.13738429878572933,-9.801839969369768,-0.2746590910486877
1789996816605353500,10.633353515625,0.12734866986116394,-9.802069686472416,-0.2713279921309091
1789996816615424500,10.643424560546874,0.12451716362913139,-9.802146258839965,-0.2698823416335508
1789996816625495600,10.65349560546875,0.1235734895708505,-9.802252057301997,-0.26640995281524954
1789996816635566600,10.663566650390624,0.12282491795956156,-9.802429751956462,-0.2601872423755005
1789996816645637600,10.6736376953125,0.12178198477788828,-9.802514507630466,-0.25742298356024546
1789996816655708700,10.683708740234374,0.1149508601162117,-9.80252561354637,-0.2601071263439953
1789996816665779700,10.69377978515625,0.10784734825394116,-9.80251158502102,-0.2636875055814162
1789996816675850500,10.7038505859375,0.10416223000041208,-9.802513338586687,-0.26512206842917946
1789996816685921500,10.713921630859375,0.10163437375691718,-9.802499310061336,-0.2666212757446803
1789996816695992600,10.72399267578125,0.10535470945429988,-9.802371884289384,-0.269798535807617
1789996816706063600,10.734063720703125,0.11103681934447958,-9.80222575381696,-0.2728361499378458
1789996816716134700,10.744134765625,0.11212155497441999,-9.802121124398708,-0.2761297298568301
1789996816726205700,10.754205810546875,0.11487080801678821,-9.801945183309913,-0.28116942279078067
1789996816736276500,10.7642763671875,0.11467421686560846,-9.801749952998756,-0.2879770752453245
1789996816746347500,10.774347412109375,0.10966439848011358,-9.801607329657672,-0.2946926472359337
1789996816756418000,10.78441796875,0.10528693231455981,-9.801489256235957,-0.30014093923708424
1789996816766489000,10.794489013671875,0.09662945074224844,-9.801468213447928,-0.30374888233486563
1789996816776560000,10.80456005859375,0.09382465898720548,-9.80146236822903,-0.3048373534250073
1789996816786631200,10.814631103515625,0.09537628147653303,-9.801419698131085,-0.3057457369741984
1789996816796702200,10.8247021484375,0.10041206542034632,-9.801281750965117,-0.30850177595037964
1789996816806773200,10.834773193359375,0.09959332378283142,-9.801197579813003,-0.31143567397780714
1789996816816844300,10.84484423828125,0.0938295908906497,-9.801196410769224,-0.3132696479393169
1789996816826915000,10.8549150390625,0.09045528301880694,-9.801161339455842,-0.31538974536582826
1789996816836986000,10.864986083984375,0.08985907982448116,-9.801089443263411,-0.3177408750692382
1789996816847057200,10.87505712890625,0.08795048799049109,-9.80103625177145,-0.31992453925125297
1789996816857128200,10.885128173828125,0.08539062004038132,-9.801038589859008,-0.3205533386740833
1789996816867199200,10.89519921875,0.08330440661716275,-9.800953249663113,-0.3236972261903807
1789996816877270300,10.905270263671875,0.0838119451473467,-9.800723532560466,-0.3304296031853184
1789996816887341000,10.915341064453125,0.08764386972673237,-9.800396200302243,-0.3390533468848094
1789996816897412000,10.925412109375,0.09357966211703606,-9.799979436194896,-0.3493349042613059
1789996816907483100,10.935483154296875,0.09296504648318514,-9.79954162929952,-0.36153811388276513
1789996816917554200,10.94555419921875,0.08935721298325806,-9.799062905871867,-0.3751717581661418
1789996816927625200,10.955625244140625,0.08150212470185943,-9.798560801568627,-0.38979068715982135
1789996816937696300,10.9656962890625,0.07504375147586688,-9.797979202288388,-0.40540319376811385
1789996816947767000,10.97576708984375,0.07066186486352234,-9.797274268889426,-0.4228756855620071
1789996816957838000,10.985838134765626,0.06110207328977994,-9.796453600156307,-0.44292632074821736
1789996816967909000,10.9959091796875,0.04812402053803671,-9.795539407920836,-0.46421661726459856
1789996816977980200,11.005980224609376,0.03852739951866679,-9.794446936509013,-0.4875567589828744
1789996816988051200,11.01605126953125,0.0323014057098655,-9.79331471760869,-0.5102504925563931
1789996816998122200,11.026122314453126,0.03774556724188151,-9.792087806162238,-0.5329208817869424
1789996817008193000,11.036193115234376,0.04224854806680232,-9.79083400670886,-0.555166798527725
1789996817018264000,11.04626416015625,0.03758310668916674,-9.789450443395971,-0.5793420028306544
1789996817028335000,11.056335205078126,0.02993919064014917,-9.787945299530028,-0.6046747066056355
1789996817038406100,11.06640625,0.02471377500890521,-9.786571673089265,-0.6267526463683695
1789996817048477200,11.076477294921874,0.01826085998438648,-9.785381586521863,-0.6452760719873011
1789996817058548200,11.08654833984375,0.014302825948945245,-9.784021988606453,-0.665665510673821
1789996817068619000,11.096618896484374,0.011261878217314369,-9.78240344749391,-0.6890969474047423
1789996817078690000,11.10668994140625,0.007368346514893346,-9.780974291473626,-0.709150212939456
1789996817088761000,11.116760986328124,0.012332658387138507,-9.779459210735558,-0.7296775987919419
1789996817098832100,11.12683203125,0.016388365802017506,-9.777833655360341,-0.7510553178634494
1789996817108903200,11.136903076171874,0.015123970747744896,-9.776166598930955,-0.772466354682669
1789996817118974200,11.14697412109375,0.010928068269242067,-9.774539874511957,-0.7928668262198567
1789996817129045000,11.157044921875,0.005396659995324443,-9.773009011682868,-0.8115724034726619
1789996817139116000,11.167115966796874,0.0007053659394521673,-9.771543030783533,-0.8290686780009419
1789996817149187000,11.17718701171875,-0.00721996586152527,-9.770119719982146,-0.8456395813126116
1789996817159258000,11.187258056640625,-0.01837399807772599,-9.768778242245316,-0.8608335702478885
1789996817169329200,11.1973291015625,-0.026121239787188822,-9.767719088581204,-0.8725628056820481
1789996817179400200,11.207400146484375,-0.031598072896234224,-9.766724232324957,-0.8834479184422641
1789996817189471000,11.217470947265625,-0.03944295259416103,-9.765962015780806,-0.8915220654349774
1789996817199542000,11.2275419921875,-0.04795287435536738,-9.765392691460251,-0.8973270984519273
1789996817209613000,11.237613037109375,-0.05462813260189723,-9.764861361062525,-0.9027117871649563
1789996817219684000,11.24768408203125,-0.060662576760817315,-9.764579621511697,-0.9053749419596046
1789996817229755100,11.257755126953125,-0.06506849726929795,-9.764318340227007,-0.9078916009556501
1789996817239826200,11.267826171875,-0.0637117717309855,-9.764055305376647,-0.910798574443534
1789996817249897000,11.27789697265625,-0.07262177132621873,-9.763944830739497,-0.9113117846626788
1789996817259968000,11.287968017578125,-0.07983156114113517,-9.763944830739497,-0.910715426204726
1789996817270039000,11.2980390625,-0.0789758850267157,-9.76393957004249,-0.9108394909758121
1789996817280110000,11.308110107421875,-0.06739696761632803,-9.764395497116446,-0.9068639384083449
1789996817290181000,11.31818115234375,-0.0610194365076255,-9.765034964063764,-0.900401099069789
1789996817300252200,11.328252197265625,-0.0568321089195786,-9.765372817716003,-0.897019932198897
1789996817310323000,11.338322998046875,-0.050316173987183715,-9.765743989115952,-0.893355637537688
1789996817320394000,11.34839404296875,-0.04501548289633356,-9.766357737100124,-0.886910114660114
1789996817330465000,11.358465087890625,-0.04018898518849164,-9.767171391570567,-0.8781229970924556
1789996817340536000,11.3685361328125,-0.03111537882965058,-9.767896198713778,-0.870417464216426
1789996817350607000,11.378607177734375,-0.022251755109813528,-9.768562553668021,-0.8631617939997464
1789996817360678100,11.38867822265625,-0.021546166407014244,-9.769392574751377,-0.8537528912719339
1789996817370749000,11.3987490234375,-0.01822333870230359,-9.770240716013312,-0.8440529697082936
1789996817380820000,11.408820068359375,-0.008944763235471328,-9.771294608980417,-0.8319356848046183
1789996817390891000,11.41889111328125,-0.0005018442223950842,-9.77220295599699,-0.8212406147237866
1789996817400962000,11.428962158203126,0.004888302906166063,-9.77294763688445,-0.8123090471841394
1789996817411033000,11.439033203125,0.01572718706310261,-9.773634450104833,-0.8038807529915124
1789996817421104000,11.449104248046876,0.02672388185545569,-9.774314249062538,-0.7952704532954842
1789996817431175000,11.4591748046875,0.03516372492198134,-9.77511329048574,-0.7850594404045492
1789996817441246000,11.469245849609376,0.042035594869288616,-9.77589538077414,-0.7749187893360853
1789996817451317000,11.47931689453125,0.044967981359641994,-9.77662544861436,-0.7654881862331181
1789996817461388000,11.489387939453126,0.043568983015604315,-9.777359608107805,-0.7561242916908115
1789996817471459000,11.499458984375,0.04845020658536814,-9.777910812249779,-0.7486728066410869
1789996817481530000,11.509530029296876,0.06438869374501519,-9.778254511120915,-0.7429489491015673
1789996817491601000,11.519600830078126,0.08430652373125776,-9.778716283413766,-0.7348351276855916
1789996817501672000,11.529671875,0.0993217402998358,-9.779170456922055,-0.7268534812819212
1789996817511743000,11.539742919921874,0.11288148822993971,-9.779435829859972,-0.7213081951797008
1789996817521814000,11.54981396484375,0.11860974794994107,-9.779820445263384,-0.7151384205035864
1789996817531886000,11.559885986328124,0.11067412351192905,-9.780373987492919,-0.7088207617893815
1789996817541957000,11.56995703125,0.10587116194330155,-9.780812378910184,-0.7034809351313859
1789996817552027100,11.580027099609374,0.10543367470833473,-9.781341955742239,-0.6961299147814511
1789996817562098000,11.590097900390624,0.10792940964736043,-9.782077284279465,-0.6853289731733501
1789996817572169000,11.6001689453125,0.11632676984560675,-9.782792739072441,-0.6736578976672143
1789996817582240000,11.610239990234374,0.12211792960083111,-9.78355904726982,-0.6613849107451737
1789996817592312000,11.62031201171875,0.12070977983595803,-9.78428736154437,-0.6507932279735803
1789996817602383000,11.630383056640625,0.12164517012308351,-9.784665547206997,-0.6449048275221139
1789996817612453000,11.640453125,0.12580507541466504,-9.784961315283178,-0.6395962727852166
1789996817622525200,11.650525146484375,0.12974208607003093,-9.785451729148626,-0.6312436741773039
1789996817632596000,11.660595947265625,0.1344503185599111,-9.786022807034849,-0.6213370510604233
1789996817642667000,11.6706669921875,0.13157361234612763,-9.786927062398195,-0.607552417466417
1789996817652738000,11.680738037109375,0.12739335838626137,-9.787770527485012,-0.594741122416593
1789996817662809000,11.69080908203125,0.1220076467599254,-9.788587104564904,-0.5823048712242395
1789996817672880000,11.700880126953125,0.11368269421076402,-9.789289699876308,-0.5720856750268489
1789996817682951200,11.710951171875,0.10344021760248578,-9.789936765608191,-0.562880076318793
1789996817693022000,11.72102197265625,0.09632346266615203,-9.790548175504803,-0.5534130501955747
1789996817703093000,11.731093017578125,0.09192094425773248,-9.791147310441731,-0.5434835941923782
1789996817713164000,11.7411640625,0.09554305287818424,-9.791519650885462,-0.5360768615998327
1789996817723235000,11.751235107421875,0.09689927152642049,-9.791939922124147,-0.5281092802541331
1789996817733306000,11.76130615234375,0.08676694076173007,-9.792421568161249,-0.5209065823337062
1789996817743377200,11.771377197265625,0.07288545463054906,-9.792835409659146,-0.5152210109779611
1789996817753448000,11.781447998046875,0.06369655132896732,-9.793107212337851,-0.5112410379637032
1789996817763518700,11.791518798828125,0.059531207243865354,-9.793455002862215,-0.5050375802136957
1789996817773589800,11.80158984375,0.05879356801854446,-9.793931388202308,-0.4958271226674318
1789996817783660800,11.811660888671875,0.05450497657968662,-9.794323017868399,-0.48849933706261217
1789996817793731800,11.82173193359375,0.04631041807769797,-9.794530523139239,-0.4851581734085455
1789996817803803000,11.831802978515626,0.04237865441960748,-9.794631060904264,-0.48353210657667367
1789996817813874000,11.8418740234375,0.047103938508988356,-9.794909293323755,-0.47741731349080796
1789996817823944700,11.85194482421875,0.05648738713513594,-9.795129073554277,-0.4718447375228628
1789996817834015700,11.862015625,0.059380660891230216,-9.795082896324992,-0.4724370408602059
1789996817844086800,11.872086669921876,0.05270867688059806,-9.794904032626748,-0.47694253558591004
1789996817854157800,11.88215771484375,0.052861205127765425,-9.794632229948043,-0.48247214919496323
1789996817864228900,11.892228759765626,0.05817192898886278,-9.794485514953731,-0.48483354456406086
1789996817874300000,11.9022998046875,0.06062409421422053,-9.794438753202558,-0.48546771428175267
1789996817884370700,11.91237060546875,0.058785366445779794,-9.794211958709358,-0.4902502723831683
1789996817894441700,11.922441650390626,0.05083153963079676,-9.793936064377426,-0.4966020525626838
1789996817904512800,11.9325126953125,0.04295640864179004,-9.793722713887691,-0.5015414086610078
1789996817914583800,11.942583740234374,0.04096508869410027,-9.793579506024718,-0.5045155291009694
1789996817924654800,11.95265478515625,0.04164829431844409,-9.79357424532771,-0.5045478604679927
1789996817934726000,11.962725830078124,0.03621200328234117,-9.793533913317322,-0.5057583687689156
1789996817944797000,11.972796875,0.02685431928511243,-9.793312379521131,-0.510578993858397
1789996817954867700,11.98286767578125,0.021731110502884256,-9.793234053587913,-0.5123221111986785
1789996817964938800,11.992938720703124,0.015730310601950622,-9.793214179843664,-0.5129322789862751
1789996817975009800,12.003009765625,0.005998548578342889,-9.793073894590139,-0.5158174790337682
1789996817985080800,12.013080810546874,-0.0013770032819440529,-9.792854698881506,-0.5199937418051064
1789996817995152000,12.02315185546875,-0.001819896630862786,-9.792750653985141,-0.5219518170703202
1789996818005223000,12.033222900390625,0.008236508222372504,-9.792657715004681,-0.5236307466005906
1789996818015294000,12.0432939453125,0.01636730132274679,-9.792752407550811,-0.5216723425418138
1789996818025365000,12.053364990234375,0.016030063016794157,-9.792825472787023,-0.5203176034646109
1789996818035436000,12.06343603515625,0.007680086765874875,-9.792651285263895,-0.5237495506746694
1789996818045507000,12.073507080078125,-0.0009457776092855056,-9.792511000010371,-0.5264169797856361
1789996818055578000,12.083578125,-0.0017827191264244901,-9.792581142637133,-0.525132237204723
1789996818065649000,12.09364892578125,0.005265727662856806,-9.792712075540424,-0.5226319813542067
1789996818075720000,12.103719970703125,0.00958873910701368,-9.792752992072701,-0.5218291405387222
1789996818085791000,12.113791015625,0.010668960675329435,-9.792599262815713,-0.5246669943131506
1789996818095862000,12.123862060546875,0.015649054067773976,-9.792348502925037,-0.5292188854638487
1789996818105933000,12.13393310546875,0.01771389020117931,-9.792290050736069,-0.5302149838291108
1789996818116004000,12.144004150390625,0.02374938695615856,-9.792245042550563,-0.5308236537793651
1789996818126075000,12.154074951171875,0.03196780582434731,-9.792076115724443,-0.5335094587972388
1789996818136146000,12.16414599609375,0.03597090855244314,-9.791742938247323,-0.5393414894189685
1789996818146217000,12.174217041015625,0.04149893527589738,-9.79126304577589,-0.5475648721566423
1789996818156288000,12.1842880859375,0.04950140070531051,-9.790711841633915,-0.5566763993730768
1789996818166359000,12.194359130859375,0.05567210696318652,-9.790271696650981,-0.5637815917357802
1789996818176430000,12.20443017578125,0.05595749520924873,-9.789878897941112,-0.5705551775239408
1789996818186500900,12.2145009765625,0.052472689867368895,-9.789554488292335,-0.5764230101114138
1789996818196572000,12.224572021484375,0.04996924197934568,-9.789342306846379,-0.580251957282424
1789996818206643000,12.234642822265625,0.047910021594329735,-9.789227156034112,-0.5823412211792544
1789996818216714000,12.2447138671875,0.04567686484793666,-9.788998607975245,-0.5863599918339402
1789996818226785000,12.254784912109375,0.044459607145818876,-9.788480137059093,-0.5950063126914202
1789996818236856000,12.26485595703125,0.04422538739799056,-9.788025379028916,-0.6024857086613774
1789996818246926800,12.2749267578125,0.04370447336300276,-9.787582895958423,-0.6096740127302706
1789996818256998000,12.284997802734376,0.03520553878669161,-9.787080207133293,-0.6182406194150447
1789996818267069000,12.29506884765625,0.024160107198497278,-9.786351892858743,-0.6301761180110276
1789996818277140000,12.305139892578126,0.018995129075687144,-9.785468095761537,-0.643930648727715
1789996818287211000,12.3152109375,0.020462019865540786,-9.78475205644667,-0.6546664892103523
1789996818297282000,12.325281982421876,0.02515610509905964,-9.784031340956687,-0.6652032269243151
1789996818307352800,12.335352783203126,0.028557326094002928,-9.783308871901035,-0.6756074242997914
1789996818317423900,12.345423828125,0.021743695989821572,-9.782308754947781,-0.6901840119890869
1789996818327495000,12.355494873046876,0.014421056917577516,-9.781090611329674,-0.7074375638026744
1789996818337566000,12.36556591796875,0.009683074318472063,-9.779992294698953,-0.7225183016218245
1789996818347637000,12.375636962890624,0.008114789530355482,-9.779039524018764,-0.7353213037673384
1789996818357708000,12.3857080078125,0.010512158111843745,-9.77800433575213,-0.7489319690339267
1789996818367779000,12.395779052734374,0.005324701012455625,-9.77671312689781,-0.7656679267141968
1789996818377849900,12.405849853515624,0.0017266950722099864,-9.775286308965086,-0.7836855217028409
1789996818387921000,12.4159208984375,-0.009982076673000119,-9.773996853676438,-0.7995392166558652
1789996818397992000,12.425991943359374,-0.032553905466478315,-9.772862881210445,-0.8126905938476323
1789996818408063000,12.43606298828125,-0.04640567687940784,-9.77155179861188,-0.8276538427669554
1789996818418134000,12.446134033203125,-0.048250354898022485,-9.77035703586936,-0.8415399639740586
1789996818428205000,12.456205078125,-0.05277341267988085,-9.769550395661591,-0.8505851479560136
1789996818438275800,12.46627587890625,-0.0625470342339715,-9.768654908126592,-0.8601563285734504
1789996818448347000,12.476346923828125,-0.07769986460837536,-9.767412799111009,-0.8729172451429068
1789996818458418000,12.48641796875,-0.093916684652213,-9.765815885308385,-0.8890322213806211
1789996818468489000,12.496489013671875,-0.10027539689601399,-9.764293205785751,-0.9049375003904103
1789996818478560000,12.50656005859375,-0.0965020706360694,-9.763386027812958,-0.9150784437198192
1789996818488631000,12.516631103515625,-0.09386288123889826,-9.762584063780308,-0.9238716987673192
1789996818498701800,12.526701904296875,-0.0958711431882344,-9.761586284914612,-0.934152635089308
1789996818508772900,12.53677294921875,-0.10235716247297823,-9.760391522172092,-0.945874052543193
1789996818518844000,12.546843994140625,-0.10431771282306872,-9.759421800357103,-0.9556173017919063
1789996818528915000,12.5569150390625,-0.10657913668272084,-9.758996268421411,-0.9597085896935313
1789996818538986000,12.566986083984375,-0.1113621879744809,-9.758602885189651,-0.963165525214374
1789996818549057000,12.57705712890625,-0.12049368939986452,-9.757753574883937,-0.9706381261173636
1789996818559127800,12.5871279296875,-0.12757837783065623,-9.756749366277456,-0.9797699654694646
1789996818569198800,12.59719873046875,-0.12758492630245163,-9.756046770966053,-0.9867439692005514
1789996818579270000,12.607269775390625,-0.12469537887340411,-9.755703656616806,-0.9904911198396235
1789996818589341000,12.6173408203125,-0.12382192050712182,-9.755562202319503,-0.9919931949656456
