time,seconds_elapsed,z,y,x
1789998291931022000,0.03202197265625,-0.9020843505859375,-1.143218994140625,-0.05242919921875
1789998291941093000,0.042093017578125,-0.2118377685546875,-0.979217529296875,-0.2037811279296875
1789998291951164200,0.0521640625,0.1602630615234375,-0.936798095703125,-0.1032867431640625
1789998291961235000,0.06223486328125,-0.37860107421875,-0.766510009765625,0.152984619140625
1789998291971306000,0.072305908203125,-1.115325927734375,-0.8876800537109375,0.1642303466796875
1789998291981377000,0.082376953125,-1.129241943359375,-1.2111053466796875,0.0548248291015625
1789998291991448000,0.092447998046875,-0.12579345703125,-1.3371734619140625,0.0779266357421875
1789998292001519000,0.10251904296875,0.3510284423828125,-1.1002960205078125,0.300445556640625
1789998292011590100,0.112590087890625,-0.1364898681640625,-0.80267333984375,0.0682373046875
1789998292021661000,0.122660888671875,-0.9393310546875,-0.991973876953125,-0.249298095703125
1789998292031732000,0.13273193359375,-0.79510498046875,-1.4093017578125,-0.2017364501953125
1789998292041802200,0.14280224609375,-0.3690032958984375,-1.6046142578125,0.1713409423828125
1789998292051873300,0.152873291015625,-0.515045166015625,-1.3480682373046875,0.2074127197265625
1789998292061944300,0.1629443359375,-0.8201141357421875,-0.9212646484375,-0.19488525390625
1789998292072015000,0.17301513671875,-0.5025634765625,-1.0260467529296875,-0.3979034423828125
1789998292082086100,0.183086181640625,0.0584564208984375,-1.2994537353515625,-0.2559967041015625
1789998292092157200,0.1931572265625,-0.1388397216796875,-1.298248291015625,-0.1866607666015625
1789998292102228200,0.203228271484375,-1.0409393310546875,-1.2135162353515625,-0.2611846923828125
1789998292112299300,0.21329931640625,-1.280853271484375,-1.2503662109375,-0.3408660888671875
1789998292122370300,0.223370361328125,-0.8051910400390625,-1.1584930419921875,-0.275390625
1789998292132441000,0.233441162109375,0.2992095947265625,-0.940460205078125,-0.18988037109375
1789998292142512000,0.24351220703125,0.41326904296875,-0.752593994140625,-0.1443023681640625
1789998292152583200,0.253583251953125,0.0136260986328125,-0.6545562744140625,-0.2960357666015625
1789998292162653200,0.263653076171875,-0.1228485107421875,-0.57684326171875,-0.32147216796875
1789998292172724200,0.27372412109375,-0.6562957763671875,-0.7128143310546875,-0.00982666015625
1789998292182795000,0.283794921875,-1.0036773681640625,-1.1196746826171875,0.18267822265625
1789998292192866000,0.293865966796875,-0.575164794921875,-0.9704132080078125,-0.03790283203125
1789998292202937000,0.30393701171875,-0.3021392822265625,-0.4712371826171875,-0.3237457275390625
1789998292213008100,0.314008056640625,-0.2466888427734375,-0.3365325927734375,-0.3958282470703125
1789998292223079200,0.3240791015625,-0.3765106201171875,-0.609588623046875,-0.14013671875
1789998292233150200,0.334150146484375,-0.0811920166015625,-0.7682952880859375,-0.0399017333984375
1789998292243221000,0.344220947265625,-0.0079498291015625,-0.5562286376953125,0.0271453857421875
1789998292253292000,0.3542919921875,-0.2529296875,-0.684112548828125,-0.08367919921875
1789998292263363000,0.364363037109375,0.588104248046875,-1.2274932861328125,-0.1338653564453125
1789998292273434000,0.37443408203125,1.3756561279296875,-1.4622039794921875,-0.154693603515625
1789998292283504000,0.384504150390625,0.4266204833984375,-0.9885406494140625,-0.1279144287109375
1789998292293575200,0.3945751953125,-0.9937591552734375,-0.9774322509765625,-0.1622161865234375
1789998292303646200,0.404646240234375,-0.76544189453125,-1.0426177978515625,0.04986572265625
1789998292313717200,0.41471728515625,0.300445556640625,-0.9823455810546875,0.329254150390625
1789998292323788300,0.424788330078125,1.025787353515625,-1.0359649658203125,0.5652008056640625
1789998292333859300,0.434859375,0.6593475341796875,-1.0449371337890625,0.59185791015625
1789998292343930400,0.444930419921875,0.4323577880859375,-1.065399169921875,0.1122589111328125
1789998292354001200,0.455001220703125,-0.6117706298828125,-1.3102264404296875,0.108367919921875
1789998292364072200,0.465072265625,-1.26763916015625,-1.9180908203125,0.1766815185546875
1789998292374143200,0.475143310546875,-0.2933502197265625,-1.8899993896484375,0.1665496826171875
1789998292384214300,0.48521435546875,0.44512939453125,-1.5272674560546875,0.17352294921875
1789998292394285300,0.495285400390625,0.6549530029296875,-1.09100341796875,0.05792236328125
1789998292404355000,0.50535498046875,-0.4158935546875,-0.94464111328125,-0.0440826416015625
1789998292414426000,0.515426025390625,0.311920166015625,-1.3293304443359375,-0.1137542724609375
1789998292424497200,0.5254970703125,0.006561279296875,-1.25732421875,0.255462646484375
1789998292434568200,0.535568115234375,-1.6236114501953125,-0.908416748046875,0.1048583984375
1789998292444639200,0.54563916015625,-1.1020355224609375,-1.251617431640625,-0.29119873046875
1789998292454710300,0.555710205078125,0.0625152587890625,-1.47113037109375,0.0352783203125
1789998292464781000,0.565781005859375,-1.026580810546875,-0.738922119140625,0.23150634765625
1789998292474852000,0.57585205078125,-0.6609039306640625,-0.7200775146484375,-0.1504669189453125
1789998292484923100,0.585923095703125,1.4183502197265625,-0.9866790771484375,-0.0758819580078125
1789998292494994200,0.595994140625,1.1204833984375,-0.1364593505859375,0.294647216796875
1789998292505065200,0.606065185546875,-0.563232421875,0.2258148193359375,-0.04229736328125
1789998292515136300,0.61613623046875,-1.457183837890625,-0.610107421875,-0.2383575439453125
1789998292525206000,0.6262060546875,-1.115631103515625,-0.9916534423828125,-0.150543212890625
1789998292535277000,0.636277099609375,-0.5037078857421875,-1.0772247314453125,-0.0789031982421875
1789998292545348000,0.64634814453125,-0.5857391357421875,-1.2780914306640625,-0.0125579833984375
1789998292555419100,0.656419189453125,-1.0940704345703125,-0.886871337890625,-0.0295867919921875
1789998292565490200,0.666490234375,-0.1742401123046875,-0.4189605712890625,-0.1961822509765625
1789998292575561200,0.676561279296875,0.5286102294921875,-0.7638397216796875,-0.1321258544921875
1789998292585632300,0.68663232421875,-0.58447265625,-1.032501220703125,0.3136444091796875
1789998292595703300,0.696703369140625,-1.7548828125,-0.881011962890625,0.036041259765625
1789998292605774000,0.706774169921875,-1.2240753173828125,-1.0328369140625,-0.697723388671875
1789998292615845000,0.71684521484375,-0.4326934814453125,-1.349151611328125,-0.39886474609375
1789998292625916200,0.726916259765625,0.07373046875,-1.0152587890625,0.1345367431640625
1789998292635986400,0.736986328125,0.3825836181640625,-0.662689208984375,-0.2382659912109375
1789998292646057500,0.747057373046875,0.3473968505859375,-0.783721923828125,-0.4254302978515625
1789998292656128300,0.757128173828125,-0.709197998046875,-1.0879974365234375,-0.261566162109375
1789998292666199300,0.76719921875,-0.9585723876953125,-1.3033447265625,-0.2243804931640625
1789998292676270300,0.777270263671875,-0.4005279541015625,-1.467529296875,-0.1295166015625
1789998292686341400,0.78734130859375,0.024505615234375,-1.045257568359375,-0.013946533203125
1789998292696412400,0.797412353515625,0.25506591796875,-0.7741546630859375,-0.076263427734375
1789998292706483500,0.8074833984375,1.092529296875,-0.788299560546875,-0.3820648193359375
1789998292716554200,0.81755419921875,0.34320068359375,-0.96142578125,-0.05682373046875
1789998292726625300,0.827625244140625,-1.2957000732421875,-1.3640594482421875,0.0726470947265625
1789998292736696300,0.8376962890625,-0.99163818359375,-1.738250732421875,-0.2789459228515625
1789998292746766300,0.847766357421875,0.3954620361328125,-1.6889801025390625,-0.490997314453125
1789998292756837400,0.85783740234375,0.0346527099609375,-0.767364501953125,-0.29205322265625
1789998292766908200,0.867908203125,-0.3055419921875,-0.60052490234375,-0.7320709228515625
1789998292776979200,0.877979248046875,-0.0043792724609375,-0.6910400390625,-0.0714263916015625
1789998292787050200,0.88805029296875,0.046661376953125,-0.4896087646484375,0.1581878662109375
1789998292797121300,0.898121337890625,0.328887939453125,-0.6071014404296875,0.0705413818359375
1789998292807192300,0.9081923828125,0.0658721923828125,-0.5408477783203125,0.132171630859375
1789998292817263400,0.918263427734375,-0.24505615234375,-0.6260528564453125,-0.0124969482421875
1789998292827334100,0.928334228515625,-0.046356201171875,-0.7587432861328125,-0.175872802734375
1789998292837405200,0.9384052734375,0.084136962890625,-1.074920654296875,-0.09747314453125
1789998292847476200,0.948476318359375,-0.7555999755859375,-1.1392974853515625,0.193206787109375
1789998292857547300,0.95854736328125,-0.526702880859375,-1.0033721923828125,-0.0101165771484375
1789998292867617300,0.9686171875,0.003265380859375,-1.164520263671875,-0.0049591064453125
1789998292877688000,0.97868798828125,0.139373779296875,-1.341339111328125,0.1814727783203125
1789998292887759000,0.988759033203125,0.0115203857421875,-1.312713623046875,0.1003875732421875
1789998292897830100,0.998830078125,-0.32757568359375,-1.0480804443359375,0.065521240234375
1789998292907901200,1.008901123046875,-1.0996246337890625,-0.939361572265625,0.1457672119140625
1789998292917972200,1.01897216796875,-1.298309326171875,-0.9351654052734375,0.179931640625
1789998292928043300,1.029043212890625,-0.01580810546875,-1.077056884765625,0.09771728515625
1789998292938114000,1.039114013671875,0.1399993896484375,-1.2159576416015625,0.24365234375
1789998292948185000,1.04918505859375,-0.5721435546875,-1.041900634765625,0.150543212890625
1789998292958256000,1.059256103515625,-0.8376312255859375,-1.177490234375,-0.2613677978515625
1789998292968327200,1.0693271484375,-0.92010498046875,-1.386322021484375,-0.25323486328125
1789998292978398200,1.079398193359375,-0.9278564453125,-1.2918548583984375,-0.078155517578125
1789998292988468200,1.08946826171875,0.4109954833984375,-0.95758056640625,-0.23663330078125
1789998292998539300,1.099539306640625,1.937530517578125,-0.6836395263671875,-0.2509002685546875
1789998293008610300,1.1096103515625,0.942962646484375,-0.4022369384765625,-0.189178466796875
1789998293018681300,1.119681396484375,-0.7902984619140625,-0.567535400390625,-0.1587066650390625
1789998293028752400,1.12975244140625,-0.4676055908203125,-1.3897705078125,-0.37298583984375
1789998293038823400,1.139823486328125,-0.6022186279296875,-1.7415924072265625,-0.187408447265625
1789998293048894200,1.149894287109375,-1.203216552734375,-1.2747344970703125,0.1746063232421875
1789998293058965200,1.15996533203125,-0.4340972900390625,-0.7439422607421875,0.0704345703125
1789998293069036300,1.170036376953125,1.136962890625,-0.45166015625,-0.24444580078125
1789998293079107300,1.180107421875,0.3972625732421875,-0.0363922119140625,-0.152069091796875
1789998293089178400,1.190178466796875,-0.35174560546875,-0.266937255859375,-0.0089263916015625
1789998293099248000,1.200248046875,-0.497589111328125,-0.64825439453125,-0.18133544921875
1789998293109319200,1.210319091796875,-0.101226806640625,-0.9693145751953125,-0.3567962646484375
1789998293119390200,1.22039013671875,0.38427734375,-1.0432586669921875,-0.3612060546875
1789998293129461200,1.230461181640625,-0.7539825439453125,-1.1341094970703125,-0.1575775146484375
1789998293139532300,1.2405322265625,-0.645263671875,-0.7458648681640625,-0.244232177734375
1789998293149603300,1.250603271484375,0.47686767578125,-0.784454345703125,-0.3795623779296875
1789998293159674000,1.260674072265625,-0.5900115966796875,-1.0989837646484375,-0.024810791015625
1789998293169745200,1.2707451171875,-1.573760986328125,-1.309783935546875,0.1720428466796875
1789998293179816200,1.280816162109375,-0.975250244140625,-1.45172119140625,-0.138641357421875
1789998293189887200,1.29088720703125,0.350860595703125,-1.3818817138671875,0.039398193359375
1789998293199958300,1.300958251953125,0.468719482421875,-1.0481109619140625,0.2711334228515625
1789998293210028300,1.3110283203125,-1.1844482421875,-0.6325531005859375,0.1196136474609375
1789998293220099300,1.321099365234375,-1.35906982421875,-1.056976318359375,-0.0216827392578125
1789998293230170400,1.33117041015625,-0.68988037109375,-1.498565673828125,0.1130523681640625
1789998293240241400,1.341241455078125,0.7641448974609375,-1.708587646484375,0.2774658203125
1789998293250312400,1.3513125,0.5378570556640625,-1.0242919921875,0.1953887939453125
1789998293260383500,1.361383544921875,-0.48089599609375,-0.2978515625,-0.3183135986328125
1789998293270454300,1.371454345703125,-0.8306884765625,-0.7197265625,-0.363616943359375
1789998293280525300,1.381525390625,-0.723236083984375,-1.441650390625,-0.063629150390625
1789998293290596400,1.391596435546875,-0.5602569580078125,-1.6431427001953125,-0.1609954833984375
1789998293300667400,1.40166748046875,0.1353302001953125,-0.9733734130859375,-0.346466064453125
1789998293310738400,1.411738525390625,0.7921600341796875,-0.7358245849609375,-0.2064208984375
1789998293320808200,1.42180810546875,0.6078338623046875,-0.6991119384765625,0.0562896728515625
1789998293330879200,1.431879150390625,-0.6636962890625,-0.8074951171875,0.2440948486328125
1789998293340950300,1.4419501953125,-0.545013427734375,-0.92340087890625,-0.018463134765625
1789998293351021300,1.452021240234375,0.0636444091796875,-0.81298828125,-0.313507080078125
1789998293361092400,1.46209228515625,-0.609527587890625,-0.3838653564453125,-0.3570404052734375
1789998293371163400,1.472163330078125,-0.5697174072265625,-0.480133056640625,-0.1142730712890625
1789998293381234200,1.482234130859375,-0.4404449462890625,-0.8453216552734375,-0.1011505126953125
1789998293391305200,1.49230517578125,-1.0567169189453125,-0.7130126953125,-0.122650146484375
1789998293401376300,1.502376220703125,-0.054473876953125,-0.7431488037109375,0.0836944580078125
1789998293411447300,1.512447265625,1.5012664794921875,-1.3863983154296875,0.137481689453125
1789998293421517300,1.522517333984375,0.662506103515625,-1.2437591552734375,0.0894622802734375
1789998293431588000,1.532588134765625,-0.830352783203125,-0.2342529296875,-0.0767364501953125
1789998293441659100,1.5426591796875,-0.8587799072265625,-0.31683349609375,-0.1727447509765625
1789998293451730200,1.552730224609375,0.0528717041015625,-1.31683349609375,0.306060791015625
1789998293461801200,1.56280126953125,-0.060546875,-1.41070556640625,0.432525634765625
1789998293471872300,1.572872314453125,0.152618408203125,-1.349884033203125,0.118438720703125
1789998293481943300,1.582943359375,0.214691162109375,-1.295318603515625,0.00927734375
1789998293492014000,1.59301416015625,-0.987945556640625,-1.1226654052734375,0.0628662109375
1789998293502085000,1.603085205078125,-1.1934814453125,-0.810455322265625,0.228363037109375
1789998293512156200,1.61315625,-0.4609832763671875,-0.726318359375,0.379547119140625
1789998293522227200,1.623227294921875,-0.1151580810546875,-1.096405029296875,0.5207061767578125
1789998293532298200,1.63329833984375,-1.0323333740234375,-1.318878173828125,0.52337646484375
1789998293542368300,1.6433681640625,-1.2713775634765625,-0.8955230712890625,0.3044586181640625
1789998293552439600,1.653439453125,0.1705780029296875,-1.0289459228515625,0.2160797119140625
1789998293562510600,1.663510498046875,1.5894012451171875,-1.134307861328125,0.114013671875
1789998293572581600,1.67358154296875,1.294586181640625,-0.99822998046875,0.11065673828125
1789998293582652700,1.683652587890625,-1.0556640625,-0.6062164306640625,-0.09344482421875
1789998293592723500,1.693723388671875,-1.309173583984375,-0.91522216796875,-0.156829833984375
1789998293602794500,1.70379443359375,-0.11016845703125,-1.66192626953125,-0.1069488525390625
1789998293612865500,1.713865478515625,0.7076568603515625,-1.6968231201171875,0.213897705078125
1789998293622936600,1.7239365234375,0.1427001953125,-0.8589935302734375,0.289642333984375
1789998293633007600,1.734007568359375,-0.4421844482421875,-0.3469696044921875,0.149200439453125
1789998293643077400,1.744077392578125,-0.9311981201171875,-0.6921539306640625,-0.120697021484375
1789998293653148400,1.7541484375,-0.917327880859375,-1.2923126220703125,0.1844329833984375
1789998293663219500,1.764219482421875,-0.098175048828125,-1.0427703857421875,0.13946533203125
1789998293673290500,1.77429052734375,0.5337371826171875,-0.8127593994140625,-0.042724609375
1789998293683361500,1.784361572265625,-0.6575927734375,-0.4320068359375,-0.0814361572265625
1789998293693432600,1.7944326171875,-0.7116851806640625,-0.5369415283203125,-0.2780609130859375
1789998293703503400,1.80450341796875,0.0035552978515625,-0.7490234375,-0.3431396484375
1789998293713574400,1.814574462890625,-0.1390838623046875,-1.0994415283203125,-0.2061004638671875
1789998293723645400,1.8246455078125,-0.523193359375,-0.846160888671875,-0.1133270263671875
1789998293733716500,1.834716552734375,-0.4204559326171875,-0.59454345703125,-0.22381591796875
1789998293743786500,1.844786376953125,-0.1508026123046875,-0.9491119384765625,-0.2698974609375
1789998293753857300,1.854857177734375,-0.051513671875,-1.450836181640625,-0.1257781982421875
1789998293763928300,1.86492822265625,-0.4684600830078125,-1.067535400390625,0.0634613037109375
1789998293773999400,1.874999267578125,-1.2238616943359375,-0.919281005859375,0.089691162109375
1789998293784070400,1.8850703125,-0.998138427734375,-1.445220947265625,-0.1119842529296875
1789998293794141400,1.895141357421875,0.182220458984375,-1.3830108642578125,-0.09918212890625
1789998293804212500,1.90521240234375,0.444488525390625,-0.6957855224609375,0.1705169677734375
1789998293814283300,1.915283203125,0.0127716064453125,-0.6700439453125,0.3024749755859375
1789998293824354300,1.925354248046875,-0.206573486328125,-0.9752197265625,0.142364501953125
1789998293834425300,1.93542529296875,0.0612640380859375,-0.950653076171875,0.0103759765625
1789998293844496400,1.945496337890625,-0.6682281494140625,-0.9076690673828125,0.1058807373046875
1789998293854566700,1.955566650390625,-0.2630767822265625,-1.210693359375,-0.054168701171875
1789998293864637400,1.965637451171875,0.2240447998046875,-1.236083984375,-0.0987396240234375
1789998293874708500,1.97570849609375,0.6122589111328125,-0.8495941162109375,-0.17828369140625
1789998293884779500,1.985779541015625,0.643218994140625,-0.7940521240234375,-0.331787109375
1789998293894850600,1.9958505859375,-0.477996826171875,-0.9146728515625,-0.2241058349609375
1789998293904921600,2.005921630859375,-1.275421142578125,-1.3076019287109375,-0.1763763427734375
1789998293914992600,2.01599267578125,-0.7889862060546875,-1.61578369140625,-0.265594482421875
1789998293925063400,2.0260634765625,-1.1042938232421875,-1.32977294921875,-0.22991943359375
1789998293935134500,2.036134521484375,0.1145782470703125,-1.1724853515625,-0.385406494140625
1789998293945205500,2.04620556640625,0.82989501953125,-0.7394561767578125,-0.29168701171875
1789998293955276500,2.056276611328125,0.520050048828125,-0.1682586669921875,-0.1154327392578125
1789998293965346600,2.0663466796875,0.0236358642578125,-0.37530517578125,0.05828857421875
1789998293975417300,2.076417236328125,-1.037841796875,-0.85479736328125,0.2295684814453125
1789998293985488400,2.08648828125,-0.97271728515625,-1.374176025390625,0.000244140625
1789998293995559400,2.096559326171875,0.173736572265625,-1.4815216064453125,-0.0843353271484375
1789998294005630500,2.10663037109375,0.008880615234375,-0.884490966796875,0.1107330322265625
1789998294015701500,2.116701416015625,-0.308013916015625,-0.7176971435546875,0.088592529296875
1789998294025772500,2.1267724609375,0.11846923828125,-0.8751220703125,-0.0182952880859375
1789998294035843300,2.13684326171875,0.742156982421875,-0.92156982421875,0.0495147705078125
1789998294045914400,2.146914306640625,-0.481781005859375,-1.05517578125,0.211456298828125
1789998294055985400,2.1569853515625,-0.855804443359375,-1.5805206298828125,0.0111541748046875
1789998294066055400,2.167055419921875,0.4731597900390625,-1.50897216796875,-0.2052459716796875
1789998294076126500,2.17712646484375,-0.0073394775390625,-0.5474700927734375,0.0636749267578125
1789998294086197500,2.187197509765625,-0.5973358154296875,-0.4903564453125,0.1839752197265625
1789998294096268300,2.197268310546875,-0.5677642822265625,-0.7880859375,0.06976318359375
1789998294106339300,2.20733935546875,-0.1291961669921875,-0.9007568359375,-0.02728271484375
1789998294116410400,2.217410400390625,-0.5831756591796875,-0.9625244140625,-0.0842132568359375
1789998294126481400,2.2274814453125,-0.54022216796875,-1.138885498046875,-0.1542510986328125
1789998294136552400,2.237552490234375,0.2704010009765625,-0.9246368408203125,-0.2378387451171875
1789998294146623500,2.24762353515625,-0.109893798828125,-0.5124969482421875,-0.0539703369140625
1789998294156693500,2.257693603515625,-0.53387451171875,-0.935546875,-0.034576416015625
1789998294166764500,2.2677646484375,-0.1511993408203125,-1.33160400390625,-0.1776580810546875
1789998294176835600,2.277835693359375,-0.26385498046875,-1.222442626953125,-0.1721649169921875
1789998294186906600,2.28790673828125,-0.362579345703125,-1.159423828125,-0.12554931640625
1789998294196977400,2.297977294921875,-0.068817138671875,-1.17071533203125,-0.0901336669921875
1789998294207048400,2.30804833984375,-0.3461456298828125,-0.904815673828125,0.011474609375
1789998294217119500,2.318119384765625,-0.61395263671875,-0.8306732177734375,0.048065185546875
1789998294227190500,2.3281904296875,-0.787445068359375,-0.92352294921875,0.0510406494140625
1789998294237261600,2.338261474609375,0.1311798095703125,-1.0547027587890625,-0.023223876953125
1789998294247332600,2.34833251953125,0.001739501953125,-0.9404754638671875,0.005279541015625
1789998294257403400,2.3584033203125,-0.50994873046875,-0.8700714111328125,0.103271484375
1789998294267473400,2.368473388671875,0.059356689453125,-1.03326416015625,0.08074951171875
1789998294277544400,2.37854443359375,-0.39288330078125,-1.17510986328125,0.1566619873046875
1789998294287615500,2.388615478515625,-0.7264404296875,-0.9488983154296875,0.141326904296875
1789998294297686500,2.3986865234375,0.1751861572265625,-0.91522216796875,-0.026336669921875
1789998294307757300,2.40875732421875,0.6356201171875,-0.8277130126953125,-0.0556793212890625
1789998294317828400,2.418828369140625,-0.3311004638671875,-0.7342987060546875,-0.0843963623046875
1789998294327899400,2.4288994140625,-0.8408966064453125,-1.1197662353515625,-0.063751220703125
1789998294337970400,2.438970458984375,-0.66107177734375,-1.0575103759765625,-0.0156097412109375
1789998294348041500,2.44904150390625,-0.3844451904296875,-1.033935546875,0.0109100341796875
1789998294358112500,2.459112548828125,0.097625732421875,-0.9371337890625,-0.1063232421875
1789998294368182500,2.4691826171875,0.87255859375,-0.934295654296875,0.0316009521484375
1789998294378253600,2.479253662109375,-0.137054443359375,-0.5592498779296875,0.1835784912109375
1789998294388324600,2.48932470703125,-0.9925537109375,-0.8765411376953125,-0.1053466796875
1789998294398395600,2.499395751953125,-0.567596435546875,-1.1204376220703125,-0.2133941650390625
1789998294408466700,2.509466796875,0.0477142333984375,-0.981719970703125,-0.0340576171875
1789998294418537500,2.519537353515625,-0.7108306884765625,-0.86895751953125,-0.0018463134765625
1789998294428608500,2.5296083984375,-0.4501190185546875,-1.0686798095703125,-0.253631591796875
1789998294438679600,2.539679443359375,0.829681396484375,-0.9600830078125,-0.32098388671875
1789998294448750600,2.54975048828125,0.742584228515625,-0.8987579345703125,-0.1434326171875
1789998294458821600,2.559821533203125,-0.79913330078125,-0.826263427734375,0.00885009765625
1789998294468891400,2.569891357421875,-1.0656280517578125,-0.889556884765625,-0.0172576904296875
1789998294478962400,2.57996240234375,-0.0503082275390625,-1.3131866455078125,0.02178955078125
1789998294489033500,2.590033447265625,-0.5340423583984375,-1.3029632568359375,0.095458984375
1789998294499104500,2.6001044921875,-0.508056640625,-1.2176513671875,0.0377349853515625
1789998294509175600,2.610175537109375,0.4951171875,-0.7678985595703125,-0.0562286376953125
1789998294519246600,2.62024658203125,0.193115234375,-0.5573272705078125,-0.0669708251953125
1789998294529317400,2.6303173828125,-0.531768798828125,-1.0013427734375,0.0643463134765625
1789998294539388400,2.640388427734375,-0.459503173828125,-1.333099365234375,0.05865478515625
1789998294549459500,2.65045947265625,-0.9619140625,-1.4187469482421875,-0.0410003662109375
1789998294559529700,2.66052978515625,-1.66412353515625,-1.3065948486328125,0.0418243408203125
1789998294569599700,2.670599853515625,-0.1290283203125,-1.1921539306640625,-0.0704803466796875
1789998294579670800,2.6806708984375,1.75732421875,-0.7834014892578125,-0.28265380859375
1789998294589741800,2.690741943359375,0.577606201171875,0.0530853271484375,-0.2246856689453125
1789998294599812900,2.700812744140625,-0.4954986572265625,-0.5980377197265625,0.156494140625
1789998294609884000,2.7108837890625,-0.5561370849609375,-1.2466278076171875,0.1178741455078125
1789998294619955000,2.720954833984375,-1.0655975341796875,-1.4257354736328125,-0.2217254638671875
1789998294630026000,2.73102587890625,-1.2098846435546875,-1.5967254638671875,-0.2999114990234375
1789998294640097000,2.741096923828125,0.06463623046875,-1.4000244140625,-0.266876220703125
1789998294650168000,2.75116796875,1.041107177734375,-0.56622314453125,-0.412445068359375
1789998294660237800,2.76123779296875,0.1824951171875,-0.4866180419921875,-0.1568756103515625
1789998294670308900,2.771308837890625,-0.0768890380859375,-0.846710205078125,0.1488800048828125
1789998294680380000,2.7813798828125,-0.047210693359375,-0.8750457763671875,-0.00054931640625
1789998294690451000,2.791450927734375,-0.420257568359375,-0.958984375,-0.1750946044921875
1789998294700522000,2.80152197265625,-0.683990478515625,-1.29302978515625,-0.2362213134765625
1789998294710592800,2.8115927734375,-0.7736358642578125,-1.007965087890625,-0.0218658447265625
1789998294720663800,2.821663818359375,0.0787506103515625,-0.7122650146484375,-0.070465087890625
1789998294730734800,2.83173486328125,-0.2194366455078125,-0.9943084716796875,-0.082489013671875
1789998294740806000,2.841805908203125,-0.474273681640625,-1.0025482177734375,-0.06951904296875
1789998294750877000,2.851876953125,-0.1136016845703125,-0.9174957275390625,-0.152587890625
1789998294760946700,2.86194677734375,0.0069732666015625,-1.07196044921875,-0.1600799560546875
1789998294771017700,2.872017822265625,-0.47119140625,-1.1562042236328125,-0.0408782958984375
1789998294781088800,2.8820888671875,-0.3359222412109375,-0.6502227783203125,0.046356201171875
1789998294791159800,2.892159912109375,0.0656585693359375,-0.6819915771484375,0.02288818359375
1789998294801230800,2.90223095703125,-0.345855712890625,-1.13360595703125,0.0577545166015625
1789998294811302000,2.912302001953125,-0.6626739501953125,-1.281036376953125,-0.0190277099609375
1789998294821372700,2.92237255859375,0.0575408935546875,-1.20770263671875,-0.040283203125
1789998294831443700,2.932443603515625,-0.0973968505859375,-1.0580596923828125,-0.0269317626953125
1789998294841514800,2.9425146484375,-0.48583984375,-0.8777313232421875,-0.02862548828125
1789998294851585800,2.952585693359375,0.230377197265625,-0.7842559814453125,-0.0222625732421875
1789998294861656000,2.962656005859375,0.0360565185546875,-0.4539947509765625,0.11224365234375
1789998294871726800,2.972726806640625,-0.09210205078125,-0.8065032958984375,0.112213134765625
1789998294881798000,2.9827978515625,-0.2897491455078125,-1.3477935791015625,0.05450439453125
1789998294891869000,2.992868896484375,-0.8672943115234375,-1.2521209716796875,0.040771484375
1789998294901940000,3.00293994140625,-1.354339599609375,-1.211517333984375,-0.0418701171875
1789998294912011000,3.013010986328125,-0.7160186767578125,-1.32177734375,-0.1540069580078125
1789998294922082000,3.02308203125,0.7421112060546875,-1.1875152587890625,-0.30047607421875
1789998294932152800,3.03315283203125,0.3689422607421875,-0.2994384765625,-0.0578460693359375
1789998294942224000,3.043223876953125,-0.36639404296875,-0.5047760009765625,0.15771484375
1789998294952294000,3.0532939453125,-0.905548095703125,-0.9475250244140625,0.0711669921875
1789998294962365000,3.063364990234375,-0.6956787109375,-1.1924896240234375,-0.046051025390625
1789998294972436000,3.07343603515625,0.0154876708984375,-1.1854705810546875,-0.046630859375
1789998294982506800,3.0835068359375,0.1944580078125,-0.963714599609375,-0.111907958984375
1789998294992577800,3.093577880859375,0.341766357421875,-0.6706695556640625,-0.2154388427734375
1789998295002648800,3.10364892578125,-0.042083740234375,-0.6780242919921875,-0.1032257080078125
1789998295012719900,3.113719970703125,-0.8030242919921875,-1.1339874267578125,0.1133270263671875
1789998295022791000,3.123791015625,-1.647186279296875,-1.2892608642578125,0.0348968505859375
1789998295032862000,3.133862060546875,-0.622802734375,-1.427703857421875,-0.0089111328125
1789998295042932700,3.1439326171875,0.76593017578125,-1.0716400146484375,-0.1795806884765625
1789998295053002800,3.154002685546875,0.741241455078125,-0.6221160888671875,-0.2729034423828125
1789998295063073800,3.16407373046875,0.2797088623046875,-0.49908447265625,-0.191497802734375
1789998295073144800,3.174144775390625,-0.539398193359375,-0.6668548583984375,-0.1083984375
1789998295083216000,3.1842158203125,-0.2841033935546875,-1.1887969970703125,-0.2110595703125
1789998295093286700,3.19428662109375,-0.4366455078125,-1.220458984375,-0.0985107421875
1789998295103357700,3.204357666015625,-0.529998779296875,-1.153564453125,-0.009063720703125
1789998295113428700,3.2144287109375,-0.1174163818359375,-0.8306427001953125,-0.235870361328125
1789998295123499800,3.224499755859375,0.173797607421875,-0.6423797607421875,-0.1281585693359375
1789998295133570800,3.23457080078125,-0.5790863037109375,-0.6995086669921875,0.035430908203125
1789998295143640800,3.244640869140625,-0.98529052734375,-1.217559814453125,0.068878173828125
1789998295153711900,3.2547119140625,-0.06597900390625,-1.2303466796875,-0.0631103515625
1789998295163783000,3.264782958984375,0.9998016357421875,-1.1499481201171875,-0.1144256591796875
1789998295173854000,3.27485400390625,0.0216522216796875,-1.1030120849609375,-0.0985565185546875
1789998295183925000,3.284925048828125,-1.02703857421875,-0.806396484375,0.0522003173828125
1789998295193996000,3.29499609375,-0.0941314697265625,-0.8673858642578125,-0.0910491943359375
1789998295204066800,3.30506689453125,-0.05859375,-0.93182373046875,-0.171630859375
1789998295214137900,3.315137939453125,-0.5241546630859375,-1.1705169677734375,-0.172698974609375
1789998295224209000,3.325208984375,-0.223724365234375,-1.107208251953125,-0.16497802734375
1789998295234280000,3.335280029296875,0.10772705078125,-0.9464569091796875,-0.1752471923828125
1789998295244350000,3.345349853515625,-0.394317626953125,-0.91375732421875,-0.19940185546875
1789998295254420700,3.355420654296875,-0.6438751220703125,-0.944610595703125,-0.065765380859375
1789998295264491800,3.36549169921875,0.3726806640625,-0.8658294677734375,-0.1269378662109375
1789998295274562800,3.375562744140625,0.37158203125,-0.9128265380859375,-0.25396728515625
1789998295284633900,3.3856337890625,-0.2929840087890625,-1.0998382568359375,-0.1588592529296875
1789998295294705000,3.395704833984375,-0.137969970703125,-1.0097198486328125,-0.1589202880859375
1789998295304776000,3.40577587890625,0.01788330078125,-0.95965576171875,-0.305084228515625
1789998295314846700,3.4158466796875,-0.9981689453125,-0.855621337890625,-0.207275390625
1789998295324917800,3.425917724609375,-0.910888671875,-0.760223388671875,-0.0472412109375
1789998295334987800,3.43598779296875,0.53875732421875,-0.95660400390625,-0.1126861572265625
1789998295345058800,3.446058837890625,0.1172332763671875,-0.9858245849609375,-0.097320556640625
1789998295355129900,3.4561298828125,-0.9083404541015625,-0.976837158203125,0.040802001953125
1789998295365200600,3.46620068359375,-0.5703582763671875,-0.935577392578125,-0.0224456787109375
1789998295375271700,3.476271728515625,-0.2587738037109375,-1.1138916015625,0.0869140625
1789998295385342700,3.4863427734375,-0.486297607421875,-1.1259307861328125,0.1855926513671875
1789998295395413800,3.496413818359375,-0.152252197265625,-0.8896026611328125,0.004150390625
1789998295405484800,3.50648486328125,0.8551025390625,-0.850189208984375,0.084228515625
1789998295415555800,3.516555908203125,-0.04022216796875,-0.6551666259765625,0.2244720458984375
1789998295425625900,3.5266259765625,-1.09954833984375,-0.775604248046875,0.19482421875
1789998295435697000,3.53669677734375,-0.3511962890625,-1.039642333984375,0.1600189208984375
1789998295445768000,3.546767822265625,-0.04742431640625,-1.1439056396484375,0.1419219970703125
1789998295455839000,3.5568388671875,-0.547698974609375,-0.944915771484375,0.2422637939453125
1789998295465910000,3.566909912109375,-0.207916259765625,-0.773223876953125,0.186187744140625
1789998295475980800,3.576980712890625,0.7753448486328125,-0.7682647705078125,0.2142791748046875
1789998295486051800,3.5870517578125,-0.4246826171875,-0.819366455078125,0.33380126953125
1789998295496123000,3.597122802734375,-1.2484130859375,-1.135711669921875,0.306915283203125
1789998295506194000,3.60719384765625,-0.537322998046875,-1.19775390625,0.171875
1789998295516264000,3.617263916015625,-0.6442413330078125,-1.2255859375,0.0976715087890625
1789998295526334700,3.627334716796875,-0.51031494140625,-1.0634307861328125,0.00701904296875
1789998295536405800,3.63740576171875,0.3014678955078125,-0.762725830078125,-0.1940155029296875
1789998295546476800,3.647476806640625,0.303558349609375,-0.575103759765625,-0.0157623291015625
1789998295556547800,3.6575478515625,-1.0494384765625,-0.675750732421875,0.0659332275390625
1789998295566619000,3.667618896484375,-0.9179229736328125,-1.2213134765625,-0.0208587646484375
1789998295576690000,3.67768994140625,-0.005157470703125,-1.3327178955078125,-0.1535797119140625
1789998295586760700,3.6877607421875,-0.6593475341796875,-1.0789031982421875,-0.221221923828125
1789998295596831700,3.697831787109375,-0.78509521484375,-0.9637603759765625,-0.1717071533203125
1789998295606902800,3.70790283203125,0.395538330078125,-0.7498779296875,-0.316986083984375
1789998295616972800,3.717972900390625,0.7117462158203125,-0.915313720703125,-0.50506591796875
1789998295627043800,3.7280439453125,-0.6584625244140625,-1.042266845703125,-0.40289306640625
1789998295637115000,3.738114990234375,-0.9573974609375,-1.236328125,-0.1695556640625
1789998295647186000,3.74818603515625,-0.2408447265625,-1.157806396484375,-0.217193603515625
1789998295657257000,3.758257080078125,0.011199951171875,-0.98095703125,-0.323822021484375
1789998295667328000,3.768327880859375,-0.1846923828125,-0.9734649658203125,-0.26226806640625
1789998295677399000,3.77839892578125,0.1198577880859375,-0.6553802490234375,-0.194091796875
1789998295687470000,3.788469970703125,-0.502349853515625,-0.9258270263671875,-0.2752532958984375
1789998295697540900,3.798540771484375,-1.100372314453125,-1.3897247314453125,-0.0910186767578125
1789998295707611000,3.80861083984375,0.1426239013671875,-1.2672119140625,-0.1971588134765625
1789998295717682000,3.818681884765625,1.07891845703125,-0.857513427734375,-0.2830810546875
1789998295727753000,3.8287529296875,0.8251190185546875,-0.409271240234375,-0.0725250244140625
1789998295737824000,3.838823974609375,-0.6979217529296875,-0.3221435546875,0.2408905029296875
1789998295747894800,3.848894775390625,-0.39642333984375,-0.8872528076171875,0.24481201171875
1789998295757965800,3.8589658203125,-0.7734222412109375,-1.6287689208984375,-0.0092315673828125
1789998295768036900,3.869036865234375,-0.8610992431640625,-1.880645751953125,-0.0694732666015625
1789998295778108000,3.87910791015625,0.41082763671875,-1.3423614501953125,-0.194305419921875
1789998295788179000,3.889178955078125,0.4368438720703125,-0.6181793212890625,-0.2452545166015625
1789998295798248700,3.899248779296875,0.08294677734375,-0.3690643310546875,-0.0854644775390625
1789998295808319700,3.90931982421875,-0.025054931640625,-0.328857421875,0.099273681640625
1789998295818390800,3.919390869140625,-0.521270751953125,-0.97821044921875,0.10430908203125
1789998295828461800,3.9294619140625,-1.2958221435546875,-1.591552734375,0.042999267578125
1789998295838532900,3.939532958984375,-0.13311767578125,-1.4725799560546875,-0.24359130859375
1789998295848604000,3.94960400390625,0.827911376953125,-1.092498779296875,-0.379302978515625
1789998295858674700,3.9596748046875,-0.038543701171875,-0.7056732177734375,-0.228607177734375
1789998295868745700,3.969745849609375,-1.128448486328125,-0.6757965087890625,-0.0288543701171875
1789998295878816800,3.979816650390625,-0.9849090576171875,-0.9058837890625,0.121612548828125
1789998295888887000,3.989886962890625,-0.0008087158203125,-1.4622802734375,-0.002105712890625
1789998295898958000,3.9999580078125,0.118072509765625,-1.31939697265625,0.07666015625
1789998295909028900,4.01002880859375,-0.025634765625,-0.63702392578125,0.13134765625
1789998295919100000,4.020099853515625,0.0343780517578125,-0.549591064453125,0.1463165283203125
1789998295929171000,4.0301708984375,-0.717254638671875,-0.69586181640625,0.1518096923828125
1789998295939242000,4.040241943359375,-0.52191162109375,-1.1001434326171875,0.041473388671875
1789998295949313000,4.05031298828125,0.4264068603515625,-1.48162841796875,-0.02984619140625
1789998295959384000,4.060384033203125,-0.502471923828125,-1.1647491455078125,0.1549530029296875
1789998295969454800,4.070454833984375,-1.3027801513671875,-0.8899078369140625,0.164642333984375
1789998295979524900,4.08052490234375,-0.46258544921875,-0.7183685302734375,0.04949951171875
1789998295989596000,4.090595947265625,0.4792633056640625,-0.7350616455078125,0.0498199462890625
1789998295999667000,4.1006669921875,0.004119873046875,-0.775909423828125,0.2517852783203125
1789998296009738000,4.110738037109375,-0.734283447265625,-0.588623046875,0.154296875
1789998296019808800,4.120808837890625,0.774688720703125,-0.8058929443359375,-0.1502838134765625
1789998296029879800,4.1308798828125,1.0552215576171875,-1.1885986328125,-0.163818359375
1789998296039950800,4.140950927734375,-1.4210205078125,-1.254669189453125,0.0587921142578125
1789998296050022000,4.15102197265625,-2.3897857666015625,-1.1598968505859375,-0.0511627197265625
1789998296060092000,4.161091796875,-0.9934844970703125,-1.251739501953125,-0.049468994140625
1789998296070162700,4.17116259765625,0.8410186767578125,-1.3187408447265625,0.0121002197265625
1789998296080233700,4.181233642578125,1.3589019775390625,-0.6351776123046875,0.0844879150390625
1789998296090304800,4.1913046875,1.3265838623046875,-0.12432861328125,0.1351470947265625
1789998296100375800,4.201375732421875,-0.5394134521484375,-0.408782958984375,0.1857452392578125
1789998296110446800,4.21144677734375,-2.273590087890625,-1.2172088623046875,0.123260498046875
1789998296120518000,4.221517822265625,-1.02960205078125,-2.01715087890625,-0.1065673828125
1789998296130588700,4.231588623046875,-0.2444000244140625,-1.8650360107421875,-0.1172637939453125
1789998296140659700,4.24165966796875,0.178802490234375,-1.03973388671875,-0.11700439453125
1789998296150730000,4.25172998046875,0.9201202392578125,-0.43206787109375,-0.1300048828125
1789998296160801000,4.261801025390625,0.8302764892578125,-0.3657989501953125,-0.04052734375
1789998296170872000,4.2718720703125,-0.6711578369140625,-0.6827239990234375,0.1943359375
1789998296180942800,4.28194287109375,-0.6935272216796875,-1.11676025390625,0.1522216796875
1789998296191014000,4.292013916015625,0.3436431884765625,-1.0152130126953125,-0.06427001953125
1789998296201085000,4.3020849609375,0.426116943359375,-0.8203887939453125,-0.2205047607421875
1789998296211156000,4.312156005859375,-0.2994384765625,-1.0235443115234375,-0.2781829833984375
1789998296221227000,4.32222705078125,-0.5181121826171875,-1.09808349609375,-0.16119384765625
1789998296231298000,4.332298095703125,-1.138580322265625,-1.1971893310546875,0.004180908203125
1789998296241367800,4.342367919921875,-1.5029144287109375,-1.46746826171875,-0.0506439208984375
1789998296251438800,4.35243896484375,-0.42706298828125,-1.2285308837890625,-0.1733856201171875
1789998296261510000,4.362510009765625,0.601531982421875,-0.7976531982421875,-0.1260986328125
1789998296271581000,4.372580810546875,0.201019287109375,-0.3760528564453125,-0.068206787109375
1789998296281652000,4.38265185546875,-0.7812347412109375,-0.2980804443359375,0.011260986328125
1789998296291722800,4.39272265625,-0.5129547119140625,-0.9272613525390625,-0.00274658203125
1789998296301793800,4.402793701171875,-0.3976898193359375,-1.5882415771484375,-0.22052001953125
1789998296311864800,4.41286474609375,-0.2067108154296875,-1.79327392578125,-0.3394622802734375
1789998296321936000,4.422935791015625,0.7053985595703125,-1.193267822265625,-0.3161773681640625
1789998296332005600,4.433005615234375,0.149200439453125,-0.4849853515625,-0.195953369140625
1789998296342076700,4.44307666015625,-0.5472564697265625,-0.3055267333984375,-0.0269317626953125
1789998296352147700,4.453147705078125,-0.0979156494140625,-0.6168975830078125,0.081817626953125
1789998296362218800,4.46321875,0.2055816650390625,-0.9397430419921875,-0.039154052734375
1789998296372289800,4.473289794921875,-0.5499114990234375,-1.457489013671875,-0.1097564697265625
1789998296382360800,4.48336083984375,-0.4529571533203125,-1.3376312255859375,-0.186614990234375
1789998296392431900,4.493431884765625,0.593841552734375,-0.8885040283203125,-0.098968505859375
1789998296402502700,4.503502685546875,-0.521697998046875,-0.74139404296875,0.101348876953125
1789998296412573000,4.513572998046875,-1.087982177734375,-0.75823974609375,0.143524169921875
1789998296422644000,4.52364404296875,-0.270660400390625,-0.8721466064453125,0.06939697265625
1789998296432715000,4.533715087890625,0.5635528564453125,-0.9886474609375,-0.0409698486328125
1789998296442785800,4.543785888671875,-0.1405181884765625,-0.921783447265625,-0.0270843505859375
1789998296452856800,4.55385693359375,-0.9844207763671875,-0.809234619140625,0.1084442138671875
1789998296462928000,4.563927978515625,-1.0164947509765625,-1.0171356201171875,-0.04010009765625
1789998296472999000,4.5739990234375,-0.1418609619140625,-1.214935302734375,-0.0574951171875
1789998296483070000,4.584070068359375,0.7082977294921875,-1.162628173828125,-0.111572265625
1789998296493141000,4.59414111328125,0.4503173828125,-1.0174713134765625,-0.068817138671875
1789998296503210800,4.604210693359375,-0.376251220703125,-0.6792755126953125,0.0137786865234375
1789998296513281800,4.61428173828125,-0.9945068359375,-0.7577972412109375,0.167938232421875
1789998296523352800,4.624352783203125,-1.078338623046875,-1.2778472900390625,0.2123870849609375
1789998296533423900,4.634423828125,-0.455841064453125,-1.4618988037109375,0.11834716796875
1789998296543495000,4.644494873046875,0.188507080078125,-1.1481781005859375,-0.0628509521484375
1789998296553566200,4.654566162109375,0.292388916015625,-0.866546630859375,-0.01153564453125
1789998296563637200,4.66463720703125,-0.411773681640625,-0.726806640625,0.117401123046875
1789998296573708300,4.674708251953125,-0.211578369140625,-0.749786376953125,0.0617828369140625
1789998296583778000,4.684778076171875,-0.04632568359375,-0.79803466796875,0.0352325439453125
1789998296593849000,4.69484912109375,-0.6700897216796875,-0.92999267578125,0.076690673828125
1789998296603920100,4.704920166015625,-0.5992431640625,-1.0504150390625,0.0273284912109375
1789998296613991200,4.7149912109375,0.162261962890625,-1.08404541015625,-0.1422882080078125
1789998296624062200,4.725062255859375,-0.4401397705078125,-0.9359588623046875,-0.0829620361328125
1789998296634133200,4.73513330078125,-0.4147491455078125,-1.0041046142578125,-0.050079345703125
1789998296644204000,4.7452041015625,0.231231689453125,-0.7485809326171875,-0.099151611328125
1789998296654275000,4.755275146484375,-0.215301513671875,-0.702239990234375,-0.036468505859375
1789998296664346000,4.76534619140625,-0.8658905029296875,-0.9546966552734375,-0.0152740478515625
1789998296674416400,4.77541650390625,-0.58209228515625,-1.090240478515625,-0.043701171875
1789998296684487400,4.7854873046875,0.0528717041015625,-1.2885284423828125,-0.1798095703125
1789998296694558200,4.79555810546875,-1.2584075927734375,-1.2189483642578125,-0.126312255859375
1789998296704629200,4.805629150390625,-0.782684326171875,-1.0672454833984375,0.0145416259765625
1789998296714700300,4.8157001953125,0.9166259765625,-0.8872833251953125,-0.0848236083984375
1789998296724771300,4.825771240234375,0.7492523193359375,-0.971435546875,-0.032379150390625
1789998296734842400,4.83584228515625,-0.4919891357421875,-0.84478759765625,0.0849151611328125
1789998296744913400,4.845913330078125,-1.0340576171875,-0.743194580078125,0.1214447021484375
1789998296754983200,4.855983154296875,-0.9842376708984375,-1.1095123291015625,0.097381591796875
1789998296765054200,4.86605419921875,-0.5061798095703125,-1.2950439453125,-0.056365966796875
1789998296775125200,4.876125244140625,0.8077239990234375,-1.014923095703125,-0.1895294189453125
1789998296785196300,4.8861962890625,1.9248199462890625,-0.4703369140625,-0.1670989990234375
1789998296795267300,4.896267333984375,0.494232177734375,-0.2459869384765625,-0.03570556640625
1789998296805338000,4.906338134765625,-1.28515625,-0.6693267822265625,0.12701416015625
1789998296815409200,4.9164091796875,-1.19024658203125,-1.261199951171875,0.081329345703125
1789998296825480200,4.926480224609375,-1.4563446044921875,-1.7179412841796875,-0.13104248046875
1789998296835550200,4.93655029296875,-0.6477813720703125,-1.6037445068359375,-0.2060089111328125
1789998296845621200,4.946621337890625,1.0917510986328125,-0.9281768798828125,-0.196319580078125
1789998296855692000,4.956692138671875,1.278076171875,-0.1154937744140625,-0.0321044921875
1789998296865763000,4.96676318359375,-0.1987152099609375,-0.32989501953125,0.0648193359375
1789998296875834000,4.976834228515625,-1.7265777587890625,-1.023590087890625,0.1687774658203125
1789998296885905200,4.9869052734375,-1.758880615234375,-1.5598297119140625,0.1943817138671875
1789998296895976200,4.99697607421875,-0.5102081298828125,-1.8388671875,0.0488433837890625
1789998296906047200,5.007047119140625,0.761077880859375,-1.4206695556640625,-0.1617431640625
1789998296916118300,5.0171181640625,1.33624267578125,-0.6393890380859375,0.0402374267578125
1789998296926188300,5.027188232421875,0.347686767578125,-0.007171630859375,0.11627197265625
1789998296936259300,5.03725927734375,-0.3258056640625,-0.3510589599609375,-0.1380462646484375
1789998296946330400,5.047330322265625,-0.438568115234375,-1.249267578125,-0.08184814453125
1789998296956401400,5.0574013671875,-1.2148895263671875,-1.8375396728515625,0.1692657470703125
1789998296966472200,5.06747216796875,-1.255828857421875,-1.8233642578125,0.088836669921875
1789998296976543200,5.077543212890625,-0.6394805908203125,-1.1798248291015625,-0.0791168212890625
1789998296986614300,5.0876142578125,0.8232574462890625,-0.5904541015625,-0.2669830322265625
1789998296996685300,5.097685302734375,1.235595703125,-0.4148101806640625,-0.0198974609375
1789998297006755000,5.107755126953125,-0.1714935302734375,-0.382110595703125,0.1672821044921875
1789998297016826000,5.117826171875,-1.116851806640625,-0.70245361328125,0.05963134765625
1789998297026897200,5.127897216796875,-1.157989501953125,-1.5543060302734375,0.0444183349609375
1789998297036968200,5.13796826171875,-0.9051513671875,-1.6347808837890625,-0.11517333984375
1789998297047039200,5.148039306640625,-0.3392486572265625,-1.05291748046875,-0.2898406982421875
1789998297057110300,5.1581103515625,0.6348419189453125,-0.4956817626953125,-0.1973114013671875
1789998297067181300,5.168181396484375,0.4708709716796875,-0.62042236328125,0.0039215087890625
1789998297077252000,5.178252197265625,-0.0801849365234375,-0.7491455078125,0.0467529296875
1789998297087323100,5.1883232421875,-0.41058349609375,-1.1540985107421875,0.0167236328125
1789998297097393200,5.19839306640625,-1.4075927734375,-1.3385467529296875,0.1453094482421875
1789998297107464200,5.208464111328125,-1.0131072998046875,-1.072784423828125,-0.108001708984375
1789998297117535200,5.21853515625,0.0735015869140625,-0.86419677734375,-0.201690673828125
1789998297127606300,5.228606201171875,1.8372039794921875,-0.7785186767578125,-0.1605377197265625
1789998297137677300,5.23867724609375,1.45306396484375,-0.642730712890625,-0.02325439453125
1789998297147748400,5.248748291015625,-1.0446014404296875,-0.3126373291015625,0.238067626953125
1789998297157819400,5.2588193359375,-2.0994720458984375,-1.0047760009765625,0.22833251953125
1789998297167890400,5.268890380859375,-1.5573883056640625,-1.7364349365234375,0.2164459228515625
1789998297177960200,5.278960205078125,-0.839813232421875,-1.5869598388671875,-0.0770263671875
1789998297188031200,5.28903125,0.317962646484375,-1.24658203125,-0.2464599609375
1789998297198102300,5.299102294921875,0.78485107421875,-0.65753173828125,-0.0648193359375
1789998297208173300,5.30917333984375,0.177154541015625,-0.5080413818359375,0.0849456787109375
1789998297218244400,5.319244384765625,-0.8523406982421875,-0.86773681640625,0.046234130859375
1789998297228315100,5.329315185546875,-0.4257659912109375,-1.3519287109375,-0.092437744140625
1789998297238386200,5.33938623046875,-0.147735595703125,-1.14068603515625,-0.1709136962890625
1789998297248457200,5.349457275390625,-0.238677978515625,-0.911285400390625,-0.2399444580078125
1789998297258527200,5.35952734375,0.3165435791015625,-0.8551788330078125,-0.2831878662109375
1789998297268598300,5.369598388671875,0.449737548828125,-0.7989501953125,-0.389801025390625
1789998297278669000,5.3796689453125,-0.0581512451171875,-0.871307373046875,-0.3163299560546875
1789998297288740000,5.389739990234375,-0.4000091552734375,-1.04656982421875,-0.109893798828125
1789998297298811100,5.39981103515625,-0.0735931396484375,-0.876678466796875,-0.006134033203125
1789998297308882200,5.409882080078125,0.18353271484375,-0.8848876953125,-0.0584564208984375
1789998297318953200,5.419953125,-0.4958038330078125,-1.0703887939453125,-0.0778961181640625
1789998297329024300,5.430024169921875,-0.04541015625,-1.10321044921875,-0.17169189453125
1789998297339094300,5.44009423828125,-0.357086181640625,-1.1767578125,-0.03485107421875
1789998297349165300,5.450165283203125,-1.875030517578125,-1.201446533203125,0.2406158447265625
1789998297359236400,5.460236328125,-0.7393035888671875,-1.221466064453125,0.1354217529296875
1789998297369307400,5.470307373046875,0.6868743896484375,-0.9487457275390625,0.179168701171875
1789998297379378400,5.48037841796875,0.5142364501953125,-0.6125640869140625,0.3523101806640625
1789998297389449200,5.49044921875,-0.0897674560546875,-0.3621063232421875,0.1679534912109375
1789998297399520300,5.500520263671875,0.3114166259765625,-0.551300048828125,0.060302734375
1789998297409591300,5.51059130859375,-0.5750579833984375,-1.0748748779296875,0.0921630859375
1789998297419661300,5.520661376953125,-1.73760986328125,-1.5178985595703125,-0.0709991455078125
1789998297429732400,5.530732421875,0.1386871337890625,-1.67181396484375,-0.180389404296875
1789998297439803100,5.54080322265625,0.80926513671875,-1.144012451171875,0.1144561767578125
1789998297449874200,5.550874267578125,-0.4139404296875,-0.7068939208984375,0.1138458251953125
1789998297459945200,5.5609453125,-0.1761016845703125,-0.8414764404296875,0.05072021484375
1789998297470016300,5.571016357421875,-0.040496826171875,-0.825775146484375,0.248870849609375
1789998297480087300,5.58108740234375,-0.970977783203125,-1.0352020263671875,0.1528167724609375
1789998297490158300,5.591158447265625,-0.612579345703125,-1.2377166748046875,0.0044708251953125
1789998297500228000,5.60122802734375,0.0059967041015625,-0.8961639404296875,0.08673095703125
1789998297510299100,5.611299072265625,-0.3197174072265625,-0.5624542236328125,0.1464996337890625
1789998297520370200,5.6213701171875,0.0814971923828125,-0.8260650634765625,-0.13739013671875
1789998297530441200,5.631441162109375,0.19915771484375,-0.9639129638671875,0.040557861328125
1789998297540512300,5.64151220703125,-0.7068328857421875,-0.811309814453125,0.0536956787109375
1789998297550583000,5.6515830078125,-1.0550994873046875,-1.0878143310546875,-0.066131591796875
1789998297560654000,5.661654052734375,-0.4441375732421875,-1.4536590576171875,0.0830078125
1789998297570725000,5.67172509765625,-0.6456146240234375,-1.06121826171875,0.0725860595703125
1789998297580795100,5.681795166015625,-0.3731536865234375,-0.78961181640625,0.0147247314453125
1789998297590866200,5.6918662109375,1.005767822265625,-1.059539794921875,-0.221405029296875
1789998297600937200,5.701937255859375,0.354095458984375,-0.8713226318359375,-0.2609710693359375
1789998297611008300,5.71200830078125,-1.06085205078125,-0.608612060546875,0.036773681640625
1789998297621079300,5.722079345703125,-1.4018096923828125,-1.2262420654296875,0.061187744140625
1789998297631150000,5.732150146484375,-1.4649658203125,-1.5363922119140625,-0.015472412109375
1789998297641221000,5.74222119140625,-0.3992462158203125,-1.044403076171875,-0.0794677734375
1789998297651292200,5.752292236328125,1.8132171630859375,-0.9575653076171875,-0.169342041015625
1789998297661362200,5.762362060546875,0.8255767822265625,-0.825958251953125,-0.217437744140625
1789998297671433200,5.77243310546875,-1.910858154296875,-0.5656280517578125,-0.0377960205078125
1789998297681504000,5.78250390625,-1.4057159423828125,-1.201751708984375,-0.107177734375
1789998297691575000,5.792574951171875,0.4390716552734375,-1.9437103271484375,-0.2788238525390625
1789998297701646000,5.80264599609375,0.333282470703125,-1.2051544189453125,-0.233734130859375
1789998297711717000,5.812717041015625,-0.5345306396484375,-0.5357818603515625,0.111785888671875
1789998297721788200,5.8227880859375,-0.1616058349609375,-0.6968231201171875,-0.225555419921875
1789998297731859200,5.832859130859375,-0.309661865234375,-0.95538330078125,-0.4340972900390625
1789998297741929000,5.842928955078125,-0.8079071044921875,-1.4792938232421875,0.103271484375
1789998297752000000,5.853,-0.28778076171875,-1.5060272216796875,-0.0575408935546875
1789998297762071000,5.863071044921875,0.0402374267578125,-0.99273681640625,-0.41998291015625
1789998297772142000,5.87314208984375,-0.9462127685546875,-0.62274169921875,0.0128326416015625
1789998297782213000,5.883213134765625,-0.12384033203125,-0.709991455078125,-0.0782318115234375
1789998297792284000,5.893283935546875,0.4348602294921875,-1.0246429443359375,-0.2927093505859375
1789998297802355000,5.90335498046875,-0.23895263671875,-0.785858154296875,-0.1461181640625
1789998297812425200,5.91342529296875,-0.2417144775390625,-0.902130126953125,-0.215789794921875
1789998297822496300,5.923496337890625,-0.61761474609375,-1.2567901611328125,-0.2268218994140625
1789998297832567300,5.9335673828125,-1.20037841796875,-1.281402587890625,0.0550994873046875
1789998297842638000,5.94363818359375,0.2310791015625,-0.938446044921875,-0.1367034912109375
1789998297852709000,5.953709228515625,0.989471435546875,-0.7566680908203125,-0.3304443359375
1789998297862780200,5.9637802734375,0.6455535888671875,-0.5964202880859375,-0.1726226806640625
1789998297872851200,5.973851318359375,0.0732879638671875,-0.451934814453125,-0.1700592041015625
1789998297882922200,5.983922119140625,-1.62921142578125,-0.8899688720703125,0.094635009765625
1789998297892992000,5.993991943359375,-0.8571319580078125,-1.2280731201171875,-0.05108642578125
1789998297903063000,6.00406298828125,0.3753204345703125,-1.4722747802734375,-0.611358642578125
1789998297913134000,6.014134033203125,-0.3365020751953125,-0.9611358642578125,-0.4326934814453125
1789998297923205000,6.024205078125,0.2805328369140625,-0.7186737060546875,-0.2415771484375
1789998297933276200,6.034276123046875,-0.2940216064453125,-0.721588134765625,-0.2073822021484375
1789998297943347200,6.04434716796875,-0.5550384521484375,-1.0480194091796875,-0.039703369140625
1789998297953418000,6.05441796875,-0.138336181640625,-1.251495361328125,-0.165863037109375
1789998297963489000,6.064489013671875,-0.0673980712890625,-0.9394378662109375,-0.2007904052734375
1789998297973559000,6.07455908203125,-0.306976318359375,-0.667724609375,-0.1065216064453125
1789998297983630000,6.084630126953125,-0.0980377197265625,-0.9365386962890625,-0.2357177734375
1789998297993701000,6.094701171875,-0.362091064453125,-0.9263763427734375,-0.0657196044921875
1789998298003772000,6.10477197265625,0.4133148193359375,-0.9712677001953125,-0.101959228515625
1789998298013843000,6.114843017578125,0.7890625,-1.0356597900390625,-0.2598724365234375
1789998298023914000,6.1249140625,-1.3195343017578125,-1.0172119140625,-0.0864715576171875
1789998298033985000,6.134985107421875,-2.054595947265625,-1.2093505859375,0.272186279296875
1789998298044056000,6.14505615234375,-0.9250335693359375,-1.304779052734375,-0.0579833984375
1789998298054126000,6.1551259765625,0.3668212890625,-1.335540771484375,-0.3656158447265625
1789998298064197000,6.165197021484375,0.8578033447265625,-0.9522552490234375,-0.0614471435546875
1789998298074268200,6.17526806640625,-0.1066131591796875,-0.3908538818359375,0.204742431640625
1789998298084339200,6.185339111328125,-1.0130462646484375,-0.2290802001953125,0.148040771484375
1789998298094410200,6.19541015625,-0.2519989013671875,-0.9480133056640625,0.0212554931640625
1789998298104481300,6.205481201171875,0.5941619873046875,-1.3950958251953125,0.008056640625
1789998298114552000,6.215552001953125,-0.40618896484375,-1.01068115234375,-0.0520172119140625
1789998298124623000,6.225623046875,-1.104278564453125,-0.6523590087890625,0.170928955078125
1789998298134693000,6.235693115234375,-0.6403961181640625,-0.8194427490234375,0.0626373291015625
1789998298144764200,6.24576416015625,0.08056640625,-1.1365966796875,-0.1402435302734375
1789998298154835200,6.255835205078125,0.021331787109375,-0.9094696044921875,-0.148223876953125
1789998298164906000,6.265906005859375,-0.304229736328125,-0.7359161376953125,0.06573486328125
1789998298174977000,6.27597705078125,-0.365264892578125,-0.545013427734375,0.0760498046875
1789998298185048000,6.286048095703125,-0.2095794677734375,-0.73565673828125,0.035552978515625
1789998298195119000,6.296119140625,-0.114288330078125,-1.009735107421875,-0.1102294921875
1789998298205188900,6.30618896484375,0.0008697509765625,-1.2186279296875,-0.1374053955078125
1789998298215260000,6.316260009765625,-0.7989349365234375,-1.1252288818359375,0.0750274658203125
1789998298225331000,6.3263310546875,-1.317779541015625,-0.904815673828125,0.034912109375
1789998298235402000,6.336402099609375,0.0286102294921875,-1.32598876953125,-0.1438446044921875
1789998298245473000,6.34647314453125,0.3138885498046875,-1.267059326171875,-0.039825439453125
1789998298255544000,6.3565439453125,-0.305419921875,-0.749114990234375,0.1914520263671875
1789998298265615000,6.366614990234375,-0.0245208740234375,-0.48724365234375,0.137115478515625
1789998298275686100,6.37668603515625,0.40423583984375,-0.9455108642578125,0.031707763671875
1789998298285756200,6.386756103515625,0.003326416015625,-1.2064971923828125,-0.1510009765625
1789998298295827200,6.3968271484375,-0.345977783203125,-1.1703338623046875,-0.0301513671875
1789998298305898200,6.406898193359375,-0.0268707275390625,-1.040374755859375,0.1167144775390625
1789998298315969000,6.416968994140625,-0.077301025390625,-1.037353515625,-0.1015472412109375
1789998298326040000,6.4270400390625,-0.5902862548828125,-1.3314208984375,-0.0789642333984375
1789998298336111000,6.437111083984375,-0.9377593994140625,-1.257598876953125,0.0429229736328125
1789998298346182100,6.44718212890625,-0.7424774169921875,-0.971038818359375,-0.083526611328125
1789998298356252200,6.457252197265625,0.1543426513671875,-1.0828399658203125,-0.174346923828125
1789998298366323000,6.467322998046875,0.105499267578125,-1.11541748046875,-0.325927734375
1789998298376394000,6.47739404296875,-0.344696044921875,-0.7639617919921875,-0.3672637939453125
1789998298386465000,6.487465087890625,-0.3060455322265625,-0.760406494140625,-0.05035400390625
1789998298396536000,6.4975361328125,0.0442047119140625,-0.76641845703125,-0.1891326904296875
1789998298406607000,6.507607177734375,0.6263275146484375,-0.8069000244140625,-0.4691314697265625
1789998298416678100,6.51767822265625,0.6879730224609375,-0.758392333984375,-0.470733642578125
1789998298426749000,6.5277490234375,-0.854644775390625,-0.7521514892578125,-0.1230926513671875
1789998298436819200,6.537819091796875,-1.3718109130859375,-0.7991485595703125,0.195953369140625
1789998298446890200,6.54789013671875,-0.6161956787109375,-1.097076416015625,-0.023284912109375
1789998298456961300,6.557961181640625,0.6092987060546875,-1.3482208251953125,-0.3919525146484375
1789998298467032300,6.5680322265625,0.1373443603515625,-1.3254547119140625,-0.544891357421875
1789998298477103000,6.57810302734375,-0.9515380859375,-0.8849945068359375,0.0550537109375
1789998298487174100,6.588174072265625,-0.4075469970703125,-0.811248779296875,0.0831756591796875
1789998298497245200,6.5982451171875,0.8854217529296875,-1.0179901123046875,-0.2185516357421875
1789998298507316200,6.608316162109375,0.4893798828125,-0.837188720703125,-0.220428466796875
1789998298517386200,6.61838623046875,-0.961395263671875,-0.7114410400390625,0.0369415283203125
1789998298527457000,6.62845703125,-1.18011474609375,-0.8274993896484375,0.178955078125
1789998298537528000,6.638528076171875,-0.6788330078125,-1.2301788330078125,-0.0801849365234375
1789998298547599000,6.64859912109375,0.411041259765625,-1.38031005859375,-0.34320068359375
1789998298557672000,6.658671875,0.548095703125,-0.955322265625,-0.3949127197265625
1789998298567743000,6.668742919921875,-0.6396331787109375,-0.4803009033203125,-0.0679931640625
1789998298577814000,6.67881396484375,-0.6904754638671875,-0.6740264892578125,0.0728912353515625
1789998298587884000,6.688884033203125,-0.0198974609375,-1.40850830078125,-0.1658782958984375
1789998298597955000,6.698955078125,-0.2770843505859375,-1.684844970703125,-0.3298187255859375
1789998298608026000,6.709026123046875,-0.4718780517578125,-1.11981201171875,-0.12139892578125
1789998298618097200,6.71909716796875,-0.120697021484375,-0.74664306640625,0.013641357421875
1789998298628168200,6.729168212890625,-0.459442138671875,-0.7860565185546875,0.07220458984375
1789998298638239000,6.739239013671875,-0.7536773681640625,-1.075927734375,-0.01556396484375
1789998298648310000,6.74931005859375,-0.344879150390625,-1.186279296875,0.0193939208984375
1789998298658381000,6.759381103515625,-0.219390869140625,-0.7108917236328125,0.1339111328125
1789998298668451000,6.769451171875,-0.2635955810546875,-0.48809814453125,0.11846923828125
1789998298678522000,6.779522216796875,-0.00726318359375,-0.7999114990234375,0.0920867919921875
1789998298688593000,6.789593017578125,-0.274993896484375,-0.7286529541015625,0.1159515380859375
1789998298698664000,6.799663818359375,0.0787506103515625,-0.8179473876953125,0.117218017578125
1789998298708735000,6.80973486328125,-0.020233154296875,-1.0707550048828125,-0.01019287109375
1789998298718806000,6.819805908203125,-0.7091064453125,-1.15985107421875,-0.064605712890625
1789998298728877000,6.829876953125,-0.7987518310546875,-0.93963623046875,0.0947723388671875
1789998298738946800,6.83994677734375,-0.0712738037109375,-1.0034027099609375,0.065887451171875
1789998298749017900,6.850017822265625,-0.0296783447265625,-0.8754425048828125,-0.031707763671875
1789998298759089000,6.8600888671875,0.039337158203125,-0.8956451416015625,-0.1639251708984375
1789998298769160000,6.870159912109375,-0.43280029296875,-0.924285888671875,-0.1128692626953125
1789998298779231000,6.88023095703125,-0.7574920654296875,-0.67730712890625,0.0860748291015625
1789998298789302000,6.890302001953125,-0.089599609375,-0.8995819091796875,0.221893310546875
1789998298799372800,6.900372802734375,-0.43292236328125,-1.111175537109375,0.1307830810546875
1789998298809443800,6.91044384765625,-0.826873779296875,-1.141204833984375,0.151947021484375
1789998298819514000,6.92051416015625,-0.484466552734375,-1.095001220703125,0.12261962890625
1789998298829585200,6.930585205078125,0.1030731201171875,-1.3378143310546875,0.0846405029296875
1789998298839656200,6.94065625,0.3418426513671875,-1.1986083984375,-0.2163238525390625
1789998298849727000,6.95072705078125,0.3582305908203125,-0.938385009765625,-0.209320068359375
1789998298859798000,6.960798095703125,0.0579986572265625,-0.7436065673828125,-0.004364013671875
1789998298869869000,6.970869140625,-0.460205078125,-0.8620452880859375,0.0302276611328125
1789998298879940000,6.980940185546875,-0.318511962890625,-1.1590118408203125,-0.1883087158203125
1789998298890010000,6.991010009765625,-0.389862060546875,-1.24853515625,-0.265869140625
1789998298900081000,7.001080810546875,-0.0823974609375,-0.98370361328125,-0.2848968505859375
1789998298910152000,7.01115185546875,0.1784210205078125,-0.7310638427734375,-0.3640899658203125
1789998298920223000,7.021222900390625,-0.1311798095703125,-0.9038543701171875,-0.235748291015625
1789998298930294000,7.0312939453125,-0.255279541015625,-0.77557373046875,-0.02362060546875
1789998298940365000,7.041364990234375,-0.0175018310546875,-0.9283294677734375,0.0058135986328125
1789998298950436000,7.05143603515625,-0.8069000244140625,-1.1479034423828125,0.0611572265625
1789998298960505900,7.061505859375,-0.747467041015625,-1.2986602783203125,-0.0219268798828125
1789998298970577000,7.071576904296875,0.0584716796875,-1.081787109375,0.047088623046875
1789998298980648000,7.08164794921875,-0.3671112060546875,-0.9900360107421875,0.22576904296875
1789998298990719000,7.091718994140625,-1.011474609375,-0.8280029296875,0.1803436279296875
1789998299000790000,7.1017900390625,0.5126495361328125,-0.7918548583984375,0.1602935791015625
1789998299010860800,7.11186083984375,1.0665435791015625,-0.7404937744140625,0.188995361328125
1789998299020931800,7.121931884765625,-0.25927734375,-0.6056060791015625,0.1637115478515625
1789998299031003000,7.1320029296875,-0.69659423828125,-0.84967041015625,0.2435455322265625
1789998299041073200,7.1420732421875,-0.7435455322265625,-1.1488189697265625,0.201416015625
1789998299051144200,7.152144287109375,-0.842132568359375,-1.367584228515625,0.11431884765625
1789998299061215000,7.162215087890625,-0.2723236083984375,-1.282196044921875,0.0018768310546875
1789998299071286000,7.1722861328125,0.2490081787109375,-0.85406494140625,0.0768280029296875
1789998299081357000,7.182357177734375,-0.0731048583984375,-0.5929718017578125,0.1507720947265625
1789998299091428000,7.192427978515625,-0.22674560546875,-0.873199462890625,0.12445068359375
1789998299101499100,7.2024990234375,-0.7850341796875,-0.9569854736328125,0.103668212890625
1789998299111569000,7.21256884765625,-0.83648681640625,-1.2566375732421875,0.0978851318359375
1789998299121640000,7.222639892578125,-0.5274658203125,-1.37640380859375,0.1714019775390625
1789998299131711000,7.2327109375,-0.186126708984375,-1.072723388671875,0.20123291015625
1789998299141782000,7.242781982421875,-0.1603851318359375,-0.9318389892578125,0.0494537353515625
1789998299151853000,7.25285302734375,0.2559356689453125,-0.8696746826171875,-0.0341949462890625
1789998299161924000,7.262924072265625,0.0238800048828125,-0.551727294921875,0.0386505126953125
1789998299171995000,7.272994873046875,-0.1958770751953125,-0.8358306884765625,0.02294921875
1789998299182065000,7.28306494140625,-0.2429351806640625,-1.052001953125,-0.03509521484375
1789998299192136000,7.293135986328125,0.193145751953125,-0.9427032470703125,-0.07415771484375
1789998299202207000,7.30320703125,-0.6749267578125,-0.9000244140625,-0.120025634765625
1789998299212278000,7.313278076171875,-0.3126220703125,-1.315765380859375,-0.1708526611328125
1789998299222349000,7.32334912109375,0.0616607666015625,-1.03057861328125,-0.23553466796875
1789998299232419800,7.333419921875,0.1683502197265625,-0.855743408203125,-0.2207183837890625
1789998299242491000,7.343490966796875,0.0140533447265625,-0.97796630859375,-0.2069091796875
1789998299252562000,7.35356201171875,-0.5941009521484375,-0.6651458740234375,-0.1593017578125
1789998299262632200,7.363632080078125,-0.76593017578125,-0.709869384765625,0.0501251220703125
1789998299272703000,7.373702880859375,-1.1474456787109375,-1.04791259765625,0.0112152099609375
1789998299282774000,7.38377392578125,-0.3939361572265625,-1.4596405029296875,-0.1524200439453125
1789998299292845000,7.393844970703125,0.3597564697265625,-1.0625762939453125,-0.197265625
1789998299302916000,7.403916015625,-0.062896728515625,-0.9205169677734375,-0.13897705078125
1789998299312987100,7.413987060546875,-0.69281005859375,-0.83599853515625,0.0489959716796875
1789998299323058200,7.42405810546875,-0.2084503173828125,-0.8526611328125,0.1189727783203125
1789998299333128000,7.4341279296875,-0.148223876953125,-1.0688934326171875,0.2482452392578125
1789998299343199000,7.444198974609375,-0.2037353515625,-1.1707916259765625,0.0860137939453125
1789998299353270000,7.45427001953125,0.1709747314453125,-0.94598388671875,0.19970703125
1789998299363341000,7.464341064453125,0.289764404296875,-0.6368865966796875,0.154266357421875
1789998299373412000,7.474412109375,-0.141845703125,-1.0504913330078125,-0.1033782958984375
1789998299383483000,7.48448291015625,-0.6712646484375,-1.2685546875,-0.1710662841796875
1789998299393554000,7.494553955078125,-0.256378173828125,-1.0603790283203125,0.0250701904296875
1789998299403624000,7.5046240234375,-0.262603759765625,-0.8699493408203125,-0.0397186279296875
1789998299413695000,7.514695068359375,-0.4923095703125,-0.8572998046875,-0.142181396484375
1789998299423766000,7.52476611328125,-0.216552734375,-0.936920166015625,-0.12078857421875
1789998299433837000,7.534837158203125,-0.1710052490234375,-0.896636962890625,-0.136199951171875
1789998299443908000,7.544908203125,-0.631011962890625,-0.898101806640625,-0.1400146484375
1789998299453979100,7.554979248046875,-0.0029296875,-0.986358642578125,-0.16290283203125
1789998299464050200,7.56505029296875,0.7979583740234375,-0.881683349609375,-0.288848876953125
1789998299474120200,7.5751201171875,0.056396484375,-0.7048492431640625,-0.261138916015625
1789998299484191000,7.58519091796875,-0.84893798828125,-0.97882080078125,-0.0196075439453125
1789998299494262000,7.595261962890625,-0.59222412109375,-1.01104736328125,0.083251953125
1789998299504333000,7.6053330078125,-0.3849639892578125,-0.9850311279296875,-0.175506591796875
1789998299514404000,7.615404052734375,-0.377838134765625,-1.1684722900390625,-0.2697296142578125
1789998299524475100,7.62547509765625,0.1525115966796875,-1.2137603759765625,-0.09783935546875
1789998299534546200,7.635546142578125,0.2783660888671875,-1.0318450927734375,0.01031494140625
1789998299544616000,7.645615966796875,-0.4565582275390625,-0.9911651611328125,-0.0496368408203125
1789998299554687000,7.65568701171875,-0.7285308837890625,-1.0772857666015625,0.0096282958984375
1789998299564755700,7.665755615234375,-0.327392578125,-1.043548583984375,-0.000457763671875
1789998299574826800,7.67582666015625,-0.054779052734375,-1.0088043212890625,-0.042236328125
1789998299584897800,7.685897705078125,0.1683349609375,-0.806640625,-0.1057586669921875
1789998299594968800,7.69596875,0.372039794921875,-0.8651275634765625,-0.058441162109375
1789998299605039900,7.706039794921875,-0.0436859130859375,-0.7418975830078125,0.0403900146484375
1789998299615109600,7.716109619140625,-1.068023681640625,-1.014801025390625,0.0822601318359375
1789998299625180700,7.7261806640625,-1.0751800537109375,-1.3042449951171875,0.0666656494140625
1789998299635251700,7.736251708984375,-0.8181915283203125,-1.2890777587890625,-0.0460052490234375
1789998299645322800,7.74632275390625,-0.28204345703125,-1.1306610107421875,-0.123321533203125
1789998299655393800,7.756393798828125,0.933135986328125,-0.850555419921875,-0.09820556640625
1789998299665464600,7.766464599609375,0.83026123046875,-0.4527435302734375,0.055419921875
1789998299675535600,7.77653564453125,-0.6987457275390625,-0.58392333984375,0.0691986083984375
1789998299685606000,7.78660595703125,-1.3618316650390625,-1.1622161865234375,0.078155517578125
1789998299695677000,7.796677001953125,-0.1171875,-1.2233123779296875,0.0759124755859375
1789998299705748000,7.806748046875,-0.202850341796875,-1.0843505859375,-0.107635498046875
1789998299715818800,7.81681884765625,-0.65374755859375,-0.93963623046875,-0.0947113037109375
1789998299725889800,7.826889892578125,0.14923095703125,-0.588958740234375,-0.0020294189453125
1789998299735960800,7.8369609375,0.1584625244140625,-0.5816497802734375,0.1097564697265625
1789998299746031900,7.847031982421875,-0.30438232421875,-1.003662109375,0.1403350830078125
1789998299756103000,7.85710302734375,-0.7522735595703125,-1.058807373046875,0.1132049560546875
1789998299766172700,7.867172607421875,-0.3365478515625,-0.9662017822265625,0.1159820556640625
1789998299776243700,7.87724365234375,-0.277679443359375,-1.062774658203125,0.146697998046875
1789998299786314800,7.887314697265625,-0.1476287841796875,-1.089324951171875,0.164947509765625
1789998299796385800,7.8973857421875,-0.171234130859375,-0.997772216796875,0.144317626953125
1789998299806456800,7.907456787109375,-0.1436309814453125,-0.8647003173828125,0.165863037109375
1789998299816528000,7.91752783203125,0.064056396484375,-0.904754638671875,0.151947021484375
1789998299826598700,7.9275986328125,-0.785064697265625,-0.9194183349609375,0.1284027099609375
1789998299836668700,7.937668701171875,-0.94537353515625,-0.98773193359375,0.1279449462890625
1789998299846739700,7.94773974609375,-0.2890167236328125,-1.1077117919921875,0.0626373291015625
1789998299856810800,7.957810791015625,-0.224151611328125,-1.211181640625,-0.0100555419921875
1789998299866881800,7.9678818359375,-0.639129638671875,-1.1387786865234375,0.040191650390625
1789998299876952600,7.97795263671875,-0.0430755615234375,-0.95159912109375,0.0205841064453125
1789998299887023600,7.988023681640625,0.3411407470703125,-1.0290985107421875,0.086273193359375
1789998299897094700,7.9980947265625,-0.2252655029296875,-0.8031158447265625,0.1664276123046875
1789998299907165000,8.0081650390625,-0.2767486572265625,-0.9797515869140625,0.1672210693359375
1789998299917236000,8.018236083984375,-0.5287628173828125,-1.052703857421875,0.0485076904296875
1789998299927306800,8.028306640625,-0.328033447265625,-1.0176239013671875,0.0914154052734375
1789998299937377800,8.038377685546875,0.5181121826171875,-0.87451171875,-0.0519256591796875
1789998299947448800,8.04844873046875,0.3885345458984375,-0.7046356201171875,-0.0917205810546875
1789998299957520000,8.058519775390625,-1.162445068359375,-0.7495880126953125,0.1910400390625
1789998299967591000,8.0685908203125,-1.0109710693359375,-0.8785247802734375,0.092681884765625
1789998299977660700,8.07866064453125,-0.07183837890625,-1.4090576171875,-0.026397705078125
1789998299987731700,8.088731689453125,0.2175445556640625,-1.2693328857421875,0.0047149658203125
1789998299997802800,8.098802734375,0.916839599609375,-0.8668670654296875,-0.09490966796875
1789998300007873800,8.108873779296875,-0.0393829345703125,-0.236175537109375,-0.063812255859375
1789998300017944800,8.11894482421875,-1.2050323486328125,-0.5655517578125,0.125213623046875
1789998300028015600,8.129015625,-0.9996337890625,-1.27423095703125,0.120330810546875
1789998300038086700,8.139086669921875,0.1142425537109375,-1.491912841796875,0.075958251953125
1789998300048156700,8.14915673828125,0.7842254638671875,-0.9575042724609375,0.179107666015625
1789998300058227700,8.159227783203125,0.143890380859375,-0.6584625244140625,0.139007568359375
1789998300068298800,8.169298828125,-1.504608154296875,-0.867889404296875,0.0793914794921875
1789998300078369500,8.17936962890625,-1.043731689453125,-1.243011474609375,-0.0421600341796875
1789998300088440600,8.189440673828125,0.6307373046875,-1.277130126953125,0.068878173828125
1789998300098511600,8.19951171875,1.18438720703125,-1.182098388671875,0.1775665283203125
1789998300108582700,8.209582763671875,-0.269744873046875,-0.787322998046875,0.196136474609375
1789998300118653000,8.21965283203125,-1.1856231689453125,-0.5581817626953125,0.061767578125
1789998300128723700,8.2297236328125,-0.5253753662109375,-1.281829833984375,-0.0757904052734375
1789998300138794800,8.239794677734375,0.25396728515625,-1.386932373046875,-0.06585693359375
1789998300148865800,8.24986572265625,0.3150634765625,-0.9734954833984375,-0.1108245849609375
1789998300158936800,8.259936767578125,-0.3057708740234375,-0.652130126953125,-0.1431121826171875
1789998300169007900,8.2700078125,-1.0010986328125,-0.7483062744140625,-0.0894317626953125
1789998300179079000,8.280078857421875,-0.6990814208984375,-0.9892120361328125,-0.1603546142578125
1789998300189148700,8.290148681640625,0.394561767578125,-1.4093017578125,-0.2970123291015625
1789998300199219700,8.3002197265625,0.399993896484375,-0.9515533447265625,-0.3163299560546875
1789998300209290800,8.310290771484375,-0.045562744140625,-0.365753173828125,-0.1967315673828125
1789998300219361800,8.32036181640625,-0.545989990234375,-0.821807861328125,-0.02294921875
1789998300229432800,8.330432861328125,-0.7527008056640625,-1.3235321044921875,-0.000823974609375
1789998300239503600,8.340503662109375,-0.3683624267578125,-1.2679901123046875,-0.2114410400390625
1789998300249574700,8.35057470703125,-0.7803192138671875,-0.9369049072265625,-0.1690826416015625
1789998300259644700,8.360644775390625,-0.4227294921875,-1.026885986328125,-0.1358489990234375
1789998300269715700,8.3707158203125,-0.0813446044921875,-0.8867645263671875,-0.2422943115234375
1789998300279786800,8.380786865234375,-0.3453521728515625,-1.0482025146484375,-0.0783233642578125
1789998300289857500,8.390857421875,-0.593231201171875,-1.09002685546875,0.0763702392578125
1789998300299928600,8.400928466796875,-0.0471954345703125,-0.86590576171875,-0.0832366943359375
1789998300309999600,8.41099951171875,0.0977935791015625,-0.751617431640625,-0.045684814453125
1789998300320070700,8.421070556640625,-0.0304718017578125,-0.871551513671875,0.0290985107421875
1789998300330141000,8.431140869140625,0.0602874755859375,-0.9367828369140625,-0.0115203857421875
1789998300340211700,8.441211669921875,-0.6472930908203125,-0.7661895751953125,0.0596771240234375
1789998300350282800,8.45128271484375,-1.1849365234375,-1.1485137939453125,0.183929443359375
1789998300360353800,8.461353759765625,-0.7324066162109375,-1.260162353515625,0.10760498046875
1789998300370424800,8.4714248046875,0.394134521484375,-1.2255706787109375,0.017669677734375
1789998300380496000,8.481495849609376,0.864715576171875,-0.8094940185546875,0.19024658203125
1789998300390565600,8.491565673828125,-0.1326751708984375,-0.48614501953125,0.2138519287109375
1789998300400636700,8.50163671875,-1.0311279296875,-0.8153839111328125,0.2043304443359375
1789998300410707700,8.511707763671875,-0.7230682373046875,-1.2519378662109375,0.1395263671875
1789998300420778800,8.52177880859375,0.2576904296875,-1.118804931640625,-0.0352630615234375
1789998300430849800,8.531849853515626,1.064422607421875,-0.98101806640625,-0.0593109130859375
1789998300440920800,8.5419208984375,0.084197998046875,-0.5662994384765625,-0.056396484375
1789998300450991600,8.55199169921875,-0.7354888916015625,-0.4258575439453125,-0.0652923583984375
1789998300461061600,8.5620615234375,-0.5849456787109375,-0.9735870361328125,0.0305023193359375
1789998300471132700,8.572132568359375,-0.8360443115234375,-1.2602386474609375,0.071075439453125
1789998300481203700,8.58220361328125,-0.088592529296875,-1.2677459716796875,-0.1613922119140625
1789998300491274800,8.592274658203126,0.852813720703125,-0.85015869140625,-0.2355804443359375
1789998300501345500,8.602345458984376,-0.5104522705078125,-0.7558135986328125,0.048309326171875
1789998300511416600,8.61241650390625,-1.5263519287109375,-1.1288909912109375,0.0601654052734375
1789998300521487600,8.622487548828126,-0.036041259765625,-1.4662017822265625,-0.0944061279296875
1789998300531558000,8.632557861328126,0.442230224609375,-1.1733856201171875,-0.0521087646484375
1789998300541629000,8.64262890625,0.249908447265625,-0.721282958984375,0.0040130615234375
1789998300551699700,8.65269970703125,0.0290374755859375,-0.5447845458984375,0.0624542236328125
1789998300561771300,8.662771240234376,-0.9531402587890625,-0.756591796875,0.17340087890625
1789998300571842300,8.67284228515625,-1.1407470703125,-1.250579833984375,0.08880615234375
1789998300581913000,8.6829130859375,-0.39874267578125,-1.2646026611328125,-0.046722412109375
1789998300591984000,8.692984130859376,0.39813232421875,-1.4057159423828125,-0.2345428466796875
1789998300602054100,8.70305419921875,-0.2606201171875,-0.7935028076171875,-0.3366851806640625
1789998300612125200,8.713125244140626,-0.245635986328125,-0.8011474609375,-0.1405029296875
1789998300622196200,8.7231962890625,-0.4931793212890625,-1.1057281494140625,-0.0496368408203125
1789998300632267000,8.73326708984375,-0.503570556640625,-1.2541046142578125,-0.186279296875
1789998300642338000,8.743338134765626,-0.1390533447265625,-1.0678253173828125,-0.2701873779296875
1789998300652409000,8.7534091796875,0.182586669921875,-0.9419708251953125,-0.2816619873046875
1789998300662480100,8.763480224609374,-0.0070343017578125,-0.8805999755859375,-0.273406982421875
1789998300672550100,8.773550048828126,-0.2366790771484375,-0.6441650390625,-0.2165679931640625
1789998300682621000,8.783620849609376,0.1630401611328125,-0.74072265625,-0.209716796875
1789998300692692000,8.79369189453125,-0.8541412353515625,-0.8546295166015625,-0.1149139404296875
1789998300702763000,8.803762939453126,-0.4571075439453125,-1.0567169189453125,-0.197540283203125
1789998300712834000,8.813833984375,0.4613800048828125,-0.9305572509765625,-0.3151397705078125
1789998300722905000,8.823905029296874,0.2152862548828125,-0.8004150390625,-0.1168365478515625
1789998300732976000,8.83397607421875,-0.3581390380859375,-0.7043609619140625,0.0413360595703125
1789998300743046100,8.844046142578126,-0.964691162109375,-0.641937255859375,0.0769500732421875
1789998300753117200,8.8541171875,-1.1959228515625,-1.361785888671875,0.21173095703125
1789998300763188200,8.864188232421874,-0.344940185546875,-1.6831207275390625,-0.0165863037109375
1789998300773259300,8.87425927734375,0.8980560302734375,-1.585693359375,-0.1645660400390625
1789998300783330300,8.884330322265624,-0.477203369140625,-0.559417724609375,0.2335205078125
1789998300793401000,8.894401123046874,-1.137847900390625,0.014007568359375,0.3074798583984375
1789998300803471000,8.90447119140625,0.3057403564453125,-0.545745849609375,0.1003570556640625
1789998300813542100,8.914542236328124,0.2196807861328125,-1.2225799560546875,0.01666259765625
1789998300823613200,8.92461328125,-0.8676605224609375,-1.3614959716796875,-0.0053253173828125
1789998300833684200,8.934684326171874,-0.360443115234375,-1.2104949951171875,0.090179443359375
1789998300843755000,8.944755126953124,-0.0213165283203125,-1.01409912109375,0.1592559814453125
1789998300853826000,8.954825927734374,-0.5384674072265625,-0.8457794189453125,0.01470947265625
1789998300863897000,8.96489697265625,-0.1466827392578125,-0.966217041015625,0.0302276611328125
1789998300873967000,8.974967041015624,-0.166351318359375,-1.183563232421875,-0.0372467041015625
1789998300884038100,8.9850380859375,-1.2059173583984375,-1.281829833984375,-0.0467681884765625
1789998300894109000,8.99510888671875,-0.51177978515625,-1.264312744140625,-0.15008544921875
1789998300904180000,9.005179931640624,0.431610107421875,-1.032440185546875,-0.2538299560546875
1789998300914251000,9.0152509765625,0.05419921875,-0.7061614990234375,-0.2706756591796875
1789998300924322000,9.025322021484374,-0.313385009765625,-0.6311187744140625,-0.16192626953125
1789998300934393000,9.03539306640625,-0.534454345703125,-0.9328460693359375,0.014984130859375
1789998300944463000,9.045463134765624,-1.165985107421875,-1.373687744140625,0.0363922119140625
1789998300954534100,9.0555341796875,-0.9028778076171875,-1.3256378173828125,-0.1790924072265625
1789998300964605200,9.065605224609374,0.8118133544921875,-1.089874267578125,-0.311920166015625
1789998300974676200,9.07567626953125,1.5485076904296875,-0.327239990234375,-0.2574005126953125
1789998300984747300,9.085747314453124,0.10833740234375,0.1256866455078125,-0.094696044921875
1789998300994818300,9.095818359375,-1.0735626220703125,-0.7574005126953125,0.22802734375
1789998301004889000,9.10588916015625,-0.4571533203125,-1.3817138671875,0.1392974853515625
1789998301014959000,9.115958984375,0.57244873046875,-1.551483154296875,-0.3920745849609375
1789998301025030100,9.126030029296874,-0.3290557861328125,-1.434295654296875,-0.288787841796875
1789998301035101200,9.13610107421875,-1.450042724609375,-1.1642608642578125,0.171234130859375
1789998301045172200,9.146172119140624,-1.750579833984375,-0.989166259765625,0.1761016845703125
1789998301055243000,9.156242919921874,-1.4835968017578125,-1.0894622802734375,-0.0174560546875
1789998301065314000,9.16631396484375,0.7315216064453125,-1.3621673583984375,-0.142181396484375
1789998301075384000,9.176384033203124,2.0361785888671875,-0.9170989990234375,-0.1419525146484375
1789998301085455000,9.186455078125,0.370819091796875,-0.4325408935546875,0.316925048828125
1789998301095526100,9.196526123046874,-1.69488525390625,-0.2358245849609375,0.4064178466796875
1789998301105597000,9.206596923828124,-0.6362152099609375,-0.9957733154296875,0.0472564697265625
1789998301115668000,9.21666796875,1.1535797119140625,-1.4391937255859375,-0.1697998046875
1789998301125739000,9.226739013671875,1.333343505859375,-0.781768798828125,-0.199798583984375
1789998301135810000,9.23681005859375,-0.230499267578125,-0.3471221923828125,-0.061279296875
1789998301145880300,9.24688037109375,-0.9997100830078125,-0.8232574462890625,0.05999755859375
1789998301155951000,9.256951171875,-1.2357940673828125,-1.5030364990234375,-0.01080322265625
1789998301166022100,9.267022216796875,-0.542449951171875,-1.54864501953125,-0.1971282958984375
1789998301176093200,9.27709326171875,1.0582275390625,-1.1617889404296875,-0.1126708984375
1789998301186164200,9.287164306640625,0.8146514892578125,-0.59906005859375,0.0219268798828125
1789998301196235300,9.2972353515625,-1.066558837890625,-0.59515380859375,0.155059814453125
1789998301206306300,9.307306396484375,-1.2718505859375,-1.143951416015625,0.1980743408203125
1789998301216376000,9.3173759765625,-0.9671173095703125,-1.542205810546875,-0.018035888671875
1789998301226447000,9.327447021484375,-0.6601409912109375,-1.19805908203125,-0.0909576416015625
1789998301236518100,9.33751806640625,0.8335113525390625,-0.8326873779296875,-0.162139892578125
1789998301246589200,9.347589111328125,0.471435546875,-0.736328125,0.0196075439453125
1789998301256660200,9.35766015625,-1.8428497314453125,-0.723968505859375,0.0937652587890625
1789998301266731000,9.36773095703125,-0.74957275390625,-1.12255859375,-0.129241943359375
1789998301276802000,9.377802001953125,1.1858673095703125,-1.2073211669921875,-0.286224365234375
1789998301286872000,9.3878720703125,0.804290771484375,-0.879302978515625,-0.1927642822265625
1789998301296943000,9.397943115234375,0.1728668212890625,-0.8032684326171875,-0.1560211181640625
1789998301307014000,9.408013916015625,-0.21929931640625,-0.89288330078125,-0.06256103515625
1789998301317085000,9.4180849609375,-1.4776763916015625,-1.0842742919921875,-0.01202392578125
1789998301327156000,9.428156005859375,-1.21734619140625,-1.3112640380859375,-0.15826416015625
1789998301337227000,9.43822705078125,-0.40728759765625,-0.9052581787109375,-0.360321044921875
1789998301347297300,9.44829736328125,-0.4372711181640625,-0.8479461669921875,-0.2415008544921875
1789998301357368000,9.4583681640625,-0.4998931884765625,-0.89483642578125,-0.1148529052734375
1789998301367439000,9.468439208984375,-0.3374786376953125,-0.641021728515625,-0.05548095703125
1789998301377510100,9.47851025390625,-0.7346954345703125,-0.63775634765625,0.0120086669921875
1789998301387581200,9.488581298828125,-1.0057830810546875,-0.9830322265625,-0.10186767578125
1789998301397652200,9.49865234375,0.2891845703125,-1.273529052734375,-0.3311920166015625
1789998301407723300,9.50872314453125,0.87347412109375,-1.3429718017578125,-0.2904510498046875
1789998301417793000,9.51879296875,-0.447509765625,-1.16241455078125,-0.04888916015625
1789998301427864000,9.528864013671875,-1.3702850341796875,-0.68878173828125,-0.0767364501953125
1789998301437935000,9.53893505859375,-0.48406982421875,-0.78704833984375,-0.088104248046875
1789998301448006100,9.549006103515625,0.14959716796875,-1.162322998046875,-0.0467681884765625
1789998301458077200,9.5590771484375,0.5709075927734375,-1.2689971923828125,-0.1322479248046875
1789998301468148000,9.56914794921875,0.504486083984375,-0.7891693115234375,-0.141937255859375
1789998301478218000,9.579218017578125,-0.36358642578125,-0.7354583740234375,-0.051116943359375
1789998301488289000,9.5892890625,-0.787689208984375,-0.9213409423828125,0.0469512939453125
1789998301498360000,9.599360107421875,0.38140869140625,-0.9011077880859375,-0.035308837890625
1789998301508431000,9.60943115234375,0.8118743896484375,-0.8079071044921875,-0.0476531982421875
1789998301518502000,9.619501953125,-0.71051025390625,-0.94866943359375,0.150634765625
1789998301528573000,9.629572998046875,-1.1901092529296875,-0.803466796875,0.2117767333984375
1789998301538644000,9.63964404296875,-0.1312255859375,-0.876953125,0.143280029296875
1789998301548714200,9.64971435546875,-0.6330718994140625,-1.14178466796875,0.1868133544921875
1789998301558785000,9.659784912109375,-0.522918701171875,-1.077392578125,0.0842132568359375
1789998301568855800,9.669855712890625,0.52264404296875,-1.0568695068359375,0.1423492431640625
1789998301578926800,9.6799267578125,-0.0003204345703125,-0.9650115966796875,0.2744903564453125
1789998301588998000,9.689997802734375,-0.4185333251953125,-1.114654541015625,0.1739349365234375
1789998301599069000,9.70006884765625,0.28179931640625,-0.991302490234375,0.07733154296875
1789998301609139000,9.710138916015625,-0.1770782470703125,-1.028778076171875,0.1283416748046875
1789998301619209700,9.720209716796875,-0.8564300537109375,-1.1127777099609375,0.0357208251953125
1789998301629280800,9.73028076171875,0.12872314453125,-1.2595672607421875,-0.091156005859375
1789998301639351800,9.740351806640625,0.19110107421875,-1.179290771484375,-0.01934814453125
1789998301649422800,9.7504228515625,-0.0921783447265625,-0.965606689453125,-0.0745849609375
1789998301659494000,9.760493896484375,0.4645233154296875,-0.7204742431640625,-0.120574951171875
1789998301669565000,9.77056494140625,0.3457489013671875,-0.525421142578125,0.0345611572265625
1789998301679634700,9.780634765625,-0.7623748779296875,-0.881439208984375,-0.0058441162109375
1789998301689705700,9.790705810546875,-0.9827423095703125,-1.3490447998046875,-0.100067138671875
1789998301699776800,9.80077685546875,-0.4384765625,-1.3549041748046875,-0.1459197998046875
1789998301709847800,9.810847900390625,-0.2836761474609375,-0.9774322509765625,-0.0859375
1789998301719918800,9.8209189453125,0.2108917236328125,-0.754058837890625,-0.1051177978515625
1789998301729990000,9.830989990234375,0.1671142578125,-0.5893402099609375,-0.0237274169921875
1789998301740061000,9.84106103515625,-1.48443603515625,-0.93536376953125,0.01910400390625
1789998301750131000,9.851130859375,-1.609100341796875,-1.4747161865234375,-0.10443115234375
1789998301760202000,9.861201904296875,-0.6675567626953125,-1.329345703125,-0.215576171875
1789998301770273000,9.87127294921875,0.2928314208984375,-0.824798583984375,-0.0748748779296875
1789998301780343800,9.88134375,0.569488525390625,-0.3835906982421875,-0.1446685791015625
1789998301790414800,9.891414794921875,-0.1078643798828125,-0.35455322265625,-0.1114654541015625
1789998301800486000,9.90148583984375,-0.2028045654296875,-0.8387451171875,-0.2137908935546875
1789998301810556000,9.911555908203125,0.4498138427734375,-1.275604248046875,-0.3782806396484375
1789998301820627000,9.921626953125,0.0444183349609375,-1.1554412841796875,-0.2590484619140625
1789998301830697700,9.93169775390625,-0.8166046142578125,-0.8515167236328125,0.073394775390625
1789998301840768800,9.941768798828125,-0.8805389404296875,-0.7136688232421875,0.243408203125
1789998301850839800,9.95183984375,-0.1478424072265625,-0.811553955078125,-0.00860595703125
1789998301860910800,9.961910888671875,-0.0831756591796875,-1.1784515380859375,-0.01470947265625
1789998301870980900,9.97198095703125,-0.3162384033203125,-1.4096527099609375,-0.010589599609375
1789998301881052000,9.982052001953125,-0.6795654296875,-1.1963043212890625,0.0547332763671875
1789998301891123000,9.992123046875,-1.2396240234375,-0.964202880859375,0.1900177001953125
1789998301901194000,10.002194091796875,-0.452911376953125,-1.0695648193359375,0.1568603515625
1789998301911265000,10.01226513671875,0.729156494140625,-0.7830657958984375,-0.0749053955078125
1789998301921335800,10.022335693359375,1.09002685546875,-0.361083984375,-0.1454925537109375
1789998301931406800,10.03240673828125,0.096832275390625,-0.530487060546875,0.006683349609375
1789998301941476900,10.042476806640625,-1.7383270263671875,-1.1956329345703125,0.22857666015625
1789998301951548000,10.0525478515625,-1.4311676025390625,-1.817535400390625,0.1021728515625
1789998301961619000,10.062618896484375,-0.594573974609375,-1.747894287109375,-0.3245697021484375
1789998301971690000,10.07268994140625,0.0407867431640625,-1.2325286865234375,-0.5705108642578125
1789998301981760800,10.0827607421875,0.78900146484375,-0.5637664794921875,-0.3926239013671875
1789998301991831800,10.092831787109375,0.80450439453125,-0.4266510009765625,-0.231536865234375
1789998302001901800,10.10290185546875,-0.1435394287109375,-0.703948974609375,-0.095947265625
1789998302011972900,10.112972900390625,-0.5670318603515625,-1.1340789794921875,-0.103118896484375
1789998302022044000,10.1230439453125,-0.1141357421875,-1.03021240234375,-0.4400482177734375
1789998302032114700,10.13311474609375,-0.3836212158203125,-0.8404998779296875,-0.3950653076171875
1789998302042185700,10.143185791015625,-0.4107208251953125,-0.950347900390625,-0.2946319580078125
1789998302052256800,10.1532568359375,-0.2074432373046875,-0.8563079833984375,0.01263427734375
1789998302062327800,10.163327880859375,-0.956451416015625,-1.0159759521484375,0.002349853515625
1789998302072397800,10.173397705078125,-1.7404327392578125,-1.12506103515625,0.1416015625
1789998302082468900,10.18346875,-0.4646759033203125,-1.2712860107421875,0.0875091552734375
1789998302092540000,10.193539794921875,0.5258636474609375,-1.0710906982421875,0.05194091796875
1789998302102611000,10.20361083984375,1.07501220703125,-0.921630859375,0.0995330810546875
1789998302112682000,10.213681884765625,0.7129669189453125,-0.4160614013671875,0.162933349609375
1789998302122753000,10.2237529296875,0.161102294921875,-0.318084716796875,0.1475982666015625
1789998302132822800,10.23382275390625,-0.3047027587890625,-1.1287689208984375,0.06793212890625
1789998302142893800,10.243893798828125,-1.1982574462890625,-1.5832366943359375,0.142547607421875
1789998302152964900,10.25396484375,-0.3789520263671875,-1.284332275390625,-0.1155548095703125
1789998302163036000,10.264035888671875,0.1635589599609375,-0.84259033203125,-0.2048797607421875
1789998302173107000,10.27410693359375,0.16473388671875,-0.4560546875,-0.02374267578125
1789998302183178000,10.284177978515626,-0.153961181640625,-0.4731292724609375,0.1404266357421875
1789998302193247700,10.294247802734375,-0.6209716796875,-1.118377685546875,0.2378387451171875
1789998302203318800,10.30431884765625,0.00909423828125,-1.384490966796875,0.14862060546875
1789998302213389800,10.314389892578125,0.393524169921875,-1.453765869140625,-0.0275421142578125
1789998302223460900,10.3244609375,-0.258392333984375,-1.00335693359375,0.037200927734375
1789998302233532000,10.334531982421876,-0.6226043701171875,-0.70098876953125,0.0756378173828125
1789998302243602700,10.344602783203126,-0.602294921875,-0.7737884521484375,0.0169830322265625
1789998302253673700,10.354673828125,-0.698699951171875,-0.8779449462890625,0.1694488525390625
1789998302263744000,10.364743896484375,0.0301513671875,-0.8803863525390625,0.162078857421875
1789998302273815000,10.37481494140625,0.6306304931640625,-0.67205810546875,0.1446990966796875
1789998302283886000,10.384885986328126,-0.7811279296875,-0.4874267578125,0.2606658935546875
1789998302293956900,10.394956787109376,-0.7974090576171875,-0.914703369140625,0.1548309326171875
1789998302304028000,10.40502783203125,0.4506988525390625,-1.4345703125,-0.029541015625
1789998302314099000,10.415098876953126,0.23565673828125,-1.305694580078125,-0.123077392578125
1789998302324169000,10.4251689453125,-0.1409759521484375,-1.032135009765625,-0.1040496826171875
1789998302334240000,10.435239990234376,0.3115234375,-0.813751220703125,-0.110198974609375
1789998302344310800,10.445310791015626,-0.544830322265625,-0.7753753662109375,-0.0674591064453125
1789998302354381800,10.4553818359375,-1.1654052734375,-1.025054931640625,-0.072967529296875
1789998302364452900,10.465452880859376,-0.7512054443359375,-1.232086181640625,-0.120361328125
1789998302374524000,10.47552392578125,-1.636871337890625,-1.0171356201171875,-0.0830078125
1789998302384594000,10.485593994140626,-1.329345703125,-1.1960296630859375,-0.1744842529296875
1789998302394664700,10.495664794921876,0.130035400390625,-1.008056640625,-0.367279052734375
1789998302404735700,10.50573583984375,0.850372314453125,-0.7543182373046875,-0.267120361328125
1789998302414806800,10.515806884765626,0.067626953125,-0.64044189453125,0.05499267578125
1789998302424877800,10.5258779296875,0.00384521484375,-0.86041259765625,0.0819244384765625
1789998302434948900,10.535948974609376,-0.1678924560546875,-1.162445068359375,0.0526275634765625
1789998302445020000,10.54602001953125,-0.9521636962890625,-1.335296630859375,0.1357879638671875
1789998302455090000,10.55608984375,-0.812530517578125,-1.2601776123046875,0.1221466064453125
1789998302465161000,10.566160888671876,-0.193939208984375,-0.883697509765625,0.1023101806640625
1789998302475232000,10.57623193359375,0.1199798583984375,-0.6829833984375,0.0728607177734375
1789998302485303000,10.586302978515626,0.270904541015625,-0.8799285888671875,0.0170135498046875
1789998302495374000,10.5963740234375,-0.222625732421875,-0.9051361083984375,0.082916259765625
1789998302505444900,10.60644482421875,-0.66455078125,-0.9650726318359375,0.1422882080078125
1789998302515515000,10.616514892578126,0.051239013671875,-1.2230072021484375,0.0029296875
1789998302525586000,10.6265859375,0.1884307861328125,-0.9968109130859375,-0.012847900390625
1789998302535657000,10.636656982421876,0.4858245849609375,-0.4991302490234375,-0.073150634765625
1789998302545728000,10.64672802734375,0.399383544921875,-0.2895355224609375,-0.10833740234375
1789998302555798800,10.656798828125,-0.68121337890625,-0.47149658203125,0.0198822021484375
1789998302565869800,10.666869873046876,-1.3039398193359375,-1.2473602294921875,-0.0230560302734375
1789998302575939800,10.67693994140625,-1.4435577392578125,-2.072967529296875,-0.2140350341796875
1789998302586011000,10.687010986328126,-1.0720062255859375,-1.7783660888671875,-0.3312530517578125
1789998302596082000,10.69708203125,-0.01910400390625,-0.9421844482421875,-0.1918182373046875
1789998302606152700,10.707152587890626,1.0381011962890625,-0.6267242431640625,-0.0907745361328125
1789998302616223700,10.7172236328125,1.1610565185546875,-0.6199188232421875,-0.195587158203125
1789998302626294800,10.727294677734376,-0.0197601318359375,-0.5680389404296875,-0.1233673095703125
1789998302636365000,10.737364990234376,-0.73065185546875,-0.9481964111328125,0.065582275390625
1789998302646436000,10.74743603515625,-0.563232421875,-1.3171234130859375,-0.042510986328125
1789998302656507000,10.7575068359375,-0.0578155517578125,-1.267974853515625,-0.0997161865234375
1789998302666578000,10.767577880859376,0.2138519287109375,-0.95849609375,-0.141143798828125
1789998302676649000,10.77764892578125,-0.2013702392578125,-0.90081787109375,-0.138275146484375
1789998302686720000,10.787719970703124,-0.3979339599609375,-0.9359283447265625,-0.0947113037109375
1789998302696791000,10.797791015625,-0.5110931396484375,-1.145416259765625,-0.0567169189453125
1789998302706860800,10.80786083984375,-0.950103759765625,-1.2514190673828125,-0.0458526611328125
1789998302716931800,10.817931884765626,-0.5578460693359375,-1.3592681884765625,-0.1118316650390625
1789998302727003000,10.8280029296875,0.0903472900390625,-1.1358642578125,-0.0919647216796875
1789998302737074000,10.838073974609374,0.0727996826171875,-0.987548828125,-0.1237030029296875
1789998302747145000,10.84814501953125,-0.213592529296875,-0.827880859375,-0.162445068359375
1789998302757215700,10.8582158203125,-1.0320892333984375,-1.1368255615234375,0.0442047119140625
1789998302767285800,10.86828564453125,-0.8033905029296875,-1.3248443603515625,-0.03106689453125
1789998302777356800,10.878356689453126,-0.1387939453125,-0.78228759765625,-0.178466796875
1789998302787427800,10.888427734375,0.988006591796875,-0.249786376953125,-0.1648101806640625
1789998302797499000,10.898498779296874,1.0565032958984375,-0.2003936767578125,-0.1468658447265625
1789998302807569700,10.908569580078124,-0.010589599609375,-0.4770965576171875,0.0679473876953125
1789998302817640700,10.918640625,-0.0239715576171875,-1.1357269287109375,0.052642822265625
1789998302827711000,10.9287109375,-1.0651702880859375,-2.05914306640625,-0.0674896240234375
1789998302837782000,10.938781982421874,-1.5438232421875,-1.8639068603515625,-0.0739593505859375
1789998302847853000,10.94885302734375,-0.4957275390625,-1.1712493896484375,-0.0875701904296875
1789998302857923800,10.958923828125,-0.0831298828125,-0.514862060546875,0.0777435302734375
1789998302867995000,10.968994873046874,0.041290283203125,-0.2798004150390625,0.0588531494140625
1789998302878066000,10.97906591796875,0.1783447265625,-0.244140625,0.0210418701171875
1789998302888137000,10.989136962890624,-0.6927337646484375,-0.956695556640625,-0.0015716552734375
1789998302898207000,10.99920703125,-2.0491790771484375,-1.3131561279296875,0.014007568359375
1789998302908277800,11.00927783203125,-0.6865081787109375,-1.1568603515625,0.002044677734375
1789998302918348800,11.019348876953124,1.0763092041015625,-1.2122802734375,0.06787109375
1789998302928419800,11.029419921875,1.252685546875,-0.7977752685546875,0.0493011474609375
1789998302938491000,11.039490966796874,0.46881103515625,-0.2071685791015625,0.02972412109375
1789998302948562000,11.04956201171875,-0.2318115234375,-0.425262451171875,-0.1139678955078125
1789998302958631700,11.059631591796874,-1.670562744140625,-1.5196990966796875,-0.0466766357421875
1789998302968702700,11.06970263671875,-1.3438568115234375,-1.83636474609375,-0.02301025390625
1789998302978773800,11.079773681640624,0.6815338134765625,-1.4767303466796875,-0.103546142578125
1789998302988844800,11.0898447265625,0.655487060546875,-0.8675079345703125,-0.097900390625
1789998302998915800,11.099915771484374,-0.0406951904296875,-0.3949432373046875,-0.1314544677734375
1789998303008987000,11.10998681640625,-0.41571044921875,-0.426727294921875,0.048583984375
1789998303019057000,11.120056884765624,-1.308685302734375,-1.2712860107421875,0.1882781982421875
1789998303029128000,11.1301279296875,-1.9546051025390625,-1.597900390625,0.060760498046875
1789998303039199000,11.140198974609374,-0.168548583984375,-1.266845703125,-0.14056396484375
1789998303049270000,11.15027001953125,0.8231048583984375,-0.9079742431640625,-0.0372314453125
1789998303059341000,11.160341064453124,-0.0478973388671875,-0.5344696044921875,0.022857666015625
1789998303069411800,11.170411865234374,0.0824127197265625,-0.53472900390625,-0.023345947265625
1789998303079481900,11.18048193359375,0.579681396484375,-0.95098876953125,-0.029571533203125
1789998303089553000,11.190552978515624,-0.2750244140625,-1.163665771484375,-0.17034912109375
1789998303099624000,11.2006240234375,-0.6797332763671875,-1.059478759765625,-0.160736083984375
1789998303109695000,11.210695068359374,-0.999481201171875,-1.126495361328125,0.0285797119140625
1789998303119765800,11.220765869140624,-1.1419830322265625,-1.272491455078125,-0.102508544921875
1789998303129836800,11.2308369140625,0.2266845703125,-1.21380615234375,-0.333343505859375
1789998303139906800,11.24090673828125,1.0473175048828125,-0.91778564453125,-0.39837646484375
1789998303149977900,11.250977783203124,-0.0947265625,-0.77362060546875,-0.2555084228515625
1789998303160049000,11.261048828125,-0.8426666259765625,-0.56719970703125,-0.1259002685546875
1789998303170119700,11.27111962890625,-0.450225830078125,-0.6631317138671875,-0.0315093994140625
1789998303180190700,11.281190673828124,-0.1111602783203125,-1.009185791015625,-0.0865020751953125
1789998303190261800,11.29126171875,0.1736602783203125,-1.0405426025390625,-0.1313323974609375
1789998303200332000,11.30133203125,0.15118408203125,-0.345367431640625,-0.0640716552734375
1789998303210403000,11.311403076171874,-0.943359375,-0.7845611572265625,0.112091064453125
1789998303220473900,11.321473876953124,-1.263397216796875,-1.51336669921875,0.1408538818359375
1789998303230545000,11.331544921875,-0.080810546875,-1.391937255859375,-0.1255645751953125
1789998303240616000,11.341615966796875,0.3197784423828125,-1.1331329345703125,-0.0841827392578125
1789998303250687000,11.35168701171875,0.134918212890625,-0.8319854736328125,-0.00054931640625
1789998303260757000,11.361757080078124,0.283477783203125,-0.555450439453125,0.0947723388671875
1789998303270827800,11.371827880859374,-0.29022216796875,-0.7955169677734375,0.149017333984375
1789998303280898800,11.38189892578125,-0.715484619140625,-1.438262939453125,0.0581207275390625
1789998303290969900,11.391969970703125,-0.1048126220703125,-1.2760162353515625,-0.0810089111328125
1789998303301041000,11.402041015625,0.1424713134765625,-0.83380126953125,-0.147857666015625
1789998303311112000,11.41211181640625,-0.5975189208984375,-0.7538299560546875,-0.011749267578125
1789998303321181700,11.422181640625,-0.628204345703125,-0.915679931640625,0.0469512939453125
1789998303331252700,11.432252685546874,-0.3002777099609375,-1.0257568359375,-0.0712738037109375
1789998303341323800,11.44232373046875,-0.55950927734375,-1.03399658203125,-0.1587066650390625
1789998303351394800,11.452394775390625,-0.3050994873046875,-0.970489501953125,-0.0370330810546875
1789998303361465900,11.4624658203125,1.35894775390625,-1.018157958984375,-0.0598907470703125
1789998303371537000,11.472536865234375,0.0902862548828125,-0.7791290283203125,0.0124969482421875
1789998303381607000,11.48260693359375,-1.2483673095703125,-1.0870208740234375,0.1466522216796875
1789998303391678000,11.492677978515625,-0.269927978515625,-1.2422332763671875,-0.02099609375
1789998303401749000,11.5027490234375,-0.5494537353515625,-0.90509033203125,-0.03985595703125
1789998303411820000,11.512820068359375,-1.133087158203125,-1.053985595703125,-0.085784912109375
1789998303421891000,11.52289111328125,-0.1301422119140625,-0.9690093994140625,-0.1150360107421875
1789998303431961900,11.5329619140625,0.306121826171875,-0.7109527587890625,-0.01568603515625
1789998303442031900,11.543031982421875,-0.8060150146484375,-0.7336883544921875,0.0920867919921875
1789998303452103000,11.55310302734375,-0.5792999267578125,-1.1615142822265625,0.0162506103515625
1789998303462174000,11.563174072265625,-0.302398681640625,-1.4166107177734375,-0.119964599609375
1789998303472244700,11.57324462890625,-0.706756591796875,-1.39752197265625,-0.0691986083984375
1789998303482315800,11.583315673828125,-0.1678619384765625,-0.9689788818359375,-0.1461944580078125
1789998303492386800,11.59338671875,1.2003173828125,-0.5238800048828125,-0.2238006591796875
1789998303502456800,11.603456787109375,0.3452301025390625,-0.4237213134765625,-0.0303955078125
1789998303512528000,11.61352783203125,-0.9532928466796875,-0.7002716064453125,0.124908447265625
1789998303522598700,11.6235986328125,-0.6852874755859375,-1.106170654296875,-0.0252227783203125
1789998303532669700,11.633669677734375,-0.0032501220703125,-1.3828582763671875,-0.18115234375
1789998303542740700,11.64374072265625,-0.0745391845703125,-1.2402191162109375,-0.18829345703125
1789998303552811800,11.653811767578125,-0.2518768310546875,-0.6972198486328125,-0.1109771728515625
1789998303562882800,11.6638828125,-0.5617218017578125,-0.718231201171875,-0.0028228759765625
1789998303572953000,11.673953125,-0.9927215576171875,-1.09600830078125,-0.029327392578125
1789998303583023900,11.68402392578125,-0.4443511962890625,-1.2609405517578125,-0.1027679443359375
1789998303593095000,11.694094970703125,0.9911346435546875,-1.1571044921875,-0.217254638671875
1789998303603166000,11.704166015625,0.8517608642578125,-0.825927734375,-0.1684417724609375
1789998303613237000,11.714237060546875,-0.603424072265625,-0.51165771484375,0.0870208740234375
1789998303623308000,11.72430810546875,-0.89874267578125,-0.663787841796875,0.110565185546875
1789998303633377800,11.734377685546875,-0.196441650390625,-1.1631927490234375,0.0311737060546875
1789998303643448800,11.74444873046875,-0.3369293212890625,-1.28375244140625,-0.0947418212890625
1789998303653520000,11.754519775390625,-0.3647308349609375,-1.1158447265625,-0.102264404296875
1789998303663591000,11.7645908203125,-0.3267822265625,-1.1064453125,-0.0345611572265625
1789998303673662000,11.774661865234375,-0.4395904541015625,-0.998992919921875,0.0987701416015625
1789998303683733000,11.78473291015625,0.430084228515625,-0.841064453125,-0.0534515380859375
1789998303693802800,11.794802734375,0.816192626953125,-0.787567138671875,-0.1108245849609375
1789998303703873800,11.804873779296875,-0.1450042724609375,-0.8178253173828125,-0.05474853515625
1789998303713944800,11.81494482421875,-0.9957427978515625,-1.143280029296875,0.0110015869140625
1789998303724015900,11.825015869140625,-1.0802001953125,-1.4798126220703125,-0.0098419189453125
1789998303734087000,11.8350869140625,-0.6771240234375,-1.5102691650390625,-0.2265625
1789998303744157700,11.84515771484375,0.291961669921875,-1.04095458984375,-0.26849365234375
1789998303754228000,11.85522802734375,0.6142578125,-0.2915191650390625,-0.136260986328125
1789998303764299000,11.865299072265625,0.0388641357421875,-0.27032470703125,0.010528564453125
1789998303774370000,11.8753701171875,-0.5936279296875,-0.8146514892578125,0.0661468505859375
1789998303784441000,11.885441162109375,-0.3967132568359375,-1.271240234375,-0.080535888671875
1789998303794512000,11.895511962890625,-0.1202239990234375,-1.3420867919921875,-0.2726898193359375
1789998303804583000,11.9055830078125,-0.026123046875,-1.1161956787109375,-0.2440643310546875
1789998303814653000,11.91565283203125,0.2436981201171875,-1.0492095947265625,-0.2316436767578125
1789998303824724000,11.925723876953125,0.2143707275390625,-0.8279571533203125,-0.1466217041015625
1789998303834795000,11.935794921875,-0.532135009765625,-0.7923583984375,0.0736846923828125
1789998303844865800,11.94586572265625,-1.056793212890625,-1.010040283203125,0.151885986328125
1789998303854936800,11.955936767578125,-0.46026611328125,-1.1489105224609375,0.117034912109375
1789998303865006800,11.9660068359375,-0.2601165771484375,-1.0528717041015625,0.05096435546875
1789998303875078000,11.976077880859375,0.2735443115234375,-0.655517578125,-0.046173095703125
1789998303885149000,11.98614892578125,0.5310516357421875,-0.4471435546875,-0.0114288330078125
1789998303895219700,11.9962197265625,-0.8215789794921875,-0.90753173828125,0.15875244140625
1789998303905290800,12.006290771484375,-1.517852783203125,-1.5383148193359375,0.1841583251953125
1789998303915361800,12.01636181640625,-0.5643157958984375,-1.818511962890625,-0.0877532958984375
1789998303925432000,12.02643212890625,0.037445068359375,-1.3964080810546875,-0.1634521484375
1789998303935503000,12.036503173828125,0.1600341796875,-0.2273406982421875,-0.00457763671875
1789998303945574000,12.046573974609375,0.254486083984375,0.147247314453125,0.0525970458984375
1789998303955645000,12.05664501953125,-0.52093505859375,-0.574371337890625,0.211029052734375
1789998303965716000,12.066716064453125,-0.9676971435546875,-1.58026123046875,0.114501953125
1789998303975787000,12.076787109375,-0.2659759521484375,-1.8295440673828125,-0.1093597412109375
1789998303985857000,12.08685693359375,-0.2071075439453125,-1.2303466796875,-0.1127166748046875
1789998303995927800,12.096927734375,-0.7162322998046875,-0.59912109375,0.1295013427734375
1789998304005998800,12.106998779296875,0.060455322265625,-0.2180938720703125,0.1382598876953125
1789998304016070000,12.11706982421875,0.675872802734375,-0.607513427734375,-0.0046844482421875
1789998304026141000,12.127140869140625,-0.7800750732421875,-1.11700439453125,0.12762451171875
1789998304036212000,12.1372119140625,-0.7097320556640625,-1.1519317626953125,-0.0246734619140625
1789998304046281700,12.14728173828125,-0.2547454833984375,-1.2822723388671875,-0.1405029296875
1789998304056352800,12.157352783203125,-0.7608489990234375,-1.4467620849609375,-0.01141357421875
1789998304066423800,12.167423828125,-0.818939208984375,-0.958740234375,-0.088470458984375
1789998304076494800,12.177494873046875,0.863494873046875,-0.7018585205078125,-0.1411285400390625
1789998304086566000,12.18756591796875,0.302001953125,-0.6531524658203125,0.0928955078125
1789998304096637000,12.197636962890625,-0.6504974365234375,-0.9049835205078125,0.138519287109375
1789998304106707000,12.20770703125,-0.416351318359375,-1.16217041015625,0.1185150146484375
1789998304116778000,12.217778076171875,-0.6883087158203125,-1.3003692626953125,0.0318756103515625
1789998304126849000,12.22784912109375,-1.067352294921875,-1.2399139404296875,-0.057647705078125
1789998304136920000,12.237920166015625,0.0011444091796875,-0.9097137451171875,-0.0665130615234375
1789998304146991000,12.2479912109375,0.6226806640625,-0.7601318359375,-0.04345703125
1789998304157062000,12.258061767578125,0.1809844970703125,-0.7764129638671875,0.02911376953125
1789998304167132000,12.2681318359375,-0.0041351318359375,-0.8796539306640625,-0.0147705078125
1789998304177203000,12.278202880859375,-0.343994140625,-1.0725555419921875,0.1204681396484375
1789998304187274000,12.28827392578125,-0.8940887451171875,-1.19000244140625,0.24072265625
1789998304197344800,12.2983447265625,-0.5891571044921875,-1.221893310546875,0.0215606689453125
1789998304207415800,12.308415771484375,0.4459381103515625,-1.0515899658203125,0.0269622802734375
1789998304217486800,12.31848681640625,0.5895843505859375,-0.6149749755859375,-0.0278472900390625
1789998304227556900,12.328556884765625,-0.16510009765625,-0.3949127197265625,0.0264739990234375
1789998304237628000,12.3386279296875,-0.0596771240234375,-0.7281646728515625,0.034423828125
1789998304247698700,12.34869873046875,0.005279541015625,-0.987945556640625,0.008544921875
1789998304257769700,12.358769775390625,-0.3587493896484375,-1.1922454833984375,0.020751953125
1789998304267840800,12.3688408203125,-1.277587890625,-1.225860595703125,0.099334716796875
1789998304277911800,12.378911865234375,-0.32379150390625,-0.9965972900390625,-0.04193115234375
1789998304287982000,12.388982177734375,0.9145355224609375,-0.8940277099609375,-0.2243804931640625
1789998304298052900,12.399052978515625,0.2162933349609375,-0.650665283203125,-0.1911468505859375
1789998304308124000,12.4091240234375,-0.7020111083984375,-0.9705047607421875,-0.003997802734375
1789998304318195000,12.41919482421875,-0.6113739013671875,-1.0153656005859375,0.0358734130859375
1789998304328266000,12.429265869140625,-0.937591552734375,-1.186492919921875,0.0072021484375
1789998304338337000,12.4393369140625,-0.6082916259765625,-1.464874267578125,-0.0460357666015625
1789998304348406800,12.44940673828125,0.289031982421875,-0.95111083984375,-0.1871337890625
1789998304358477800,12.459477783203125,0.2223052978515625,-0.6809844970703125,-0.17889404296875
1789998304368548900,12.469548828125,-1.2906494140625,-0.9947509765625,-0.04302978515625
1789998304378620000,12.479619873046875,-0.6049957275390625,-1.277740478515625,-0.0618438720703125
1789998304388691000,12.48969091796875,0.09185791015625,-1.283599853515625,-0.0726318359375
1789998304398762000,12.499761962890625,-0.15899658203125,-1.0498199462890625,-0.030059814453125
1789998304408831700,12.509831787109375,-0.0736541748046875,-0.8234405517578125,-0.043487548828125
1789998304418902800,12.51990283203125,0.0058135986328125,-0.655181884765625,0.0265960693359375
1789998304428973800,12.529973876953125,-0.519317626953125,-0.88031005859375,-0.0783843994140625
1789998304439044900,12.540044921875,-0.568572998046875,-1.2001495361328125,-0.1400146484375
1789998304449116000,12.550115966796875,0.5976104736328125,-0.775970458984375,-0.2088470458984375
1789998304459186700,12.560186767578125,0.269256591796875,-0.622955322265625,-0.0447540283203125
1789998304469257000,12.570257080078125,-0.9788360595703125,-1.0376739501953125,0.0610809326171875
1789998304479328000,12.580327880859375,-0.9817352294921875,-1.0548095703125,0.018646240234375
1789998304489399000,12.59039892578125,-0.3941802978515625,-0.995880126953125,-0.1572113037109375
1789998304499470000,12.600469970703125,-0.26593017578125,-1.039947509765625,-0.2654571533203125
1789998304509540900,12.610540771484375,0.0387725830078125,-0.919708251953125,-0.265960693359375
1789998304519611000,12.62061083984375,0.5879364013671875,-0.6712188720703125,-0.095977783203125
1789998304529682000,12.630681884765625,-0.685089111328125,-0.854095458984375,0.176971435546875
1789998304539753000,12.6407529296875,-1.6165313720703125,-0.968597412109375,0.0407867431640625
1789998304549824000,12.650823974609375,-0.0112457275390625,-1.13287353515625,-0.1408233642578125
1789998304559894800,12.660894775390625,0.7887115478515625,-1.30560302734375,-0.2232208251953125
1789998304569965800,12.6709658203125,-0.2967071533203125,-1.0085601806640625,-0.186492919921875
1789998304580035600,12.68103564453125,-0.2672119140625,-0.687255859375,-0.0594482421875
1789998304590106600,12.691106689453125,-0.25067138671875,-0.9668121337890625,0.0177001953125
1789998304600177700,12.701177734375,-0.8253936767578125,-1.2478485107421875,0.0792694091796875
1789998304610248700,12.711248779296875,-0.1712493896484375,-1.00555419921875,-0.090606689453125
1789998304620319700,12.72131982421875,1.211029052734375,-0.8130340576171875,-0.170074462890625
1789998304630390500,12.731390625,-0.1329193115234375,-1.1268157958984375,-0.043853759765625
1789998304640460800,12.741460693359375,-1.4213104248046875,-1.062591552734375,0.103607177734375
1789998304650531800,12.75153173828125,-0.594390869140625,-0.9817657470703125,0.064453125
1789998304660603000,12.761602783203125,0.0107421875,-1.14019775390625,-0.0528717041015625
1789998304670674000,12.771673828125,0.329437255859375,-1.139434814453125,-0.26025390625
1789998304680744700,12.78174462890625,0.5155487060546875,-0.75750732421875,-0.13629150390625
1789998304690815700,12.791815673828125,-0.8299102783203125,-0.483734130859375,0.15960693359375
1789998304700885800,12.8018857421875,-1.405853271484375,-0.8876953125,0.0997467041015625
1789998304710956800,12.811956787109375,0.346527099609375,-1.2617950439453125,-0.111663818359375
1789998304721027800,12.82202783203125,0.763641357421875,-1.159149169921875,-0.179840087890625
1789998304731098600,12.8320986328125,-0.59979248046875,-0.8775634765625,-0.032623291015625
1789998304741169700,12.842169677734375,-0.6580810546875,-0.7823486328125,0.066009521484375
1789998304751239700,12.85223974609375,-0.083282470703125,-0.9099884033203125,-0.007781982421875
1789998304761310700,12.862310791015625,-0.0500946044921875,-1.156707763671875,-0.069305419921875
1789998304771381500,12.872381591796875,-0.342803955078125,-0.8682403564453125,-0.04345703125
1789998304781452500,12.88245263671875,0.1277008056640625,-0.80841064453125,0.0072021484375
1789998304791523600,12.892523681640625,-0.997894287109375,-1.0290374755859375,0.2017059326171875
1789998304801594600,12.9025947265625,-0.9713134765625,-1.12548828125,0.05120849609375
1789998304811665000,12.912664794921875,0.3880615234375,-1.1361541748046875,-0.1006927490234375
1789998304821735700,12.922735595703125,0.2043914794921875,-0.9489593505859375,-0.039337158203125
1789998304831806700,12.932806640625,-0.845428466796875,-0.712188720703125,-0.0214996337890625
