time,seconds_elapsed,z,y,x
1789141117388456700,1.540456787109375,-0.021005864643161433,-9.805286385621017,0.1621691048390737
1789141117398428700,1.5504287109375,-0.022702424831785323,-9.805548040391,0.14521390853465793
1789141117408401700,1.560401611328125,-0.025483125907692472,-9.805790129581109,0.12732554546860628
1789141117418374000,1.570373779296875,-0.02589366201111002,-9.80598447207748,0.11130723183844493
1789141117428345600,1.580345703125,-0.02749984740119571,-9.806161424267552,0.09398377340523192
1789141117438318800,1.59031884765625,-0.029475228118862294,-9.806322392966228,0.07456931770404278
1789141117448290800,1.600290771484375,-0.030404861467941188,-9.806450403621279,0.05484410802108564
1789141117458263600,1.610263671875,-0.028203813350442163,-9.806549084585292,0.0343271899006632
1789141117468235800,1.62023583984375,-0.02880289752557054,-9.80659687824865,0.014194768795142419
1789141117478207700,1.630207763671875,-0.028248163811727938,-9.806608794590796,-0.0030897494879624844
1789141117488180700,1.6401806640625,-0.02545161010825535,-9.806598496684655,-0.018777260609607993
1789141117498152700,1.650152587890625,-0.022814015144624143,-9.806565298436741,-0.033594991052019414
1789141117508125700,1.660125732421875,-0.024291110712034904,-9.806491371685146,-0.05027453292530591
1789141117518097700,1.67009765625,-0.02565500665970805,-9.80638418149537,-0.06750307529511831
1789141117528069600,1.680069580078125,-0.027275733536995136,-9.806252004567124,-0.08406300294372634
1789141117538043000,1.69004296875,-0.030047962934229087,-9.806096602061583,-0.09975307104424522
1789141117548014600,1.7000146484375,-0.03310404356421003,-9.805911696429547,-0.11570778318619795
1789141117557986800,1.70998681640625,-0.03437968860919059,-9.805699635324984,-0.13215556989990504
1789141117567959800,1.719959716796875,-0.033865478527503864,-9.80545527230172,-0.14928584968482378
1789141117577931500,1.729931640625,-0.030533212728264793,-9.805179619707063,-0.16704800020138152
1789141117587904800,1.73990478515625,-0.02773205570222763,-9.80487326923954,-0.18460350441865622
1789141117597876700,1.749876708984375,-0.026902329122816628,-9.804519588294095,-0.20263857695239199
1789141117607848700,1.7598486328125,-0.027616410567876785,-9.804251812072666,-0.21512757253591855
1789141117617821700,1.76982177734375,-0.026731757246476116,-9.80406044129414,-0.22377319967588602
1789141117627793700,1.779793701171875,-0.02814922386124322,-9.803808454015208,-0.23438000342204193
1789141117637765600,1.789765625,-0.028920118961629267,-9.803559027795663,-0.24450141389778943
1789141117647738600,1.799738525390625,-0.02753938130956392,-9.80328654002249,-0.2553574758384119
1789141117657710800,1.8097109375,-0.027893592558511104,-9.80299780577217,-0.2661855608828524
1789141117667683600,1.81968359375,-0.03001562575212808,-9.802812828322761,-0.2726760126186414
1789141117677655800,1.82965576171875,-0.03237435794126152,-9.802757842669301,-0.2743513683396616
1789141117687627800,1.839627685546875,-0.037271820301364986,-9.802765204487407,-0.2734906831713979
1789141117697600500,1.8496005859375,-0.04005230976357732,-9.8028240874163,-0.270964424621547
1789141117707572700,1.85957275390625,-0.037977068374481185,-9.802870783197397,-0.2695666201543618
1789141117717545700,1.869545654296875,-0.032486303013466854,-9.802882300289724,-0.2698477887244121
1789141117727517700,1.879517578125,-0.02721897039473729,-9.80293914771926,-0.2683546566954025
1789141117737489700,1.88948974609375,-0.020338738601169033,-9.803038622473165,-0.26532966055378465
1789141117747462700,1.899462646484375,-0.013810837453647877,-9.80317729690508,-0.2605915751216576
1789141117757434600,1.9094345703125,-0.008515585939482921,-9.803389630834305,-0.2527036053886455
1789141117767406600,1.919406494140625,-0.007204324400297838,-9.803595591905479,-0.24463083047624043
1789141117777379800,1.9293798828125,-0.010156953908224414,-9.803762301483497,-0.23775999949199347
1789141117787351600,1.9393515625,-0.011247086763000813,-9.80393269254133,-0.23059823075030172
1789141117797324500,1.949324462890625,-0.014114198764364908,-9.804062353329481,-0.22483677876283434
1789141117807296800,1.959296875,-0.018606447010049643,-9.80418488140472,-0.2190922773964284
1789141117817268700,1.969268798828125,-0.018190547492331996,-9.80436254943216,-0.21103579299502753
1789141117827241700,1.97924169921875,-0.017981414032870905,-9.804526567808747,-0.2032673942799216
1789141117837213700,1.989213623046875,-0.021177236786139447,-9.804675433265194,-0.19564464467656276
1789141117847185700,1.999185546875,-0.021763054088405506,-9.804803840320895,-0.18905488579534693
1789141117857158700,2.00915869140625,-0.021083653243403208,-9.804901725589124,-0.18397026371814562
1789141117867131000,2.019130859375,-0.01925879946311747,-9.80499227814344,-0.1792560657038924
1789141117877103900,2.029103759765625,-0.017825259104473207,-9.805045415337585,-0.17651085190325916
1789141117887075600,2.03907568359375,-0.01701124914021222,-9.805096869573939,-0.17373223810197008
1789141117897047800,2.0490478515625,-0.01760127926181329,-9.80516612877187,-0.16968644719650344
1789141117907020800,2.059020751953125,-0.021036565754400674,-9.805255751496297,-0.16402722439985398
1789141117916992800,2.06899267578125,-0.022787890378676845,-9.80541002668502,-0.1542885615976919
1789141117926965800,2.0789658203125,-0.02511364204810726,-9.805544797234921,-0.14508736094825536
1789141117936937700,2.088937744140625,-0.026283050806295116,-9.805644652633964,-0.13795706565699067
1789141117946909700,2.09890966796875,-0.025418458384637858,-9.805702076540195,-0.13398300496420662
1789141117956882700,2.108882568359375,-0.02124653307636433,-9.805777353979646,-0.12908202233006372
1789141117966855000,2.11885498046875,-0.019798321586570987,-9.805853292636773,-0.12342067981705415
1789141117976826600,2.12882666015625,-0.02026036009546968,-9.805972507218103,-0.11346647532737503
1789141117986799600,2.138799560546875,-0.02075860379629707,-9.806111427610261,-0.10060515293587854
1789141117996771800,2.148771728515625,-0.024182178335902745,-9.806224921352172,-0.08797205105448308
1789141118006744600,2.15874462890625,-0.03002397808289999,-9.806293084497577,-0.07812298297595607
1789141118016716800,2.168716796875,-0.03233738273804235,-9.806337166563862,-0.07137944732988745
1789141118026688800,2.178688720703125,-0.03261825833503208,-9.806370210773217,-0.06655202451525688
1789141118036661500,2.18866162109375,-0.030158621350379965,-9.80640435268032,-0.06257248875455299
1789141118046633700,2.1986337890625,-0.02515175447549481,-9.806453166785072,-0.05681304772491982
1789141118056605700,2.208605712890625,-0.019499663140655144,-9.806502420755194,-0.05016182590606681
1789141118066578700,2.21857861328125,-0.014743118449309568,-9.806543843623043,-0.043381397412896316
1789141118076550700,2.228550537109375,-0.008880087277937841,-9.80657504514499,-0.03732001056255197
1789141118086523600,2.238523681640625,-0.007240616140462372,-9.806595056747293,-0.032144043702951534
1789141118096495600,2.24849560546875,-0.008125976332460164,-9.806602836737206,-0.02954599436352822
1789141118106467800,2.2584677734375,-0.009209668676187171,-9.806605454196363,-0.028332902685480017
1789141118116440800,2.26844091796875,-0.012223428390165013,-9.806603957792198,-0.027499470280286195
1789141118126412500,2.27841259765625,-0.01586111220082151,-9.806595135122642,-0.029008723844420114
1789141118136385800,2.2883857421875,-0.017168071009312752,-9.80658278563004,-0.032022491045804374
1789141118146358300,2.298358154296875,-0.0169489424968802,-9.80657107274606,-0.035392603218499755
1789141118156330200,2.308330322265625,-0.016298229849670123,-9.80656618211884,-0.03705487399951986
1789141118166303500,2.318303466796875,-0.015315952577496374,-9.80655843763354,-0.03950453624206601
1789141118176275200,2.328275146484375,-0.014527822076433433,-9.806547390652039,-0.042341250850387535
1789141118186247400,2.338247314453125,-0.012255871198360172,-9.806547033513194,-0.04322560204621015
1789141118196220400,2.348220458984375,-0.009062043745334916,-9.80655411293019,-0.042355089868617204
1789141118206192000,2.358192138671875,-0.005803813483335471,-9.806558506916542,-0.04196886477179949
1789141118216165400,2.368165283203125,-0.004121362894541474,-9.806554044157531,-0.04316085173179025
1789141118226137300,2.378137451171875,-0.0006011228037273554,-9.806547498477112,-0.04497660314481586
1789141118236109300,2.388109375,0.003798918625870901,-9.806541595315553,-0.04608442599589445
1789141118246082300,2.398082275390625,0.006007727536945672,-9.806534175073827,-0.04734789959801475
1789141118256054500,2.408054443359375,0.008042009780369749,-9.80653727555926,-0.046451071953533755
1789141118266026200,2.418026123046875,0.006020431388862277,-9.806545481743283,-0.04504834765483815
1789141118275999200,2.427999267578125,0.005199892841078732,-9.80656262792436,-0.04115079139666751
1789141118285971500,2.437971435546875,0.003602491377929779,-9.806580118068126,-0.03703551319728472
1789141118295944400,2.4479443359375,0.00292061296834368,-9.806590561120977,-0.03414192710354418
1789141118305916400,2.45791650390625,0.003695541757078638,-9.806599108704425,-0.03130809208797347
1789141118315888400,2.467888427734375,0.006541593920954995,-9.806602518716863,-0.029901385274959537
1789141118325861400,2.477861328125,0.008585341863121848,-9.806604811046682,-0.028603875615290816
1789141118335833300,2.487833251953125,0.009140132625086454,-9.806618948952615,-0.022934128159527542
1789141118345805300,2.497805419921875,0.007233506279124787,-9.806636400469705,-0.014518649964233398
1789141118355778600,2.507778564453125,0.004242694777383296,-9.806645544868127,-0.007359842674350591
1789141118365750300,2.517750244140625,5.2361840721197184e-05,-9.80664988643857,-0.00018222146972684042
1789141118375723300,2.52772314453125,-0.006885814477047762,-9.80664597837704,0.005202825773682361
1789141118385695500,2.537695556640625,-0.012387170808767743,-9.806636402108246,0.009998288257196604
1789141118395667200,2.547667236328125,-0.014372238182123357,-9.806630177030728,0.013167243516273925
1789141118405640400,2.557640380859375,-0.016958085768961406,-9.806619592800613,0.017481331577225746
1789141118415612400,2.5676123046875,-0.01682542245171235,-9.80661495816751,0.020366278708147605
1789141118425584400,2.57758447265625,-0.016528028670040596,-9.806599198916084,0.02678549329186247
1789141118435557400,2.587557373046875,-0.011729371829389846,-9.806585169639616,0.03354344250412113
1789141118445529300,2.597529296875,-0.007281173764179056,-9.80655644406965,0.042235335610141374
1789141118455502300,2.60750244140625,-0.00539457980754078,-9.80652198884569,0.04970871414731158
1789141118465474300,2.617474365234375,-0.002799293702644911,-9.806471614830807,0.05918851613022434
1789141118475446300,2.6274462890625,0.0012734025635326406,-9.806413469512083,0.06815534623206787
1789141118485419300,2.637419189453125,0.0004158987668591287,-9.806338799215679,0.07816605220410759
1789141118495391500,2.6473916015625,-0.0050046571598914,-9.806263613494941,0.08693147730326586
1789141118505363200,2.65736328125,-0.0074639439737508315,-9.806152110349213,0.09859425577505027
1789141118515336200,2.667336181640625,-0.011751569480792756,-9.806030915417708,0.1096372074795969
1789141118525308400,2.677308349609375,-0.017122398513796922,-9.805913192378696,0.11897745714649656
1789141118535281400,2.687281494140625,-0.018706948873388668,-9.805782481130896,0.1290920354634978
1789141118545253400,2.69725341796875,-0.018155841820563914,-9.805687327232784,0.13620268003125413
1789141118555225300,2.707225341796875,-0.018083424435701025,-9.805583293258135,0.14352014569009083
1789141118565198300,2.7171982421875,-0.012850253137399343,-9.805461527094245,0.15212891340208173
1789141118575170300,2.72717041015625,-0.009965357546378948,-9.805268611654228,0.1642645204266056
1789141118585143300,2.737143310546875,-0.00898182541903196,-9.805080839368134,0.1751881548123296
1789141118595115500,2.747115478515625,-0.00627575477630353,-9.804892805040778,0.1855586914672921
1789141118605087200,2.757087158203125,-0.0056487014017731155,-9.804751534689862,0.1928950598283967
1789141118615060200,2.767060302734375,-0.0054386810654929625,-9.804592440393828,0.20080287128123836
1789141118625032400,2.777032470703125,-0.005738181586027256,-9.804463414205111,0.2070270587851106
1789141118635004200,2.787004150390625,-0.006252241525491564,-9.804395720639036,0.21019143665782344
1789141118644977400,2.796977294921875,-0.007429337304121776,-9.804312688365743,0.21396586025697903
1789141118654949400,2.806949462890625,-0.007924535782185119,-9.804194444607326,0.21928474178528998
1789141118664922000,2.816922119140625,-0.010154738727191285,-9.804093389846571,0.2236787027507752
1789141118674894300,2.826894287109375,-0.012196811428211576,-9.804045457681513,0.2256559049057847
1789141118684866300,2.8368662109375,-0.013517884489352384,-9.80399281086765,0.22785543195017402
1789141118694839300,2.84683935546875,-0.012945679643896802,-9.803995433840132,0.2277736125157003
1789141118704811300,2.856811279296875,-0.013289948560677006,-9.804055764778639,0.22516385835492259
1789141118714783500,2.866783447265625,-0.013590715304161661,-9.804119804233846,0.22236656711906297
1789141118724756200,2.876756103515625,-0.013160435707294943,-9.80412998862022,0.2219169443310439
1789141118734728400,2.886728515625,-0.01273286027539187,-9.804188112539897,0.21936048255571938
1789141118744701400,2.896701416015625,-0.009232622294027801,-9.804279463352925,0.21542666571818564
1789141118754673200,2.906673095703125,-0.002018652463592193,-9.804441488281107,0.2080913746906933
1789141118764645400,2.916645263671875,0.0043839933639245555,-9.80461659809523,0.19962732745779485
1789141118774618400,2.926618408203125,0.008830026669064003,-9.804797738495893,0.19037930009754225
1789141118784590300,2.93659033203125,0.013245070418048465,-9.804943287381374,0.1824680098474065
1789141118794562300,2.946562255859375,0.014677706419575848,-9.805055590548292,0.17619091905024045
1789141118804535300,2.956535400390625,0.014533125492053914,-9.805161897531002,0.17021604662855144
1789141118814507300,2.96650732421875,0.014724989108097875,-9.805281487169333,0.1631345827975543
1789141118824480300,2.976480224609375,0.013934904719386607,-9.805412481450436,0.15514941033518795
1789141118834452500,2.986452392578125,0.014544228220683004,-9.805502536355398,0.14929403082616358
1789141118844424200,2.996424072265625,0.016624267702872765,-9.80558651766048,0.1434819448366509
1789141118854397200,3.006397216796875,0.0190283854969729,-9.805626897285899,0.1404108171548183
1789141118864369400,3.016369384765625,0.0234088064930137,-9.805617025469052,0.14039563274004904
1789141118874341400,3.02634130859375,0.024038710318635914,-9.805618142257217,0.14020625225107744
1789141118884314400,3.036314453125,0.024209288603529874,-9.805611690531856,0.1406157673677219
1789141118894286300,3.046286376953125,0.026152419407348398,-9.805587906306732,0.14197956957949215
1789141118904259300,3.05625927734375,0.026462758076451102,-9.8056071711404,0.14053650163033515
1789141118914231300,3.066231201171875,0.024600205605014837,-9.805608674045027,0.1407968584950409
1789141118924203500,3.07620361328125,0.025706952802044106,-9.805586717394359,0.1421061104738838
1789141118934176500,3.086176513671875,0.025518033071413038,-9.805593149521936,0.14170963882094192
1789141118944148200,3.096148193359375,0.0265570417799296,-9.805657507526842,0.13697497858833682
1789141118954121500,3.10612158203125,0.029892263645115606,-9.805706280985863,0.13270863561325702
1789141118964093400,3.116093505859375,0.032702553617536684,-9.805744506746645,0.12916181146032088
1789141118974065400,3.1260654296875,0.034497371125416634,-9.80579085167682,0.12512046803197605
1789141118984038400,3.136038330078125,0.03492983107718681,-9.805832678516518,0.12172075489780908
1789141118994010400,3.14601025390625,0.031457553489688705,-9.805880425747286,0.1187825973056726
1789141119003982300,3.155982421875,0.02640575114980895,-9.805957630932637,0.113474400832222
1789141119013955300,3.165955322265625,0.0216187620321816,-9.806047198278396,0.10656399229243865
1789141119023927600,3.175927490234375,0.01813632895857745,-9.806134279959823,0.0989685338178397
1789141119033900300,3.185900390625,0.01593372896643679,-9.80620946351086,0.09154939478324864
1789141119043872300,3.195872314453125,0.016379160202347403,-9.806291180428785,0.08229063856017964
1789141119053844500,3.205844482421875,0.019071778568849503,-9.806360270169511,0.07295902365198682
1789141119063817200,3.215817138671875,0.020709461785957173,-9.806417921809574,0.0641662095421046
1789141119073789400,3.22578955078125,0.020717377949509567,-9.806467807605529,0.056079272491508236
1789141119083761400,3.235761474609375,0.017412183084759687,-9.806520903765543,0.047193921849189295
1789141119093734100,3.245734130859375,0.011618572983332864,-9.80656925402109,0.038068744364154875
1789141119103706400,3.255706298828125,0.004906190162571811,-9.806612396741851,0.026796465140081865
1789141119113679400,3.265679443359375,-0.0020467602427441424,-9.8066339356538,0.017845299146472128
1789141119123651300,3.2756513671875,-0.008269202039462435,-9.806643556673158,0.008534228449525939
1789141119133623300,3.285623291015625,-0.012659554462959839,-9.806641611630095,-0.0023840388336713396
1789141119143596300,3.29559619140625,-0.01525570066010795,-9.806629725650366,-0.012544355859746838
1789141119153568000,3.305568115234375,-0.02031449268042378,-9.806606930979985,-0.0205869734640071
1789141119163540200,3.315540283203125,-0.025254739559247237,-9.80657989314055,-0.027225796230882938
1789141119173513200,3.32551318359375,-0.03059451529735321,-9.806548381431977,-0.032599200778604925
1789141119183485000,3.33548486328125,-0.036674106266559675,-9.806507689683809,-0.037944355817198586
1789141119193458200,3.345458251953125,-0.04229396504205451,-9.80644661187878,-0.04683721579578798
1789141119203430100,3.35543017578125,-0.041128727689775414,-9.806397742832983,-0.05695309693397387
1789141119213402000,3.365402099609375,-0.04165099062220539,-9.806334903991702,-0.06667315825132307
1789141119223375000,3.375375,-0.03756930377789248,-9.806284991845574,-0.07582147902405235
1789141119233347000,3.38534716796875,-0.03212393246788768,-9.806256969537863,-0.08179294378125494
1789141119243319000,3.395319091796875,-0.02678727421366168,-9.806261139561212,-0.08313647036742929
1789141119253292000,3.4052919921875,-0.02432753561952408,-9.806275032051456,-0.08222503031583546
1789141119263264300,3.41526416015625,-0.022512335123911195,-9.806291248624573,-0.08084032497389847
1789141119273237000,3.425237060546875,-0.02547165294223093,-9.806262521992029,-0.08343482543663584
1789141119283209000,3.435208984375,-0.029526731365643315,-9.806202265805155,-0.08893664236578157
1789141119293181200,3.44518115234375,-0.03322938895713081,-9.806112542603838,-0.0972049962586524
1789141119303154000,3.45515380859375,-0.03614401127614955,-9.806017328537918,-0.1054238863718023
1789141119313126100,3.465126220703125,-0.03673574483788216,-9.805924564828754,-0.11350694860946152
1789141119323098000,3.47509814453125,-0.03796004370746413,-9.805861338243831,-0.11848406181995742
1789141119333071000,3.485071044921875,-0.03843684320913256,-9.805830665500144,-0.1207865002917126
1789141119343043000,3.49504296875,-0.03745676046774326,-9.805803888387278,-0.12325156384958944
1789141119353016000,3.50501611328125,-0.034264786362903976,-9.805745636765257,-0.128696553182379
1789141119362988000,3.514988037109375,-0.032277931275886775,-9.805679371530717,-0.1341103047791945
1789141119372960000,3.5249599609375,-0.030141481854304167,-9.805654106880807,-0.13644347097638482
1789141119382933200,3.534933349609375,-0.0274595415277555,-9.805649462218565,-0.13734745879069069
1789141119392905000,3.544905029296875,-0.027095235144927038,-9.805655313309746,-0.1370062162113511
1789141119402877200,3.554877197265625,-0.02696333422297399,-9.805659848432743,-0.1367148986589604
1789141119412850200,3.56485009765625,-0.02760486239668701,-9.805642858433929,-0.13778892154049935
1789141119422822000,3.57482177734375,-0.023392266237091387,-9.805634416804688,-0.13917868964808675
1789141119432795100,3.584795166015625,-0.01680181031135038,-9.805624903966626,-0.14077305794011558
1789141119442767000,3.59476708984375,-0.011630966544351301,-9.805618853036023,-0.14168734862954538
1789141119452739000,3.604739013671875,-0.0055553640769180615,-9.80566122414196,-0.13914166635508185
1789141119462712000,3.614712158203125,0.0034333402559644866,-9.80570646588053,-0.13600835234784547
1789141119472684000,3.62468408203125,0.010450838699287531,-9.805732563709142,-0.1337277214830355
1789141119482656000,3.634656005859375,0.01270420485416394,-9.80575978264067,-0.13150747794928702
1789141119492629000,3.64462890625,0.011616804450441123,-9.805812732997342,-0.1276483853051204
1789141119502601200,3.654601318359375,0.012032299681708087,-9.805831735819806,-0.12611976546133116
1789141119512574200,3.66457421875,0.01045743529261307,-9.805871103613752,-0.12319672447082555
1789141119522546200,3.674546142578125,0.008237316537674873,-9.805925828024703,-0.11887569289417652
1789141119532518100,3.68451806640625,0.00740145298205579,-9.806024628603268,-0.11049970777357071
1789141119542491100,3.6944912109375,0.007721611969651481,-9.806101630350696,-0.10349022697442344
1789141119552463000,3.704463134765625,0.007956743350214467,-9.80616421971765,-0.09731586656835547
1789141119562435000,3.71443505859375,0.010322447683787513,-9.806233710955064,-0.08984020307079088
1789141119572408300,3.724408203125,0.009656205873887698,-9.80629447403215,-0.08294105780720207
1789141119582380000,3.734380126953125,0.009749217968840627,-9.806352030970913,-0.07581544454538093
1789141119592353000,3.74435302734375,0.011277289484945491,-9.806410139797181,-0.06766808854454226
1789141119602325200,3.7543251953125,0.012342769797607355,-9.806470899557738,-0.05802935705094967
1789141119612297000,3.764296875,0.011470049274802338,-9.80651610372105,-0.04985278190701736
1789141119622270200,3.774270263671875,0.013089488018359458,-9.806558429405063,-0.04029122813180256
1789141119632242200,3.7842421875,0.014457888573321122,-9.806594214076922,-0.029702220491391707
1789141119642214100,3.794214111328125,0.012405089844608311,-9.80662410440757,-0.01889389725501409
1789141119652187100,3.804187255859375,0.009595540692007966,-9.806641942576581,-0.00773455753848467
1789141119662159000,3.8141591796875,0.005607826877747921,-9.806647494322497,0.0028960917617333543
1789141119672132000,3.824132080078125,0.0015672879317567016,-9.806640561384716,0.013178497929079004
1789141119682104000,3.83410400390625,-0.002226549482168007,-9.806628569812231,0.020413228882326554
1789141119692076300,3.844076171875,-0.003366099187072616,-9.806611169046716,0.027262763697821903
1789141119702049000,3.854049072265625,-0.003328072834969971,-9.8065895727807,0.03405741153834885
1789141119712021000,3.86402099609375,-0.0036756852366527024,-9.80655799874177,0.042231506234215024
1789141119721993200,3.8739931640625,-0.004123326527721768,-9.806502905680809,0.05355344132325341
1789141119731966000,3.883966064453125,-0.005367294694680687,-9.80642840963495,0.06565607953907299
1789141119741938200,3.893938232421875,-0.005261530583991065,-9.806323522352102,0.07985101913997723
1789141119751911200,3.9039111328125,-0.005688690703666404,-9.806190860880015,0.09471441348095516
1789141119761883100,3.913883056640625,-0.005358083390941374,-9.806052519486446,0.10810419510662418
1789141119771855000,3.923855224609375,-0.004996839620098916,-9.80589331406846,0.12170921836997531
1789141119781828000,3.933828125,-0.005763669327426388,-9.805720677823558,0.13491666356732676
1789141119791800000,3.943800048828125,-0.008680177978382013,-9.805527206445488,0.1481348468028852
1789141119801772000,3.95377197265625,-0.007149929280720642,-9.805352726499368,0.15936811051230834
1789141119811745300,3.963745361328125,-0.006576388113330535,-9.805153553399316,0.1712042774251748
1789141119821717000,3.973717041015625,-0.006506283016611506,-9.805002738918073,0.17962555629593427
1789141119831690000,3.98368994140625,-0.007153026745572126,-9.804867248338395,0.18684389440769558
1789141119841662200,3.993662109375,-0.007952416018407356,-9.804729725315024,0.19386993922037415
1789141119851634000,4.003634033203125,-0.007639838703772048,-9.804604209375517,0.20017099726790732
1789141119861607200,4.013607177734375,-0.009261884258931551,-9.804490354474835,0.2056192751408344
1789141119871579100,4.0235791015625,-0.010281843586832741,-9.80438830964554,0.21034147158918437
1789141119881551000,4.033551025390625,-0.010415161784531264,-9.804281383958715,0.21529346471587466
1789141119891524000,4.043524169921875,-0.009302712265266841,-9.804170908078252,0.22030562784977037
1789141119901496000,4.05349609375,-0.008064051544015655,-9.804000771087345,0.22780380180203252
1789141119911469000,4.063468994140625,-0.008333877885494254,-9.80391563697286,0.23141608487809817
1789141119921441000,4.07344091796875,-0.005892186495689093,-9.803834672900253,0.23491261463355442
1789141119931413200,4.083413330078125,-0.001794867131706703,-9.803743027261785,0.2387530514922066
1789141119941386000,4.093385986328125,4.105806196105417e-05,-9.803671818082877,0.24164723750443684
1789141119951358000,4.10335791015625,0.0018086664798182548,-9.803622656457337,0.2436508560308659
1789141119961330200,4.113330078125,0.008166603602087761,-9.803509477792927,0.24803852836727366
1789141119971303000,4.123302978515625,0.013020174737671003,-9.803469609087317,0.24938743940893465
1789141119981275100,4.133275146484375,0.01513730854236741,-9.803455671025596,0.24983725675198987
1789141119991248100,4.143248046875,0.016673415439820566,-9.803428124102302,0.2507845797640935
1789141120001220000,4.15322021484375,0.01610922723752544,-9.803392045890709,0.2522246932592881
1789141120011192000,4.163192138671875,0.01206088142422633,-9.803401268157716,0.25211217164420124
1789141120021165000,4.1731650390625,0.011780170305968977,-9.803350832307398,0.25407766467081244
1789141120031137000,4.183136962890625,0.009933013519574315,-9.803335816337846,0.2547280382620668
1789141120041109000,4.19310888671875,0.008435292090264088,-9.803304106686387,0.25601083138983377
1789141120051082200,4.203082275390625,0.011214333336397948,-9.80331791101519,0.2553818928053201
1789141120061054000,4.213053955078125,0.014917712920974999,-9.8034015918339,0.25192971984146134
1789141120071026200,4.223026123046875,0.017012744689622366,-9.803525752534007,0.2469367026146697
1789141120080999200,4.232999267578125,0.021256127047919186,-9.803658646183424,0.24125623902350446
1789141120090971000,4.242970947265625,0.02586831983048985,-9.803777553684284,0.23590851735112942
1789141120100944100,4.252944091796875,0.03051305361898731,-9.803905595107745,0.22994753187008504
1789141120110916000,4.262916015625,0.03366787782739883,-9.804047025306442,0.22342237718490487
1789141120120888000,4.27288818359375,0.03667058121682403,-9.804221401621518,0.2151261682284605
1789141120130861000,4.282861083984375,0.03755315020641768,-9.80443304313835,0.20510039992225076
1789141120140833000,4.2928330078125,0.03709809244737271,-9.804675028177078,0.19326148937337623
1789141120150805500,4.302805419921875,0.035689060838554235,-9.804851003243817,0.18439294095683276
1789141120160778500,4.312778564453125,0.030781096300764345,-9.805003279206119,0.1770429126805225
1789141120170750700,4.322750732421875,0.029067031448729477,-9.805154184453265,0.16878564770809218
1789141120180723700,4.3327236328125,0.029244826390834536,-9.805295368953368,0.16035258296057459
1789141120190695400,4.3426953125,0.03048867712992756,-9.805429819489502,0.15167646610488195
1789141120200667600,4.352667724609375,0.031244801604080254,-9.805551031643512,0.1434710784904337
1789141120210640600,4.362640625,0.032908279310681667,-9.805666119557054,0.13494678258948856
1789141120220612600,4.372612548828125,0.03198988066295967,-9.805792729166292,0.12562905112009212
1789141120230584600,4.38258447265625,0.028842330080632923,-9.805910458869231,0.11691748961425315
1789141120240557600,4.3925576171875,0.02507888150789968,-9.806021640688265,0.10815422570251657
1789141120250529500,4.402529541015625,0.019826644369055086,-9.80613504795913,0.09856895935212531
1789141120260502500,4.41250244140625,0.01449092585764392,-9.806252089984323,0.08716989198083881
1789141120270474800,4.422474853515625,0.011901483483058166,-9.806357012101051,0.07484526874557183
1789141120280446500,4.432446533203125,0.009071123249658662,-9.806450803407634,0.0617418373376191
1789141120290419500,4.44241943359375,0.0077913010052978755,-9.806525822938337,0.048812418480078015
1789141120300391700,4.4523916015625,0.008704925891811394,-9.80657517904408,0.03734559710627619
1789141120310363600,4.46236376953125,0.01043796860656826,-9.806607076189335,0.0273117416178472
1789141120320336600,4.472336669921875,0.008033738075702419,-9.806629527073778,0.018391559966892602
1789141120330308600,4.48230859375,0.004142047166864134,-9.806644575377973,0.008940897511757678
1789141120340281600,4.492281494140625,-0.0014498906616718125,-9.806649801536437,-0.0023829696316717435
1789141120350253600,4.502253662109375,-0.0049730583810709715,-9.806638152576964,-0.014407413953349314
1789141120360225800,4.512225830078125,-0.008108909124920814,-9.806613744928635,-0.025392906874724706
1789141120370198500,4.522198486328125,-0.009936633960816564,-9.806575066147472,-0.03700077852995896
1789141120380170500,4.53217041015625,-0.00965152300341397,-9.806518671289757,-0.04972569587384555
1789141120390142700,4.542142822265625,-0.007198837860932128,-9.806457949743985,-0.06095580180171896
1789141120400115500,4.552115478515625,-0.004240378396061487,-9.806388028265399,-0.07152814888004785
1789141120410087700,4.562087646484375,-0.0003119210291494002,-9.806316988596901,-0.080751939485264
1789141120420060700,4.572060791015625,0.003856045310489102,-9.80624589539847,-0.08895745079021579
1789141120430032400,4.582032470703125,0.0035730220936403146,-9.806171435671432,-0.09682298835141251
1789141120440004600,4.592004638671875,0.0009807295375673293,-9.806071690638646,-0.10647852504322852
1789141120449977600,4.6019775390625,-0.002980502957947305,-9.805926493392649,-0.1191206516202153
1789141120459949600,4.611949462890625,-0.004958693275027995,-9.80575363982418,-0.13252308838090812
1789141120469921500,4.621921630859375,-0.004828044347198358,-9.805576435613743,-0.14503855632943552
1789141120479894500,4.63189453125,-0.0029423411363491995,-9.805356867610108,-0.15922771886776385
1789141120489866500,4.641866455078125,0.002039707016262291,-9.80516701765261,-0.17054461287964323
1789141120499839500,4.651839599609375,0.004655931755898876,-9.804991909778785,-0.1802843105333306
1789141120509811700,4.661811767578125,0.007850925759677408,-9.804837689392995,-0.18838149287439554
1789141120519783400,4.671783447265625,0.013167484714160405,-9.804695260319281,-0.19535350031493967
1789141120529756700,4.681756591796875,0.013760024607417182,-9.804544588267113,-0.20272933670930582
1789141120539728600,4.691728759765625,0.01367389482699465,-9.804335187723465,-0.21261586456352605
1789141120549700600,4.70170068359375,0.015313600287391345,-9.804194347162992,-0.2189085073032799
1789141120559673600,4.711673583984375,0.016511373974469563,-9.804089145196446,-0.22348859092680953
1789141120569645600,4.7216455078125,0.017125396822455653,-9.804066657840545,-0.2244380351842689
1789141120579618800,4.731618896484375,0.017280864930728595,-9.804094490412785,-0.22322452348598945
1789141120589590500,4.741590576171875,0.018601201589993864,-9.804136637140898,-0.22122785317848329
1789141120599562800,4.751562744140625,0.02071965810062292,-9.804113924227472,-0.2220746787181552
1789141120609535700,4.76153564453125,0.02519168586288751,-9.804029281217453,-0.2253289364042987
1789141120619507500,4.771507568359375,0.028269619008793583,-9.80391013696535,-0.23005470177207327
1789141120629479700,4.781479736328125,0.029697199941236492,-9.803778433889217,-0.2354349020272272
1789141120639452700,4.79145263671875,0.034644101671577984,-9.803728399065076,-0.2368475341498078
1789141120649424600,4.801424560546875,0.03969903423807024,-9.803659129591626,-0.23892932779647968
1789141120659396600,4.811396728515625,0.03742429681388546,-9.803656891684582,-0.23937445719118874
1789141120669369600,4.82136962890625,0.03466521179550003,-9.803711949119537,-0.23753620356401844
1789141120679341600,4.831341552734375,0.030431466996548497,-9.803785632997286,-0.23505766042693263
1789141120689314600,4.841314453125,0.023707639234028462,-9.8037975404697,-0.23534353729758267
1789141120699286800,4.851286865234375,0.01725356326624327,-9.803744884326438,-0.23809060728000098
1789141120709258500,4.861258544921875,0.013720612904936837,-9.803673446392562,-0.2412265999632806
1789141120719231500,4.8712314453125,0.012007327573500657,-9.803592702516466,-0.24455971453649908
1789141120729203700,4.88120361328125,0.012728532856248078,-9.803490504385895,-0.24860203869182154
1789141120739175700,4.89117578125,0.014729010045163424,-9.803461749640324,-0.24962139481871579
1789141120749148700,4.901148681640625,0.021152171168168376,-9.80350856683006,-0.24729567451964066
1789141120759120600,4.91112060546875,0.025925054837206727,-9.80359568620648,-0.24338428206417118
1789141120769093600,4.92109375,0.026353078321342205,-9.803684484938422,-0.2397025867945012
1789141120779065600,4.931065673828125,0.024772880774831963,-9.803816488657162,-0.23440508060119788
1789141120789037800,4.941037841796875,0.01937400007281136,-9.803906392233499,-0.23112951272594587
1789141120799010600,4.951010498046875,0.010547637627083621,-9.803953346515241,-0.22972387475480255
1789141120808982500,4.960982421875,0.0020706515581693143,-9.803950477540111,-0.23005951490472554
1789141120818954800,4.970954833984375,-0.0012065515537827809,-9.803918531893077,-0.2314630890157096
1789141120828927500,4.980927490234375,-0.0022095905069600542,-9.803854458109253,-0.23413782411748613
1789141120838899700,4.990899658203125,-0.0003228778574481424,-9.803807869294172,-0.23606778936689868
1789141120848872700,5.000872802734375,0.004885204564079958,-9.803777114181422,-0.23728425132526149
1789141120858844400,5.010844482421875,0.011383859761358769,-9.8037668226855,-0.23751652266742307
1789141120868816600,5.020816650390625,0.012043271332131782,-9.803813856911821,-0.23554366691234127
1789141120878789600,5.03078955078125,0.007590374905979652,-9.803837678328666,-0.2347399897215298
1789141120888761600,5.04076171875,0.002718799448863374,-9.803844693779258,-0.23453291988190442
1789141120898733600,5.050733642578125,-0.0028373637774569264,-9.803742757479242,-0.23874881736311163
1789141120908706600,5.06070654296875,-0.010735489000962184,-9.803553103225507,-0.24620928733167027
1789141120918678500,5.070678466796875,-0.01860472606642052,-9.803392201844865,-0.2520661126438382
1789141120928651500,5.080651611328125,-0.022910752787673228,-9.803195504420518,-0.25926393024753125
1789141120938623700,5.090623779296875,-0.027116996396567446,-9.802958904314275,-0.2676594177690589
1789141120948595500,5.100595458984375,-0.02940419358634467,-9.802786032923239,-0.2736812176355346
1789141120958568400,5.110568359375,-0.028723625604398156,-9.802594285527027,-0.28055336128524194
1789141120968540700,5.120540771484375,-0.027098578018680403,-9.802386652143737,-0.28788032996601365
1789141120978512600,5.1305126953125,-0.023758810867437623,-9.802224934161906,-0.29361972730545244
1789141120988485600,5.140485595703125,-0.020367056728062126,-9.80201077716985,-0.30094110337032765
1789141120998457600,5.15045751953125,-0.018188888818408428,-9.801751943476962,-0.30938163109909256
1789141121008429600,5.1604296875,-0.016391131147715763,-9.80157355356673,-0.3150659520181995
1789141121018402600,5.170402587890625,-0.016858970405890503,-9.801395570628626,-0.3205494320187063
1789141121028374800,5.180374755859375,-0.018859131871911027,-9.801190184583113,-0.3266511911887273
1789141121038347500,5.190347412109375,-0.021318180784738724,-9.801019640194923,-0.33159714487714564
1789141121048319500,5.200319580078125,-0.024544644556726596,-9.800884434417663,-0.33533393665091743
1789141121058291700,5.210291748046875,-0.0247720256757277,-9.800854402775691,-0.3362115949793348
1789141121068264400,5.220264404296875,-0.023602525339030126,-9.800918662556072,-0.3344141336908467
1789141121078236700,5.230236572265625,-0.021621855507429188,-9.800933773556219,-0.3341108344211094
1789141121088208600,5.240208740234375,-0.023787530671036748,-9.800929895446616,-0.3340624912584741
1789141121098181400,5.250181396484375,-0.022894495531462274,-9.800947020481791,-0.3336194730967501
1789141121108153600,5.260153564453125,-0.01914230966442578,-9.800972985022616,-0.33308439427754155
1789141121118126600,5.270126708984375,-0.015075673138996283,-9.800960501032675,-0.3336564955176767
1789141121128098600,5.2800986328125,-0.012104179994998151,-9.801037921109351,-0.33149071028802
1789141121138070500,5.290070556640625,-0.008853771849431896,-9.801215939005163,-0.32629892288828627
1789141121148043000,5.30004296875,-0.008406485770074277,-9.801428408573745,-0.3198848174680087
1789141121158014700,5.3100146484375,-0.010487389213939876,-9.801670153441188,-0.3123202372495275
1789141121167987000,5.319987060546875,-0.012395912258232238,-9.801864767941765,-0.30608134472199056
1789141121177960000,5.3299599609375,-0.014816101833153753,-9.802036766999842,-0.300421090214939
1789141121187932000,5.339931884765625,-0.014860829967703233,-9.802244925000384,-0.29352714346986214
1789141121197905000,5.34990478515625,-0.012780967695967245,-9.802481179192458,-0.2856184835151699
1789141121207876900,5.359876953125,-0.008205353848155496,-9.80274171554729,-0.2767089308194171
1789141121217848800,5.369848876953125,-0.006495390263983451,-9.80306891046575,-0.26491139368867106
1789141121227821800,5.37982177734375,-0.003690075489228009,-9.803362015976763,-0.253879233184906
1789141121237794000,5.3897939453125,-0.0005947174131934972,-9.803617221063394,-0.243863657619301
1789141121247765800,5.399765869140625,0.0023367120566328003,-9.803874024808003,-0.23329782402667223
1789141121257738800,5.40973876953125,0.005115532985594588,-9.80416536321455,-0.22068634306287432
1789141121267711000,5.4197109375,0.007235914589719009,-9.804394428220187,-0.21019420420916998
1789141121277684000,5.42968408203125,0.007528423110899988,-9.80461839761044,-0.19943945787568323
1789141121287656000,5.439656005859375,0.00510571632806616,-9.804826484085977,-0.18903445669352742
1789141121297628000,5.4496279296875,0.003971002993448946,-9.80499667605766,-0.1800093644323045
1789141121307601000,5.459600830078125,0.001862848616150942,-9.805151141118944,-0.17142738175064148
1789141121317572900,5.46957275390625,0.0002188555543412014,-9.805304233086039,-0.16246564559007473
1789141121327544800,5.479544921875,0.0009742796995967047,-9.805468511334592,-0.15222731830457856
1789141121337518000,5.48951806640625,0.004450057937018063,-9.805602680271004,-0.14325921282719264
1789141121347489800,5.49948974609375,0.005373763656898866,-9.805684520724373,-0.13753817992563377
1789141121357462000,5.5094619140625,0.007828314755869559,-9.805749911808572,-0.1326740645499407
1789141121367435000,5.51943505859375,0.01000230481597419,-9.805800894829305,-0.12872079971977793
1789141121377406700,5.52940673828125,0.009169073347144396,-9.805876647647063,-0.12280339068366014
1789141121387380000,5.5393798828125,0.005780354894902927,-9.805976776258118,-0.11479591219364686
1789141121397352000,5.54935205078125,0.0021960252446281843,-9.806074521898555,-0.10621706326087821
1789141121407324000,5.559323974609375,-0.004125572695781805,-9.806168387756728,-0.0970583283775662
1789141121417297000,5.569296875,-0.011190460080552793,-9.806241481626513,-0.08880740238986137
1789141121427268900,5.579268798828125,-0.017888084373685012,-9.80629441665277,-0.08154330482795848
1789141121437240800,5.58924072265625,-0.02206307204644914,-9.806336053723086,-0.07528737846263422
1789141121447213800,5.5992138671875,-0.023242465508549998,-9.806376218627717,-0.06948745892447611
1789141121457186000,5.60918603515625,-0.024395800543497305,-9.806412588218949,-0.06367844528686042
1789141121467158800,5.61915869140625,-0.022743192856741246,-9.806468860534517,-0.05516245208709933
1789141121477131000,5.629131103515625,-0.020305488083122634,-9.806517447809615,-0.04687445968629184
1789141121487103000,5.63910302734375,-0.016160500905999353,-9.806562180011255,-0.03829625694174823
1789141121497075700,5.64907568359375,-0.017572948687482826,-9.806586899052936,-0.03075404543850387
1789141121507048000,5.6590478515625,-0.01833004315917321,-9.806597645291621,-0.026332196318689344
1789141121517020000,5.66902001953125,-0.018030190356858315,-9.806607201587973,-0.02267962252538465
1789141121526993000,5.678992919921875,-0.01789592145552216,-9.806614377106099,-0.019330208955438723
1789141121536964900,5.68896484375,-0.019999848386515594,-9.806617448480884,-0.015548308832233317
1789141121546937900,5.698937744140625,-0.020860723179797126,-9.806623284013446,-0.009833054799215365
1789141121556909800,5.708909912109375,-0.0210440795234377,-9.806626902712692,-0.0033517834842706797
1789141121566881800,5.7188818359375,-0.019581065851438793,-9.806630464052212,0.0028595867091389666
1789141121576855000,5.72885498046875,-0.018601269512290953,-9.806630574953365,0.0068594475602802
1789141121586826800,5.73882666015625,-0.017870236941163794,-9.806629683170605,0.009684518189537018
1789141121596799000,5.748799072265625,-0.01651577262134315,-9.806627730673595,0.013080391013297499
1789141121606772000,5.75877197265625,-0.015496112274660287,-9.806625187513523,0.015942138709696563
1789141121616743700,5.76874365234375,-0.01781993468770885,-9.806619492384087,0.016957340023918906
1789141121626716000,5.7787158203125,-0.016893672460916838,-9.806618796566386,0.018159299077741487
1789141121636689000,5.78868896484375,-0.013908611512976584,-9.806621092446127,0.019239652111229785
1789141121646660900,5.798660888671875,-0.011687750207718905,-9.806625248072999,0.018793928949740666
1789141121656633900,5.8086337890625,-0.005373279547803829,-9.806629958879231,0.019050757180822966
1789141121666605800,5.818605712890625,0.00028906733293696473,-9.806630409406111,0.019814302560817183
1789141121676577800,5.828577880859375,0.000925228505835592,-9.806627769684347,0.020759025197126142
1789141121686550800,5.83855078125,-8.41111567788337e-05,-9.806626477219114,0.02161297237156203
1789141121696523000,5.84852294921875,-0.0038967441832317975,-9.806624498044252,0.02214519024274084
1789141121706494700,5.85849462890625,-0.011224374747762611,-9.806620420978925,0.021497038776640092
1789141121716468000,5.868468017578125,-0.014891481112357963,-9.806619352680904,0.01963592558590229
1789141121726440000,5.87843994140625,-0.01474120421270455,-9.806628769395635,0.014504429990973105
1789141121736413000,5.888412841796875,-0.01127089951592886,-9.806640893888403,0.007854706767898024
1789141121746385000,5.898385009765625,-0.005189876031918075,-9.806648664919745,0.0026107635986679055
1789141121756356900,5.90835693359375,0.0024378549805175757,-9.806650393276785,0.0012530669493628437
1789141121766329900,5.918329833984375,0.007942737897230113,-9.806646220831817,0.002772708719238781
1789141121776301800,5.9283017578125,0.009327559904614865,-9.806642598046357,0.007610008367210615
1789141121786274000,5.938274169921875,0.008654967999996276,-9.806637351862022,0.013270270097362088
1789141121796246800,5.948246826171875,0.007243297015925692,-9.806632266448695,0.017438578286663318
1789141121806218800,5.95821875,0.003080432530113458,-9.806634422414518,0.017028110073112897
1789141121816192000,5.96819189453125,-0.0017404844202469026,-9.806639837151776,0.014346745724763845
1789141121826163700,5.978163818359375,-0.0030920201309221945,-9.80664298057354,0.011585931050758504
1789141121836136000,5.988135986328125,-0.00206924983296558,-9.806644717644293,0.010507844414312498
1789141121846109000,5.99810888671875,0.0004291693768279843,-9.806645383479129,0.009273687813151308
1789141121856081000,6.008080810546875,0.004415407541920348,-9.806643195551027,0.010545889249926449
1789141121866052900,6.018052978515625,0.009863678999722139,-9.806637737865186,0.012183621867641747
1789141121876025900,6.02802587890625,0.015596291400420187,-9.806627772093368,0.014527652503587646
1789141121885997800,6.037997802734375,0.015362282045614873,-9.80662294565475,0.017076486647727537
1789141121895969800,6.0479697265625,0.012339083091156583,-9.806621961437695,0.019993503781135444
1789141121905943000,6.057943115234375,0.007597921181858299,-9.806614886962665,0.02524314319871771
1789141121915914800,6.067914794921875,0.0026101733443436637,-9.806606010527732,0.02943100711908974
1789141121925887700,6.0778876953125,-0.0003779447273930267,-9.806596193127724,0.0326992950018163
1789141121935860000,6.08785986328125,-0.003686395351819987,-9.806592345043121,0.033553345843435604
1789141121945831700,6.097831787109375,-0.002100437637380088,-9.806591925343637,0.03391051462563533
1789141121955805000,6.107804931640625,0.0016722649922018828,-9.806586802737952,0.03529308608145852
1789141121965777000,6.11777685546875,0.005334499028469722,-9.806583249996955,0.03598684509344804
1789141121975748900,6.127748779296875,0.0051732348383181715,-9.806572639995732,0.03875798278976058
1789141121985721900,6.137721923828125,0.0015111207082383364,-9.806555643586456,0.04298051410606158
1789141121995693800,6.14769384765625,-0.0026327713444451676,-9.806537230657977,0.04706492712523035
1789141122005667000,6.1576669921875,-0.003785308590850742,-9.806519994454714,0.050472548209672785
1789141122015638800,6.167638671875,-0.004542276985323197,-9.806502391218524,0.05357956280329645
1789141122025611000,6.177611083984375,-0.003916095126211418,-9.806491436660389,0.055687564794567344
1789141122035584000,6.187583984375,0.000782130734652914,-9.806466233967605,0.060145338577274436
1789141122045555700,6.1975556640625,0.005712502479605076,-9.806435094477907,0.06468323731288855
1789141122055528000,6.20752783203125,0.009522794673018848,-9.806399670918628,0.069469923517045
1789141122065501000,6.2175009765625,0.008802653792284199,-9.806384120412806,0.0716829613106647
1789141122075473000,6.227472900390625,0.007483685666136758,-9.806376915328242,0.07277963397619876
1789141122085446000,6.23744580078125,0.0061935248816267245,-9.806345403125082,0.07699396142671379
1789141122095417900,6.24741796875,0.0026968958500717863,-9.806312935095466,0.08125620555448634
1789141122105389800,6.257389892578125,-0.0029579831325618213,-9.806258509367849,0.08760565001035561
1789141122115362800,6.26736279296875,-0.005684629978444977,-9.806189399688517,0.09487874123443872
1789141122125335000,6.2773349609375,-0.00815648751455062,-9.806115525843811,0.10209511115690378
1789141122135306800,6.287306640625,-0.009211197497428525,-9.806045291581155,0.10857460232567238
1789141122145279700,6.29727978515625,-0.006591145696247852,-9.805952822679549,0.11673998735618625
1789141122155251700,6.307251708984375,-0.005877621369053115,-9.80587671292802,0.12300599674971223
1789141122165223700,6.3172236328125,-0.005210814947778374,-9.805809992001215,0.12824927402815184
1789141122175196700,6.32719677734375,-0.0032766413210654653,-9.805740900356122,0.13351675501175767
1789141122185168600,6.337168701171875,-0.005728699631716697,-9.80566834219915,0.13867812372811755
1789141122195142000,6.347141845703125,-0.009919346407881608,-9.805577951993609,0.144682914356333
1789141122205113600,6.357113525390625,-0.013634055845721114,-9.805496491308764,0.14984698328794901
1789141122215085800,6.3670859375,-0.019805853999095558,-9.805395311255818,0.15559162704332627
1789141122225058800,6.377058837890625,-0.023870195877378476,-9.805275949887214,0.1624082909609732
1789141122235030500,6.387030517578125,-0.024884595992500938,-9.805141929733887,0.17016699532977078
1789141122245002800,6.397002685546875,-0.024965963507747768,-9.804987732838182,0.17883316514065828
1789141122254975700,6.406975830078125,-0.02311722174850085,-9.804804171065237,0.1888328221596361
1789141122264947700,6.41694775390625,-0.020753028347159145,-9.804617404554246,0.1985603111396468
1789141122274920700,6.426920654296875,-0.01872105398808962,-9.804386796736049,0.2098297869391006
1789141122284892700,6.436892578125,-0.013788769708230581,-9.804141732978678,0.22133191823530796
1789141122294864600,6.44686474609375,-0.010099569660100387,-9.80387042830869,0.23325257570779812
1789141122304837600,6.456837646484375,-0.007387371518918324,-9.80359511311788,0.24463080014392824
1789141122314809900,6.466809814453125,-0.005548721019370324,-9.803331555910505,0.25500551693735485
1789141122324781600,6.476781494140625,-0.005235516143119587,-9.80308692708906,0.2642892702018305
1789141122334754800,6.4867548828125,-0.006116755486365584,-9.802787618404905,0.275149688153486
1789141122344726800,6.496726806640625,-0.006032578186944214,-9.802492550938998,0.28545824459036206
1789141122354699500,6.506699462890625,-0.003028961457051719,-9.802176482313932,0.2961677559113151
1789141122364671700,6.516671630859375,0.000565972213048952,-9.801818050124952,0.30782946959969976
1789141122374643700,6.526643798828125,0.004094624213499583,-9.801476515771649,0.3184773370521837
1789141122384616700,6.53661669921875,0.007190818062817877,-9.801217852843738,0.32628969413196773
1789141122394588700,6.546588623046875,0.012242944296957188,-9.800962595351333,0.33372146803376423
1789141122404561000,6.556560791015625,0.01673804275089962,-9.800730954397032,0.3402583608426237
1789141122414533600,6.56653369140625,0.021133006268891807,-9.800502434563827,0.3465429621630529
1789141122424505600,6.576505615234375,0.02606476292010088,-9.80028110781824,0.3524232658589306
1789141122434478800,6.586478759765625,0.03142556847386749,-9.800115364843066,0.356566515403262
1789141122444450600,6.596450439453125,0.03548538552507972,-9.79997587296356,0.3600261910819822
1789141122454422800,6.6064228515625,0.03972108876131023,-9.799871483282091,0.3624060594966755
1789141122464395800,6.616395751953125,0.04285292978385576,-9.799815726318746,0.36355036092773363
1789141122474367700,6.62636767578125,0.047737425903143116,-9.799797895327789,0.36341177738975927
1789141122484339700,6.636339599609375,0.049174913362060105,-9.799817432942321,0.3627100345091166
1789141122494312700,6.646312744140625,0.04987807360359153,-9.799907718412321,0.3601715137354795
1789141122504284700,6.65628466796875,0.04930323287691995,-9.799921688961854,0.3598553508065255
1789141122514256600,6.666256591796875,0.05125738386086541,-9.800046592558562,0.356174869375268
1789141122524230000,6.67622998046875,0.054578947172435464,-9.800224173030127,0.35072854793081903
1789141122534201600,6.68620166015625,0.057143155327762644,-9.800419741652178,0.34482241458721247
1789141122544174600,6.696174560546875,0.059609557929750215,-9.800649092666632,0.3377933858105426
1789141122554146800,6.706146728515625,0.061474886745170286,-9.800922057557889,0.3294576295902473
1789141122564118500,6.716118408203125,0.06330120038640158,-9.801089100794323,0.3240853517734309
1789141122574091800,6.726091796875,0.061885598719958065,-9.801320470128184,0.3173056430522578
1789141122584063700,6.736063720703125,0.060524102523498095,-9.801576655947098,0.3095463101979892
1789141122594035700,6.74603564453125,0.058985397332551766,-9.801881328093183,0.30003979569601735
1789141122604008700,6.7560087890625,0.05694662787292355,-9.80220237185664,0.28975422379138693
1789141122613980700,6.765980712890625,0.05248580168768369,-9.8025925204649,0.277133897546526
1789141122623954000,6.775953857421875,0.04640660508553364,-9.802906554720048,0.26693627880637644
1789141122633925600,6.785925537109375,0.03987311132063933,-9.80321228184087,0.25657103484789545
1789141122643897900,6.79589794921875,0.03435378750695348,-9.803516477524456,0.24549289362837345
1789141122653870800,6.805870849609375,0.032849456783171374,-9.803815718808753,0.23345470176939231
1789141122663842600,6.815842529296875,0.03344452941962728,-9.804127970458733,0.2198616188556284
1789141122673814800,6.825814697265625,0.03522770120661428,-9.804497791349606,0.20239106108783927
1789141122683787800,6.835787841796875,0.041385545289052104,-9.804794230824568,0.18623282570687824
1789141122693759700,6.845759765625,0.04635728823570248,-9.805067766922804,0.1699567334025559
1789141122703732700,6.855732666015625,0.04629761903332974,-9.805293413533676,0.1564392923310534
1789141122713704700,6.86570458984375,0.042818690537779834,-9.805474694653773,0.14563195278680327
1789141122723676700,6.8756767578125,0.037022345185542774,-9.805634031641457,0.13623549084641307
1789141122733649700,6.885649658203125,0.028673257014803215,-9.805809466612642,0.12510158491197337
1789141122743622000,6.895621826171875,0.02428392349624989,-9.805964596340317,0.11339412025926147
1789141122753593600,6.905593505859375,0.020925327515065387,-9.806126814446356,0.09916992426969108
1789141122763566800,6.91556689453125,0.018792451743668136,-9.806261060404381,0.08528081850434176
1789141122773538800,6.925538818359375,0.019719407471764493,-9.806354975459053,0.07353188619921132
1789141122783510800,6.9355107421875,0.019469464858402192,-9.806417731078318,0.06465435293075895
1789141122793483800,6.94548388671875,0.01802462680373128,-9.806470656492277,0.05656952612560469
1789141122803455700,6.955455810546875,0.015924955072170267,-9.806515901698846,0.04869495186651037
1789141122813428700,6.9654287109375,0.010950618132122768,-9.806564159399857,0.03947799627527568
1789141122823400700,6.975400634765625,0.005695766608624532,-9.806604684440144,0.029370544877925002
1789141122833373000,6.985373046875,0.0009645224769592869,-9.806633632744722,0.018219450439548913
1789141122843345700,6.995345703125,-0.005270806321906063,-9.806646956879412,0.006648915420601452
1789141122853317600,7.005317626953125,-0.00943991382508349,-9.80664420416499,-0.004560139076156503
1789141122863289900,7.015289794921875,-0.009217384849251088,-9.806635344817982,-0.013950372436765375
1789141122873262600,7.0252626953125,-0.007674683774953235,-9.80662124019215,-0.022408053264459497
1789141122883234800,7.03523486328125,-0.004798647511543036,-9.806601486634804,-0.03037821042430952
1789141122893207800,7.045207763671875,0.00038583626762028067,-9.806586297458852,-0.03531502768003408
1789141122903179500,7.055179443359375,0.0055423638350982265,-9.80656772534206,-0.03984682117502507
1789141122913151700,7.06515185546875,0.007312069064441323,-9.806550904914848,-0.04353565884821536
1789141122923124700,7.075124755859375,0.007387950489925766,-9.80653565057908,-0.04687299908324507
1789141122933096700,7.0850966796875,0.00285635669719608,-9.806523589733983,-0.04977630950070142
1789141122943068700,7.095068603515625,-0.006004226799501183,-9.806506669067987,-0.05276377899702843
1789141122953041700,7.105041748046875,-0.015334033775856733,-9.806476452208088,-0.0562381214747149
1789141122963013600,7.115013671875,-0.020341895784321894,-9.8064480750921,-0.05966428351203849
1789141122972986600,7.124986572265625,-0.025071273738007833,-9.806419342167974,-0.062435210307385004
1789141122982958800,7.134958740234375,-0.02730642181827796,-9.806381998892563,-0.06706846768806232
1789141122992930600,7.1449306640625,-0.025791988209586617,-9.806374463241271,-0.06891152076425966
1789141123002903800,7.15490380859375,-0.0250508504708652,-9.80636717047612,-0.07021416711959388
1789141123012875800,7.164875732421875,-0.026094713254322586,-9.806348893081847,-0.0722970351271126
1789141123022847700,7.17484765625,-0.028443341599773957,-9.806330585714878,-0.07388710710279031
1789141123032820700,7.18482080078125,-0.02985106301500213,-9.806301148908176,-0.07715464502275476
1789141123042792700,7.194792724609375,-0.031089814703198132,-9.806255674593663,-0.08227825375025563
1789141123052764700,7.2047646484375,-0.030299898371030993,-9.806205840367294,-0.08828027914335054
1789141123062737700,7.214737548828125,-0.027569469530365365,-9.806176059560007,-0.09234895222041803
1789141123072710000,7.2247099609375,-0.024819286437841998,-9.806138493823239,-0.09700295020176093
1789141123082682600,7.2346826171875,-0.020978435963866983,-9.806101114774265,-0.1016337569111921
1789141123092654600,7.244654541015625,-0.017596792084083664,-9.806055468604525,-0.10654842451276045
1789141123102626800,7.254626708984375,-0.01908807126835546,-9.80598615942814,-0.11256198903054647
1789141123112599600,7.264599609375,-0.02194661742408116,-9.805893365183374,-0.11981737206898303
1789141123122571800,7.27457177734375,-0.02616749907813378,-9.80578530280821,-0.12756365228883731
1789141123132543700,7.284543701171875,-0.03341018579528209,-9.80566741022291,-0.13475897030660325
1789141123142516700,7.294516845703125,-0.037841350731040266,-9.805556974033031,-0.14143808762073598
1789141123152488700,7.30448876953125,-0.03800382269920346,-9.805470596793645,-0.1472483364141173
1789141123162461400,7.31446142578125,-0.03449430633170971,-9.805383786107795,-0.1537359193746133
1789141123172433700,7.32443359375,-0.02817986198571112,-9.80531813976888,-0.1591371626258491
1789141123182405600,7.334405517578125,-0.019409764155542193,-9.805270305055092,-0.1633308338099265
1789141123192378600,7.344378662109375,-0.010358741595696714,-9.805203044937674,-0.16809918475457297
1789141123202350600,7.3543505859375,-0.002020832809999246,-9.805107205946621,-0.1738975381977561
1789141123212322600,7.364322509765625,0.003955346692770234,-9.804985963711784,-0.18058382392390762
1789141123222295600,7.374295654296875,0.006950435823112866,-9.804851814458369,-0.18763378826387478
1789141123232267500,7.384267578125,0.009563559306413616,-9.804731011340158,-0.19377287658983247
1789141123242239500,7.394239501953125,0.013675179337358177,-9.804579578676579,-0.2010634296228508
1789141123252212500,7.40421240234375,0.012243611164690731,-9.804428218456794,-0.20838416054549586
1789141123262184700,7.414184814453125,0.00930181061098506,-9.804272846664634,-0.21568643309845598
1789141123272157700,7.42415771484375,0.00814309614458104,-9.80418573932711,-0.21969435600276985
1789141123282129400,7.43412939453125,0.0089541001834143,-9.804093671918631,-0.2237032157904867
1789141123292101600,7.4441015625,0.011073750775076045,-9.803998338419246,-0.22777947900391193
1789141123302074600,7.45407470703125,0.01549736307677443,-9.803889256006997,-0.232182534900669
1789141123312046600,7.464046630859375,0.01991040761863526,-9.8038268038697,-0.23445668193228972
1789141123322018600,7.4740185546875,0.027212738758353876,-9.803777539029428,-0.23580397087133062
1789141123331991600,7.483991455078125,0.029986049394924674,-9.803772221936141,-0.23568566528068444
1789141123341963500,7.493963623046875,0.031563945292343465,-9.803755424291628,-0.2361739533829398
1789141123351936500,7.5039365234375,0.03156191856260693,-9.803722302351957,-0.23754178405655157
1789141123361908700,7.51390869140625,0.02836043934520312,-9.803686989459457,-0.2393687579545462
1789141123371880400,7.52388037109375,0.02358237308576618,-9.803615416431871,-0.24282274223520323
1789141123381853700,7.533853759765625,0.022365721922883473,-9.803495930257233,-0.2477220381969426
1789141123391825700,7.54382568359375,0.025137391009049395,-9.803399656111537,-0.2512304754790813
1789141123401797600,7.553797607421875,0.025998645300020006,-9.803368051239763,-0.2523686646925443
1789141123411770600,7.5637705078125,0.027490101054027417,-9.80339161790961,-0.25129111070391597
1789141123421742600,7.57374267578125,0.029490836690669486,-9.803471268243841,-0.24792917425834415
1789141123431715600,7.583715576171875,0.02953343157784249,-9.803593625776202,-0.24304551978723032
1789141123441687600,7.5936875,0.0281175526799912,-9.803726729783142,-0.23778424726187758
1789141123451659800,7.60365966796875,0.024698088782192516,-9.80382319654168,-0.23414010543632513
1789141123461632500,7.613632568359375,0.022591390888329555,-9.803870391193113,-0.23235928027828784
1789141123471604500,7.6236044921875,0.02021834044007534,-9.803900143949319,-0.23133459468987885
1789141123481576700,7.63357666015625,0.016528260407916186,-9.803970828465456,-0.22863723817162598
1789141123491549400,7.643549560546875,0.011695775029232672,-9.804132271448726,-0.2219281944019962
1789141123501521700,7.653521728515625,0.009431835401883814,-9.804341507321046,-0.2125488875595274
1789141123511493600,7.66349365234375,0.007057983032066839,-9.804549888011412,-0.2028157153202473
1789141123521466400,7.67346630859375,0.006507756950155117,-9.804791528966355,-0.19081825570006117
1789141123531438600,7.6834384765625,0.007125767064280762,-9.805006601220494,-0.17939843460779054
1789141123541411600,7.69341162109375,0.008146132469902789,-9.80515811851555,-0.17088799048121658
1789141123551383600,7.703383544921875,0.010669879057993688,-9.805318260251015,-0.16128500382850183
1789141123561355500,7.71335546875,0.012275416798878124,-9.805467680878252,-0.1517882419968606
1789141123571328500,7.72332861328125,0.012698575063668095,-9.805596823373318,-0.14318117051122156
1789141123581300500,7.733300537109375,0.016896819558009372,-9.805734727022548,-0.13292420778454864
1789141123591272700,7.743272705078125,0.021304213198169376,-9.805853389187355,-0.12315109113734322
1789141123601245700,7.75324560546875,0.021870765679182436,-9.805938594847529,-0.11605857041598941
1789141123611217400,7.763217529296875,0.027102502485048623,-9.806019919305875,-0.10778534712445377
1789141123621190700,7.773190673828125,0.029661669900069933,-9.806106239066438,-0.0988559675677135
1789141123631162600,7.78316259765625,0.028554890531564008,-9.806188736952743,-0.09065860062855473
1789141123641134600,7.793134521484375,0.031071252488214976,-9.806259523245615,-0.08175745522223359
1789141123651107600,7.803107666015625,0.032769032132561236,-9.806331911709051,-0.07186830221070334
1789141123661079600,7.81307958984375,0.02857233294329497,-9.806405347627216,-0.06304690756789592
1789141123671051500,7.823051513671875,0.025501320372798487,-9.806468577618457,-0.05387317966260353
1789141123681024500,7.8330244140625,0.021050810332092374,-9.8065297128163,-0.043674716861633746
1789141123690996700,7.842996826171875,0.015344167965333265,-9.80657462106974,-0.035174583817518396
1789141123700968400,7.852968505859375,0.012974138395241381,-9.80660530028215,-0.02656401659850773
1789141123710941400,7.86294140625,0.0135695937426747,-9.806622352180526,-0.019056798399420774
1789141123720913700,7.87291357421875,0.014588162985018936,-9.806632643712764,-0.01153684247395238
1789141123730886700,7.88288671875,0.01692706161078731,-9.80663496600714,-0.004762566341248603
1789141123740858600,7.892858642578125,0.020039168662266137,-9.80662956194157,0.0023970221646124573
1789141123750830600,7.90283056640625,0.02086675404933558,-9.806625028413057,0.007805827833008094
1789141123760803600,7.912803466796875,0.02308072765634718,-9.806614116634073,0.013424375784769245
1789141123770775600,7.922775634765625,0.025179110587174425,-9.806599078622899,0.019247652675144417
1789141123780747800,7.932747802734375,0.02455037650230198,-9.806593689709388,0.02261903891976755
1789141123790720800,7.942720703125,0.023573573466524517,-9.806585455907802,0.02671710518318832
1789141123800692500,7.9526923828125,0.020811912785344083,-9.806575856749893,0.03197824440975263
1789141123810665700,7.962665771484375,0.015221918047186209,-9.806566161478155,0.037569098880966954
1789141123820637700,7.9726376953125,0.012020527481334123,-9.806548696679776,0.04294049589878914
1789141123830609700,7.982609619140625,0.010675803083567307,-9.806523948806522,0.048427401838643636
1789141123840582700,7.992582763671875,0.011890947352708915,-9.806498841384128,0.05312189311997624
1789141123850554600,8.0025546875,0.014052756630384307,-9.806468766934625,0.057972991923324536
1789141123860526600,8.012526611328125,0.01699193878297059,-9.806439960653643,0.061854301879832596
1789141123870499600,8.02249951171875,0.020264463387274483,-9.806403609353119,0.0665065327226445
1789141123880471800,8.032471923828124,0.020964887189212102,-9.806370087470675,0.07105200165255775
1789141123890444500,8.042444580078126,0.019469101402494263,-9.806352407090332,0.07392658744270567
1789141123900416500,8.05241650390625,0.016290002221240028,-9.806340737107819,0.07629009351230835
1789141123910388700,8.062388671875,0.014357971793183762,-9.806341320953011,0.07649386512991746
1789141123920361500,8.072361572265624,0.010753759894486853,-9.806345563814107,0.07658122985686071
1789141123930333700,8.082333740234375,0.008398651726556359,-9.806367042410761,0.07406878291025257
1789141123940305700,8.0923056640625,0.009954324402114717,-9.806383133240725,0.07169035158702496
1789141123950278400,8.1022783203125,0.014289231162028055,-9.806398147836422,0.06891738498007324
1789141123960250600,8.112250732421876,0.019938850743069163,-9.806390048225825,0.06866722663818658
1789141123970223600,8.1222236328125,0.024696833720639542,-9.806389223985144,0.06713706566402752
1789141123980195600,8.132195556640625,0.0306176201311628,-9.806375323286886,0.0667089824444062
1789141123990167600,8.14216748046875,0.03724004674386455,-9.80635492524683,0.06640885659591411
1789141124000140500,8.152140625,0.0390233733138127,-9.806362155452781,0.06429304555771194
1789141124010112500,8.162112548828125,0.039638059075512905,-9.80638579604692,0.060220188370757946
1789141124020084700,8.172084716796874,0.03923561911535609,-9.806414754750827,0.05547083797476803
1789141124030057700,8.1820576171875,0.035675436201011275,-9.806460889364136,0.049481496133008014
1789141124040029400,8.192029541015625,0.031809500768764376,-9.806497897857083,0.044435766765200224
1789141124050001700,8.202001708984374,0.028432183481366995,-9.80652213829002,0.041342059956094926
1789141124059974700,8.211974609375,0.0261393647432387,-9.806540571630649,0.038440705014011006
1789141124069946600,8.221946533203125,0.026780631456214395,-9.80654668474495,0.03629871031162277
1789141124079919600,8.231919677734375,0.029246448863602333,-9.80654805281022,0.03389444302093912
1789141124089891600,8.2418916015625,0.030272610345072632,-9.806558861090506,0.02958160551011204
1789141124099863600,8.251863525390625,0.03437227507635615,-9.806557625996923,0.025231733508778418
1789141124109836500,8.26183642578125,0.039538929757472044,-9.806545509263355,0.02224832277654571
1789141124119808800,8.271808837890624,0.04605054573176493,-9.806526751533745,0.017411146114755627
1789141124129780500,8.281780517578126,0.051345875100453124,-9.806507578825673,0.01252134484346017
1789141124139753500,8.29175341796875,0.05374673293524917,-9.80650021055178,0.007549616876704175
1789141124149726700,8.301726806640625,0.052955924153265305,-9.806506842267837,0.004191717760101256
1789141124159699700,8.31169970703125,0.05124812048809437,-9.806516436719178,0.00021998749704910366
1789141124169671400,8.32167138671875,0.04524438955249676,-9.806545895228215,-0.00315684224525601
1789141124179643600,8.3316435546875,0.04063798476753056,-9.806563963433268,-0.005955535296933923
1789141124189616600,8.34161669921875,0.037018382619535106,-9.806578211221703,-0.006999410620985252
1789141124199588600,8.351588623046876,0.0351415853648005,-9.806582718100922,-0.009963702064620663
1789141124209560600,8.361560546875,0.035171081120842614,-9.806580252451548,-0.01204679053854333
1789141124219533600,8.371533447265625,0.035528718415496145,-9.80657744825766,-0.012855193853543573
1789141124229505500,8.381505615234374,0.0337941167025528,-9.806583541173328,-0.013124084825781894
1789141124239478500,8.391478515625,0.03330573366441228,-9.806585372005365,-0.012482604308677595
1789141124249450800,8.40145068359375,0.032260720643891606,-9.80659006346645,-0.011582633993404942
1789141124259422500,8.41142236328125,0.02839155072448795,-9.806602525506793,-0.01142405250819669
1789141124269395700,8.421395751953124,0.025462744219091754,-9.806608567524817,-0.01291843948671407
1789141124279367700,8.43136767578125,0.02218156754524554,-9.80661548633138,-0.013434210622206995
1789141124289339600,8.441339599609375,0.018617223736829527,-9.806622839540013,-0.01379358698271171
1789141124299312600,8.451312744140624,0.015305341539427784,-9.806628190852958,-0.013889733051076117
1789141124309284600,8.46128466796875,0.012098226650290159,-9.806633011692918,-0.013496624264579746
1789141124319256600,8.471256591796875,0.008690029125643109,-9.80663819267086,-0.012386964156388458
1789141124329229600,8.4812294921875,0.005217725499615078,-9.806642124518644,-0.011419633122979053
1789141124339201800,8.491201904296876,0.003668718103467587,-9.806642357914942,-0.011978423729987368
1789141124349174800,8.5011748046875,0.0024999071126259377,-9.806639910165353,-0.014243258668935886
1789141124359146500,8.511146484375,0.0005588924394144321,-9.806639806711207,-0.01439462123224676
1789141124369118700,8.52111865234375,-0.0021701346399963304,-9.806643329332633,-0.01173111921638477
1789141124379091700,8.531091796875,-0.0024260000170595497,-9.806645570600692,-0.00960297476133268
1789141124389063700,8.541063720703125,-0.003934532549282622,-9.806646658248136,-0.007656405261621457
1789141124399035600,8.55103564453125,-0.004859300419187864,-9.806647816112855,-0.004807197062691934
1789141124409008600,8.561008544921876,-0.0074131563416850055,-9.80664784238381,-0.0008361068410952388
1789141124418980600,8.570980712890625,-0.010314917132991912,-9.806644553200115,-9.65767989994975e-05
1789141124428953600,8.58095361328125,-0.008540744219642526,-9.806646272776895,-0.0024679328140005323
1789141124438925800,8.59092578125,-0.006014946639895406,-9.806646536115203,-0.005744989145834525
1789141124448897500,8.6008974609375,-0.005489694081035777,-9.806644253497895,-0.00897370302320679
1789141124458870500,8.61087060546875,-0.004288320135979761,-9.80664312645609,-0.010849218135967884
1789141124468842800,8.6208427734375,-0.0014749445065519837,-9.806643197354214,-0.011773953479879801
1789141124478814700,8.630814697265626,0.0013682558477803078,-9.80664292741238,-0.01201663599095573
1789141124488787700,8.64078759765625,0.003123551224045691,-9.806643625165616,-0.010977712190626846
1789141124498759700,8.650759765625,0.003526401628368389,-9.806642739458756,-0.011648641281532004
1789141124508731600,8.660731689453126,0.008195802913813485,-9.806635438903884,-0.014562794814642498
1789141124518704600,8.67070458984375,0.009541209657411617,-9.806628741077425,-0.017943935027049374
1789141124528676900,8.6806767578125,0.00932720952879057,-9.806626081906115,-0.01954432938304321
1789141124538649600,8.690649658203125,0.009126104597633704,-9.806621488578147,-0.021584670484224525
1789141124548621600,8.70062158203125,0.010558592845179163,-9.806620127491659,-0.021907077019808444
1789141124558593800,8.71059375,0.012102668296220828,-9.806619668608933,-0.021295955868515112
1789141124568566500,8.72056640625,0.011890941703177565,-9.806618563371506,-0.02179391638050593
1789141124578538800,8.730538818359374,0.012365119463259508,-9.806614317787787,-0.023173858486163018
1789141124588510700,8.7405107421875,0.014309755462929959,-9.80661107771878,-0.02372577228049817
1789141124598483500,8.7504833984375,0.016787256289010156,-9.80660570875398,-0.024217621003608896
1789141124608455700,8.76045556640625,0.017320237186450635,-9.806604628590348,-0.024391409136321384
1789141124618428700,8.7704287109375,0.019375212183273854,-9.806603993548805,-0.02279094812449992
1789141124628400600,8.780400634765625,0.0226872487688589,-9.806600597759308,-0.02144739329452838
1789141124638372600,8.79037255859375,0.024971553991828797,-9.806600311269516,-0.018974246582297072
1789141124648345600,8.800345703125,0.02735040552398955,-9.806599277555947,-0.015617423017830236
1789141124658317600,8.810317626953125,0.030480455102599467,-9.806596125346859,-0.011450299516259322
1789141124668289500,8.82028955078125,0.030633616634722766,-9.806600104797653,-0.0061636909442359215
1789141124678262800,8.8302626953125,0.027968260996501307,-9.806609453366613,-0.0008907469146206002
1789141124688234500,8.840234375,0.02599475211149951,-9.806614992592927,0.002821859572433346
1789141124698206700,8.850206787109375,0.023661145344112025,-9.80662040521317,0.005008415126017194
1789141124708179700,8.8601796875,0.018805142436083066,-9.806630558849468,0.005483815480910644
1789141124718151700,8.870151611328126,0.01580329252338586,-9.806634344392071,0.008090800839022128
1789141124728124700,8.880124755859375,0.01613923924057245,-9.806630088571094,0.011389462458449915
1789141124738096600,8.8900966796875,0.016677640029760164,-9.806624267232285,0.015171486458876131
1789141124748068600,8.900068603515624,0.01721220637995115,-9.80661643544651,0.019136972317297288
1789141124758041600,8.91004150390625,0.018076532601318387,-9.806610163407413,0.02140384407927724
1789141124768013800,8.920013916015625,0.01891542108037032,-9.806608473708852,0.021273984612580586
1789141124777985500,8.929985595703124,0.018561783644980845,-9.806613413263632,0.01959149926504627
1789141124787958500,8.93995849609375,0.014462022638682947,-9.806623088245967,0.01786611897061361
1789141124797930800,8.9499306640625,0.01004729416844615,-9.806632542545708,0.01554375520808205
1789141124807903500,8.959903564453125,0.00485939533271577,-9.806637477920503,0.01495161610454143
1789141124817875700,8.969875732421874,0.0009034488182146561,-9.806637594144625,0.015770594921153857
1789141124827847700,8.97984765625,-0.00398529104091222,-9.806635944124682,0.01611577924808524
1789141124837820400,8.9898203125,-0.00877395130827208,-9.806633527119741,0.01574115471229128
1789141124847792600,8.999792724609375,-0.011872994289136725,-9.806629866198106,0.016043028259728163
1789141124857764600,9.0097646484375,-0.013884605668945057,-9.806624528668237,0.01777496541543683
1789141124867737600,9.019737548828124,-0.01431939227572733,-9.806619466293553,0.019964699938643617
1789141124877709600,9.02970947265625,-0.014604258043802389,-9.806614236164313,0.022041559698568025
1789141124887681800,9.039681884765624,-0.015446928476063621,-9.806608047976393,0.02418176423894908
1789141124897654500,9.049654541015624,-0.016659144850016152,-9.806605228029616,0.0244106497947846
1789141124907626800,9.059626708984377,-0.019220833355820643,-9.806596708407472,0.025847533318188114
1789141124917599700,9.069599853515625,-0.02210437105511913,-9.806590139472712,0.02621823606401186
1789141124927571500,9.079571533203126,-0.025398336552984267,-9.806579457490242,0.02739116132115613
1789141124937543700,9.089543701171875,-0.02620964781299312,-9.806573300230552,0.028690213420579574
1789141124947516700,9.0995166015625,-0.02635197459835177,-9.806567029981528,0.030634920209184614
1789141124957488600,9.109488525390624,-0.025964232445771653,-9.806561662983052,0.032683792965452874
1789141124967460600,9.119460693359375,-0.0274902642048072,-9.80654679212983,0.03559321486778506
1789141124977433600,9.12943359375,-0.027377822479044304,-9.806533945002347,0.03922502400286676
1789141124987405600,9.139405517578124,-0.0256903829360324,-9.806521919330391,0.04315139028885874
1789141124997378600,9.149378662109376,-0.02592277684033688,-9.8065111977114,0.0453435406821439
1789141125007350800,9.159350830078123,-0.027864390937882906,-9.806501502431498,0.04621168231377067
1789141125017322500,9.169322509765625,-0.026852332566828497,-9.806497773401054,0.047539520844408704
1789141125027295500,9.17929541015625,-0.023966477892652882,-9.806506322739972,0.04741996545512702
1789141125037267700,9.189267822265624,-0.01987438257492451,-9.80651396865304,0.04784020139000691
1789141125047239400,9.199239501953125,-0.01586468297703937,-9.806512915027891,0.049381450937243436
1789141125057212700,9.209212646484374,-0.011876698363335247,-9.806509245656017,0.05128743504885348
1789141125067184600,9.2191845703125,-0.005996004043128232,-9.806504978819897,0.053186324081006056
1789141125077157600,9.22915771484375,-0.001415739187404527,-9.806501255230302,0.05400405027637066
1789141125087129600,9.239129638671876,-0.0035510899708952027,-9.806511371919388,0.05200910913504045
1789141125097101600,9.2491015625,-0.0046917147928009165,-9.806510026702943,0.05227126472938898
1789141125107074800,9.25907470703125,-0.0028775248683137787,-9.80650764436713,0.052812817734573476
1789141125117046500,9.269046630859377,-0.0009659563452561971,-9.806506854797316,0.053029140938100565
1789141125127018800,9.279018798828124,-0.0011426326329717735,-9.806491666984567,0.055756679777201716
1789141125136991700,9.28899169921875,0.0008607270374553842,-9.806478680189143,0.05794812074095709
1789141125146963700,9.298963623046877,0.006992136554311259,-9.806476907438745,0.05796344745506583
1789141125156934700,9.3089345703125,0.018194680934387607,-9.806457874387146,0.05863241438421109
1789141125166907600,9.31890771484375,0.024741631258439745,-9.806438123494637,0.0595934124564113
1789141125176879600,9.328879638671877,0.03196054294697325,-9.806421443064425,0.05892990999820351
1789141125186852600,9.3388525390625,0.04127950485240793,-9.8063675198086,0.06194283425136147
1789141125196824600,9.348824462890626,0.04498300065429156,-9.806333015038009,0.06483631976472043
1789141125206796500,9.358796630859375,0.044095855070566056,-9.806320232130158,0.0673024080046925
1789141125216769800,9.368769775390623,0.04549888874862274,-9.806285133031306,0.07139898081686111
1789141125226741500,9.378741455078124,0.04311462841917973,-9.806265849898534,0.07535103438468796
1789141125236713700,9.388713623046876,0.04006480661991281,-9.806259661214153,0.07778249370461475
1789141125246686700,9.398686767578123,0.039252767026341756,-9.806232888746912,0.08144199778680504
1789141125256658400,9.408658447265625,0.04189419957278248,-9.806188633567338,0.08548643082686712
1789141125266631700,9.418631591796874,0.045959480115114235,-9.806140788580311,0.08881327893321077
1789141125276603600,9.428603759765624,0.052923771872496486,-9.806083138718364,0.09116165497723604
1789141125286575600,9.43857568359375,0.05857869389388766,-9.806018771184727,0.09460536766185798
1789141125296548600,9.448548583984374,0.06366122193648385,-9.805947286172124,0.09861510087625733
1789141125306520600,9.4585205078125,0.06681164503548238,-9.80586105479023,0.10489915543764655
1789141125316492500,9.468492431640623,0.06511784437288026,-9.805797925180798,0.1116500950598131
1789141125326465500,9.478465576171876,0.060170002881981696,-9.805787992474947,0.11523755171675806
1789141125336437800,9.488437744140626,0.056122314461720904,-9.805776314753162,0.11829144187431793
1789141125346409500,9.498409423828123,0.0520352545481845,-9.805749655373507,0.12228439033399868
1789141125356382700,9.5083828125,0.04947286138224733,-9.805730821288877,0.1248428997403487
1789141125366354700,9.518354736328124,0.04941106178467785,-9.805684179849266,0.12847913798707714
1789141125376327700,9.52832763671875,0.05086657049259152,-9.805613298849238,0.13319902388062255
1789141125386299600,9.538299560546877,0.051231848908767204,-9.805514783465734,0.14011033389685992
1789141125396271600,9.548271728515624,0.05167420618901797,-9.805422939583092,0.14624116359777556
1789141125406244600,9.55824462890625,0.049769769525405995,-9.805350950279507,0.15162290473361398
1789141125416216600,9.568216552734375,0.04806855051612016,-9.80528916218767,0.1561135458438545
1789141125426188800,9.578188720703125,0.04343525541600458,-9.805239825186503,0.16050990585571528
1789141125436161500,9.58816162109375,0.03943804016208387,-9.805191580179153,0.16446480150839177
1789141125446133500,9.598133544921875,0.03504979385489761,-9.805151932302568,0.16781454539792057
1789141125456105700,9.608105712890625,0.03151367673260964,-9.805121835534347,0.17025759550437947
1789141125466078500,9.618078369140624,0.028521587401886095,-9.805087452454346,0.17271108573691515
1789141125476050700,9.62805078125,0.025629181105107795,-9.80503711940973,0.17601327645034298
1789141125486023700,9.638023681640624,0.02230075330117775,-9.805002159252345,0.17840445036485542
1789141125495995600,9.64799560546875,0.019724380906645342,-9.80498347552702,0.17969829179200994
1789141125505967600,9.657967529296876,0.018503509133908216,-9.804960651912255,0.1811036669249029
1789141125515940600,9.667940673828124,0.01932991059723314,-9.804945821484589,0.18178735997707793
1789141125525912600,9.67791259765625,0.018934009970629002,-9.804905099497601,0.18403621145908616
1789141125535884500,9.687884521484374,0.017510408650734846,-9.804883847210233,0.18530134011635088
1789141125545857800,9.69785791015625,0.01782447157060566,-9.80483687717237,0.187734518405087
1789141125555829500,9.70782958984375,0.017279190537757824,-9.804790629873347,0.1901897870793744
1789141125565802500,9.717802490234376,0.017380068613290525,-9.804764436008885,0.1915061104458179
1789141125575774700,9.727774658203124,0.01775604284651309,-9.80474741825332,0.19235746460024142
1789141125585746400,9.737746337890623,0.018106570312259533,-9.804741197477155,0.19264099467809462
1789141125595719700,9.7477197265625,0.017898610532790675,-9.804780954867397,0.1906345826178115
1789141125605691600,9.757691650390624,0.01455449180375091,-9.80480521775706,0.1896725394723471
1789141125615663600,9.76766357421875,0.008423290182087064,-9.804837751296413,0.18834540229247787
1789141125625636600,9.77763671875,0.0038599448892381724,-9.80488278029363,0.1861383651938685
1789141125635608600,9.787608642578125,0.0010319791144878957,-9.804927783389337,0.1838069180018675
1789141125645581800,9.797581787109374,-0.0021446073566798105,-9.805018068012501,0.1789327100632983
1789141125655553500,9.807553466796875,-0.005939671173865874,-9.805146728077633,0.1715865303824695
1789141125665525800,9.81752587890625,-0.007114442374175921,-9.805257216786119,0.16516695838712409
1789141125675498800,9.827498779296874,-0.006092291930585525,-9.805308428741313,0.16211803297440897
1789141125685470500,9.837470458984376,-0.003575015471230455,-9.805361211737088,0.1589404761125094
1789141125695442700,9.847442626953123,1.438045756761561e-05,-9.805387303971987,0.1573568819700997
1789141125705415700,9.857415771484376,0.005963794002652309,-9.805447103927671,0.1534904398557318
1789141125715387600,9.8673876953125,0.011672574764864753,-9.80552668262887,0.1479703060466458
1789141125725359600,9.877359619140623,0.016048302285479033,-9.805598678026977,0.14269553301287538
1789141125735332600,9.88733251953125,0.018602092188724165,-9.805659629995526,0.13816781035793413
1789141125745304600,9.8973046875,0.02082115873864898,-9.805733397881637,0.13246621411944876
1789141125755277600,9.907277587890626,0.01988819065328962,-9.805792447281906,0.1281677103072373
1789141125765249800,9.917249755859377,0.01852354584136003,-9.805843415950484,0.12443750434391741
1789141125775221500,9.927221435546874,0.018789832291111787,-9.805898335276613,0.12001644006419106
1789141125785194800,9.93719482421875,0.01759479530198863,-9.805950687659262,0.11577690724917987
1789141125795166700,9.947166748046875,0.017739521731217907,-9.80599913892899,0.11163780681454924
1789141125805138700,9.957138671875,0.011936450436348747,-9.806067815193156,0.10621105210160511
1789141125815111700,9.967111572265624,0.013679622948210356,-9.806134537532897,0.09960482136254242
1789141125825083600,9.977083740234375,0.0223645079709458,-9.806180631673321,0.09327519099164693
1789141125835055600,9.9870556640625,0.024020500777771122,-9.806243664603405,0.08601148112312354
1789141125845028600,9.997028564453124,0.026010602902045685,-9.80628599516178,0.0803952943835522
1789141125855000800,10.007000732421876,0.032335591833789964,-9.806316588121783,0.07408830370246777
1789141125864973600,10.0169736328125,0.03621449784030853,-9.806366301827904,0.0652641288620031
1789141125874945500,10.026945556640625,0.0329877496443816,-9.80642962732297,0.05689060461621308
1789141125884917800,10.036917724609374,0.03209164599948299,-9.806479139638869,0.04808822702595275
1789141125894890500,10.046890380859375,0.030584973956548255,-9.806530013822771,0.03770754407660148
1789141125904862700,10.05686279296875,0.027958946758438536,-9.80657246639624,0.027299720198323836
1789141125914834700,10.066834716796874,0.023438199448263013,-9.806607396033641,0.017104543885693317
1789141125924807400,10.076807373046876,0.02039106357928577,-9.80662612971879,0.006793017498928663
1789141125934779600,10.086779541015623,0.017713094258903703,-9.806633268823699,-0.003937068370216326
1789141125944751600,10.096751708984376,0.018094441537936153,-9.806618695071391,-0.016951309451303218
1789141125954724600,10.106724609375,0.018256472443222083,-9.806588334928874,-0.02959525880571289
1789141125964696600,10.116696533203124,0.021603546641970825,-9.806537036292303,-0.04179894505049961
1789141125974669600,10.126669677734377,0.02332583674663982,-9.80647943224116,-0.0529561269598874
1789141125984641500,10.1366416015625,0.023447497999727934,-9.806407543654853,-0.06487356674337577
1789141125994613800,10.14661376953125,0.023133824802670018,-9.806348154609708,-0.0734059636570749
1789141126004586800,10.156586669921875,0.02182791826757074,-9.80628182277581,-0.08214026504580056
1789141126014558500,10.166558349609376,0.0174915227342117,-9.806207284860333,-0.09162931053845444
1789141126024530700,10.17653076171875,0.013781918157652921,-9.806108119070874,-0.10218790116651727
1789141126034503700,10.186503662109375,0.014116282708525763,-9.805978556586659,-0.11384327139170625
1789141126044475600,10.1964755859375,0.013416095245588575,-9.805855737708056,-0.12413478460802693
1789141126054448600,10.20644873046875,0.013327418312607258,-9.805750913010607,-0.13211800872133747
1789141126064420600,10.216420654296876,0.016188752076590096,-9.805644062661672,-0.1394933529259731
1789141126074392600,10.226392578125,0.018731352230897752,-9.805538026333368,-0.14648084176424958
1789141126084365600,10.236365478515625,0.020337130543788055,-9.805441731570925,-0.1525846420830552
1789141126094337800,10.246337890625,0.017399641532159345,-9.805302639243614,-0.16159862037457903
1789141126104309500,10.2563095703125,0.011142849951378037,-9.805143834188403,-0.17149731803802645
1789141126114282500,10.266282470703125,0.006018655155322211,-9.805005387139163,-0.17950238235074586
1789141126124254700,10.276254638671874,0.0010924663330441982,-9.804837347164028,-0.18852719121203923
1789141126134226700,10.286226806640624,-0.005748262647381958,-9.804655033788984,-0.1977433177925884
1789141126144199700,10.29619970703125,-0.012580504094693102,-9.804487525887222,-0.2055503812519025
1789141126154171600,10.306171630859374,-0.016686413293356725,-9.804334672083693,-0.21241864633752156
1789141126164144600,10.31614453125,-0.018062234830352457,-9.804204956956783,-0.21819148376857955
1789141126174116600,10.32611669921875,-0.020661660747746936,-9.804016271518561,-0.22631901799993087
1789141126184088800,10.3360888671875,-0.025217028276277385,-9.803744046004098,-0.23738738758267208
1789141126194061800,10.346061767578124,-0.02646301086340544,-9.803569067796223,-0.24438323295285552
1789141126204033500,10.356033447265624,-0.026119758339892912,-9.803439619943589,-0.24956813215248932
1789141126214005800,10.366005859375,-0.029201416243280126,-9.803291937378063,-0.25497541432555476
1789141126223978800,10.375978759765625,-0.029209404590113678,-9.803190036628964,-0.25884708708995824
1789141126233950700,10.38595068359375,-0.02909978906251756,-9.803106729277676,-0.2619822340789436
1789141126243922700,10.395922607421875,-0.028827427953280863,-9.802952786207136,-0.26773514421985345
1789141126253895700,10.405895751953125,-0.027218254175539938,-9.802782670724865,-0.27402871865566186
1789141126263867600,10.41586767578125,-0.026419497546133635,-9.802613610135133,-0.2800925949039689
1789141126273840600,10.425840576171876,-0.02612987016729491,-9.80245550292116,-0.28559541146070117
1789141126283812900,10.435812744140623,-0.027544121635792628,-9.802368555185154,-0.28841170124601656
1789141126293784600,10.44578466796875,-0.030279505587162348,-9.802277091646289,-0.2912342848240773
1789141126303757600,10.455757568359376,-0.032994151188071204,-9.802227249930775,-0.29265457151778085
1789141126313729800,10.465729736328123,-0.035477919306213454,-9.802159754261638,-0.29460344626094814
1789141126323701500,10.475701416015625,-0.03920310986901647,-9.802131305455973,-0.29508857399661986
1789141126333674800,10.4856748046875,-0.03906298029192962,-9.802112401438592,-0.29573230400975964
1789141126343646700,10.495646728515624,-0.03714648196559785,-9.802075772894373,-0.2971862462441436
1789141126353619700,10.50561962890625,-0.03813909752182518,-9.802062747347513,-0.2974903033967092
1789141126363591700,10.515591796875,-0.037260502192239156,-9.802136161116508,-0.29515382631908826
1789141126373563600,10.525563720703126,-0.03788185976576808,-9.802249916386499,-0.29129025747305326
1789141126383537000,10.535536865234375,-0.04100941985660634,-9.802360955823294,-0.28710487450907085
1789141126393508600,10.545508544921876,-0.0447520398910032,-9.802469369004832,-0.2827988725282006
1789141126403480800,10.555480712890626,-0.046854479830646285,-9.802558702397475,-0.2793205073020207
1789141126413453800,10.565453857421875,-0.05140764814115245,-9.802664539847262,-0.2747696159475102
1789141126423425800,10.57542578125,-0.05660596135017845,-9.80274787806567,-0.27076091217684334
1789141126433397800,10.585397705078124,-0.0580375359093216,-9.802850947671402,-0.26671515173741983
1789141126443370800,10.595370849609376,-0.05536554048802774,-9.802996643359416,-0.2618614467333076
1789141126453342700,10.6053427734375,-0.052417393888342885,-9.803128353857947,-0.25754368748629985
1789141126463315700,10.615315673828125,-0.04903119326306882,-9.803355688974914,-0.2494107778802012
1789141126473288000,10.625287841796874,-0.0452443985632799,-9.803662798349775,-0.23777797352655378
1789141126483259600,10.635259765625,-0.043452393158541075,-9.803927516421014,-0.22692645668352174
1789141126493232600,10.645232666015623,-0.04491178807259201,-9.804194571461595,-0.21478878847451463
1789141126503204900,10.655204833984374,-0.04816281325656095,-9.804442119817686,-0.2024316641489805
1789141126513176600,10.665176513671875,-0.05077338885883269,-9.804661922040959,-0.1908174786698116
1789141126523149800,10.67514990234375,-0.052183124113031956,-9.804897140473061,-0.17788978805310834
1789141126533121800,10.685121826171876,-0.04985487916207696,-9.805174332879611,-0.16265803202271173
1789141126543093800,10.69509375,-0.046691100540800966,-9.80546211656343,-0.1453144178064523
1789141126553066800,10.705066650390624,-0.04504947412998396,-9.80571183869696,-0.1279230138858581
1789141126563038700,10.715038818359377,-0.04265971429878247,-9.805939991294949,-0.11000806451923208
1789141126573011700,10.72501171875,-0.040330594190402774,-9.806119796308042,-0.09362648469444891
1789141126582983700,10.734983642578126,-0.03778912782304249,-9.806257644496485,-0.079092619462284
1789141126592956000,10.744955810546877,-0.03581040231668699,-9.806369837575275,-0.06488064197576839
1789141126602928600,10.7549287109375,-0.03462339346941886,-9.806458616990586,-0.050390342123398164
1789141126612900600,10.764900634765626,-0.03387775972657385,-9.80653062200089,-0.034656110107878536
1789141126622872800,10.774872802734375,-0.035646672207372714,-9.806573497718217,-0.015401561219102492
1789141126632845600,10.784845458984377,-0.039421921253071215,-9.806570342922948,0.0031274324434276642
1789141126642817800,10.79481787109375,-0.043287712519962426,-9.806531024478808,0.021284948302483894
1789141126652789800,10.804789794921875,-0.04631833573009069,-9.806459721560268,0.039652761470949656
1789141126662762800,10.8147626953125,-0.048082631840650834,-9.806374461562152,0.05553050050853325
1789141126672734700,10.824734619140624,-0.05253027536197456,-9.806253819338188,0.07073106595195419
1789141126682707700,10.834707763671876,-0.05489028704373512,-9.806114564554159,0.08655142537087473
1789141126692679700,10.8446796875,-0.05610126704256996,-9.805952616930433,0.10264286429981864
1789141126702651600,10.854651611328125,-0.05629829608361699,-9.80575853805384,0.11964516237509529
1789141126712625000,10.864625,-0.05914855161553268,-9.805492364242914,0.13861046931117355
1789141126722596600,10.8745966796875,-0.06295313849250597,-9.805210182917948,0.15581908684429263
1789141126732568800,10.88456884765625,-0.06326092740282482,-9.804941432267626,0.17179184700078712
1789141126742541800,10.894541748046874,-0.06020542671070271,-9.804705909670417,0.1857534322474729
1789141126752513500,10.904513427734376,-0.05770473961714807,-9.804452008733731,0.1994313675318942
1789141126762486800,10.91448681640625,-0.05142491725532427,-9.804213545414811,0.21245205575914355
1789141126772458800,10.924458740234376,-0.044412849193603846,-9.803914792833876,0.22730215950143995
1789141126782430700,10.9344306640625,-0.037371641980645035,-9.803576599061953,0.24261235510310927
1789141126792403700,10.94440380859375,-0.03377768402509172,-9.803223564411766,0.2569977196041454
1789141126802375700,10.954375732421877,-0.033437077390068425,-9.802927663860848,0.2681040129338056
1789141126812347600,10.96434765625,-0.033734067456391924,-9.802678569196326,0.27701497883336773
1789141126822320600,10.974320556640626,-0.03538926169999701,-9.802498117658303,0.2831390912888712
1789141126832292900,10.98429296875,-0.03616116257228556,-9.80234368512407,0.2883359522388438
1789141126842264600,10.9942646484375,-0.035817114305877286,-9.802152107056427,0.2947943658077785
1789141126852237800,11.00423779296875,-0.03615293276265655,-9.801937775243196,0.3018111913547031
1789141126862209800,11.014209716796875,-0.03443084883554277,-9.801640494871862,0.31150153730182445
1789141126872182500,11.0241826171875,-0.032109102456734796,-9.801396256177476,0.31935458359910857
1789141126882154800,11.03415478515625,-0.029544256915187205,-9.8011952835739,0.3256947025061693
1789141126892126700,11.044126708984376,-0.02642867448478679,-9.801030074250761,0.3308923343380513
1789141126902099700,11.054099609375,-0.022267097754858446,-9.800903521309337,0.33494337291794235
1789141126912071700,11.06407177734375,-0.0192482780886018,-9.800823134384341,0.33747742861662733
1789141126922044000,11.0740439453125,-0.015624131569409512,-9.800712114888679,0.340848345556769
1789141126932016600,11.0840166015625,-0.010012096156072629,-9.800656114568985,0.34268619418333757
1789141126941988600,11.093988525390625,-0.007143431582478951,-9.800579828745242,0.34492696276348084
1789141126951960800,11.1039609375,-0.003697961175362664,-9.800476603146153,0.3479018778046885
1789141126961933600,11.11393359375,0.00019761420518468514,-9.800400556971526,0.35007178145864365
1789141126971905800,11.12390576171875,0.0024595440921611118,-9.800333882459375,0.35190090193182055
1789141126981878800,11.133878662109376,0.0059905404686260814,-9.800278597227408,0.35339031021732886
1789141126991850500,11.1438505859375,0.008688220923266501,-9.80023349054097,0.3545899057209854
1789141127001822700,11.15382275390625,0.009579482359427183,-9.800221028165137,0.35489607190957
1789141127011795700,11.163795654296877,0.009848576150643577,-9.800311251721078,0.3523988885127505
1789141127021767700,11.173767578125,0.007922745656878083,-9.800448573767795,0.34863378926485555
1789141127031739600,11.18373974609375,0.008071683624042151,-9.800602926747956,0.3442522472798781
1789141127041712600,11.193712646484377,0.009456202119692557,-9.800829901406578,0.3376963910190381
1789141127051684600,11.2036845703125,0.013887531318688012,-9.801093383458007,0.32978576696025813
1789141127061656800,11.21365673828125,0.019098253771912856,-9.801309879782249,0.32302617700204006
1789141127071629800,11.2236298828125,0.024828696661750214,-9.801506781229557,0.31659518484479077
1789141127081601500,11.2336015625,0.028076449526533903,-9.801752141410091,0.30864011531358204
1789141127091574800,11.24357470703125,0.028076504870427222,-9.80196762165756,0.3017248587089364
1789141127101546800,11.253546630859375,0.028984996711867606,-9.80217680454902,0.29475724030310635
1789141127111518700,11.263518798828123,0.026009996717934223,-9.80246542148966,0.2852848979400167
1789141127121491700,11.27349169921875,0.02346489080742269,-9.802812393538192,0.2733366424235689
1789141127131463700,11.283463623046876,0.025631647265206635,-9.803141671943111,0.2610523614346313
1789141127141435600,11.293435546875,0.02948292986654238,-9.803440231861329,0.24915794999681565
1789141127151409000,11.303408935546877,0.03237645862444348,-9.803679805354,0.2391501132927454
1789141127161380900,11.313380859375,0.036408666693717645,-9.803873937995785,0.2304829277384807
1789141127171352800,11.323352783203124,0.03915587746767194,-9.804094884491299,0.2204086354841417
1789141127181325800,11.333325927734377,0.040649313452503326,-9.804322177890995,0.20975753107674386
1789141127191297800,11.3432978515625,0.038413752948211914,-9.804534112425264,0.20004886528708643
1789141127201270800,11.353270751953126,0.03374672775244375,-9.804788862548083,0.18803073024727177
1789141127211243000,11.363242919921875,0.029303862526133675,-9.805034108888277,0.1755871575662086
1789141127221214700,11.373214599609376,0.025923002877095386,-9.805263982733427,0.16281318528625918
1789141127231187700,11.383187744140624,0.021381303076853698,-9.80547077327554,0.15058145864076694
1789141127241160000,11.393159912109375,0.0176983825145589,-9.805610368771978,0.14169471215842896
1789141127251131600,11.403131591796877,0.012502658532587835,-9.805726317012915,0.13400934771914064
1789141127261105000,11.41310498046875,0.00924270817983613,-9.80586297911361,0.1238615170266354
1789141127271076900,11.423076904296876,0.00626321163122853,-9.80598447685663,0.11410184216361977
1789141127281048800,11.433048828125,0.00435377066991656,-9.806085702788678,0.10513125017541981
1789141127291021800,11.443021728515625,0.002637447024659747,-9.806182972120707,0.09561843662279097
1789141127300993800,11.452993896484376,0.005276792476389904,-9.806282097717776,0.08476766579143374
1789141127310967000,11.462967041015624,0.008622173933726171,-9.806359616286787,0.07496132151704052
1789141127320938800,11.472938720703125,0.011217768915074764,-9.806440698720595,0.06313131907060743
1789141127330911000,11.482910888671874,0.013009031086110682,-9.806492911204302,0.05395858012517085
1789141127340884000,11.492884033203126,0.014716240576272223,-9.806525335274422,0.04720490999902102
1789141127350856000,11.50285595703125,0.01114400823278961,-9.806562045376056,0.03999492316408844
1789141127360828000,11.512827880859374,0.007865698709829871,-9.80659253478301,0.03245904685371138
1789141127370801000,11.52280078125,0.006352883591456926,-9.806609845389074,0.027313741301837995
1789141127380772900,11.53277294921875,0.003459197389508447,-9.80662489548312,0.021967077875915474
1789141127390745900,11.542745849609377,0.001538934270364464,-9.806633891679544,0.01811421798107486
1789141127400718000,11.552718017578124,0.002310107711723289,-9.806636663139313,0.015822733389629525
1789141127410689800,11.562689697265624,0.0008072537550082829,-9.80664110128777,0.012933094422304316
1789141127420662800,11.572662841796877,-0.0009037734626670719,-9.80664448485367,0.009941192320215552
1789141127430635000,11.582635009765625,-0.0017485749066074414,-9.806646441185679,0.00865431481165365
1789141127440606700,11.592606689453126,-0.0027386706565621977,-9.806648109556058,0.005883120418960034
1789141127450580000,11.602580078125,-0.004450128206253275,-9.806648569000803,0.00234389871422973
1789141127460552000,11.612552001953125,-0.003489033491707123,-9.806648763220918,0.0006329473993495312
1789141127470524000,11.62252392578125,-0.0029321081578482225,-9.806648874658089,-0.001997281861371759
1789141127480497000,11.632496826171876,-0.0025925588664385047,-9.806648999310893,-0.002256150079269257
1789141127490468900,11.64246875,-0.001058426173958516,-9.806649305309115,-0.0005161837937467763
1789141127500440800,11.65244091796875,-0.0006396771182531108,-9.806650252446943,-0.0008494901365535524
1789141127510413800,11.662413818359376,-0.0005422505931199658,-9.80664936712506,-0.0009554880467890694
1789141127520386000,11.672385986328123,0.002707805444422218,-9.806649304058608,-0.0014092294179437373
1789141127530358800,11.68235888671875,0.0042885326941674426,-9.806648484520613,-0.0030821985004024213
1789141127540331000,11.6923310546875,0.00694654013382026,-9.806646671226325,-0.0036395921959094207
1789141127550303000,11.702302978515624,0.01325021732839215,-9.806639894703835,-0.004532272916793008
1789141127560275700,11.712275634765623,0.02028260939105269,-9.806628385821691,-0.004492173333715298
1789141127570248000,11.722248046875,0.025845750009035474,-9.806616396663316,-0.0013271792931238266
1789141127580220000,11.732219970703126,0.031828156562516634,-9.806598896243171,-0.0005655117747221073
1789141127590193000,11.74219287109375,0.03437492675408119,-9.806589603229233,0.0008113018958682547
1789141127600164900,11.752164794921876,0.03394542298222522,-9.8065907537244,0.004009438091059095
1789141127610137900,11.762137939453124,0.033699924301471694,-9.806588714802698,0.008438350513692756
1789141127620109800,11.77210986328125,0.030508034565005063,-9.80659393494105,0.013532122812887968
1789141127630081800,11.782081787109377,0.029162852431996737,-9.806590726081618,0.017512798772541662
1789141127640055000,11.792054931640624,0.029924705491042473,-9.806583680151638,0.020266712517480308
1789141127650026800,11.80202685546875,0.028418178226039297,-9.806582450993176,0.023173214629871302
1789141127659999000,11.8119990234375,0.028726013094341092,-9.806574509697795,0.025764021555379674
1789141127669972000,11.821971923828125,0.028959196434232285,-9.806565440241995,0.0288944564671902
1789141127679943700,11.831943603515626,0.030392233639403802,-9.806545961209121,0.033616439114288445
1789141127689916000,11.841916015625,0.03019502770240653,-9.80652198618371,0.03988620448698773
1789141127699889000,11.851888916015625,0.029416757124075543,-9.80650045232716,0.045465226181309874
1789141127709860900,11.86186083984375,0.030209960386575897,-9.806464879330976,0.05212221566606116
1789141127719833900,11.871833740234376,0.03139334122746853,-9.806434073451175,0.05702006982524576
1789141127729805800,11.881805908203123,0.029481961713546237,-9.806403722421017,0.06297541983349607
1789141127739777800,11.89177783203125,0.0260533004505717,-9.80636691343471,0.06984713522214643
1789141127749750800,11.901750732421876,0.02404222690990777,-9.806329972022745,0.07547657830948104
1789141127759723000,11.911722900390624,0.024404218531192134,-9.806283303457333,0.0812514929399854
1789141127769694700,11.92169482421875,0.02362153592618567,-9.806238733525523,0.08664869315387577
1789141127779668000,11.93166796875,0.019192084081291978,-9.806191651705731,0.09289134480937894
1789141127789640000,11.941639892578126,0.016282853527907686,-9.806136080019547,0.09908631812806128
1789141127799612000,11.95161181640625,0.013506335747861156,-9.806081180960144,0.10481250127094384
1789141127809585000,11.9615849609375,0.012024722437239685,-9.806018758877652,0.11062793872589283
1789141127819556900,11.971556884765626,0.011540831211374383,-9.805943153216292,0.1172212292945688
1789141127829530000,11.981530029296875,0.010190119528713886,-9.805880246565861,0.12247218644741927
1789141127839501800,11.991501708984377,0.009064438658030638,-9.80582949390032,0.1265784524489873
1789141127849474000,12.00147412109375,0.0104514405283285,-9.805728432172984,0.13403547332183421
1789141127859447000,12.011447021484376,0.012419832340414818,-9.80565420401453,0.1392222385558642
1789141127869418800,12.021418701171877,0.014713852950342428,-9.805590377591022,0.1434490272200814
1789141127879391000,12.031390869140624,0.017221596385390874,-9.80555559894223,0.1455176374021164
1789141127889363700,12.04136376953125,0.018669258429162287,-9.805505264610984,0.14867645752949604
1789141127899336000,12.0513359375,0.018708682198923736,-9.805470829845573,0.15090986450063515
1789141127909308000,12.061307861328125,0.019519642166715596,-9.805416749893539,0.15430025296476618
1789141127919280600,12.07128076171875,0.01892159803222309,-9.805396308739867,0.15566951096871848
1789141127929252900,12.0812529296875,0.019672292802763915,-9.805371065709842,0.1571574146710323
1789141127939225900,12.091225830078123,0.021944793039510756,-9.805350435526439,0.15813344615339775
1789141127949197800,12.10119775390625,0.023929208082170254,-9.805339603824216,0.15854510273063413
1789141127959169800,12.111169677734376,0.028876419779497942,-9.805329432393847,0.1583399110700484
1789141127969143000,12.12114306640625,0.035381464357315665,-9.805303230988404,0.15864857493813547
1789141127979114800,12.13111474609375,0.04011912910097928,-9.805285024704077,0.15865717629584825
1789141127989087000,12.1410869140625,0.044418860914552535,-9.805277599729187,0.157947311510528
1789141127999060000,12.15106005859375,0.04881561596173727,-9.805263337017177,0.15758103292078424
1789141128009031700,12.16103173828125,0.0490772919056923,-9.805283789082665,0.156164646264997
1789141128019005000,12.1710048828125,0.05017597031032168,-9.805323172847592,0.15334734522131993
1789141128028977000,12.180976806640626,0.050314338701047116,-9.80535626906431,0.15116809520731
1789141128038948900,12.190948974609377,0.050466259014442225,-9.805414644415126,0.14728140606394005
1789141128048921900,12.200921875,0.05237004027187529,-9.805446178642727,0.14448262009916685
1789141128058893800,12.210893798828126,0.05561958798519571,-9.805439632487776,0.14369620348175438
1789141128068865800,12.22086572265625,0.056161114226666205,-9.805425672270419,0.1444238700850571
1789141128078838800,12.2308388671875,0.05793387267288831,-9.805430225078334,0.1434171301895567
1789141128088811000,12.24081103515625,0.05814634588963253,-9.80546632375334,0.14087338416457834
1789141128098782700,12.25078271484375,0.05792016710328728,-9.805500407002617,0.13855013131080907
1789141128108755700,12.260755615234377,0.05714853881228273,-9.8055610616293,0.13450761600327402
1789141128118728000,12.27072802734375,0.05976094255359305,-9.805577424565564,0.13216749961706262
1789141128128701000,12.280700927734374,0.061311305524132685,-9.805583426198247,0.13096363569642833
1789141128138673000,12.2906728515625,0.06111280321180211,-9.80557656341601,0.13154891030717483
1789141128148644900,12.300644775390625,0.05995755008457429,-9.805536402993443,0.13510418026289367
1789141128158617900,12.310617919921874,0.05982225027933813,-9.805509322512153,0.13713960894396965
1789141128168590000,12.320590087890626,0.061837803886032584,-9.80548009610812,0.138295774688129
1789141128178562000,12.33056201171875,0.06279302061747623,-9.80546392425406,0.13900962482270665
1789141128188535000,12.34053515625,0.06142315794544338,-9.805494867859908,0.1374458331350828
1789141128198507000,12.350507080078126,0.06394874641357844,-9.805495451478203,0.13621719226612278
1789141128208479200,12.360479248046875,0.06850663065494988,-9.805460010862742,0.13654833644415668
1789141128218452000,12.370451904296877,0.06617045483808799,-9.80545173113806,0.13829029440250126
1789141128228424200,12.380424072265624,0.06319757811523881,-9.805460361004487,0.13905694940314683
1789141128238397200,12.390397216796876,0.06296189283549863,-9.805436874827725,0.14084743841237563
1789141128248369000,12.400368896484377,0.06119063683109854,-9.805462308344742,0.13984779043262802
1789141128258341000,12.410341064453124,0.05744880141827978,-9.80550760874065,0.138257484285931
1789141128268314000,12.420314208984376,0.05567609605483859,-9.805530985472153,0.13733712593637348
1789141128278286000,12.4302861328125,0.05327741401569567,-9.805537919115714,0.13778393599895114
1789141128288258000,12.440258056640625,0.050796723679697245,-9.805561534964125,0.13702488165625595
1789141128298231000,12.45023095703125,0.04902171928761065,-9.805581528261543,0.13626800993345184
1789141128308203000,12.460203125,0.04471061311296558,-9.805620734891678,0.13485987925167972
1789141128318175000,12.470175048828125,0.03783628661411664,-9.805695372059208,0.13152862168142865
1789141128328148200,12.480148193359376,0.034329919770983465,-9.80575304659017,0.12813216417644457
1789141128338120000,12.490119873046876,0.03189756721709315,-9.805818180012116,0.1237039561730153
1789141128348093000,12.500093017578124,0.030274801392564245,-9.805864823326496,0.12031975520567646
1789141128358065200,12.510065185546877,0.02873242532430636,-9.805911284004143,0.11692703341981989
1789141128368036900,12.520036865234376,0.028002503125028704,-9.80595524843663,0.11335516097081395
1789141128378010000,12.530010009765626,0.028941592663749606,-9.806000419366827,0.10917358500617244
1789141128387982000,12.539982177734377,0.0310261206978242,-9.806032467094443,0.1056046984951658
1789141128397954000,12.5499541015625,0.03288633958831588,-9.806069157944501,0.10156697538235024
1789141128407927000,12.559927001953126,0.03288751821744976,-9.806100355440778,0.09849865421743252
1789141128417899000,12.56989892578125,0.028965411775337294,-9.806167968207523,0.0928657464699669
1789141128427871000,12.57987109375,0.02382696023875422,-9.806231863955043,0.0874656087325964
1789141128437844000,12.589843994140624,0.01796550429141607,-9.806283703467948,0.08290571159169928
1789141128447816200,12.599816162109375,0.011193254410235571,-9.80633554064005,0.07779565191156924
1789141128457789200,12.6097890625,0.007307564615431692,-9.806378966627163,0.07259159329751032
1789141128467761200,12.61976123046875,0.005472975514949926,-9.806409971948797,0.06847561907110158
1789141128477733000,12.629733154296876,0.0038243171235558863,-9.806435212082587,0.06488199829726607
1789141128487706000,12.6397060546875,0.004300199513604812,-9.806463732228108,0.06036187063122752
1789141128497678000,12.649677978515625,0.005503380092327525,-9.806491699882294,0.055535391409768965
1789141128507650000,12.659650146484376,0.00544055652000548,-9.806520993809185,0.050044380057186526
1789141128517623300,12.669623291015624,0.003973259832273134,-9.806552973053236,0.04339872308615545
1789141128527595000,12.679594970703125,0.005280214386652316,-9.806579788056489,0.03671861457190556
1789141128537568000,12.689568115234374,0.0056167416898596865,-9.80660665426753,0.02882730978922849
1789141128547540200,12.699540283203126,0.004594143538397183,-9.806626667679813,0.021012438050754666
1789141128557512000,12.709511962890623,0.0018296631765290314,-9.806640728321922,0.013671196566903705
1789141128567485200,12.719485107421876,0.0006192683905601744,-9.806645802880887,0.009308429306507148
1789141128577457200,12.72945703125,0.0016488060247079285,-9.80664792219346,0.006919172773311604
1789141128587429000,12.73942919921875,0.0018560036766219455,-9.806650349852868,0.0022896817981891654
1789141128597402000,12.749402099609377,0.001976797289494378,-9.8066502846872,-0.0013666255583232863
1789141128607374000,12.7593740234375,0.0011741479450155903,-9.8066481504795,-0.006676729607440114
1789141128617346000,12.769345947265624,-0.0008008387547857028,-9.806643616713506,-0.011301642349461516
1789141128627319000,12.779319091796877,-0.005144784534380556,-9.806636775997486,-0.015571105203877144
1789141128637291300,12.789291259765625,-0.009475591357221218,-9.80662331435799,-0.02088064909560202
1789141128647264000,12.799263916015626,-0.011645670196462368,-9.806608878498853,-0.02596612357889524
1789141128657236200,12.809236328125,-0.01218690830209828,-9.806590602715524,-0.031793433964128974
1789141128667208200,12.819208251953125,-0.00978217107001359,-9.806575644597276,-0.03672983284093082
1789141128677181000,12.829180908203124,-0.0064233656517025915,-9.806554510654223,-0.04276288573987578
1789141128687153200,12.839153076171876,-0.004451201700108767,-9.806529699134382,-0.048347271727491814
1789141128697125000,12.849125,0.00034576458775290383,-9.806512417620617,-0.05191955525338358
1789141128707098000,12.85909814453125,0.004818857324724069,-9.80650003868627,-0.05415592795752765
1789141128717070000,12.869070068359376,0.006604876704421285,-9.806487346607947,-0.056218603027838716
1789141128727042300,12.879042236328123,0.006682957711669126,-9.806483746872969,-0.05678030953929137
1789141128737015000,12.88901513671875,0.00856046908144325,-9.806466474182509,-0.05941470795866645
1789141128746987000,12.898987060546874,0.010479404609325577,-9.806457442655141,-0.06061685857742092
1789141128756959200,12.908959228515624,0.011744736363103416,-9.806444525488605,-0.062445897064722866
1789141128766932000,12.918931884765623,0.014163112274379448,-9.806425225541757,-0.06485657682851448
1789141128776904200,12.928904296875,0.016060257378571138,-9.806417431968557,-0.06560987282442582
1789141128786877200,12.938877197265626,0.018933024804470424,-9.806418345221752,-0.06476623378055642
1789141128796849000,12.948848876953123,0.020317578411658564,-9.806425551345475,-0.06323750400047018
1789141128806821000,12.958821044921876,0.019889844489833212,-9.806446727617118,-0.06008654469822926
1789141128816794000,12.968794189453124,0.01999053775212434,-9.806468871380073,-0.05620814852352063
1789141128826766000,12.97876611328125,0.021924133795018966,-9.80648583168634,-0.0523477045818027
1789141128836738000,12.988738037109377,0.02269665602538869,-9.806507517490846,-0.04789048896590055
1789141128846711000,12.9987109375,0.020881617537391373,-9.806530030912544,-0.04376683407317264
1789141128856683000,13.00868310546875,0.017708800486919092,-9.806554634198033,-0.03960237449962129
1789141128866656000,13.018656005859375,0.016574258349242386,-9.80657549621177,-0.03460842721860154
1789141128876628200,13.028628173828125,0.013957765387628027,-9.806593738793634,-0.030183976664305598
1789141128886600000,13.038599853515626,0.010677922257869163,-9.806611918159906,-0.025326406171059173
1789141128896573200,13.0485732421875,0.009989231633941371,-9.806622616527056,-0.02106939063200298
1789141128906545200,13.058545166015625,0.011213261991350169,-9.806633357742776,-0.014611234903194428
1789141128916517000,13.06851708984375,0.014080559339272476,-9.806637530314136,-0.007464524731369785
1789141128926490000,13.078489990234376,0.017297503508444084,-9.806634829366882,-0.0018116664910112546
1789141128936462000,13.088462158203123,0.021556991077034182,-9.806625662915893,0.004626525863364108
1789141128946434000,13.09843408203125,0.023406267060710764,-9.806612352547045,0.013573256165804792
1789141128956407000,13.108406982421876,0.02249276340889391,-9.80659621023042,0.023547712592411566
1789141128966379300,13.118379150390624,0.021180211164928606,-9.806562405354587,0.03552984008001863
1789141128976351000,13.12835107421875,0.01914986598626041,-9.806518819231705,0.04703953066430358
1789141128986324000,13.138323974609374,0.015340563746630113,-9.80646935731578,0.05742818130798313
1789141128996296200,13.148296142578126,0.014276012484080879,-9.806404994588306,0.06775197768444867
1789141129006269000,13.15826904296875,0.015793347776690003,-9.806328261367298,0.07782682678316606
1789141129016241200,13.1682412109375,0.017176130913054997,-9.806242299014247,0.08772575452588337
1789141129026213000,13.178213134765626,0.018701315500428098,-9.806130313947618,0.09918000749454554
1789141129036185900,13.188185791015623,0.02170959598919103,-9.805990474394363,0.11166314175947978
1789141129046158000,13.198157958984376,0.022866258565782234,-9.805828602595012,0.12486202155985937
1789141129056130000,13.208130126953124,0.022158189585133405,-9.805646133176042,0.1385862160108026
1789141129066103000,13.21810302734375,0.022502678320003935,-9.805434252998381,0.15275922138359097
1789141129076075000,13.228074951171877,0.022049378787634872,-9.805231167702148,0.1653719093045999
1789141129086047200,13.238047119140624,0.0190672861427561,-9.80499639986162,0.17909550638502936
1789141129096020000,13.24802001953125,0.016841903722653834,-9.804761179534031,0.1917196166995954
1789141129105992200,13.2579921875,0.013675206310361999,-9.8044934084202,0.20519679886924042
1789141129115965200,13.267965087890625,0.011898110736521058,-9.804199037415604,0.21889793612789957
1789141129125937000,13.27793701171875,0.012227936311296327,-9.803878453420737,0.23279965422260368
1789141129135909000,13.2879091796875,0.013324093081276876,-9.803547553008473,0.24628592384757464
1789141129145882000,13.297882080078123,0.014031889886072735,-9.803165512123071,0.26101631189868707
1789141129155854000,13.30785400390625,0.01787801850174067,-9.802773695476299,0.2750951665495974
1789141129165826000,13.317825927734376,0.022546388931741074,-9.802413494353878,0.2873294835150754
1789141129175798800,13.327798828125,0.02406786064857553,-9.802091659983537,0.29798037087670365
1789141129185771000,13.33777099609375,0.02758535113598386,-9.80170581671459,0.3101377103626299
1789141129195743000,13.347742919921876,0.034547436133905145,-9.80124095760126,0.32383515791391
1789141129205716000,13.357716064453124,0.039881283832211574,-9.800715498056306,0.33879727990986336
1789141129215688000,13.36768798828125,0.043801786642410544,-9.800146509194546,0.3543963664949325
1789141129225661000,13.377660888671874,0.04677805029803189,-9.799566980339527,0.3697042827308754
1789141129235633000,13.3876328125,0.04882831099977957,-9.798988873704063,0.3844738762973696
1789141129245604900,13.39760498046875,0.052352955780666684,-9.798433356912263,0.39793135787009665
1789141129255578000,13.407578125,0.053838678828762615,-9.797931950521832,0.4099071883846534
1789141129265549800,13.4175498046875,0.05558124862642703,-9.7974699988573,0.42056935716674326
1789141129275522000,13.42752197265625,0.05813307549946884,-9.796978668998388,0.43152735307315526
1789141129285495000,13.4374951171875,0.06243426683327033,-9.796489609921972,0.44189597427044564
1789141129295467000,13.447467041015624,0.06447209004589452,-9.795906886351142,0.45435822942085685
1789141129305439000,13.45743896484375,0.06812807270489929,-9.795222194607582,0.46836600870855283
1789141129315412000,13.467411865234377,0.07134194274297677,-9.794501045571467,0.48275251880689357
1789141129325384000,13.477384033203125,0.07347035946020783,-9.793950255025914,0.49348276740277336
1789141129335357000,13.48735693359375,0.07477352865658275,-9.793429739313401,0.5035074791942473
1789141129345329200,13.4973291015625,0.07203628332296669,-9.792885595641899,0.514390796521619
1789141129355300900,13.50730078125,0.0697608356421883,-9.792328303603226,0.5251855691856977
1789141129365273900,13.51727392578125,0.07082448137129335,-9.791696923838126,0.5366985469531235
1789141129375246000,13.52724609375,0.07143431965221733,-9.791103508080555,0.5473365610924521
1789141129385217800,13.5372177734375,0.07023658312257101,-9.790775634595816,0.5533227167986622
1789141129395191000,13.54719091796875,0.07235196404435039,-9.790627147639995,0.555671954365992
1789141129405163000,13.5571630859375,0.0762890032961013,-9.790390807429592,0.5592954574357318
1789141129415135000,13.567135009765623,0.07589625740812818,-9.79030141840118,0.5609147037549941
1789141129425108000,13.57710791015625,0.07392498688672337,-9.790336440902843,0.5605692142981392
1789141129435080000,13.587079833984374,0.07531825291793996,-9.790296991033026,0.5610622001216233
1789141129445052000,13.597052001953124,0.07434216231849267,-9.79034351230351,0.5603866708139237
1789141129455025000,13.60702490234375,0.07168735114627117,-9.79058947110483,0.5564304244712285
1789141129464997000,13.6169970703125,0.07159800427971111,-9.790796674429872,0.5527793801038747
1789141129474970000,13.62697021484375,0.0710377127635296,-9.791103606942597,0.5473904163037923
1789141129484942000,13.636942138671875,0.06894504878000322,-9.791564296707284,0.5393525286718163
1789141129494914000,13.6469140625,0.06921265762511193,-9.791899529957057,0.5332024111140542
1789141129504887000,13.656886962890624,0.06885109544098293,-9.792298320623186,0.5258675498958142
1789141129514859000,13.66685888671875,0.06603343848588943,-9.79273285871402,0.5180741994902043
1789141129524831000,13.6768310546875,0.06546551752246058,-9.793132541280581,0.51054262954912
1789141129534804200,13.68680419921875,0.062189737901849514,-9.793666688846757,0.5006158904085591
1789141129544776000,13.69677587890625,0.05816596144132057,-9.794331859983936,0.48792244452742556
1789141129554749000,13.7067490234375,0.056838879971149864,-9.795006963936078,0.4743391423894368
1789141129564721200,13.71672119140625,0.053604053879644536,-9.795700520964976,0.46018131426237185
1789141129574692900,13.72669287109375,0.050489523845808175,-9.79643590224259,0.4446061311768216
1789141129584666000,13.736666015625,0.049957064626238605,-9.797158618341312,0.42844509749039644
1789141129594638000,13.74663818359375,0.04868266342695455,-9.797912572146883,0.41101038050627386
1789141129604610000,13.756610107421874,0.04594040199560254,-9.798746915789808,0.3909428308881166
1789141129614583000,13.7665830078125,0.045615111271176664,-9.799563263646688,0.3699692922696293
1789141129624555000,13.776554931640623,0.04682244993236929,-9.800314253400087,0.3493553515430758
