time,seconds_elapsed,z,y,x
1790173701922521000,1.59352099609375,0.18425879531676537,-9.791861628648508,0.50584559004347
1790173701932593200,1.60359326171875,0.1825070599340318,-9.790815247012189,0.5263067044283541
1790173701942664200,1.613664306640625,0.1802180939174412,-9.789480219650839,0.5513615686713547
1790173701952736300,1.623736328125,0.17566702202161108,-9.78789534189289,0.5801928750493662
1790173701962807300,1.633807373046875,0.1700423217292578,-9.786189450297629,0.6098961341263296
1790173701972879000,1.643879150390625,0.16635811996656774,-9.784277738158167,0.6407936784491804
1790173701982951200,1.653951171875,0.16167120384865005,-9.782296968879358,0.6714913755225553
1790173701993022000,1.66402197265625,0.15576607741310017,-9.780390192756633,0.7000713142361118
1790173702003094000,1.674093994140625,0.14850550081633557,-9.778561044971049,0.726697182935143
1790173702013165800,1.684165771484375,0.1407789821513349,-9.776818172725688,0.7512529571876778
1790173702023236900,1.69423681640625,0.1365484823190412,-9.775122095446617,0.7737603189144211
1790173702033309000,1.704308837890625,0.1305835308617821,-9.773595265013315,0.7938389042552292
1790173702043381000,1.714381103515625,0.12442267577612814,-9.772330497161716,0.8102245805477576
1790173702053452000,1.7244521484375,0.11766217442764562,-9.771222821384324,0.8244691983711633
1790173702063524000,1.734524169921875,0.11226037949680699,-9.770323028094076,0.8358063272663201
1790173702073596000,1.744595947265625,0.11032198117606799,-9.769706832692602,0.8432285361069043
1790173702083667000,1.7546669921875,0.10554502222741942,-9.769285360342733,0.8487081073633626
1790173702093739000,1.764739013671875,0.09593001536440329,-9.768843200502147,0.8549221286681982
1790173702103810000,1.77481005859375,0.08848845589321484,-9.768493593155819,0.8597078685067455
1790173702113882000,1.784882080078125,0.08509231129841695,-9.76840026544804,0.8611063554041261
1790173702123954200,1.7949541015625,0.08430112815395735,-9.768494868040534,0.8601074079119719
1790173702134025200,1.805025146484375,0.08009522124705401,-9.769055496992232,0.8541221046801161
1790173702144097000,1.815096923828125,0.0763890343321105,-9.769919066140556,0.8445384527679238
1790173702154169000,1.825169189453125,0.07320607351777847,-9.771015546960218,0.8320418645658972
1790173702164240100,1.835240234375,0.07145435510996462,-9.772288058145332,0.8171037760224562
1790173702174312200,1.845312255859375,0.07000925429621352,-9.773388893642885,0.8039594696277972
1790173702184384000,1.855384033203125,0.07064855714207897,-9.774342403398522,0.792230078788616
1790173702194455000,1.865455078125,0.06945158964251655,-9.7752705702851,0.7807958948585378
1790173702204527000,1.875527099609375,0.06887272479601732,-9.776319642117995,0.7676072462462366
1790173702214599200,1.88559912109375,0.06364331891444579,-9.77756466612835,0.7520310064366543
1790173702224670200,1.895670166015625,0.06133724232781459,-9.778941958427826,0.7341066962410568
1790173702234742300,1.9057421875,0.06277708394941965,-9.78046598561172,0.7133890829827497
1790173702244814000,1.91581396484375,0.061043772465153696,-9.78215702921884,0.689960276701991
1790173702254884900,1.925884765625,0.057370801876315436,-9.783842310103745,0.6659654412257113
1790173702264957000,1.93595703125,0.05730031921709977,-9.78538337255421,0.6429423472884016
1790173702275028500,1.946028564453125,0.06358507048330271,-9.786913736812322,0.6186100355133107
1790173702285100500,1.9561005859375,0.06463544146239947,-9.788659300767653,0.590217055703513
1790173702295172400,1.96617236328125,0.06337599329024743,-9.79050764485825,0.5588747636276516
1790173702305243400,1.976243408203125,0.061536064396331414,-9.792125420067613,0.5299888648238769
1790173702315315500,1.9863154296875,0.05878994549730225,-9.793547659787775,0.5033406673859818
1790173702325387500,1.996387451171875,0.060604793077347216,-9.794860630333844,0.4768771910864832
1790173702335458600,2.00645849609375,0.06700433944561435,-9.796054371558192,0.4507755185022947
1790173702345530600,2.016530517578125,0.07088180025363754,-9.797211980050843,0.42425385611514077
1790173702355602400,2.0266025390625,0.07067724087672593,-9.798372727743706,0.39659245481181993
1790173702365673500,2.036673583984375,0.06967960993215352,-9.799444579818124,0.36933714992763683
1790173702375745500,2.04674560546875,0.06996761474789474,-9.800362883285633,0.3440489910017874
1790173702385817600,2.056817626953125,0.07406339177301373,-9.801111919026367,0.32108569142135873
1790173702395888600,2.066888671875,0.07993459893746423,-9.801783246846867,0.2983794943013065
1790173702405960400,2.07696044921875,0.0880912840323011,-9.802387465787719,0.2753433995971349
1790173702416031500,2.087031494140625,0.09938457639352866,-9.802789075193692,0.2566068231957158
1790173702426103600,2.097103515625,0.09768081905157124,-9.803209967837233,0.2406734023541808
1790173702436175600,2.107175537109375,0.09674157780046738,-9.803612656126683,0.2241152949971388
1790173702446246700,2.11724658203125,0.10444006673699995,-9.80389302396542,0.2077937921257351
1790173702456318700,2.127318603515625,0.09156433967870571,-9.804218791022452,0.19819117633093736
1790173702466390500,2.137390625,0.08762430697743903,-9.804464056672732,0.18756739808605818
1790173702476461300,2.14746142578125,0.09957207838822749,-9.804636594061114,0.17196879810283
1790173702486533400,2.157533447265625,0.10322775635364512,-9.804834633191362,0.157899027178784
1790173702496605700,2.167605712890625,0.0967848055537048,-9.805088426687231,0.1457650543371181
1790173702506676500,2.177676513671875,0.09769936016889498,-9.805277691603898,0.1318272533497806
1790173702516748500,2.18774853515625,0.10047165950770906,-9.805444923917634,0.11637057764117235
1790173702526820400,2.1978203125,0.10288992076073114,-9.805569675127417,0.10300174605276272
1790173702536891400,2.207891357421875,0.10698087244373627,-9.805640464827578,0.09146201103016101
1790173702546963500,2.21796337890625,0.10781174455917061,-9.805723310047059,0.08103625004607037
1790173702557035500,2.228035400390625,0.1050614971601425,-9.805810625908249,0.07360141393812247
1790173702567106600,2.2381064453125,0.10521082613865536,-9.805877314069782,0.06376610748974426
1790173702577178400,2.248178466796875,0.10844532178719345,-9.805912808026738,0.05184352522159669
1790173702587249400,2.25824951171875,0.10978906271438314,-9.805942341035745,0.042651669560430275
1790173702597321500,2.268321533203125,0.10880766078733672,-9.805973823046116,0.03762506792783091
1790173702607393500,2.2783935546875,0.10558745498776527,-9.806023774656873,0.0337752692016841
1790173702617464600,2.288464599609375,0.10381818255225887,-9.806059984796308,0.028213350606678633
1790173702627536600,2.29853662109375,0.10322146597525803,-9.806076496557369,0.024154887354871233
1790173702637608400,2.3086083984375,0.10291858195354615,-9.806085071147253,0.022135878296874415
1790173702647679500,2.318679443359375,0.09866768382433429,-9.80613053969124,0.021596422899915903
1790173702657751600,2.32875146484375,0.09558911156340048,-9.806157893989472,0.022809107633813244
1790173702667823600,2.33882373046875,0.09529761493246479,-9.80615560978727,0.024878581261691228
1790173702677894700,2.348894775390625,0.09475732867010637,-9.806151379489316,0.028362085774738074
1790173702687966500,2.358966552734375,0.09358704003903276,-9.806144081251983,0.03427757128570506
1790173702698038500,2.36903857421875,0.08954070922785447,-9.806154645746405,0.04116232632940426
1790173702708109600,2.379109619140625,0.0850613743759145,-9.80617055247916,0.04673015570604225
1790173702718181600,2.389181640625,0.08299344328926189,-9.806172457542294,0.04980051162165844
1790173702728252400,2.39925244140625,0.08468166213200264,-9.806141478899873,0.052761843828608324
1790173702738324500,2.409324462890625,0.08398151969096496,-9.80613730770995,0.05479882374339754
1790173702748396500,2.419396484375,0.08107262180778933,-9.806146214556838,0.057569891495928664
1790173702758467300,2.42946728515625,0.07939037911336543,-9.806141540549627,0.06050888360833665
1790173702768539400,2.439539306640625,0.08007705831261323,-9.806137559775655,0.06028396748662092
1790173702778611500,2.449611572265625,0.07840270998390862,-9.806148467442583,0.060859350952503125
1790173702788682500,2.4596826171875,0.07456484950458021,-9.806173392773532,0.06151655890208498
1790173702798754600,2.469754638671875,0.070634378221232,-9.806197415807077,0.06226906248776548
1790173702808826400,2.479826416015625,0.06945905528126721,-9.806200774670677,0.0630824005832576
1790173702818897400,2.4898974609375,0.06735675180001778,-9.806216791055565,0.0627890470912285
1790173702828969500,2.499969482421875,0.06661670741484788,-9.806228702891062,0.06182025775965311
1790173702839041500,2.51004150390625,0.06882567177364822,-9.806209145713883,0.06237391328728344
1790173702849112600,2.520112548828125,0.0700981170447773,-9.806196986884553,0.06312373712706663
1790173702859184400,2.530184326171875,0.06987409353155312,-9.806199773294345,0.06283401891599283
1790173702869255400,2.54025537109375,0.06911841843811217,-9.806198181828549,0.06392789601600395
1790173702879327500,2.550327392578125,0.06691229242854173,-9.80620582622532,0.06516071303047434
1790173702889399600,2.560399658203125,0.06196552279148365,-9.806226511963978,0.06689562499888337
1790173702899470600,2.570470703125,0.05812622616207027,-9.806246272138202,0.06747361324058745
1790173702909542700,2.580542724609375,0.058907899587077525,-9.806241388170317,0.0674867275671444
1790173702919614500,2.590614501953125,0.057295532697529204,-9.806238635058126,0.06931784026562321
1790173702929685500,2.600685546875,0.0556653537075999,-9.806226696805933,0.07223981037124054
1790173702939757600,2.610757568359375,0.05360025530606122,-9.806220833812942,0.0745126533104336
1790173702949829600,2.62082958984375,0.05010226539198289,-9.806225227723122,0.07628325401396584
1790173702959900700,2.630900634765625,0.046030821216055715,-9.806233777459108,0.07770851812793314
1790173702969972700,2.64097265625,0.04404767211803196,-9.806237078808538,0.07844911138309155
1790173702980044500,2.65104443359375,0.041863563949723584,-9.806260869266678,0.07666630457579977
1790173702990115300,2.661115234375,0.03948483551398275,-9.806298681105359,0.07303065095663532
1790173703000187600,2.671187744140625,0.03969617234307863,-9.806360079049924,0.06411893207363091
1790173703010258400,2.681258544921875,0.04268130022987962,-9.806432567688095,0.04942474195803216
1790173703020330500,2.69133056640625,0.04617149951380687,-9.80647447571745,0.03618237872383227
1790173703030402300,2.70140234375,0.050909759416536624,-9.806485070334157,0.025208497750098556
1790173703040473300,2.711473388671875,0.05074700558743131,-9.806504535746836,0.01645223879566217
1790173703050545400,2.72154541015625,0.05043947739511661,-9.806514213713918,0.010959520094479282
1790173703060617500,2.731617431640625,0.054162944859456115,-9.806496995035182,0.007890481388297108
1790173703070688500,2.7416884765625,0.05904018006722058,-9.806470965219615,0.004991494986398815
1790173703080760600,2.751760498046875,0.06334626092172845,-9.80644502779523,-0.00021138327787549634
1790173703090832400,2.761832275390625,0.06725082352657381,-9.806417280640778,-0.0058090452559852995
1790173703100903400,2.7719033203125,0.06771795337496003,-9.806410460603711,-0.010131610293454222
1790173703110975500,2.7819755859375,0.06795357378207989,-9.806409043563491,-0.010898290989766394
1790173703121046500,2.792046630859375,0.07267272893332041,-9.80637372675256,-0.012317129631101988
1790173703131118600,2.80211865234375,0.07670014479650365,-9.80634190734626,-0.012761484847368366
1790173703141190700,2.812190673828125,0.07909124989569756,-9.806326539688508,-0.009879469083552014
1790173703151261700,2.82226171875,0.07970567041851678,-9.806325215958763,-0.004841474614755498
1790173703161333500,2.83233349609375,0.07910035964637957,-9.806330877254242,0.0019322274509543894
1790173703171405600,2.842405517578125,0.08178455805374316,-9.806301826668351,0.012016343970239422
1790173703181476600,2.8524765625,0.08530748277149287,-9.80624779532628,0.024864879377506897
1790173703191548700,2.862548583984375,0.08769961787102934,-9.806176444867548,0.039948006437570835
1790173703201620500,2.872620361328125,0.08588293421426252,-9.80610244059355,0.057976968481362384
1790173703211691500,2.88269140625,0.08945340396709271,-9.805928896240474,0.07840022492089953
1790173703221763600,2.892763671875,0.09650955266292237,-9.805688471639925,0.09774010473857984
1790173703231835600,2.902835693359375,0.0992866014214272,-9.805449529220432,0.11699900659730253
1790173703241906400,2.912906494140625,0.10328430681668532,-9.805100282520753,0.14042916513041317
1790173703251978800,2.922978759765625,0.10790666211388253,-9.804651840797419,0.16595059082244382
1790173703262049500,2.933049560546875,0.11079033498265352,-9.804184113246858,0.18998962258187907
1790173703272121300,2.943121337890625,0.11207236502168594,-9.80367987079228,0.21378089803268552
1790173703282193400,2.953193359375,0.11682310764829222,-9.803063275804668,0.23807967861694557
1790173703292264400,2.963264404296875,0.11772882737090933,-9.802468682691499,0.26102468941898516
1790173703302336500,2.97333642578125,0.11469398078983935,-9.801873644187523,0.28371469750985995
1790173703312408300,2.983408203125,0.11838893936416751,-9.801173695274635,0.30554644940577
1790173703322479400,2.993479248046875,0.1234921886961362,-9.800459112367252,0.32580069264738715
1790173703332551400,3.003551513671875,0.12652392611140445,-9.799731810105662,0.34587228369507395
1790173703342623500,3.01362353515625,0.12412068906598984,-9.79902066531941,0.36629666967194263
1790173703352694500,3.023694580078125,0.1165931876424424,-9.798396277390118,0.3850214448382022
1790173703362766600,3.0337666015625,0.11271257920099494,-9.797772300466479,0.4016725352550811
1790173703372838400,3.04383837890625,0.11283108151801727,-9.797175525395692,0.4159248125507329
1790173703382909400,3.053909423828125,0.11598634961574655,-9.796543986787633,0.4297036910311741
1790173703392981500,3.0639814453125,0.1141060275817741,-9.795790036958275,0.4470620612169997
1790173703403052500,3.074052490234375,0.1146683280852216,-9.794963783994996,0.4646719927607708
1790173703413124600,3.08412451171875,0.11301931043432208,-9.794307220075373,0.478698607095069
1790173703423196700,3.09419677734375,0.10989582788306529,-9.793867392240898,0.4883155880642995
1790173703433267700,3.104267822265625,0.10323309756514666,-9.793504016487264,0.4969929488152545
1790173703443339500,3.114339599609375,0.10037180145293853,-9.793173216664579,0.5040582567683523
1790173703453411600,3.12441162109375,0.09995151564476981,-9.793004284555144,0.5073916650451863
1790173703463482600,3.134482666015625,0.09839686205716844,-9.793003638574142,0.5077092687702714
1790173703473554700,3.1445546875,0.098529857080497,-9.7930303705618,0.5071734732181782
1790173703483626500,3.15462646484375,0.09868537437919209,-9.7930189074793,0.5073680045558829
1790173703493697300,3.164697265625,0.09728216433789759,-9.793151155141613,0.5050789391885191
1790173703503769600,3.17476953125,0.0982713965924071,-9.793424714404424,0.4995480273580106
1790173703513840400,3.18484033203125,0.09877992669670572,-9.793674537215077,0.49454032044503876
1790173703523912400,3.194912353515625,0.09583759812002675,-9.793903960199984,0.4905514812149121
1790173703533984500,3.204984619140625,0.09224724650377418,-9.794174028685665,0.485808190268329
1790173703544055600,3.2150556640625,0.09266714401231958,-9.794577683785759,0.4775245718030155
1790173703554127400,3.22512744140625,0.0911039565857702,-9.794980621242107,0.469505491423593
1790173703564199400,3.235199462890625,0.08684816017157307,-9.795213707412591,0.4654279419378985
1790173703574270500,3.2452705078125,0.08705341222522436,-9.79542553205003,0.4609192332189719
1790173703584342500,3.255342529296875,0.0854371060506898,-9.795727465251337,0.4547584391370477
1790173703594414600,3.26541455078125,0.08370945432762052,-9.795991693777339,0.44935133625701296
1790173703604485600,3.275485595703125,0.0819673824517785,-9.796112692917143,0.4470190525369363
1790173703614557400,3.285557373046875,0.08113156406768618,-9.796117596638181,0.4470724928836846
1790173703624629500,3.29562939453125,0.07841103465910804,-9.796149620762325,0.44685796690297497
1790173703634700500,3.305700439453125,0.0784915032922583,-9.796173615935153,0.4463103722544129
1790173703644772600,3.315772705078125,0.0813233720307811,-9.796064275605952,0.44820667069637726
1790173703654843600,3.32584375,0.08177031800007166,-9.79579375889344,0.45401416126616634
1790173703664915500,3.33591552734375,0.08164389662668868,-9.79537932212174,0.46288407972943546
1790173703674987500,3.345987548828125,0.0866842396209222,-9.794821210733234,0.47364711104602863
1790173703685058600,3.35605859375,0.0914169261414121,-9.794069506405641,0.488075954855416
1790173703695130600,3.366130615234375,0.0974116707104961,-9.793061616828252,0.5067851851718332
1790173703705202700,3.37620263671875,0.10257178354033358,-9.791815231613912,0.529353320708582
1790173703715273700,3.386273681640625,0.10540607605281213,-9.790639313785803,0.5501365460810279
1790173703725345500,3.396345458984375,0.1053340606223144,-9.789429372200745,0.5712806682031446
1790173703735417600,3.40641748046875,0.10847003254250767,-9.788092642381537,0.5931761981274197
1790173703745488400,3.41648828125,0.11165566849406541,-9.786814157984244,0.6133430414925568
1790173703755560700,3.426560791015625,0.11459351794160544,-9.785502628321144,0.6334017020010874
1790173703765631500,3.436631591796875,0.11635686040565003,-9.784046562918869,0.6551986512338461
1790173703775703600,3.44670361328125,0.1143214422130365,-9.782354437287582,0.6803407390721036
1790173703785775400,3.456775390625,0.11136272833497443,-9.780411305002483,0.7082028882577557
1790173703795846400,3.466846435546875,0.11311160129500918,-9.778375429840615,0.7355011932224181
1790173703805918500,3.47691845703125,0.11652691180929636,-9.77634282117373,0.7615295221476412
1790173703815990500,3.486990478515625,0.11971158646066192,-9.774312643365239,0.7866742778314506
1790173703826061600,3.4970615234375,0.11965115279645347,-9.772157651496315,0.8130167743214638
1790173703836133400,3.50713330078125,0.11831932458766908,-9.769793989910157,0.8411273184389456
1790173703846205400,3.517205322265625,0.11818325077521126,-9.76734409725856,0.869138109568397
1790173703856276500,3.5272763671875,0.12038476894080084,-9.764977901813301,0.8950344826097508
1790173703866348500,3.5373486328125,0.11935171774971864,-9.762617622971947,0.9205578561322815
1790173703876419600,3.547419677734375,0.11803318368545328,-9.759848138546632,0.9496291806806855
1790173703886491600,3.55749169921875,0.12028984551310692,-9.75695891505733,0.9786055713408524
1790173703896563500,3.5675634765625,0.12250753172533084,-9.754091229627232,1.006515043627448
1790173703906634500,3.577634521484375,0.12508221107513645,-9.751397776334016,1.031973891800592
1790173703916706600,3.58770654296875,0.12469510333423796,-9.748541358897919,1.058668300855557
1790173703926778600,3.597778564453125,0.11880242159789389,-9.745856277479495,1.0837675077140647
1790173703936849700,3.607849609375,0.11143286377850344,-9.743473508749966,1.1057479747795345
1790173703946921500,3.61792138671875,0.10683560767981544,-9.741416632398652,1.124182134656379
1790173703956993500,3.62799365234375,0.10113962541056136,-9.73952912946204,1.1409377830775955
1790173703967064600,3.638064697265625,0.09440966650100861,-9.737267741558753,1.1606423051559889
1790173703977136600,3.64813671875,0.08557184878603866,-9.73507624757334,1.1795552707694184
1790173703987207400,3.65820751953125,0.07394783617300489,-9.733277242360062,1.195087286139046
1790173703997279500,3.668279541015625,0.05950554435259668,-9.731659047160974,1.2089948096824754
1790173704007351600,3.6783515625,0.044566292476681875,-9.729944760420716,1.223343736240494
1790173704017422300,3.68842236328125,0.029532727694731368,-9.72794047272879,1.2396250466119532
1790173704027494400,3.698494384765625,0.022221469794157,-9.726465890100647,1.251300025089279
1790173704037566500,3.70856640625,0.025049075094808266,-9.725738400817963,1.2568908301281516
1790173704047637500,3.718637451171875,0.022578090167010095,-9.724808207432787,1.2641212695127713
1790173704057709600,3.72870947265625,0.012011150635802393,-9.723102254810817,1.2773095825825787
1790173704067781400,3.738781494140625,-0.0008771168011069319,-9.720928407348929,1.2938036594960152
1790173704077852400,3.748852294921875,-0.014722536599512526,-9.71912013758078,1.3072354204993426
1790173704087924500,3.758924560546875,-0.020880828529771144,-9.717810303107884,1.3168559112282219
1790173704097995500,3.76899560546875,-0.018817491927834405,-9.716615192816926,1.3256853055840336
1790173704108067600,3.779067626953125,-0.015153028261152307,-9.715458260165194,1.3341749384147021
1790173704118139400,3.789139404296875,-0.010243266223788086,-9.714204495013155,1.3433185062639803
1790173704128210400,3.79921044921875,-0.008865212400153356,-9.712932536035414,1.352495739535818
1790173704138282500,3.809282470703125,-0.009145497486009251,-9.711921359547176,1.359739640232609
1790173704148354600,3.8193544921875,-0.01299913236813863,-9.710806646159652,1.3676455068526856
1790173704158425600,3.829425537109375,-0.01553603203756634,-9.709276831056018,1.3784340876029284
1790173704168497700,3.83949755859375,-0.013455740567940532,-9.70820545660813,1.3859879778960678
1790173704178569500,3.849569580078125,-0.004255514607691458,-9.707981295974925,1.387610262632783
1790173704188640500,3.859640625,0.0011703442310096724,-9.708290568899283,1.3854535914731454
1790173704198712600,3.869712646484375,-0.0004081160366770765,-9.708373854570853,1.3848687708305534
1790173704208783600,3.87978369140625,-0.0029781050561622185,-9.707955558267486,1.387794734222605
1790173704218855700,3.889855712890625,-0.002425387341542942,-9.708239385370971,1.3858099870178826
1790173704228927500,3.899927490234375,0.00771400987404539,-9.70911164059728,1.379668141566245
1790173704238998500,3.90999853515625,0.017782999090637786,-9.710253800730886,1.3715128927856455
1790173704249070300,3.9200703125,0.023364279830782677,-9.711303111280335,1.3639755573313181
1790173704259142700,3.930142578125,0.02283861013367937,-9.712347350675122,1.3565303423878186
1790173704269213400,3.94021337890625,0.023738916873633397,-9.713859063069576,1.3456490663651943
1790173704279285000,3.950284912109375,0.029640813694427056,-9.7155919290618,1.3329626240313543
1790173704289357000,3.960357177734375,0.03809631812000172,-9.717360781900135,1.319785734761512
1790173704299428000,3.970427978515625,0.044354639088855854,-9.719225088122663,1.3057879810805622
1790173704309500000,3.9805,0.05180449782257594,-9.721171461488932,1.2909360967969385
1790173704319571000,3.990571044921875,0.05788560172692433,-9.723270790012188,1.2747662962909794
1790173704329643000,4.00064306640625,0.06230679942566266,-9.725755010655167,1.2554644154455752
1790173704339715000,4.010715087890625,0.07173033843814189,-9.728369162124253,1.2345410425343764
1790173704349786000,4.0207861328125,0.08497228737911676,-9.730990714674936,1.212839911826532
1790173704359858000,4.03085791015625,0.09003668605391635,-9.734101500183003,1.187242356956163
1790173704369930000,4.040929931640625,0.0906460319020345,-9.73758729926137,1.1582547619763965
1790173704380000800,4.051000732421875,0.08600811743228937,-9.741146300375538,1.1282943546697128
1790173704390072800,4.06107275390625,0.0900520884374376,-9.744439554873415,1.099174239300721
1790173704400145200,4.071145263671875,0.09795847284274459,-9.747905454085034,1.0672987945481354
1790173704410216000,4.0812158203125,0.09976477802459699,-9.751848701434378,1.030471281911354
1790173704420287700,4.091287841796875,0.09908980242405564,-9.756019492839023,0.9902729414654292
1790173704430358800,4.10135888671875,0.09875325022027,-9.759855567890428,0.9517716314156394
1790173704440430800,4.111430908203125,0.09645831909561615,-9.763511932288718,0.9137416580370638
1790173704450503000,4.1215029296875,0.09835589093856169,-9.767173295171089,0.87352515762325
1790173704460574000,4.131573974609375,0.09663825492872248,-9.770918975274437,0.8307685382699488
1790173704470646000,4.14164599609375,0.08790220122326577,-9.774546929393356,0.7879676103118414
1790173704480717800,4.1517177734375,0.08373775424688039,-9.777998417229496,0.7443872720536998
1790173704490788900,4.161788818359375,0.07648589394211748,-9.781184594857518,0.7021112605851794
1790173704500861000,4.17186083984375,0.06750262555838302,-9.784180753769132,0.6600451433169914
1790173704510933000,4.18193310546875,0.061990640402271265,-9.787038215654686,0.6167982067774694
1790173704521004000,4.192004150390625,0.05143256375782371,-9.789573334837495,0.5761790137656009
1790173704531075800,4.202075927734375,0.03703770540245314,-9.791790675396529,0.5383739370614109
1790173704541147000,4.21214697265625,0.026469376537966455,-9.793786225735596,0.5014432435264738
1790173704551219000,4.222218994140625,0.01568404106076347,-9.795454621316892,0.4681998006476956
1790173704561291000,4.232291015625,0.004026698675944888,-9.796882479312675,0.43755411645010234
1790173704571362000,4.242362060546875,-0.005504062238855045,-9.798086002491463,0.40971789326712005
1790173704581434000,4.25243408203125,-0.013301078399800723,-9.799172106410458,0.3826782826115951
1790173704591506000,4.262505859375,-0.020836374649462627,-9.8001542338319,0.35626900769728376
1790173704601577000,4.272576904296875,-0.02544153270526381,-9.801010987035681,0.33153001918225683
1790173704611649000,4.28264892578125,-0.024315509283626753,-9.80174205528837,0.30927135300244457
1790173704621721000,4.29272119140625,-0.021585044460012307,-9.802378475759344,0.28861923721956023
1790173704631791900,4.3027919921875,-0.022220351731378395,-9.8030013970744,0.2665665219600418
1790173704641864000,4.312864013671875,-0.02356832168878317,-9.80360709384872,0.24313843070628482
1790173704651935000,4.32293505859375,-0.024403714970957172,-9.804126288156866,0.2211388642452766
1790173704662006800,4.3330068359375,-0.029928158316132707,-9.804583384911597,0.19908618163812494
1790173704672078800,4.343078857421875,-0.03227458665921413,-9.8050300991345,0.17534237777215414
1790173704682150000,4.35314990234375,-0.031647158472708846,-9.805421154090624,0.1520121751804186
1790173704692222000,4.363221923828125,-0.033951645931973216,-9.805759866094151,0.1277250957739233
1790173704702293800,4.373293701171875,-0.03349849550022191,-9.806083957511978,0.09990819731469375
1790173704712364800,4.38336474609375,-0.02991427613492722,-9.806342491409735,0.0716541468509987
1790173704722436900,4.393436767578125,-0.030109296578950274,-9.806509457924058,0.042904392822595394
1790173704732508000,4.4035078125,-0.030296194554986625,-9.80659619489795,0.011529296140766197
1790173704742580000,4.413580078125,-0.03253543067642479,-9.806572859303774,-0.021224135718331746
1790173704752652000,4.423652099609375,-0.03471913194312476,-9.806438869367685,-0.05417117958486219
1790173704762723000,4.43372314453125,-0.03519695518284688,-9.806182991712545,-0.0889795616172311
1790173704772795000,4.443794921875,-0.03481547573243383,-9.805771768253798,-0.12653680316670365
1790173704782867000,4.453866943359375,-0.03436109546640808,-9.805178442827797,-0.16634512468927798
1790173704792938000,4.46393798828125,-0.0364585415888719,-9.80447259221473,-0.20342586542576846
1790173704803010000,4.474010009765625,-0.037530337506341875,-9.80362805974039,-0.24054092559682733
1790173704813081900,4.484081787109375,-0.03784286692266297,-9.80258568563025,-0.2797405943348651
1790173704823153000,4.49415283203125,-0.03844648449193193,-9.80138255749543,-0.31907341754721796
1790173704833225000,4.504224853515625,-0.04237399052348572,-9.799953189666399,-0.35988033030252037
1790173704843296000,4.5142958984375,-0.044634715912161095,-9.798238228494377,-0.40362684488613865
1790173704853368000,4.5243681640625,-0.046520195174945336,-9.796298870547728,-0.4480487836873171
1790173704863440100,4.534440185546875,-0.05203738545687174,-9.794120148074898,-0.492837995503159
1790173704873511000,4.544510986328125,-0.0576297741565343,-9.79169804982165,-0.5382471017728062
1790173704883582700,4.554582763671875,-0.06223197735672091,-9.789031254552201,-0.5842639767456302
1790173704893654800,4.56465478515625,-0.06892879320842432,-9.786203709753158,-0.6291603777677784
1790173704903725800,4.574725830078125,-0.07774731166669391,-9.783277048396632,-0.6721784142447099
1790173704913798000,4.5847978515625,-0.08532950616287344,-9.780392920849208,-0.7120504226711931
1790173704923870000,4.594869873046875,-0.09441492872025914,-9.77748426948414,-0.7498514446825938
1790173704933941000,4.60494091796875,-0.10287114146480687,-9.774493151844608,-0.7868266324338727
1790173704944012800,4.6150126953125,-0.10895750455798522,-9.771458302765929,-0.8228698571057456
1790173704954083800,4.625083740234375,-0.11261795538304153,-9.768633930807452,-0.8552744308911222
1790173704964156000,4.635156005859375,-0.11716378484418372,-9.766018324782273,-0.8840526936323925
1790173704974228000,4.64522802734375,-0.12406346806701639,-9.7634919151154,-0.9106128149164004
1790173704984299000,4.655299072265625,-0.13081016089154107,-9.761261764308198,-0.9332972747478212
1790173704994370800,4.665370849609375,-0.13794648536885254,-9.759326935564028,-0.95230970509304
1790173705004443000,4.67544287109375,-0.1417552314081941,-9.75792141712072,-0.9660509465750723
1790173705014514000,4.685513916015625,-0.14503395658216775,-9.757045390546828,-0.9743782557419498
1790173705024586000,4.6955859375,-0.14333308735839312,-9.756418066564057,-0.9808933918007333
1790173705034657000,4.705656982421875,-0.14068868147145702,-9.75609564527691,-0.984481480556038
1790173705044729000,4.71572900390625,-0.13406233923483574,-9.756231856857385,-0.9840512307953064
1790173705054801000,4.72580078125,-0.12984812052716882,-9.756709610892518,-0.9798615042460115
1790173705064872000,4.735871826171875,-0.127862190571171,-9.757515953393144,-0.9720647449181269
1790173705074944000,4.745944091796875,-0.1261332169806276,-9.758582002082525,-0.961532517329631
1790173705085016000,4.75601611328125,-0.12441305800107347,-9.759909003395201,-0.948196242770337
1790173705095087000,4.766087158203125,-0.12212821065974805,-9.761535167997009,-0.9316001029608606
1790173705105159200,4.7761591796875,-0.11817477800890333,-9.763447034607683,-0.9118775746796218
1790173705115231000,4.78623095703125,-0.11492669597857573,-9.765686480218816,-0.8879959722770044
1790173705125301800,4.7963017578125,-0.10848308715900692,-9.76832522364597,-0.8593259139448556
1790173705135373800,4.806373779296875,-0.10258233823847497,-9.771094154178803,-0.8280022469690144
1790173705145444900,4.81644482421875,-0.09814625670012443,-9.773780104564358,-0.7962319522338137
1790173705155517000,4.826516845703125,-0.09363999107150528,-9.776323839822622,-0.7649297857967376
1790173705165588700,4.836588623046875,-0.08714313024139031,-9.778578209660875,-0.7363495565158718
1790173705175659800,4.84665966796875,-0.08050904206579107,-9.780587817364736,-0.7099443722906741
1790173705185731800,4.85673193359375,-0.07348792652039467,-9.782470402542645,-0.6842995134859214
1790173705195804000,4.866803955078125,-0.0632993514893876,-9.784212531753646,-0.65998458770413
1790173705205875000,4.876875,-0.05805533828010583,-9.78577086140691,-0.6369479922902184
1790173705215947000,4.886947021484375,-0.056628681594479924,-9.787195190212605,-0.6148026627933917
1790173705226018800,4.897018798828125,-0.059136042673942825,-9.788325537895963,-0.5962862208263999
1790173705236089900,4.90708984375,-0.06047549816413889,-9.789287629137894,-0.5801397709741379
1790173705246162000,4.917161865234375,-0.06129939414824266,-9.79001443802851,-0.5676764130685285
1790173705256233000,4.92723291015625,-0.06206324079709304,-9.790571013884245,-0.5578911240072119
1790173705266305000,4.937304931640625,-0.06160962275819206,-9.790954306900703,-0.5511794801596975
1790173705276377000,4.947377197265625,-0.06208311644337894,-9.791126195805749,-0.5480824207746042
1790173705286448000,4.9574482421875,-0.0630476294848478,-9.79117665657481,-0.5470562032755809
1790173705296520000,4.96752001953125,-0.06097575560751197,-9.791087617068149,-0.5488880779519483
1790173705306592000,4.977592041015625,-0.061046485290957714,-9.790914813747282,-0.5519346505485668
1790173705316663000,4.9876630859375,-0.06276578491022972,-9.7908159443987,-0.5535054300934186
1790173705326735000,4.997735107421875,-0.06048101430227469,-9.790678726456669,-0.5561857726867864
1790173705336806100,5.00780615234375,-0.06258873511200093,-9.79051197377463,-0.5588830421303116
1790173705346878000,5.0178779296875,-0.0680298034417253,-9.790431202959605,-0.5596520419970092
1790173705356950000,5.027949951171875,-0.0673605136781356,-9.790480606131581,-0.5588693474844276
1790173705367021000,5.03802099609375,-0.06739351680927064,-9.790687492083068,-0.5552250152873393
1790173705377093000,5.048093017578125,-0.07004856350351145,-9.79109927940442,-0.5475807258250234
1790173705387165200,5.058165283203125,-0.0714896087126431,-9.79152294339494,-0.5397728504140855
1790173705397236200,5.068236328125,-0.07112289712437214,-9.791784573702152,-0.5350522949002084
1790173705407308000,5.07830810546875,-0.07288881783115712,-9.79211481366008,-0.528732918200909
1790173705417380000,5.088380126953125,-0.07203020307193662,-9.79237575755277,-0.5240069851703657
1790173705427451100,5.098451171875,-0.06975282042848219,-9.792714560320059,-0.5179330284801658
1790173705437523200,5.108523193359375,-0.06386936361940704,-9.793239012130362,-0.5086911159580254
1790173705447594200,5.11859423828125,-0.05829776482120122,-9.793801940757495,-0.49843613727996483
1790173705457666000,5.128666015625,-0.054972714004809534,-9.79443944034048,-0.48611855803401244
1790173705467738000,5.138738037109375,-0.05317762262164726,-9.795076714878515,-0.47332995402193095
1790173705477809000,5.148808837890625,-0.05280477863296705,-9.79564666527932,-0.4614217519078931
1790173705487881000,5.158880859375,-0.053164672474165134,-9.79621374752591,-0.4491713917481811
1790173705497953300,5.168953369140625,-0.05204031572971775,-9.796850474658196,-0.4351940066165672
1790173705508024000,5.179024169921875,-0.05190604816109262,-9.79753673162259,-0.4194742564419353
1790173705518096000,5.189095947265625,-0.051005432550991305,-9.798202486284787,-0.40375133221455184
1790173705528167000,5.1991669921875,-0.04866289742766461,-9.798800485249313,-0.3892859705424887
1790173705538239000,5.209239013671875,-0.045586800630651444,-9.799440535133103,-0.3731865888501788
1790173705548311000,5.21931103515625,-0.0459276327495035,-9.800178836085184,-0.35321516751662974
1790173705558382000,5.229382080078125,-0.04170710218669052,-9.800909870606429,-0.3328909206594642
1790173705568454100,5.2394541015625,-0.03725769458549456,-9.801629151508763,-0.3115539814696392
1790173705578526000,5.24952587890625,-0.035927771864992915,-9.802278154063435,-0.2905754409900747
1790173705588597000,5.259596923828125,-0.036502451645215025,-9.802824922361609,-0.2714359346953383
1790173705598669000,5.2696689453125,-0.033364754914886906,-9.803267587980857,-0.2553570368882686
1790173705608740000,5.279739990234375,-0.031179862749726266,-9.80369442755934,-0.23870011379279227
1790173705618812200,5.289812255859375,-0.029328795092017617,-9.804120845308368,-0.2207893466584429
1790173705628884000,5.299884033203125,-0.024380724841648178,-9.80453250110868,-0.2023076562699707
1790173705638955000,5.309955078125,-0.02081809742439728,-9.804893583094694,-0.18442051670434398
1790173705649027000,5.320027099609375,-0.01765890502564891,-9.805218251732754,-0.16664899132919142
1790173705659099100,5.33009912109375,-0.015915138308885832,-9.805520049197337,-0.148040744874956
1790173705669170200,5.340170166015625,-0.013426453255188545,-9.805758749722466,-0.1315630808316548
1790173705679242200,5.3502421875,-0.011726915052861026,-9.805971722487312,-0.1147685856358586
1790173705689314000,5.36031396484375,-0.010364054117849145,-9.806171906658033,-0.09622555255484067
1790173705699385000,5.370385009765625,-0.01106019795930647,-9.806321821065517,-0.0794976635007207
1790173705709457200,5.38045703125,-0.008367298264107837,-9.806434793409757,-0.06448738271433387
1790173705719528000,5.39052783203125,-0.005723768587569074,-9.806515093640353,-0.05109559182518653
1790173705729600000,5.40060009765625,-0.0030057951885037325,-9.80658080553902,-0.03673446070980016
1790173705739672000,5.410672119140625,-0.003044271295787582,-9.80662281604562,-0.023102849655240502
1790173705749743000,5.4207431640625,0.00012654968104241894,-9.806645468588739,-0.00990831188332723
1790173705759815000,5.43081494140625,0.0037721615600648213,-9.806648668659045,0.0033503252878851445
1790173705769887000,5.440886962890625,0.006004402854283028,-9.806637571460474,0.013860242421073664
1790173705779958000,5.4509580078125,0.008403124959318851,-9.806615019225815,0.024805027722959883
1790173705790030000,5.461030029296875,0.009508023738030197,-9.806585697948858,0.034013073141040524
1790173705800101000,5.47110107421875,0.00931297212555992,-9.806558608893884,0.04126466764426058
1790173705810173000,5.4811728515625,0.0060838495499110305,-9.80652704226625,0.048615738540436666
1790173705820245000,5.491244873046875,0.0005352582069726138,-9.80649853485502,0.05433976884107595
1790173705830316000,5.50131591796875,0.0009010767074199256,-9.806483197562015,0.057051287277737485
1790173705840388000,5.51138818359375,0.007920289685806598,-9.806450213244407,0.062039403195175126
1790173705850460200,5.521460205078125,0.012606853444090547,-9.806388495403343,0.0703681902926594
1790173705860531200,5.53153125,0.012213000427381776,-9.806315172829644,0.08010489410564386
1790173705870603000,5.54160302734375,0.008337703429282344,-9.806278342145568,0.08501105069235908
1790173705880675000,5.551675048828125,0.006503443673183331,-9.806234457682862,0.0900681346109189
1790173705890746000,5.56174609375,0.012967032727992208,-9.806116473607341,0.10142680055354633
1790173705900818200,5.571818115234375,0.020588183754371405,-9.805914695341379,0.11834442002566015
1790173705910889200,5.58188916015625,0.021504195756540754,-9.805725350798886,0.13293741112718463
1790173705920961000,5.5919609375,0.018116872102778882,-9.805624654858555,0.1406232330629248
1790173705931033000,5.602033203125,0.01616263470998527,-9.805471858788927,0.1511465087784904
1790173705941104000,5.612104248046875,0.015917620485326474,-9.80520436468951,0.16762939240934405
1790173705951176200,5.62217626953125,0.01715952572492934,-9.804892394449276,0.18492118072205946
1790173705961248300,5.632248291015625,0.01703102197297532,-9.80453929958904,0.20275502289132802
1790173705971319000,5.642319091796875,0.016467411058349337,-9.804241066417065,0.21673046273041266
1790173705981390800,5.652390869140625,0.022920390881085346,-9.803895899166333,0.2312616274085171
1790173705991462000,5.6624619140625,0.03365343083014273,-9.803408593293307,0.24985135233808706
1790173706001534000,5.672533935546875,0.036524693479314814,-9.802908650010869,0.26839954478470346
1790173706011606000,5.68260595703125,0.03554558760178812,-9.802560553828389,0.28093742610555833
1790173706021677000,5.692677001953125,0.03517877588929206,-9.80228208073236,0.2905333820467164
1790173706031749000,5.7027490234375,0.03642142636813818,-9.801997346434893,0.2998540907771749
1790173706041821000,5.712821044921875,0.043017006452145325,-9.801714797604555,0.3081139902669706
1790173706051892000,5.72289208984375,0.047713846489821035,-9.80154283857764,0.312833301583892
1790173706061964000,5.732964111328125,0.04170618525371966,-9.801482356286035,0.3155873052452166
1790173706072035000,5.74303515625,0.03874622185895602,-9.801439704948002,0.31730459450050413
1790173706082107100,5.753107177734375,0.04296432635730377,-9.80126139980313,0.32219667885887593
1790173706092179000,5.763178955078125,0.04952865694855948,-9.801064106247296,0.32721915609675783
1790173706102250000,5.77325,0.04888203244796665,-9.800969887163967,0.3301327264617602
1790173706112322000,5.783322021484375,0.045216566268496336,-9.800907386787497,0.3325068705285747
1790173706122394000,5.79339404296875,0.04480522286850531,-9.800653059265995,0.3399854703423812
1790173706132465200,5.803465087890625,0.044414336583241946,-9.800412216163233,0.3468972792057573
1790173706142537200,5.813537109375,0.043761831860450226,-9.800081579075712,0.3561851215823616
1790173706152608300,5.823608154296875,0.04962290774209559,-9.799705763594456,0.36564254338536994
1790173706162680000,5.83368017578125,0.0492513302619879,-9.799407348037374,0.3735949483064405
1790173706172752100,5.843752197265625,0.04692619016189772,-9.79919314425571,0.3794608193249397
1790173706182823000,5.853822998046875,0.05080621163298867,-9.798911041449408,0.3861817665462273
1790173706192895200,5.863895263671875,0.05564972304182842,-9.798353192058103,0.39945022981356515
1790173706202967000,5.873967041015625,0.05551433663287368,-9.79771857005338,0.414748505889449
1790173706213038000,5.8840380859375,0.0544950049387692,-9.797198107567487,0.4269821071672768
1790173706223110000,5.89410986328125,0.05515360123505903,-9.796794288386593,0.43608533162563157
1790173706233181000,5.904180908203125,0.055335260012374876,-9.796295150169273,0.44714998841553183
1790173706243253000,5.9142529296875,0.052209821313847195,-9.795862203062365,0.4568965258510547
1790173706253325000,5.924324951171875,0.04978926279501309,-9.795302275398782,0.4690029604774363
1790173706263396000,5.93439599609375,0.05149467308996772,-9.794573168076568,0.48379903164688365
1790173706273468200,5.94446826171875,0.05273255096566074,-9.79377172730054,0.4996341503948089
1790173706283540200,5.954540283203125,0.04838594527252021,-9.793001121016694,0.514958841023413
1790173706293611300,5.964611328125,0.04082162728150254,-9.792182595973161,0.5309242354946211
1790173706303683300,5.974683349609375,0.0373440199918833,-9.7915165044591,0.5433315724792431
1790173706313754400,5.98475439453125,0.04356387715139491,-9.790993833482446,0.5522027648451252
1790173706323826400,5.994826416015625,0.05100997654253086,-9.790117214072197,0.5669136162075886
1790173706333898200,6.004898193359375,0.0534956441562973,-9.789223602658591,0.5819138259316695
1790173706343969300,6.01496923828125,0.05100213213547439,-9.788548445507862,0.5933844502227112
1790173706354041300,6.025041259765625,0.04762318084253573,-9.788197624296963,0.5994164201802481
1790173706364113400,6.035113525390625,0.042359202193628175,-9.787988251114843,0.6032142173418412
1790173706374184400,6.045184326171875,0.040182387359824434,-9.787999311616986,0.6031787322956468
1790173706384256300,6.05525634765625,0.04309253090838899,-9.787984075457691,0.6032374142736555
1790173706394328300,6.065328369140625,0.04484936142642809,-9.787943294112528,0.6037628292827086
1790173706404399000,6.075399169921875,0.04641562403319082,-9.787851112499688,0.6051395151833395
1790173706414471200,6.08547119140625,0.04496677056110034,-9.78799610966157,0.602892337970358
1790173706424542200,6.095542236328125,0.042211851146260464,-9.788273607917125,0.5985762844651344
1790173706434614300,6.1056142578125,0.03975377823158984,-9.788413854847432,0.5964487504586852
1790173706444686000,6.11568603515625,0.04858403184729171,-9.788595858714551,0.5927991523422637
1790173706454757000,6.125757080078125,0.054812486065170286,-9.788904338920718,0.5871278838718138
1790173706464829200,6.1358291015625,0.04676839474781022,-9.789494739511216,0.577915192829763
1790173706474901200,6.1459013671875,0.04237603097431029,-9.790098020447324,0.5679471540960527
1790173706484972300,6.15597216796875,0.043277124013790184,-9.790597832503906,0.5591990697513242
1790173706495044400,6.16604443359375,0.04064776575570991,-9.791104322339535,0.5504521157381992
1790173706505115400,6.176115478515625,0.04741332640348481,-9.791588945070625,0.5412294642876903
1790173706515187200,6.186187255859375,0.05238120405224556,-9.791830478157605,0.5363770545021525
1790173706525259300,6.19625927734375,0.04844569767898767,-9.79204875294729,0.5327384348277961
1790173706535330300,6.206330322265625,0.04602894256208953,-9.792401125251933,0.5264308681037441
1790173706545402400,6.21640234375,0.05193141915200527,-9.792528596212728,0.5235177735556523
1790173706555474200,6.22647412109375,0.05576735656178968,-9.792444805149435,0.5246894692319092
1790173706565545200,6.236545166015625,0.06054102080340788,-9.792221112345596,0.5283292766433247
1790173706575617300,6.2466171875,0.06511563029934203,-9.791962419395992,0.5325639068742349
1790173706585688300,6.256688232421875,0.06218085853289773,-9.791830499269008,0.5353334351288757
1790173706595760400,6.266760498046875,0.055942482587514,-9.791971116665492,0.5334451433569889
1790173706605832400,6.27683251953125,0.05507589715007786,-9.792096953382494,0.5312229523790657
1790173706615903500,6.286903564453125,0.05787871276114093,-9.791860737442011,0.5352531860870933
1790173706625975300,6.296975341796875,0.05848720485125704,-9.791289647423218,0.5455304186823147
1790173706636047400,6.30704736328125,0.055722321476263506,-9.790687330743808,0.556519668873468
1790173706646118100,6.3171181640625,0.058206339956504066,-9.790188544262307,0.5649722541371528
1790173706656190200,6.327190185546875,0.06446400470203224,-9.789621040298108,0.5740722530469748
1790173706666261200,6.33726123046875,0.06402037119012685,-9.789060368664344,0.5835976409029336
1790173706676333300,6.347333251953125,0.06247977203411813,-9.788507271224264,0.5929524826351356
1790173706686405000,6.357405029296875,0.06181219881799689,-9.787898297720222,0.6030003195352571
1790173706696476200,6.36747607421875,0.06251123766728543,-9.787203816531939,0.6141006083411387
1790173706706548200,6.37754833984375,0.05623401674397125,-9.786603461959995,0.6241905037585029
1790173706716620300,6.387620361328125,0.05678500379294236,-9.786109000671562,0.6318456530083582
1790173706726691300,6.39769140625,0.0598260122556445,-9.785673901436697,0.6382743410407914
1790173706736763100,6.40776318359375,0.058854067312714,-9.785278149914284,0.6444018564426393
1790173706746834200,6.417834228515625,0.05647215385676758,-9.785025754321728,0.6484351386698923
1790173706756906200,6.42790625,0.05673121066311428,-9.784602901038673,0.6547547480331821
1790173706766978300,6.437978271484375,0.05467964327868719,-9.784310195911747,0.6592836094261877
1790173706777049300,6.44804931640625,0.04736344246492744,-9.78431315904245,0.6598197997509818
1790173706787121400,6.458121337890625,0.046290936650301345,-9.784340742213544,0.6594812332094375
1790173706797193200,6.468193115234375,0.0503533405852825,-9.784168656547171,0.6617366996397336
1790173706807264300,6.47826416015625,0.0481409987141504,-9.78377080717828,0.6677521632390895
1790173706817336300,6.48833642578125,0.04386988649587295,-9.78341117958049,0.6732908974179207
1790173706827407400,6.498407470703125,0.04748580132425043,-9.783229309118727,0.675693607764771
1790173706837479400,6.5084794921875,0.047643677278202075,-9.783118993024896,0.6772635365984453
1790173706847551200,6.51855126953125,0.040109727355227304,-9.783328752596884,0.6747101198149518
1790173706857622300,6.528622314453125,0.037501106554554436,-9.783446803088115,0.673166588462911
1790173706867694300,6.5386943359375,0.03651054425136205,-9.783488387867221,0.672618318926217
1790173706877766400,6.548766357421875,0.03529661620517361,-9.783579205860248,0.6713623417481075
1790173706887837200,6.558837158203125,0.03989608494005744,-9.78352220540457,0.671922437171944
1790173706897909200,6.5689091796875,0.046237155991499725,-9.783361209813702,0.6738710171243885
1790173706907980300,6.578980224609375,0.04393795493771175,-9.783389124248085,0.6736112146072871
1790173706918052000,6.589052001953125,0.040341398756112166,-9.78366733461041,0.6697963755156268
1790173706928124200,6.599124267578125,0.037216767541499364,-9.784192902408305,0.6622392823244931
1790173706938195200,6.6091953125,0.030126901837563152,-9.784881857169703,0.6523525756473117
1790173706948267300,6.619267333984375,0.02476221432866688,-9.785754368963653,0.6393652847498605
1790173706958339300,6.62933935546875,0.0242185713553421,-9.786491165772008,0.6280043246797306
1790173706968410400,6.639410400390625,0.023746432685353865,-9.786902910195177,0.6215630413297311
1790173706978482200,6.649482177734375,0.029018095889396165,-9.787266670194148,0.6155884393694254
1790173706988553200,6.65955322265625,0.03240452053811529,-9.787682743799223,0.608778888084524
1790173706998625300,6.669625244140625,0.03153298686432474,-9.78831686475456,0.5985412208213863
1790173707008697300,6.679697265625,0.02797049650374308,-9.789003615671003,0.5873812496946841
1790173707018768400,6.689768310546875,0.026829482906925876,-9.78985112715959,0.5731246700647621
1790173707028840200,6.699840087890625,0.030716113672317007,-9.790784573222927,0.5567539662929868
1790173707038912300,6.709912353515625,0.03248556168771504,-9.791740160658959,0.5395879996697953
1790173707048983300,6.7199833984375,0.02783594862721807,-9.792821448177442,0.5198610806059157
1790173707059055400,6.730055419921875,0.026701849329111373,-9.79399350943179,0.49736530099008464
1790173707069126400,6.74012646484375,0.02498861965972253,-9.795099330314585,0.4751911222541632
1790173707079198500,6.750198486328125,0.023478242847828613,-9.79624346488468,0.4510681418874783
1790173707089270300,6.760270263671875,0.022388531541763766,-9.79740769931333,0.4250918291487548
1790173707099341000,6.770341064453125,0.018849588536593194,-9.798602319195235,0.3967603083225513
1790173707109413400,6.780413330078125,0.019885114256096743,-9.799770037047457,0.3667478301853101
1790173707119485400,6.7904853515625,0.028989097014802023,-9.800753752547308,0.338779858511374
1790173707129556200,6.80055615234375,0.032832185347338276,-9.80169268589286,0.31006052066830003
1790173707139628300,6.810628173828125,0.037935667490429585,-9.802475779506175,0.28359739999802264
1790173707149699300,6.82069921875,0.035624156460371766,-9.803200536465557,0.2576601089310395
1790173707159771100,6.830771240234375,0.030853678857233325,-9.803952076188255,0.2279401961529068
1790173707169843200,6.84084326171875,0.03355126324591238,-9.804606507456144,0.19738370931872856
1790173707179914200,6.850914306640625,0.03340914149713351,-9.805161524054611,0.16755111878401616
1790173707189986300,6.860986328125,0.030495520589668104,-9.805592597142327,0.14072623747100366
1790173707200057300,6.871057373046875,0.024757705563431938,-9.805958288253825,0.11382883885077498
1790173707210129200,6.881129150390625,0.02453764652770299,-9.806231480070155,0.0871051797394761
1790173707220201200,6.891201171875,0.026653838558956786,-9.806414361442267,0.06247516120474072
1790173707230272300,6.901272216796875,0.024682459138766242,-9.806546881733778,0.037634537677816146
1790173707240344300,6.91134423828125,0.022061173573647543,-9.806617620258177,0.012253202256693092
1790173707250416400,6.92141650390625,0.020195027718935964,-9.806621596366885,-0.012529967915171218
1790173707260487400,6.9314873046875,0.01655241910024954,-9.806565961793602,-0.03723083118572879
1790173707270559200,6.941559326171875,0.008665514244861108,-9.806436271610872,-0.06423274397381469
1790173707280630300,6.95163037109375,0.003874047924841187,-9.806240653533226,-0.08954177757559584
1790173707290702300,6.961702392578125,-0.0017105159230959574,-9.805990724858642,-0.1136416185820073
1790173707300774400,6.9717744140625,-0.007479129136497417,-9.805675000712284,-0.13817132669405724
1790173707310845400,6.981845458984375,-0.008802488348757896,-9.805302682459706,-0.16235946505919424
1790173707320917200,6.991917236328125,-0.009140255320176871,-9.805013196495683,-0.1788916199941321
1790173707330989300,7.0019892578125,-0.015539537833032606,-9.804749089104906,-0.19249996349876183
1790173707341060400,7.012060302734375,-0.021907801059318645,-9.804418630516954,-0.20802943131854135
1790173707351132400,7.02213232421875,-0.02179857263386216,-9.804119925840308,-0.2216641230998563
1790173707361203200,7.032203125,-0.022329222499472102,-9.803927176445752,-0.22999368681511226
1790173707371275500,7.042275634765625,-0.023473081939813713,-9.80377230146483,-0.23639037827288734
1790173707381347300,7.052347412109375,-0.023322005742698486,-9.803666769557537,-0.2407682430668115
1790173707391418000,7.062418212890625,-0.023848725965808143,-9.803632807265881,-0.24206554971993435
1790173707401490200,7.072490234375,-0.025093395509633905,-9.80367972288929,-0.2400493685249719
1790173707411562200,7.082562255859375,-0.025579739919859863,-9.803841312226782,-0.23329433049138615
1790173707421633300,7.09263330078125,-0.025481269940169488,-9.804087593905823,-0.22271005870942126
1790173707431705300,7.102705322265625,-0.0243401834570425,-9.804348745237933,-0.21103278021526548
1790173707441776400,7.1127763671875,-0.018277535183666524,-9.804656967455069,-0.19686157486599395
1790173707451848200,7.12284814453125,-0.011589839168109213,-9.805078158711902,-0.1752038496046649
1790173707461920300,7.132920166015625,-0.008714010460207243,-9.80552540975578,-0.1482304662973301
1790173707471991300,7.1429912109375,-0.007837660822250597,-9.805896524004218,-0.1212757510466733
1790173707482063400,7.1530634765625,-0.008458337510146971,-9.806191319045565,-0.09437934492535908
1790173707492135200,7.16313525390625,-0.005779231469792822,-9.806448541685636,-0.06263044832289139
1790173707502206200,7.173206298828125,0.0010267741908494585,-9.806615487858503,-0.026077897385149894
1790173707512278300,7.1832783203125,0.00230186682480477,-9.806642274173186,0.01245430757423995
1790173707522349300,7.193349365234375,0.002312246894990914,-9.806522556635231,0.050134252569381234
1790173707532421400,7.20342138671875,0.0020885258307644324,-9.806250252187654,0.08856165004313682
1790173707542493400,7.213493408203125,0.004606010854205738,-9.805768662629122,0.13138726892600694
1790173707552564500,7.223564453125,0.009832921375551015,-9.805028881010925,0.17798246799328277
1790173707562636300,7.23363623046875,0.017702663255998164,-9.80403118998626,0.22593597124951195
1790173707572708400,7.243708251953125,0.023525144942635193,-9.802857437785223,0.2717083274142105
1790173707582779400,7.253779296875,0.02470034399428721,-9.801618521089853,0.31312982597966765
1790173707592851500,7.2638515625,0.026567409133106373,-9.800263450452595,0.3528788622919833
1790173707602922200,7.273922119140625,0.02474707267736975,-9.798745386940318,0.3928959935354875
1790173707612994300,7.283994384765625,0.022382508691855506,-9.797192452067348,0.43000804486957206
1790173707623066400,7.29406640625,0.023595513839396814,-9.795542199330367,0.4660090042295969
1790173707633137200,7.30413720703125,0.022664681656681816,-9.793747334473043,0.5023792893480148
1790173707643209200,7.314209228515625,0.022668073921408093,-9.791835524143668,0.5383595140653844
1790173707653280300,7.3242802734375,0.023564224802503437,-9.789845124321142,0.5733842751996329
1790173707663352300,7.334352294921875,0.026345302925712234,-9.787994344735589,0.6040445951055475
1790173707673424100,7.344424072265625,0.026201099189026206,-9.786378449792089,0.6296826592859818
1790173707683495200,7.3544951171875,0.023907760758053804,-9.784999384012375,0.6508352777593072
1790173707693567200,7.364567138671875,0.024541448385140455,-9.78366353766017,0.6706011138037239
1790173707703639300,7.374639404296875,0.028447191498073517,-9.782193112849,0.6915819313908388
1790173707713710300,7.38471044921875,0.030617582861960375,-9.781037570136434,0.7076481714220954
1790173707723782400,7.394782470703125,0.02706033106586283,-9.780437935232758,0.7160342384645108
1790173707733853400,7.404853515625,0.023924564188008,-9.77999664616696,0.7221440526618521
1790173707743925200,7.41492529296875,0.022212229504899032,-9.77950814175774,0.7287706213545432
1790173707753997300,7.424997314453125,0.023762920046516672,-9.779057560340508,0.7347540855589312
1790173707764068400,7.435068359375,0.023952997632866232,-9.778629863471773,0.7404256252528344
1790173707774140400,7.445140380859375,0.02369235541745567,-9.778420924812632,0.7431728176228548
1790173707784212200,7.455212158203125,0.02256184464741347,-9.778302361018394,0.744765334985703
1790173707794283300,7.465283203125,0.02292392136244901,-9.778162588383813,0.7465800700692934
1790173707804355300,7.475355224609375,0.02458160010193728,-9.778156729046426,0.7466186649583901
1790173707814426400,7.48542626953125,0.029366126600821888,-9.77834158831157,0.7440259392467332
1790173707824498400,7.49549853515625,0.028405861447673885,-9.77850371585868,0.7419274226024707
1790173707834570500,7.505570556640625,0.02535384253181126,-9.77871423365833,0.7392594528396725
1790173707844641300,7.515641357421875,0.02282463210474497,-9.778881717466477,0.7371197271568497
1790173707854713000,7.525713134765625,0.021996283974431725,-9.77934677223645,0.7309338088443441
1790173707864785200,7.53578515625,0.023564494583075968,-9.779916952987321,0.7232219734911818
1790173707874856200,7.545856201171875,0.025151363747699634,-9.780442712851155,0.7160335721531701
1790173707884928300,7.55592822265625,0.027058107593748725,-9.780877944438553,0.7099836289286153
1790173707894999300,7.565999267578125,0.02776031787964212,-9.78134312601082,0.7035223318511687
1790173707905071400,7.5760712890625,0.025152597079386965,-9.78200142917404,0.6943918778731283
1790173707915143200,7.58614306640625,0.027771975500841543,-9.782869514696667,0.6819680902639982
1790173707925214200,7.596214111328125,0.03236121132549127,-9.78354707617497,0.6719630529387717
1790173707935286300,7.606286376953125,0.030609082360208373,-9.784218725988996,0.6622005051785244
1790173707945357300,7.616357421875,0.024989445171871287,-9.784936103034113,0.6517546610716685
1790173707955429400,7.626429443359375,0.02325617936295048,-9.785676007956688,0.6406182381446812
1790173707965501200,7.636501220703125,0.022795456636451442,-9.786391493580709,0.6296060215614611
1790173707975572200,7.646572265625,0.025913542113035586,-9.786952742259091,0.6206899225413012
1790173707985644300,7.656644287109375,0.030188997316201362,-9.787498372375238,0.6118369107336163
1790173707995716400,7.66671630859375,0.026122082184317344,-9.788114556868587,0.6020862818289452
1790173708005787400,7.676787353515625,0.02379295876791068,-9.788770975725534,0.5914280871809489
1790173708015859500,7.686859375,0.03212962023363991,-9.789213998926913,0.5836502813253825
1790173708025930500,7.696930419921875,0.03743195465200685,-9.789500267374072,0.5785125927199561
1790173708036002300,7.707002197265625,0.03696537389458727,-9.789768073701449,0.5739857617909886
1790173708046074400,7.717074462890625,0.03258996713679939,-9.790094647244658,0.5686504714080721
1790173708056145200,7.727145263671875,0.023777003020725176,-9.790385585068911,0.5640684111714286
1790173708066217500,7.737217529296875,0.021537155664820975,-9.79072120025679,0.558311322640909
1790173708076289500,7.74728955078125,0.024540420271748666,-9.791041207747458,0.5525400855007787
1790173708086360300,7.7573603515625,0.024083281198917995,-9.791278038613454,0.5483613814057422
1790173708096432000,7.76743212890625,0.024325027441020417,-9.791375697016846,0.5465985975321088
1790173708106503200,7.777503173828125,0.021423485313630475,-9.791323510924576,0.5476334551851296
1790173708116575200,7.7875751953125,0.01885864544362388,-9.791166388357206,0.5505403549885635
1790173708126647300,7.797647216796875,0.02044077880145185,-9.790957283677082,0.5541863756406905
1790173708136718300,7.80771826171875,0.024507891641649675,-9.790829959646551,0.5562589745661414
1790173708146790100,7.8177900390625,0.02630644782753008,-9.790682099152482,0.5587760040599355
1790173708156862200,7.8278623046875,0.022140696317691003,-9.79060919763553,0.5602306946317495
1790173708166933200,7.837933349609375,0.01738344999672883,-9.790486435554053,0.5625456911997518
1790173708177005300,7.84800537109375,0.018165541695065457,-9.79029400452988,0.5658592689382291
1790173708187076400,7.858076416015625,0.01716672397400185,-9.789978365981659,0.571325298292448
1790173708197148400,7.8681484375,0.018299704143130358,-9.789625579586993,0.5773170127671369
1790173708207220200,7.87822021484375,0.01820085815859756,-9.78932583572037,0.5823776084558009
1790173708217291300,7.888291259765625,0.01646808703090817,-9.789185541455485,0.5847795378027631
1790173708227363300,7.89836328125,0.01325227194186167,-9.789086967861929,0.5865117936850487
1790173708237434400,7.908434326171875,0.016964524677790752,-9.788974285358798,0.5882808698533832
1790173708247506400,7.91850634765625,0.022529699725595483,-9.788793871841715,0.5910867968156204
1790173708257578500,7.92857861328125,0.030512113111964424,-9.788345955383903,0.5981154346931078
1790173708267649500,7.9386494140625,0.03719734731313583,-9.787823782136206,0.6062249933991702
1790173708277721300,7.948721435546875,0.03860869250134369,-9.78760717528607,0.6096286259798064
1790173708287793400,7.95879345703125,0.03197119286424573,-9.787638200493962,0.6095158913971913
1790173708297864200,7.9688642578125,0.027710815043322946,-9.787796315140668,0.607185834047282
1790173708307936300,7.978936279296875,0.028288809823524375,-9.788045789576909,0.6031278400031123
1790173708318007300,7.98900732421875,0.034246874027747364,-9.788285806457619,0.5988925405964378
1790173708328079000,7.9990791015625,0.03686266930020308,-9.78849355773673,0.5953318099698081
1790173708338151200,8.009151123046875,0.03330652305795978,-9.78868818808527,0.5923327954748635
1790173708348222200,8.01922216796875,0.029370618924615968,-9.788863346174292,0.5896391747160383
1790173708358294300,8.029294189453125,0.02864579978144696,-9.789126911487356,0.5852952287333874
1790173708368365300,8.039365234375,0.029802992802126078,-9.789296587915233,0.582381028250956
1790173708378437400,8.049437255859376,0.03759763219147885,-9.789216194677842,0.5832807335795943
1790173708388509200,8.05950927734375,0.040915252256573505,-9.789171926880979,0.5837939646584147
1790173708398580200,8.069580322265624,0.0311083993808322,-9.789390606235402,0.5807212267510541
1790173708408652300,8.07965234375,0.024922323100626597,-9.789645016581224,0.5767191039170338
1790173708418724400,8.089724365234375,0.026234007853140406,-9.789876542665287,0.5727385609476258
1790173708428795400,8.09979541015625,0.02999685491185832,-9.789810941542404,0.5736645100226744
1790173708438867500,8.109867431640625,0.03400531648465935,-9.789719677766426,0.5749849444682879
1790173708448938500,8.1199384765625,0.03748413176151248,-9.78962626760971,0.5763611701849835
1790173708459010300,8.13001025390625,0.03929044486522371,-9.789438960881983,0.5794169335085749
1790173708469082400,8.140082275390625,0.03466653261907831,-9.789201632156637,0.5837043225657348
1790173708479153400,8.1501533203125,0.031687887645128025,-9.788807061267441,0.5904563543478044
1790173708489225500,8.1602255859375,0.03669464686874399,-9.7881601409154,0.6007918787504023
1790173708499297300,8.17029736328125,0.0408220167977232,-9.787452883091579,0.6119585411393493
1790173708509368300,8.180368408203124,0.03830210734046794,-9.786810363418951,0.6223055118934611
1790173708519440400,8.1904404296875,0.03689941143162272,-9.786064532149238,0.6340027046553491
1790173708529511200,8.20051123046875,0.03494313750163998,-9.7851473394235,0.6481144764928105
1790173708539583200,8.210583251953125,0.029191900784029806,-9.784151204719112,0.6632559531248382
1790173708549655300,8.2206552734375,0.02944432611948814,-9.782824522261794,0.6825391604949708
1790173708559726300,8.230726318359375,0.03320968927084595,-9.78118540048869,0.7054688177393034
1790173708569798100,8.240798095703125,0.03673562963856698,-9.779338606590967,0.7304643564544783
1790173708579869200,8.250869140625,0.03552368914842998,-9.777312292748352,0.7571501049449562
1790173708589941200,8.260941162109376,0.03511187757046851,-9.775008993832225,0.7863522806188832
1790173708600013300,8.271013427734376,0.035725446082978195,-9.77245281061743,0.8174760938219047
1790173708610084400,8.28108447265625,0.03995357347144353,-9.769463814346715,0.8522631862538362
1790173708620156400,8.291156494140624,0.04510766440554755,-9.765984009897542,0.8910103563459768
1790173708630228200,8.301228271484375,0.04491290244676349,-9.762235733938763,0.93118655437684
1790173708640299300,8.31129931640625,0.039764201087549085,-9.758725520089715,0.9675064399196882
1790173708650371300,8.321371337890625,0.033570834846889615,-9.75491682903187,1.005417571108673
1790173708660442400,8.3314423828125,0.029450723128448663,-9.750413080302774,1.0483164393869686
1790173708670514400,8.341514404296875,0.03120660044750368,-9.745099303431077,1.0965673960345874
1790173708680586200,8.351586181640625,0.030129534603084363,-9.739499730761498,1.1452624124715307
1790173708690657300,8.3616572265625,0.029434214525638127,-9.733656475766905,1.1939226120871038
1790173708700729300,8.371729248046876,0.03145009507171006,-9.727520046262288,1.2428825538050494
1790173708710801400,8.381801513671874,0.02454277248558745,-9.721265800154367,1.291033681282695
1790173708720872400,8.39187255859375,0.01687830687516021,-9.714983251810727,1.337613211451238
1790173708730944500,8.401944580078125,0.013977972344638514,-9.708260454075033,1.3855924497251861
1790173708741015300,8.412015380859375,0.0072928399246480835,-9.701538065464945,1.4319526179687199
1790173708751087400,8.42208740234375,-0.0016266954691949913,-9.695025123161779,1.475421058413345
1790173708761159400,8.432159423828125,-0.009529991090513616,-9.688477980162231,1.5177902922194642
1790173708771230200,8.442230224609375,-0.014998287319348134,-9.68120060171096,1.5634951687856486
1790173708781302300,8.45230224609375,-0.019802124400498,-9.673152341703567,1.612489630624105
1790173708791373300,8.462373291015625,-0.02681301195604394,-9.665325897849447,1.6586602857719677
1790173708801445000,8.472445068359375,-0.03185970243976344,-9.657980573980623,1.7008206972042532
1790173708811517200,8.48251708984375,-0.034951142623324355,-9.650560901003152,1.742362955458928
1790173708821588200,8.492588134765626,-0.03691053912383542,-9.642947162241986,1.7839787545041288
1790173708831660300,8.502660400390624,-0.04034524465287301,-9.635936322445326,1.8214002347918883
1790173708841732400,8.512732421875,-0.040032719955650525,-9.629345235822669,1.8559350780705715
1790173708851803400,8.522803466796875,-0.04254399414791417,-9.623332550264074,1.886810097074896
1790173708861875200,8.532875244140625,-0.04857417561681227,-9.617516937079271,1.9160865125057471
1790173708871946200,8.5429462890625,-0.050288408347515384,-9.611634241973876,1.9453387404288822
1790173708882018300,8.553018310546875,-0.05064955917406918,-9.60625079418993,1.971743932285144
1790173708892090400,8.56309033203125,-0.05257923944400955,-9.601362031938445,1.9953623276889216
1790173708902161400,8.573161376953125,-0.05249932476347494,-9.596776914933184,2.0173002026634976
1790173708912233500,8.5832333984375,-0.053913639875052356,-9.591613654904291,2.0416734387445716
1790173708922304500,8.593304443359376,-0.05426222397287247,-9.586589075739056,2.0651257675462396
1790173708932376300,8.603376220703124,-0.049856763229905315,-9.582410606172887,2.0845404688664417
1790173708942448400,8.613448486328124,-0.048333600084486714,-9.578779029817373,2.101199157020082
1790173708952519400,8.62351953125,-0.05466450873634803,-9.575432660876865,2.116246613202127
1790173708962591500,8.633591552734375,-0.058654017605519713,-9.572045845307818,2.1314076090892233
1790173708972663300,8.643663330078125,-0.06294639792858175,-9.568747305221315,2.1460446053964652
1790173708982734000,8.653734130859375,-0.0639814720544725,-9.565406500256854,2.16085435021331
1790173708992806100,8.66380615234375,-0.06267781217546015,-9.562350685342972,2.1743770018761697
1790173709002877200,8.673877197265625,-0.0645003238154819,-9.559048794324355,2.1887938084469756
1790173709012949200,8.68394921875,-0.06858673301547348,-9.556032213185391,2.201803541624712
1790173709023021300,8.694021240234376,-0.07114813749366897,-9.553831737874113,2.21124896301802
1790173709033092400,8.70409228515625,-0.07456600757852405,-9.552394763502516,2.217336652369684
1790173709043164200,8.7141640625,-0.07685940842987157,-9.550464774561561,2.2255542421650403
1790173709053235200,8.724235107421874,-0.07607924810954005,-9.54744912269465,2.2384814931819816
1790173709063307300,8.734307373046875,-0.07499300701889267,-9.543954416519993,2.253371442327753
1790173709073379300,8.74437939453125,-0.08132221660852983,-9.540678902548786,2.26698317300387
1790173709083450400,8.754450439453125,-0.08746182611238287,-9.53753099695249,2.2799643092661612
1790173709093522400,8.7645224609375,-0.08997474041790447,-9.53438581728118,2.2929846730952583
1790173709103594200,8.77459423828125,-0.0905895213583266,-9.531292941346507,2.3057844961420453
1790173709113665300,8.784665283203125,-0.09326232359313613,-9.528803849629242,2.3159418383198527
1790173709123737300,8.7947373046875,-0.10061174742693525,-9.527464088737814,2.3211387873467433
1790173709133808400,8.804808349609376,-0.10652893874517343,-9.526971054028257,2.3228968641203767
1790173709143880400,8.81488037109375,-0.10469514749040094,-9.527032637585794,2.322729619505742
1790173709153952300,8.8249521484375,-0.10170327506161243,-9.527732764695864,2.3199909522588555
1790173709164023300,8.835023193359374,-0.09958731848568532,-9.528844206736357,2.3155131154707433
1790173709174095400,8.845095458984375,-0.09594057446615907,-9.530731529326472,2.3078851737847574
1790173709184166100,8.855166259765625,-0.0928654137427056,-9.53271016695898,2.2998266585287968
1790173709194238500,8.865238525390625,-0.09401604087514717,-9.535284298985653,2.2890830273809133
1790173709204310500,8.875310546875,-0.08980862630435683,-9.53873208178911,2.274844613028619
1790173709214381300,8.88538134765625,-0.08925775395240663,-9.542049942380055,2.260907565838506
1790173709224453000,8.895453125,-0.09197012179022256,-9.54447171130966,2.2505508459122976
1790173709234525200,8.905525146484376,-0.09181278521387902,-9.5465980327591,2.2415204785719256
1790173709244596200,8.91559619140625,-0.08849389973014668,-9.54848320699886,2.2336096160441024
1790173709254668300,8.925668212890624,-0.08591171907122902,-9.550182397127774,2.226434606956068
1790173709264739300,8.9357392578125,-0.08189894875097152,-9.55156154380447,2.2206618043543798
1790173709274811400,8.945811279296874,-0.08457926379436057,-9.551764523986927,2.2196908653659073
1790173709284883200,8.95588330078125,-0.09144446853900752,-9.550715171797185,2.223928960403648
1790173709294954000,8.9659541015625,-0.0933034270160895,-9.54941200926794,2.2294408397635643
1790173709305026000,8.976026123046875,-0.09610355977751799,-9.548124945745377,2.2348282274921543
1790173709315097000,8.98609716796875,-0.1013898254055201,-9.545850190086536,2.2442964362737525
1790173709325169200,8.996169189453125,-0.10603512211210936,-9.542863530471083,2.2567424677914327
1790173709335241000,9.006240966796875,-0.11233940977176259,-9.53882960026836,2.273428282220565
1790173709345312000,9.01631201171875,-0.11995367598073457,-9.53395466863913,2.2934065628092957
1790173709355384000,9.026384033203126,-0.13072928418232543,-9.527909369210333,2.3178099053529273
1790173709365456100,9.0364560546875,-0.14234071052700994,-9.520412674044115,2.347738796018681
1790173709375527200,9.046527099609374,-0.1531713536957422,-9.512316823520942,2.3796550309621667
1790173709385599200,9.05659912109375,-0.1626110650320494,-9.50407619219126,2.4117374431473166
1790173709395670300,9.066670166015625,-0.17207093317045175,-9.495494326950883,2.444661406170001
1790173709405742000,9.0767421875,-0.18452295572022054,-9.486052380775728,2.4801522132895326
1790173709415814100,9.086814208984377,-0.1986849799386542,-9.476739394180589,2.514421077377964
1790173709425885200,9.09688525390625,-0.21257751801275526,-9.467606550112768,2.5474744751279275
1790173709435957200,9.106957275390624,-0.22390521302467203,-9.45890380511678,2.5786441804611964
1790173709446028300,9.1170283203125,-0.23382858033456547,-9.450119018967557,2.6097822770376684
1790173709456100400,9.127100341796876,-0.24414391599489857,-9.440745348679487,2.6425572373602706
1790173709466172200,9.137172119140626,-0.2530924710449145,-9.431885126289586,2.673177849354895
1790173709476243200,9.1472431640625,-0.26000956983570783,-9.42361386433477,2.701534553995077
1790173709486315300,9.157315185546874,-0.26735165926473087,-9.416590759900647,2.725202747988445
1790173709496387300,9.16738720703125,-0.27804360158333713,-9.410511895551183,2.745056514019754
1790173709506458000,9.1774580078125,-0.2859264383894314,-9.405295284514485,2.762072445606924
1790173709516530000,9.187530029296877,-0.2910421922922336,-9.401668131178681,2.7738635442354598
1790173709526601000,9.19760107421875,-0.2952303713894019,-9.398912245605123,2.7827450743081816
1790173709536673000,9.207673095703123,-0.2989383362538031,-9.397618720189994,2.786717716342816
1790173709546745000,9.2177451171875,-0.30366133683638236,-9.397043714629595,2.788143791490912
1790173709556816100,9.227816162109375,-0.3040836036235801,-9.39802614249406,2.7847819439012933
1790173709566888200,9.23788818359375,-0.30133512966816955,-9.40108871502661,2.7747277370892336
1790173709576959200,9.247959228515626,-0.29476672407439697,-9.405657056933743,2.7599084055902194
1790173709587031000,9.258031005859374,-0.2903938079181992,-9.411589575831641,2.7400780159891696
1790173709597103000,9.26810302734375,-0.28725830925992296,-9.418220602539279,2.7175328914803827
1790173709607174100,9.278174072265625,-0.2814832633219399,-9.426148269453076,2.6905166600389925
1790173709617246200,9.28824609375,-0.26818390011343285,-9.43624746769998,2.656256281475681
1790173709627318000,9.298318115234377,-0.2543142059824076,-9.44769163875406,2.616647527418874
1790173709637389000,9.30838916015625,-0.2429942681229297,-9.458742293571508,2.577506099055099
1790173709647461000,9.318461181640624,-0.2315250878958295,-9.468651178676645,2.5419361052366654
1790173709657532200,9.3285322265625,-0.22121067354828566,-9.478313851662115,2.506593594960551
1790173709667604200,9.338604248046876,-0.21108938069150288,-9.488073441219415,2.4702815832402822
1790173709677676300,9.34867626953125,-0.19801571136832388,-9.498173914205706,2.4322565574962756
1790173709687747300,9.358747314453124,-0.18363689296582233,-9.507721454412062,2.395810950527307
1790173709697819100,9.368819091796874,-0.1685366862556309,-9.51644449516689,2.362044111133999
1790173709707890000,9.378889892578124,-0.15255350455046549,-9.525088010231542,2.328046220589214
1790173709717962000,9.3889619140625,-0.13555709010476877,-9.53339225775765,2.294875068470901
1790173709728034300,9.399034423828123,-0.12936312701783542,-9.540506965622466,2.265476410276965
1790173709738105000,9.40910498046875,-0.1285989697758376,-9.545785956657172,2.2431688327394967
1790173709748177200,9.41917724609375,-0.1243353029200758,-9.550023902714363,2.225301812884376
1790173709758249000,9.4292490234375,-0.11363363976859149,-9.553639220538187,2.210306764653163
1790173709768320000,9.439320068359375,-0.1064730986663277,-9.556496968067748,2.198276607028035
1790173709778392000,9.44939208984375,-0.10099069540482608,-9.557824968716213,2.1927518269799084
1790173709788463000,9.459463134765626,-0.09929869258098475,-9.557873483043254,2.192617556842123
1790173709798535200,9.46953515625,-0.09986396105459751,-9.556812360566806,2.1972148398140052
1790173709808607000,9.47960693359375,-0.10079832564650278,-9.555617503468895,2.202361761476333
1790173709818678000,9.489677978515624,-0.09819944228085914,-9.554010446519966,2.2094399266109344
1790173709828750000,9.49975,-0.09899146736906288,-9.551113736960291,2.221891626012928
1790173709838821000,9.509821044921877,-0.10758464855713955,-9.546931036792856,2.239399022676041
1790173709848893200,9.51989306640625,-0.11197423115244481,-9.542376042192581,2.2585165951119004
1790173709858965200,9.52996533203125,-0.11474453079409966,-9.537837972537943,2.277465106295492
1790173709869036300,9.540036376953124,-0.12099405822533163,-9.531397808145604,2.303950027511796
1790173709879108000,9.550108154296876,-0.12937694684845766,-9.52247927950577,2.3400931250771055
1790173709889180200,9.56018017578125,-0.13699281083772358,-9.51337404120147,2.376413128753298
1790173709899251200,9.570251220703126,-0.1412597742951105,-9.50467212217443,2.41073245679839
1790173709909323300,9.5803232421875,-0.14600724431457474,-9.495501406155764,2.4463264100158133
1790173709919394300,9.590394287109374,-0.15380863225338295,-9.485367652415603,2.484860356674318
1790173709929466400,9.60046630859375,-0.16123091572770828,-9.475256816244034,2.5226786505979737
1790173709939538200,9.6105380859375,-0.16280160223054096,-9.465667773302984,2.55832323873037
1790173709949609000,9.62060888671875,-0.161135046791194,-9.45665913803277,2.591529673065971
1790173709959681000,9.630680908203123,-0.1670405808284692,-9.44779976655683,2.623275784979771
1790173709969752000,9.640751953125,-0.1747269122350136,-9.43851674608773,2.6559847048345913
1790173709979824000,9.65082421875,-0.17850931946905774,-9.428608784221286,2.6906968353775906
1790173709989896000,9.66089599609375,-0.18514609513340616,-9.418818615189716,2.7243250548369775
1790173709999967000,9.670967041015626,-0.19095914798045502,-9.409181834667418,2.757028313580936
1790173710010039000,9.6810390625,-0.1956997300820619,-9.399714848261002,2.7888096916852203
1790173710020110000,9.691110107421874,-0.2065706326719148,-9.389286357816147,2.822942149360181
1790173710030182100,9.70118212890625,-0.217876091548563,-9.378531478425852,2.857634063451869
1790173710040254200,9.711254150390625,-0.22366196336185484,-9.367306986258095,2.893776500380426
1790173710050325200,9.7213251953125,-0.23565207646371775,-9.35552675790437,2.9306951555785337
1790173710060397000,9.73139697265625,-0.2506098693027611,-9.34198850782966,2.972344761666264
1790173710070469000,9.74146923828125,-0.26918037027375336,-9.327201426412788,3.016824814063409
1790173710080540200,9.7515400390625,-0.28936482497686217,-9.311867784537485,3.0619908755996463
1790173710090612200,9.7616123046875,-0.30741601586021194,-9.296304078500015,3.1071894179381587
1790173710100683300,9.771683349609376,-0.32094900521514913,-9.280244049102366,3.1534847356077242
1790173710110755300,9.78175537109375,-0.34203287863469367,-9.26343870835503,3.200326230055317
1790173710120827100,9.7918271484375,-0.3650930236289497,-9.245406459783041,3.249548492836563
1790173710130898200,9.801898193359374,-0.38787825575961876,-9.22566770053898,3.3025751800820746
1790173710140970200,9.81197021484375,-0.41373922249379014,-9.204739573685991,3.3573783359805325
1790173710151041000,9.822041015625,-0.44030130459573585,-9.184018571975306,3.4103278608442897
1790173710161113300,9.83211328125,-0.4662936763981366,-9.162235057973062,3.465028320241713
1790173710171185200,9.84218505859375,-0.4918971844799005,-9.138925515184146,3.5225651343445636
1790173710181256000,9.852255859375,-0.5141843398567066,-9.115797610066664,3.5788587244407606
1790173710191328000,9.862327880859375,-0.5344701109584234,-9.096124645050235,3.6256380293171473
1790173710201399000,9.87239892578125,-0.5599851286124106,-9.077555711953304,3.6680767655724664
1790173710211471000,9.88247119140625,-0.587936903942635,-9.058250007100742,3.711174836120619
1790173710221543200,9.892543212890626,-0.615386193179585,-9.039264965485678,3.7527817066661764
1790173710231614200,9.9026142578125,-0.6296429568055102,-9.023937012544156,3.787147061481423
1790173710241686000,9.91268603515625,-0.6422288331913276,-9.012082507466332,3.8131757802428656
1790173710251758000,9.922758056640625,-0.6597284769420697,-8.9998956160787,3.838883791624467
1790173710261829000,9.9328291015625,-0.6787594663758917,-8.987351491031726,3.864866517139859
1790173710271901200,9.942901123046877,-0.6920824017427907,-8.976391726986217,3.8879034721843393
1790173710281973000,9.952972900390623,-0.6974559669239756,-8.968111067245994,3.90600876223543
1790173710292044800,9.963044921875,-0.690719948901841,-8.964150823587943,3.916286207292053
1790173710302116900,9.973116943359376,-0.6776340914402035,-8.962013950172912,3.9234570848358015
1790173710312187600,9.983187744140626,-0.6653136919914556,-8.959896027910727,3.930395680992704
1790173710322259700,9.993259765625,-0.6581856704012431,-8.9580912018613,3.9357060094288028
1790173710332330800,10.003330810546874,-0.6482154661345723,-8.957181616749903,3.9394282807477814
1790173710342402800,10.01340283203125,-0.6423190594565685,-8.956412008022182,3.9421440535022576
1790173710352474600,10.023474609375,-0.6421987392670871,-8.955614066451549,3.943975019261498
1790173710362545700,10.033545654296876,-0.6377029740246244,-8.957181225181197,3.941145007875091
1790173710372617700,10.04361767578125,-0.6305443452949481,-8.960766476531274,3.9341390405772514
1790173710382689800,10.053689697265623,-0.6289421203208599,-8.964366011510911,3.9261893946250117
1790173710392760800,10.0637607421875,-0.6265594871803382,-8.96827456018482,3.9176346798965005
1790173710402832600,10.07383251953125,-0.6221761876894435,-8.973435428371895,3.9065002714805694
1790173710412903700,10.083903564453124,-0.617125430960686,-8.97812699854466,3.896508932173043
1790173710422975700,10.093975830078126,-0.6099601245528524,-8.982826794553635,3.886792394641355
1790173710433047800,10.1040478515625,-0.5976426735833702,-8.989089769928295,3.8742049256713122
1790173710443118800,10.114118896484374,-0.5854286189143921,-8.996104616127555,3.8597624405031654
1790173710453191000,10.12419091796875,-0.5742925974845242,-9.003207218342682,3.8448450219873793
1790173710463262000,10.134261962890625,-0.5643383451895586,-9.011337856373105,3.827229248602143
1790173710473333800,10.144333740234377,-0.5538795770501075,-9.02062628542926,3.806823772601088
1790173710483405800,10.15440576171875,-0.5482306462974096,-9.030520690652242,3.784116663517538
1790173710493476900,10.164476806640623,-0.5394771777566825,-9.040990181212182,3.760299506482415
1790173710503549000,10.174548828125,-0.5248759196836241,-9.051245131711187,3.737628519709926
1790173710513619700,10.18461962890625,-0.5110288132659178,-9.06153571306093,3.7145391916408848
1790173710523691800,10.19469189453125,-0.4985329033193811,-9.073154592081707,3.6877794467747065
1790173710533763800,10.204763916015626,-0.4803230250061092,-9.086063626023645,3.6582951635608096
1790173710543834600,10.214834716796876,-0.4588641792688635,-9.100285634632725,3.6255532207677335
1790173710553906700,10.22490673828125,-0.43968653048425516,-9.114165492120065,3.592916743095966
1790173710563977700,10.234977783203124,-0.4213287674669029,-9.127763030405719,3.5604480207278084
1790173710574049800,10.2450498046875,-0.4065357087923096,-9.141058761887995,3.5279104156014514
1790173710584121600,10.25512158203125,-0.39343601499325853,-9.154179730283687,3.4952229293418946
1790173710594192600,10.265192626953125,-0.38236626346799807,-9.168134572952603,3.459696277511295
1790173710604264700,10.2752646484375,-0.3757230033262974,-9.181452643575755,3.4249302787900398
1790173710614336800,10.285336669921875,-0.36820209742323423,-9.194311848938924,3.3910852398174995
1790173710624407800,10.29540771484375,-0.3625423761419851,-9.206154782820128,3.3594164937410897
1790173710634479900,10.30547998046875,-0.3577295657443537,-9.219018003919398,3.324472261793426
1790173710644551000,10.315551025390626,-0.35307574548718684,-9.23227042983875,3.287993054021832
1790173710654622700,10.325622802734374,-0.3526831365155876,-9.243853607951687,3.255328549247471
1790173710664694800,10.33569482421875,-0.3561296399115903,-9.253707580977274,3.226832027747865
1790173710674765800,10.345765869140624,-0.36308023864138445,-9.263038063024613,3.1991681276290445
1790173710684838000,10.355837890625,-0.3725437954319335,-9.272455259649938,3.170672908348882
1790173710694909000,10.365908935546877,-0.38593016576189765,-9.281434894761684,3.1426745120522854
1790173710704980700,10.375980712890623,-0.396486416277496,-9.290222449528994,3.1152762542282697
1790173710715052800,10.386052734375,-0.40520465632170005,-9.299470711794976,3.086427718863831
1790173710725123800,10.396123779296875,-0.40657964118521767,-9.309426098887364,3.0560876829485113
1790173710735196000,10.40619580078125,-0.4008917585354948,-9.319427086098852,3.0262135425876355
1790173710745268000,10.41626806640625,-0.3993003180529894,-9.328358912461281,2.9987757351280755
1790173710755338800,10.4263388671875,-0.4003049109837834,-9.336436109302445,2.9733990770380667
1790173710765410600,10.43641064453125,-0.40074617273196905,-9.343728066127905,2.9503439385349237
1790173710775481600,10.446481689453124,-0.3968470579516189,-9.351734979138259,2.9253975230446434
1790173710785553700,10.4565537109375,-0.3924069464188213,-9.359891755299774,2.8997960396904516
1790173710795625700,10.466625732421877,-0.3944403134118694,-9.367636732959642,2.8744001813530544
1790173710805696800,10.47669677734375,-0.40098850476326725,-9.374749073687648,2.850207290036064
1790173710815768800,10.486768798828123,-0.40890380833101286,-9.382391328044593,2.823814911295638
1790173710825839900,10.49683984375,-0.41567265746601223,-9.390367931686978,2.7961771414106726
1790173710835911700,10.50691162109375,-0.420601774800791,-9.398657908503232,2.7674356146006365
1790173710845983700,10.516983642578126,-0.4181874108024147,-9.406883005978983,2.7397166184614297
1790173710856054800,10.5270546875,-0.4132115911680696,-9.414838798416511,2.7130147557262583
1790173710866126800,10.537126953125,-0.40428836400282636,-9.42286100845843,2.68637963382536
1790173710876198000,10.547197998046874,-0.39128489672673217,-9.431330048110917,2.658438733927139
1790173710886269700,10.557269775390624,-0.3836063378196337,-9.439465686909546,2.6305360087232876
1790173710896341800,10.567341796875,-0.3840757921484504,-9.447095419015783,2.6029340913596566
1790173710906412800,10.577412841796876,-0.38683214771213403,-9.454182293776734,2.576662156479761
1790173710916484900,10.58748486328125,-0.39135079351204116,-9.46118251501634,2.550149401972123
1790173710926557000,10.597556884765623,-0.39881818756151133,-9.46860828483665,2.5212653958006492
1790173710936628000,10.6076279296875,-0.39928788918001895,-9.47670513648388,2.490584223447094
1790173710946699800,10.61769970703125,-0.39598616296241773,-9.48453589964712,2.461127962926823
1790173710956770600,10.6277705078125,-0.3916412291831924,-9.491935243456012,2.433138916193308
1790173710966842600,10.637842529296876,-0.3809671090366615,-9.49904204710062,2.406957749869474
1790173710976915000,10.6479150390625,-0.3628607643918181,-9.506574003154363,2.379867297256561
1790173710986985700,10.65798583984375,-0.34059942119278164,-9.515261484371448,2.348226588877276
1790173710997057800,10.668057861328125,-0.3224822606668649,-9.523943206317082,2.3153611875692963
1790173711007128800,10.67812890625,-0.3136269976586269,-9.531305964537605,2.28609323207904
1790173711017200600,10.68820068359375,-0.3101292199702347,-9.537876634509466,2.25900702383245
1790173711027272700,10.698272705078123,-0.30148230573210666,-9.54502368360623,2.2297987016537477
1790173711037343700,10.70834375,-0.2909941563924563,-9.553893754111114,2.19290084894212
1790173711047415800,10.718415771484375,-0.2827342073890087,-9.562561212968616,2.1558899023930884
1790173711057486800,10.72848681640625,-0.2782224454226641,-9.569510602786425,2.125428478728774
1790173711067558700,10.73855859375,-0.27413606406095575,-9.57582285148946,2.097346481800775
1790173711077630700,10.748630615234376,-0.268466516469552,-9.582710405120736,2.0663941864300077
1790173711087701800,10.75870166015625,-0.2550806603947256,-9.59005172521141,2.033772849678369
1790173711097773800,10.76877392578125,-0.23625480713880886,-9.5971133278495,2.0024972629163464
1790173711107844900,10.778844970703124,-0.22559988054414296,-9.603711920700203,1.971855369261201
1790173711117917000,10.7889169921875,-0.22152647832444225,-9.610425819560687,1.939333571112226
1790173711127988700,10.79898876953125,-0.2137783494794701,-9.6177943885197,1.9033435434084562
1790173711138059800,10.809059814453123,-0.21000437967363805,-9.624879695277139,1.867609953086049
1790173711148131800,10.8191318359375,-0.21159650247404482,-9.631260415105677,1.8342390168384368
1790173711158204000,10.829203857421875,-0.21006857464179868,-9.63737037796978,1.8020381445880795
1790173711168275000,10.83927490234375,-0.20447215535649063,-9.643579066712697,1.7691681463246496
1790173711178346800,10.8493466796875,-0.1974702953177665,-9.650026109282766,1.7344683543671058
1790173711188417800,10.859417724609376,-0.18443933047715463,-9.656912967321698,1.6971702533982236
1790173711198489600,10.869489501953124,-0.17201399998560604,-9.663611495431601,1.6599452474933065
1790173711208561700,10.879561767578124,-0.1666212368379672,-9.669777372737144,1.6242067766628447
1790173711218632700,10.8896328125,-0.16038119634732256,-9.675834803959024,1.588364229947913
1790173711228704800,10.899704833984377,-0.15174210875579588,-9.682001323748555,1.55119599752109
1790173711238775800,10.90977587890625,-0.14756925618797487,-9.687625090191089,1.5160904012318068
1790173711248847600,10.91984765625,-0.1450074590098701,-9.692703675848431,1.483528504226929
1790173711258919700,10.929919677734375,-0.14600924896552092,-9.697441979747254,1.452131330310838
1790173711268990700,10.93999072265625,-0.149339308319617,-9.702135329438585,1.420087289037394
1790173711279062500,10.9500625,-0.15169518863705928,-9.706234348090293,1.3915469016471953
1790173711289133600,10.960133544921876,-0.1534056730675255,-9.710095164589816,1.3641468419834997
1790173711299205600,10.97020556640625,-0.15359832427703302,-9.713614911907127,1.3388358585625124
1790173711309277400,10.98027734375,-0.15118323859811833,-9.716988381925132,1.3144088931856892
1790173711319348500,10.990348388671874,-0.14601681920804954,-9.720214517413376,1.2909338076208263
1790173711329420500,11.000420654296876,-0.14024871509417858,-9.723512414576545,1.2665015869004819
1790173711339492600,11.01049267578125,-0.1339574935329121,-9.726616215009274,1.2431274906249705
1790173711349563600,11.020563720703125,-0.12991204085024968,-9.729221916161519,1.2230103546779947
1790173711359635700,11.0306357421875,-0.12595343175761659,-9.731552977296117,1.2047433449985478
1790173711369706800,11.040706787109375,-0.11906207474078422,-9.733973503827766,1.1857303113649142
1790173711379778600,11.050778564453124,-0.11582633652743023,-9.736103973810422,1.1684338881153058
1790173711389850600,11.0608505859375,-0.11342129928987278,-9.738016867213801,1.1526272693942647
1790173711399921400,11.07092138671875,-0.11435647811885209,-9.739619238152436,1.1389135396915466
1790173711409993500,11.080993408203126,-0.11438340903488248,-9.740994792753508,1.1270823186300132
1790173711420064500,11.091064453125,-0.11033476606841265,-9.74212541657963,1.1176844921498839
1790173711430136300,11.10113623046875,-0.10857062936022491,-9.74296012347504,1.1105550834832671
1790173711440208400,11.11120849609375,-0.10516089721445432,-9.743675705613384,1.1045837711052244
1790173711450279400,11.121279541015625,-0.10324961677031551,-9.74416294947797,1.1004627194502026
1790173711460351500,11.1313515625,-0.10028451036643408,-9.744538814255394,1.097402198262099
1790173711470422500,11.141422607421877,-0.09586128166934033,-9.744806923694338,1.0954140288823206
1790173711480494600,11.15149462890625,-0.08963288453898241,-9.745069555323308,1.0936115790288439
1790173711490566400,11.16156640625,-0.08705311491278735,-9.745201955373634,1.092639111702646
1790173711500637400,11.171637451171875,-0.08810174573321704,-9.745007190448382,1.0942854355571299
1790173711510709500,11.18170947265625,-0.09059769584488639,-9.744518010439233,1.0984270008513672
1790173711520780500,11.191780517578126,-0.09427609546404489,-9.744033499802804,1.1024131013213616
1790173711530852600,11.2018525390625,-0.09444568288562304,-9.743590718456613,1.1062995699341078
1790173711540924700,11.211924560546874,-0.09295195554452161,-9.743254649610911,1.109380561071259
1790173711550995700,11.22199560546875,-0.09537653593476846,-9.742840575813277,1.112806498686535
1790173711561067500,11.232067626953125,-0.09852831563291499,-9.742308059560091,1.1171873520871995
1790173711571139600,11.2421396484375,-0.09821343040023266,-9.741711443801993,1.1224040227825998
1790173711581210600,11.252210693359377,-0.09973564698490535,-9.741285150758776,1.1259673431801507
1790173711591282700,11.26228271484375,-0.10235179308313744,-9.740955402590224,1.1285884467841116
1790173711601353500,11.272353515625,-0.10394643428160609,-9.740814079015669,1.1296613496018413
1790173711611425300,11.28242529296875,-0.10597098346688189,-9.740815694298204,1.129451143244241
1790173711621497600,11.29249755859375,-0.11053506107841851,-9.74090511322561,1.128243075915464
1790173711631568400,11.302568359375,-0.1095919528476795,-9.741154362602344,1.126180091917377
1790173711641640400,11.312640380859374,-0.10618229255066353,-9.741634925572583,1.122338552671554
1790173711651711500,11.32271142578125,-0.11000578206308265,-9.742152846833735,1.1174757988824544
1790173711661783600,11.332783447265625,-0.11618022044103787,-9.743034327855906,1.1091260277810138
1790173711671855400,11.34285546875,-0.12042417920934846,-9.744441546113817,1.0962366390961318
1790173711681926400,11.352926513671877,-0.12226118562469825,-9.746295617616175,1.0794284063657302
1790173711691998500,11.36299853515625,-0.12204190557755351,-9.748359006720223,1.0606540115866534
1790173711702069500,11.373069580078123,-0.1198369245330222,-9.750689235102165,1.0392722326232162
1790173711712141600,11.3831416015625,-0.11832009345183295,-9.753027904134656,1.0172667406334066
1790173711722213600,11.393213623046876,-0.12069650380621529,-9.75559878508623,0.9920204220935751
1790173711732284700,11.40328466796875,-0.12241115072102304,-9.758528516618933,0.9625580963468726
1790173711742356500,11.4133564453125,-0.11987098444575296,-9.761750974806064,0.9296493184745582
1790173711752427500,11.423427490234374,-0.11652802482023782,-9.764981379569134,0.8955161473621484
1790173711762499600,11.43349951171875,-0.11638273132245239,-9.76789033359658,0.8632254279867578
1790173711772571600,11.443571533203125,-0.11788215009371751,-9.770795603625505,0.8294798412484159
1790173711782642700,11.453642578125,-0.11910839090847414,-9.773941605011602,0.791374818053214
1790173711792714500,11.463714599609377,-0.11858472776972895,-9.776938407626412,0.7535161099797699
1790173711802786600,11.47378662109375,-0.11786499455530601,-9.779747636753433,0.7162595246616106
1790173711812857600,11.483857666015624,-0.11559594457379109,-9.782235659742568,0.681816634948562
1790173711822929700,11.4939296875,-0.11162931387117078,-9.784512601584776,0.6490238285328047
1790173711833000400,11.50400048828125,-0.10950012486862867,-9.78661965562069,0.6168164376850493
1790173711843072500,11.514072509765626,-0.10872206404609931,-9.788630030864866,0.584196645002092
1790173711853144300,11.524144287109374,-0.11089972506834544,-9.790529968490397,0.5509946329904151
1790173711863215400,11.53421533203125,-0.11169322897138485,-9.792278185444017,0.5188311912958744
1790173711873287400,11.544287353515625,-0.10938041964552228,-9.793948513773922,0.48682811758310407
1790173711883358500,11.5543583984375,-0.10883510594619826,-9.795408071606552,0.4566587638127071
1790173711893430500,11.564430419921877,-0.11351681258472805,-9.79658942780525,0.42935700482055517
1790173711903502600,11.574502685546875,-0.12041407817994482,-9.797553080590458,0.40476342610250843
1790173711913573400,11.584573486328123,-0.12463535409240181,-9.798375123992985,0.3830283062288509
1790173711923645400,11.5946455078125,-0.12376841543325884,-9.799192969511012,0.3617707863034186
1790173711933716500,11.604716552734375,-0.12268910460747273,-9.799897077230929,0.3425618104346031
1790173711943788500,11.61478857421875,-0.12300695754058055,-9.800471379754427,0.32561886601676204
1790173711953860600,11.624860595703124,-0.12317936947565546,-9.800959908227654,0.3104975058234785
1790173711963931600,11.634931640625,-0.12071552337970379,-9.80133159014817,0.2994875724043984
1790173711974003500,11.64500341796875,-0.1158013613892778,-9.801623948458998,0.29177721605245643
1790173711984074500,11.655074462890624,-0.11317152395184776,-9.801780128138518,0.28753589430633364
1790173711994146600,11.665146484375,-0.11404628065777188,-9.80183713399322,0.28524131597713853
1790173712004218600,11.675218505859377,-0.11423458509334287,-9.80185572333586,0.28456294896534284
1790173712014289700,11.68528955078125,-0.11253799336624322,-9.80186698904955,0.2848461820528436
1790173712024361700,11.69536181640625,-0.11224523228981034,-9.80178261760622,0.2878188800993217
1790173712034432500,11.7054326171875,-0.11349644804289696,-9.801620782110826,0.29282823719861667
1790173712044504300,11.71550439453125,-0.11576714321266189,-9.801401660771337,0.2992173140251952
1790173712054576600,11.72557666015625,-0.11893695326186528,-9.801169872020113,0.305445384651337
1790173712064647400,11.7356474609375,-0.12204925344868332,-9.800945988495991,0.3113715620770285
1790173712074719500,11.745719482421874,-0.12615688729505103,-9.800663368580995,0.3185291185335838
1790173712084790500,11.75579052734375,-0.13356975782814545,-9.80034008854121,0.3253818208606053
1790173712094862300,11.7658623046875,-0.13927145044909947,-9.800069123632927,0.331093938674025
1790173712104934400,11.775934326171877,-0.1395731935412873,-9.799960986002008,0.3341658192307792
1790173712115005400,11.78600537109375,-0.1367927593591945,-9.799998132595947,0.33424238951163737
1790173712125077500,11.796077392578123,-0.1360683124621553,-9.800039992045328,0.33328294892359134
1790173712135148500,11.8061484375,-0.1384705957004405,-9.799971059581528,0.33433093948341436
1790173712145220600,11.816220703125,-0.14183205120006637,-9.799902406133878,0.33494199110268785
1790173712155292400,11.82629248046875,-0.14446327036964596,-9.799926853040645,0.3331106323754305
1790173712165363500,11.836363525390626,-0.14405388361097868,-9.799993378832331,0.3312996848865133
1790173712175435500,11.846435546875,-0.14326228119337975,-9.800020920242734,0.33082893359543303
1790173712185507600,11.856507568359374,-0.1436953219914751,-9.800039346989507,0.3301067777724528
1790173712195578600,11.86657861328125,-0.14561443235277585,-9.800034102111914,0.3294262084792379
1790173712205650700,11.876650634765625,-0.14468808089334337,-9.800105308920815,0.32772182528949834
1790173712215721700,11.8867216796875,-0.14611181290270558,-9.8001747428144,0.3249826542210304
1790173712225793500,11.89679345703125,-0.15093998876621215,-9.800243169258534,0.32071694789768085
1790173712235865600,11.906865478515623,-0.15526815080077586,-9.800376145798952,0.3144903741336755
1790173712245936600,11.9169365234375,-0.15592725220877945,-9.8006527867702,0.3053930368806986
1790173712256008700,11.9270087890625,-0.15405460094561896,-9.800969017520407,0.2960468011110223
1790173712266079500,11.93707958984375,-0.15272088713143056,-9.80133795664377,0.2843200741294976
1790173712276151300,11.9471513671875,-0.15604306520645556,-9.80160175015394,0.273215426304284
1790173712286223600,11.9572236328125,-0.16177785586780846,-9.801794502076701,0.2627429754255952
1790173712296294700,11.967294677734374,-0.16735148610869077,-9.802013553845528,0.2508357716985095
1790173712306366700,11.97736669921875,-0.1709152979537889,-9.802294938202474,0.23704580731415276
1790173712316437800,11.987437744140625,-0.17124224780678693,-9.802666092443731,0.22091842611551904
1790173712326509800,11.997509765625,-0.17243449591438642,-9.803086868870977,0.20035162519754243
1790173712336581600,12.00758154296875,-0.17398310454055327,-9.8034906565248,0.17800730813342924
1790173712346652700,12.017652587890623,-0.17413395442435184,-9.803909135021497,0.15303751334891524
1790173712356724700,12.027724853515624,-0.17773249264087904,-9.804192092022161,0.12892855605887563
1790173712366795800,12.037795654296875,-0.18247215266070754,-9.804397418111156,0.10436824976443045
1790173712376867800,12.047867919921876,-0.18511018417272904,-9.804575577670448,0.08015133979632605
1790173712386939600,12.057939697265626,-0.1877146803600574,-9.804701800348893,0.0545030611251753
1790173712397010700,12.0680107421875,-0.19311926221613748,-9.8047098419102,0.027658351833525312
1790173712407082800,12.078082763671874,-0.19755472054275214,-9.804659318767905,0.0020233935315845126
1790173712417153500,12.088153564453124,-0.19966766897305724,-9.804587331298496,-0.023933911018286375
1790173712427225600,12.0982255859375,-0.2019654357928165,-9.804452745213734,-0.04804036948142601
1790173712437297700,12.108297607421877,-0.20515715895256512,-9.804249375744833,-0.07061671517404482
1790173712447368700,12.11836865234375,-0.2095999814668241,-9.803962709203219,-0.09356368728017127
1790173712457440500,12.1284404296875,-0.20980675148407935,-9.80370536021927,-0.11716986321803614
1790173712467511600,12.138511474609375,-0.2078530772173604,-9.803448184316885,-0.13993785185659308
1790173712477583600,12.14858349609375,-0.20444118508918496,-9.803162439544568,-0.1630925343607023
1790173712487655700,12.15865576171875,-0.2029584673403201,-9.802812407285696,-0.18456533995747368
1790173712497726700,12.168726806640626,-0.20437571758402234,-9.80239833025209,-0.2039766831450384
1790173712507798800,12.178798828125,-0.20597065372535986,-9.801932134705078,-0.22381499872565117
1790173712517869800,12.188869873046874,-0.2074554695483664,-9.801446277962405,-0.2429080781120769
1790173712527941600,12.198941650390625,-0.21051915372808166,-9.800940292967914,-0.2600667384815134
1790173712538013700,12.209013671875,-0.21151990389689684,-9.800470159873958,-0.27648004220332606
1790173712548084700,12.219084716796877,-0.212769665834289,-9.79998582536835,-0.2922215901912859
1790173712558156800,12.22915673828125,-0.2145645578768639,-9.799511098298563,-0.30649918761877165
1790173712568227800,12.239227783203123,-0.21622038411910685,-9.799074072647322,-0.3190315490050184
1790173712578299600,12.249299560546875,-0.22000958106148957,-9.798623010084306,-0.3301032643973272
1790173712588371700,12.259371826171876,-0.22605798647872777,-9.798123005891853,-0.3407002802932463
1790173712598442800,12.26944287109375,-0.2315755618873384,-9.797599286755272,-0.3518551889900514
1790173712608514800,12.279514892578124,-0.23358538997548334,-9.797112929726689,-0.3638867742159652
1790173712618587000,12.2895869140625,-0.2335310926296834,-9.796659442785298,-0.3759071657112641
1790173712628657700,12.29965771484375,-0.23250262120401094,-9.796219214093306,-0.3878201500985132
1790173712638729500,12.3097294921875,-0.23433551499278396,-9.795788209887544,-0.3975038404707097
1790173712648800500,12.319800537109376,-0.235375723051847,-9.795414788101747,-0.40600135994049064
1790173712658872600,12.32987255859375,-0.23606183513012022,-9.7950451741374,-0.41443510563594177
1790173712668944600,12.339944580078123,-0.24040403580367922,-9.794595110075358,-0.4224876113110843
1790173712679015700,12.350015625,-0.2440216225372492,-9.794118675667924,-0.4313585380820814
1790173712689087700,12.360087646484375,-0.2454078422829075,-9.793760207212221,-0.4386691844166127
1790173712699158800,12.37015869140625,-0.2476350961485212,-9.793394739515387,-0.4455116412912235
1790173712709230600,12.380230712890626,-0.2481645764912775,-9.793019521801833,-0.4533904520000033
1790173712719302700,12.390302734375,-0.2533207537789613,-9.792525004356067,-0.46115377368681704
1790173712729373700,12.400373779296874,-0.26101805817640344,-9.791892460465856,-0.47021924968390133
1790173712739445800,12.41044580078125,-0.26123516546730396,-9.791333688658852,-0.48160389716192126
1790173712749516800,12.420516845703125,-0.2572997726802247,-9.790824186870417,-0.4938959959299178
1790173712759588600,12.430588623046877,-0.25555950388607857,-9.790325191548074,-0.5046013100105563
1790173712769660700,12.44066064453125,-0.2608680640169726,-9.789684676572845,-0.5142106113346039
1790173712779731700,12.450731689453123,-0.2659725319898226,-9.78907682510896,-0.5230857992287623
1790173712789803800,12.4608037109375,-0.2680661987773575,-9.788456000010205,-0.5335381348769866
1790173712799874800,12.470874755859375,-0.27147511315856176,-9.787874503411357,-0.5424043335072901
1790173712809947000,12.48094677734375,-0.27535456954214105,-9.787334754927691,-0.5501333181468221
1790173712820018700,12.491018798828126,-0.27430565421603087,-9.786847707230239,-0.5592577263325881
1790173712830089500,12.50108935546875,-0.27254197516044953,-9.786242450928423,-0.5705905507042104
1790173712840161800,12.511161865234374,-0.27482141752596995,-9.785570826262559,-0.5809144518456042
1790173712850232600,12.521232666015624,-0.2724959249242768,-9.785057637685316,-0.5905691049775722
1790173712860304600,12.5313046875,-0.2744177321638851,-9.78428865533397,-0.6023016290693212
1790173712870376700,12.541376708984377,-0.2772794481571843,-9.783593917294121,-0.6122051051868219
1790173712880447700,12.55144775390625,-0.2794488496859803,-9.783095063549773,-0.6191540557216987
1790173712890519600,12.56151953125,-0.27951944770564363,-9.782760424186112,-0.6243977278780016
1790173712900590600,12.571590576171875,-0.27892995333421366,-9.782448491980388,-0.6294966638591611
1790173712910662700,12.58166259765625,-0.27530336323548443,-9.78213645339072,-0.6359321521846146
1790173712920734700,12.591734619140626,-0.2710860942454529,-9.781692389462545,-0.6445112616753621
1790173712930805800,12.6018056640625,-0.2690598366738299,-9.781059826222824,-0.6548738806634603
1790173712940877600,12.611877685546874,-0.26842834132100496,-9.780324789523906,-0.6660284950075805
1790173712950948600,12.621948486328124,-0.2681823908249564,-9.779612575171257,-0.6764838883153792
1790173712961020700,12.632020751953124,-0.26753084112889935,-9.778872836808167,-0.6873484067981979
1790173712971092700,12.6420927734375,-0.2672095612194286,-9.778263638064184,-0.6960885892524478
1790173712981163800,12.652163818359377,-0.26766842922827544,-9.777579464086793,-0.7054578882557793
1790173712991235800,12.66223583984375,-0.2644702664655402,-9.776817724642424,-0.7171198363571653
1790173713001307000,12.672306884765623,-0.2669695854913949,-9.775811391012144,-0.729806797814905
1790173713011378700,12.682378662109375,-0.2674290459782161,-9.77481071218471,-0.7429255513336396
1790173713021450800,12.69245068359375,-0.2642076468079216,-9.773757356131346,-0.7577886801973114
1790173713031521800,12.702521728515626,-0.2654531701656152,-9.772549824690074,-0.7727908672332254
1790173713041593900,12.71259375,-0.2675416290274283,-9.771259847291068,-0.7882248513443607
1790173713051664600,12.72266455078125,-0.26692542944222286,-9.769983408298312,-0.8040977139607369
1790173713061736700,12.73273681640625,-0.2663414039644807,-9.768501332892232,-0.8220990092295813
1790173713071808500,12.74280859375,-0.2659425294745642,-9.767113213331754,-0.8385466572480745
1790173713081879600,12.752879638671876,-0.26554142287274146,-9.765713263641802,-0.8548252067474773
1790173713091951600,12.76295166015625,-0.2666299459367295,-9.764070681635017,-0.8730441753978967
1790173713102022700,12.773022705078125,-0.26582747934342227,-9.762334799967428,-0.8924834009649295
1790173713112094700,12.7830947265625,-0.266247815388362,-9.760624243496448,-0.9108807799752102
1790173713122166500,12.79316650390625,-0.26621961365730423,-9.758770605699736,-0.9305364049286051
1790173713132237600,12.803237548828124,-0.2662120998201866,-9.756650802319175,-0.9525129650196053
1790173713142309600,12.8133095703125,-0.26885716614015287,-9.754276748524422,-0.9758121375992277
1790173713152380700,12.823380615234376,-0.27283800997613017,-9.751690053500097,-1.000246324039744
1790173713162452700,12.83345263671875,-0.2771117882457009,-9.74902731674592,-1.024719848863411
1790173713172524800,12.84352490234375,-0.2830934575415329,-9.746226491950372,-1.0494277761471236
1790173713182595800,12.853595947265624,-0.28858446559833106,-9.742980294630483,-1.0777056522900688
1790173713192667600,12.863667724609376,-0.29505016203467066,-9.739202199863849,-1.1096253916512913
1790173713202738700,12.87373876953125,-0.3034078824753417,-9.735105034361274,-1.142826659900083
1790173713212810800,12.883810791015623,-0.3042857715059207,-9.730762159430089,-1.1790071115737992
1790173713222882800,12.8938828125,-0.30111729393753384,-9.726207187363874,-1.216805500618779
1790173713232953900,12.903953857421875,-0.3062580109002821,-9.721327808799485,-1.253944852521387
1790173713243025700,12.914025634765624,-0.31699327083253703,-9.716213772768782,-1.2903896031485926
1790173713253097700,12.92409765625,-0.32969110078832,-9.71048077922044,-1.329756291918613
1790173713263168500,12.93416845703125,-0.34392574174892276,-9.704615748626818,-1.3684100713940677
1790173713273240600,12.944240478515624,-0.35545901309995803,-9.698477289956278,-1.408392388171989
1790173713283311000,12.95431103515625,-0.3631466955960947,-9.69225777078294,-1.4486675254251762
1790173713293383200,12.964383056640624,-0.3698388974097286,-9.68599199591009,-1.488345322561308
1790173713303455200,12.974455322265625,-0.37902310843559506,-9.679686835194191,-1.5265643677872973
1790173713313526000,12.984526123046876,-0.3898773627130724,-9.673171127172367,-1.56465900541716
1790173713323597800,12.994597900390623,-0.3970022104222394,-9.666668285756657,-1.6025917214834144
1790173713333668900,13.0046689453125,-0.4059163057118988,-9.660152486689181,-1.6392336888623085
1790173713343741000,13.014740966796875,-0.41895103917334076,-9.653790997371688,-1.6730735297027273
1790173713353813000,13.02481298828125,-0.4293034435030623,-9.647752547452843,-1.7049799923963413
1790173713363884000,13.034884033203124,-0.43599016431429455,-9.641947497858874,-1.7358446947339032
1790173713373955800,13.044955810546876,-0.4412595513368163,-9.636605894822374,-1.7639456749881945
1790173713384027000,13.05502685546875,-0.4472559214502368,-9.631149085309477,-1.7920110720706388
1790173713394099000,13.065098876953124,-0.4527833865928294,-9.625813285145567,-1.819087589818172
1790173713404171000,13.0751708984375,-0.4604345982199541,-9.62058389888639,-1.8446581773226438
1790173713414242000,13.085241943359376,-0.4607211965480615,-9.61576459821758,-1.869541886459042
1790173713424314000,13.095314208984377,-0.45780955123652256,-9.611513939332575,-1.8919813599831408
1790173713434385200,13.10538525390625,-0.46047397247633315,-9.607551227220682,-1.9113626304696927
1790173713444457000,13.11545703125,-0.46624424147159305,-9.60372698637791,-1.9290995883708186
1790173713454529000,13.125529052734375,-0.4722470376278199,-9.600193479940886,-1.9451602967232855
1790173713464600000,13.13560009765625,-0.4752572099902483,-9.597343702292463,-1.9584457122362935
1790173713474672000,13.145672119140626,-0.4768931123994869,-9.595154411627128,-1.9687453210103847
1790173713484743200,13.1557431640625,-0.47561087724422735,-9.59315274106979,-1.9787884158994822
1790173713494815200,13.165815185546874,-0.47572445555097753,-9.591471034048427,-1.9868970491688513
1790173713504887000,13.175886962890624,-0.4791448205683079,-9.590065416602105,-1.9928480953942294
1790173713514957800,13.185957763671874,-0.477700716483003,-9.589836773081787,-1.9942951714854609
1790173713525030100,13.196030029296876,-0.47649054699051985,-9.589928401352099,-1.9941425156622294
1790173713535101000,13.206100830078125,-0.4775850219426681,-9.589913616118984,-1.993956163228737
1790173713545173000,13.216173095703123,-0.4767326379281674,-9.58975587074701,-1.994914658324304
1790173713555244800,13.226244873046875,-0.4753337366776392,-9.590276694664418,-1.992744022915207
1790173713565315800,13.23631591796875,-0.4692680147655868,-9.5915642371936,-1.9879800280140676
1790173713575388000,13.246387939453124,-0.46389895688121957,-9.592866169724823,-1.9829503330354306
1790173713585459000,13.256458984375,-0.46024682030409086,-9.594480334980965,-1.9759795761715322
1790173713595531000,13.266531005859376,-0.45702403187334145,-9.595865907156904,-1.96999511465159
1790173713605603000,13.27660302734375,-0.4483180834858408,-9.597250898941319,-1.9652390492613008
1790173713615674000,13.286674072265624,-0.44325489629666026,-9.599056585865732,-1.9575525242722214
1790173713625746000,13.296745849609374,-0.4400337215153622,-9.601264526929974,-1.947424002192754
1790173713635817000,13.30681689453125,-0.4411317699955687,-9.60327132023849,-1.9372577781900715
1790173713645889000,13.316888916015625,-0.44011103956676995,-9.605045322534648,-1.9286716611893955
1790173713655961000,13.326961181640623,-0.4347279024224084,-9.607005207141013,-1.9201163249590354
1790173713666032000,13.3370322265625,-0.4276364747736047,-9.608932912745024,-1.912050107563293
1790173713676104200,13.347104248046875,-0.4145209160858448,-9.610944028382145,-1.9048160940799725
1790173713686175200,13.35717529296875,-0.4065309871299701,-9.612980076940534,-1.8962409034227856
1790173713696247000,13.3672470703125,-0.4017156653248911,-9.615513261419576,-1.8843895693715091
1790173713706319000,13.377319091796876,-0.40048302876102154,-9.619090239947417,-1.8663101243547746
1790173713716390100,13.38739013671875,-0.39941478000567365,-9.622443457528487,-1.8491707589584792
1790173713726462200,13.397462158203124,-0.3963737384234648,-9.624603719539813,-1.8385536707866788
1790173713736533000,13.407532958984374,-0.39513733731572737,-9.626549585682397,-1.8286095239267948
1790173713746604800,13.417604736328125,-0.3893116171839298,-9.62877967243406,-1.818084646978457
1790173713756675800,13.42767578125,-0.3822748829336184,-9.630629316418803,-1.809760587807096
1790173713766748000,13.437747802734377,-0.3791491009397433,-9.632234553822954,-1.8018550447948625
1790173713776820000,13.447820068359375,-0.37566060815274094,-9.633857957908315,-1.7938918697023205
1790173713786891000,13.45789111328125,-0.368519147956065,-9.635733850367611,-1.7852778324005414
1790173713796963000,13.467963134765624,-0.36572705186252713,-9.638338005032333,-1.7717418105010878
1790173713807035000,13.478034912109376,-0.36516271972100206,-9.641264947947356,-1.7558665707284968
1790173713817106000,13.48810595703125,-0.36579590844489984,-9.643972950153683,-1.7407930152309603
1790173713827178000,13.498177978515624,-0.36495252277313395,-9.646433416564795,-1.7272879463773827
1790173713837249000,13.5082490234375,-0.36107270396094054,-9.64852515983078,-1.7163860969195364
1790173713847321000,13.518321044921874,-0.3541493116544116,-9.650370913200893,-1.7074274295583907
1790173713857393200,13.52839306640625,-0.34859379695258325,-9.652546096862293,-1.6962393972290468
1790173713867464200,13.538464111328125,-0.34689544575727205,-9.654725502479486,-1.684141632972459
1790173713877536000,13.548535888671877,-0.3389346550638068,-9.657016234257764,-1.6725847174286463
1790173713887607000,13.55860693359375,-0.32875159055918035,-9.659550186702505,-1.6599399033831514
1790173713897679000,13.56867919921875,-0.3200270108065097,-9.66184678572759,-1.6482338532614214
1790173713907750100,13.578750244140624,-0.3164328251967614,-9.663371038179205,-1.639972376461291
1790173713917822200,13.588822265625,-0.31702302201522903,-9.664681887435659,-1.632114825815283
1790173713927894000,13.59889404296875,-0.31780530679919766,-9.666618415041953,-1.6204570786177948
1790173713937964800,13.60896484375,-0.31463074673052266,-9.66895687526557,-1.6070676129535488
1790173713948036900,13.619036865234374,-0.30489224428124845,-9.671574558022824,-1.5931365697240933
1790173713958109000,13.62910888671875,-0.2968336148427474,-9.674412975518536,-1.5773431974875425
1790173713968180000,13.639179931640625,-0.2920380464420495,-9.677564650941006,-1.5587957858308388
1790173713978252000,13.649251953125,-0.28858626656740105,-9.680909777916606,-1.5385327232329078
1790173713988323000,13.659322998046877,-0.2893381200172008,-9.683918373546188,-1.519342348523793
1790173713998395000,13.669394775390623,-0.2883341502982417,-9.686198134550999,-1.5049302355473373
1790173714008466000,13.6794658203125,-0.2829399788870352,-9.687987746453299,-1.4943958481587496
1790173714018538000,13.6895380859375,-0.27620435885254774,-9.68985323294152,-1.4835259110841963
1790173714028610000,13.699610107421876,-0.27311658224719165,-9.691953208827837,-1.4703207617656007
1790173714038681000,13.70968115234375,-0.27061838440122493,-9.694474400529366,-1.454067291482862
1790173714048753000,13.7197529296875,-0.26983944891200257,-9.697001418239882,-1.4372615982722587
1790173714058824000,13.729823974609374,-0.26844432160727655,-9.699075046087012,-1.4234687405261908
1790173714068896000,13.73989599609375,-0.2642556448301157,-9.700709638827078,-1.413075556445446
1790173714078968000,13.749968017578125,-0.25985988270093263,-9.702312661061942,-1.4028469756798987
1790173714089039000,13.7600390625,-0.2574095538151818,-9.703907209685955,-1.3922359376353488
1790173714099111200,13.770111083984377,-0.2559984557156295,-9.70503552112961,-1.384605068867361
1790173714109182200,13.78018212890625,-0.2528819227051082,-9.705943305362032,-1.3788066454562389
1790173714119254000,13.79025390625,-0.24909777460107682,-9.706788814058106,-1.3735377609051727
1790173714129326000,13.800326171875,-0.24015494330547843,-9.707652025939726,-1.3690106556632753
1790173714139396900,13.81039697265625,-0.23283321504207344,-9.708091181875087,-1.3671691810493662
1790173714149469200,13.82046923828125,-0.2279986276152971,-9.708170249316874,-1.3674115002994105
1790173714159540000,13.8305400390625,-0.22468271286074956,-9.708089061122587,-1.3685404526668936
1790173714169612000,13.840612060546874,-0.2258546925554512,-9.707751811790832,-1.370738747878161
1790173714179683800,13.850683837890625,-0.225321126984602,-9.707523360200424,-1.3724490474404902
1790173714189755000,13.8607548828125,-0.22803320251679607,-9.706913300198394,-1.376306647771515
1790173714199827000,13.870826904296877,-0.22954160987516017,-9.706253417017301,-1.380704252111849
1790173714209898000,13.88089794921875,-0.22704419692384864,-9.705518070518238,-1.3862745220191361
1790173714219970000,13.890969970703123,-0.22758187424308166,-9.704444889438804,-1.3936816046734175
1790173714230041900,13.901041748046875,-0.23300623762155992,-9.703049723388261,-1.4024679247352998
1790173714240113000,13.91111279296875,-0.24097480372951127,-9.70148982881035,-1.4118839394342302
1790173714250185000,13.92118505859375,-0.24633492395337325,-9.699803886814285,-1.422500734783089
1790173714260256000,13.931256103515626,-0.2530861441877669,-9.697920805698063,-1.4341081433355851
1790173714270328000,13.941328125,-0.2573879056602293,-9.696237149366407,-1.4446931989829828
1790173714280400600,13.951400634765625,-0.26079498856617883,-9.694504664282563,-1.4556555979452528
1790173714290471700,13.9614716796875,-0.26729404884590896,-9.692213004813484,-1.4696774416162746
1790173714300543500,13.97154345703125,-0.2709560570512098,-9.689914597282755,-1.484085246550745
1790173714310614300,13.9816142578125,-0.26773029797681597,-9.687766262673264,-1.49863385164844
1790173714320686300,13.991686279296877,-0.26273998191712683,-9.685518236179817,-1.51396328272374
1790173714330758400,14.00175830078125,-0.2611208186501762,-9.683203576851911,-1.5289759146037978
1790173714340829400,14.011829345703124,-0.26215978158927783,-9.680955991690624,-1.5429711030656843
1790173714350901200,14.0219013671875,-0.26806268047932963,-9.678695124344916,-1.5560831217656366
1790173714360972300,14.03197216796875,-0.2744302491930242,-9.676460913494257,-1.5688134758422605
1790173714371044400,14.04204443359375,-0.2820851192073048,-9.674098852158048,-1.5819657251705719
1790173714381116400,14.052116455078124,-0.2895109650468842,-9.6714551550639,-1.5967221063909336
1790173714391187500,14.0621875,-0.29579562232026474,-9.6687194923677,-1.6120669707995565
1790173714401259500,14.072259521484376,-0.3058697569677631,-9.66594369729282,-1.6267688316866336
1790173714411330600,14.08233056640625,-0.3124593939527796,-9.663241896037551,-1.6414967909952118
1790173714421402400,14.09240234375,-0.31808141144817337,-9.660833019429347,-1.6545444101049736
1790173714431474400,14.102474365234375,-0.32853310538484914,-9.658002987003,-1.668963634579825
1790173714441545500,14.11254541015625,-0.3416534434731606,-9.654960387726577,-1.683868307926795
1790173714451617500,14.122617431640624,-0.3481614271950175,-9.651938026767974,-1.6997807931961266
1790173714461688600,14.1326884765625,-0.34890073927454285,-9.649338902071525,-1.7143247768773195
1790173714471760400,14.142760498046876,-0.3451716534168182,-9.64708834116388,-1.7276969152731545
1790173714481832400,14.15283251953125,-0.3445319453313341,-9.644753229848769,-1.7408106339014227
1790173714491903500,14.162903564453124,-0.34727436349003277,-9.642608491157658,-1.7521103517679129
1790173714501975600,14.1729755859375,-0.3475901070770631,-9.640906575846541,-1.7613875784812412
