time,seconds_elapsed,z,y,x,vertical,horizontal
1789997626669441300,1.573441162109375,-2.352079843741655,-0.6819219412088394,-0.8143324427705257,0.6891719446806975,2.487061817336159
1789997626679511300,1.58351123046875,-1.3465034560382363,0.2280816103994846,-0.5332850389242172,-0.21965003301550975,1.4495653051387598
1789997626689582300,1.593582275390625,-0.4956488069584593,1.8707523710697889,-0.4471159179251641,-1.8523800575622973,0.7169260353133671
1789997626699652000,1.603652099609375,-0.0344762700974941,2.027718125760555,-1.519497093205154,-1.9479976670572619,1.6208040955452054
1789997626709723100,1.61372314453125,0.2763771470129489,1.000881507885456,-0.977285528242588,-0.9458098216123282,1.067088986576158
1789997626719793400,1.62379345703125,-1.6845780575513838,-0.597363251081109,0.0277691006090491,0.5712907051606747,1.6938252976241204
1789997626729864400,1.633864501953125,-1.835962212717533,-1.6427192759871485,1.380094759994745,1.5441831379205684,2.3642004672516967
1789997626739934200,1.643934326171875,0.6095943716228008,-2.0857553041875363,1.9757140900179744,1.9908561576011643,2.159147612391918
1789997626750005200,1.654005126953125,3.6327673040449615,-0.4377092802196741,2.6854309238642453,0.35172814845185363,4.525087209740993
1789997626760076300,1.664076171875,1.5914228039920328,0.1655284158527851,3.328754838870465,-0.3122944858548608,3.6800960760459476
1789997626770146300,1.674146240234375,-0.5856324447443708,-0.651877516078949,3.7125773383408784,0.45363605160950526,3.787526169170176
1789997626780217000,1.684217041015625,0.736496411961317,-0.9744827457815408,3.025391192993521,0.8294805731969475,3.155471032348332
1789997626790287400,1.694287353515625,1.512939049863815,-0.4640513437002897,2.238848893620073,0.3707946819985501,2.7164837364612153
1789997626800358400,1.7043583984375,2.42195242139101,-0.7222258945465088,1.096448060370237,0.6996361903169775,2.664614667174915
1789997626810428400,1.714428466796875,1.1289677895724772,0.0172042327791452,0.1065549794889986,-0.006639935917957408,1.1340961733568238
1789997626820499200,1.724499267578125,0.1272702891290187,-0.505605004838109,-0.86603888380602,0.5507979419198995,0.8476314782103767
1789997626830569200,1.7345693359375,0.3509714924871921,0.3840022399514913,-0.993743472699076,-0.32789962674114903,1.0726819813632948
1789997626840640300,1.74464013671875,2.090676978498697,0.0158107325941324,-1.336931325572729,0.08185618729646248,2.480295373859441
1789997626850710300,1.754710205078125,-0.6290169380385429,0.9685176998972892,-1.791362900273502,-0.8848418771148996,1.9390009634690215
1789997626860781300,1.76478125,-2.210544882416725,-0.1504477510988712,-2.06545719704628,0.2241506740654268,3.0207636635684976
1789997626870851300,1.774851318359375,-1.4552104989945889,-0.7725199115008116,-2.506171504300833,0.8784772804079777,2.8676816222910455
1789997626880922400,1.78492236328125,0.5985094619741663,-1.3422797008633611,-2.720187472207844,1.4873829975628055,2.710542394787439
1789997626890992000,1.7949921875,0.7200386136353015,0.6428279481828212,-2.7382904073923826,-0.4923100371993499,2.861389270718107
1789997626901063200,1.805063232421875,2.491800449120998,2.086727364090085,-2.55281985822916,-1.9185793230835104,3.6605249869229866
1789997626911133200,1.81513330078125,1.2837222979545593,2.997999328199029,-1.5751900465935469,-2.8954447065231794,2.175676112040082
1789997626921204200,1.825204345703125,-1.7602128519892692,1.5958178240805865,-0.97221801571995,-1.5689747517017054,2.0318734976800363
1789997626931274200,1.835274169921875,0.3741781440189108,-0.1162801085591316,0.0427311439519748,0.11923341899546926,0.3756856259774327
1789997626941345300,1.84534521484375,-1.5337643957495688,-1.6168039134860035,-0.185008119283244,1.6022744294258429,1.559946400791229
1789997626951416300,1.855416259765625,-2.46074480112195,-1.7532208011448382,0.5001388118540868,1.6905026901749636,2.5537007732797674
1789997626961486300,1.865486328125,-1.6255308252990246,-1.8279022403806449,0.8412914691057055,1.759519720040165,1.8961642215709387
1789997626971557400,1.875557373046875,-1.058549268478155,-0.7920178081750869,1.355525843666494,0.7069159310417337,1.7565702210698169
1789997626981627100,1.885627197265625,0.7195417700290679,0.90456515994668,1.9172749066613608,-0.9907547808446737,2.0075673137787136
1789997626991698200,1.8956982421875,2.0254326451718807,1.2559464022785425,2.563762692525983,-1.3560965834573218,3.227020292072523
1789997627001768400,1.9057685546875,1.403580849522352,0.9444131862103938,2.9206355180114505,-1.0719654440367714,3.2004620577808787
1789997627011839500,1.915839599609375,-1.5017372723698614,0.5471306089252234,2.7088117994517087,-0.7055395038767881,3.0650354177017034
1789997627021909200,1.9259091796875,-0.5687164177894592,-0.1916203039646148,2.252575951807946,0.06860606151953705,2.330139122829583
1789997627031980300,1.935980224609375,2.539907769685984,0.5950497134417295,1.962132870041579,-0.658212009449351,3.197176565392122
1789997627042050300,1.94605029296875,0.5575310069084167,1.2369283980756998,1.2019460050869732,-1.2885194549864276,1.274842931068939
1789997627052121000,1.95612109375,-0.5700000278592109,0.4621604153871536,1.116675586493313,-0.5264379434187624,1.2281366937395595
1789997627062191400,1.96619140625,-0.8221031498372554,-0.9922755921036004,0.8085584624789655,0.9380898972284386,1.1975886487526397
1789997627072262400,1.976262451171875,-1.194109247046709,-1.8686229578256608,-0.2222917384190484,1.8604435775081345,1.2271153019474883
1789997627082332400,1.98633251953125,-0.3486976658036932,-2.4056869307667017,0.3112477501902729,2.381544660185183,0.577961819275811
1789997627092403200,1.9964033203125,1.3526491191864012,-0.8732669353634118,1.0312058459352702,0.8386660042143899,1.7182198957353794
1789997627102473200,2.00647314453125,0.2443570378959178,1.5900199514567852,0.5003591400738805,-1.6098210244537159,0.4966984460235069
1789997627112544300,2.016544189453125,0.4657633352499455,1.634662810781598,0.8947923923425376,-1.6713552690455364,0.9467222292960867
1789997627122615300,2.026615234375,0.5454629314413294,0.3548030334740877,0.5978701776899397,-0.3770373153434541,0.7991912251448859
1789997627132685300,2.036685302734375,-2.729464711380005,-1.1249310814023017,-0.5339136922165751,1.1119457110134394,2.7864113327125337
1789997627142756000,2.046756103515625,-2.16299636477828,-1.5416332294285295,-0.8074369111031293,1.5500047636636245,2.303177345788667
1789997627152826400,2.056826416015625,0.9967921196799724,-1.0079010312587022,-1.0213706075541675,1.072598682937366,1.379198681120688
1789997627162897400,2.0668974609375,1.3582745578527449,-0.1292325291126966,0.0768877171084284,0.14434578928743183,1.3589285614954405
1789997627172967200,2.07696728515625,-0.3391372988412156,0.4216027795493602,1.191427460616827,-0.4864785102035294,1.2147432091644217
1789997627183038200,2.0870380859375,-2.011869399243593,0.4739268410265445,1.7937689385019242,-0.593057508905417,2.6717250843085254
1789997627193108200,2.097108154296875,-2.2457541429638863,0.2198743385463953,2.4293327409006653,-0.3750312658656881,3.2943535801467627
1789997627203179300,2.10717919921875,-0.5145698170602321,0.4407727594435214,1.7946017360642552,-0.5388169787342716,1.841014496577734
1789997627213249300,2.117249267578125,0.1660228848388418,0.580175384914875,1.8378502184212209,-0.6706019404880924,1.8144292596615248
1789997627223320300,2.1273203125,0.6012648981621489,0.8734002063542604,2.1288459656342864,-0.9720795004421691,2.1705745756456016
1789997627233390300,2.137390380859375,-0.7801485066831112,0.3402244730234146,2.085278918847441,-0.45696667171863314,2.2054373749557925
1789997627243461400,2.14746142578125,-3.3897873997211456,-0.8056091111540794,2.7708360016882416,0.6154502070286094,4.408902113474832
1789997627253531100,2.15753125,-1.185127483689785,-1.8909113620013,2.6626526903450487,1.735923459258621,3.009379009785873
1789997627263602200,2.167602294921875,2.528527128493786,-0.7372837629467248,2.051622440700233,0.6675417405129882,3.271174017152188
1789997627273672400,2.17767236328125,0.4591489220788702,1.0717360823094844,2.197509898146242,-1.1756444903281003,2.1923379638144658
1789997627283743500,2.187743408203125,-2.264387531763315,1.356532682621479,1.2542533346250653,-1.4505284229658189,2.537075192936105
1789997627293813200,2.197813232421875,-2.165740110528469,-0.1992173349648714,0.1170893791154027,0.1623481829866227,2.171973932413772
1789997627303884300,2.20788427734375,0.5162953256785869,-0.6240238789916038,-0.7794258914969862,0.6701425963981693,0.9024302109846932
1789997627313955300,2.217955322265625,2.4672061060905457,0.2131213571548461,-1.0521885012745855,-0.12435313850836201,2.687780426665016
1789997627324025300,2.228025390625,2.4535002368211747,1.0471125131845471,-1.2257839037269354,-0.9485330014531942,2.778297923394728
1789997627334096100,2.23809619140625,1.006088428878784,0.219259421518445,-1.5410329254478214,-0.12625364738951686,1.849089266229053
1789997627344166400,2.24816650390625,0.2874339630782604,0.166718502420187,-1.1292343315541744,-0.10491876037940998,1.172422949050877
1789997627354237400,2.258237548828125,1.250682782661915,-1.0069149428308009,-0.722594727858901,1.0599905767350366,1.4059332284661705
1789997627364307200,2.26830712890625,1.066527992272377,-1.4120646002292632,-0.3111540074922144,1.4410186992848917,1.0731683550174782
1789997627374378200,2.278378173828125,-0.8363596387267113,-0.5236702383607625,0.5018199333414435,0.4855572271889054,0.9948795849042864
1789997627384448300,2.2884482421875,-1.3049275830686091,-1.5971329983323812,1.1563929721146822,1.5175617199519236,1.8132625136775564
1789997627394519300,2.298519287109375,-0.9087047439694405,-1.067478424865007,2.026849818493426,0.949926221626189,2.2739865565694686
1789997627404589000,2.308589111328125,0.3662754446029663,-0.2775210563510656,1.885800594858825,0.18628624736679136,1.9320240566952598
1789997627414660000,2.31866015625,2.9212744004368782,0.3603226736783981,1.6398405056804417,-0.4020081419911374,3.345316560455484
1789997627424730400,2.32873046875,1.2675684510111809,1.2839192818313836,1.705051082868129,-1.3510217817147407,2.0825748103680226
1789997627434801400,2.338801513671875,-0.2653109968637116,1.2168056475013491,1.87532888520509,-1.3143510262722164,1.827661269565488
1789997627444871200,2.34887109375,1.264048460191488,-0.413652697327733,0.860059517135471,0.38715599414446916,1.5358188932723442
1789997627454942200,2.358942138671875,-0.942596492177248,-1.7191601261109113,0.7723068532720208,1.6641005658853076,1.292759400857587
1789997627465012200,2.36901220703125,-1.2065735918223857,-1.2445388730794191,1.1118382294647395,1.169120050123662,1.695299205446371
1789997627475083300,2.379083251953125,0.0266799353991635,-0.4771078091502189,-0.0490666671164333,0.47931691312365227,0.03172562246124284
1789997627485153300,2.3891533203125,2.134281142425537,0.2886363246053457,-0.145850778697431,-0.25062255362022445,2.144044707569891
1789997627495224300,2.399224365234375,0.9271218596696852,0.8030126649200916,-0.8827617628090083,-0.7438277455158339,1.315436390547997
1789997627505294300,2.40929443359375,1.1617840175032614,0.0135649994939565,-0.997228976727277,0.05366414439300497,1.5301999556163854
1789997627515365400,2.419365478515625,-0.6835609405875206,0.1103922195643186,-1.2466172867886722,-0.05642598155186201,1.4248904413896153
1789997627525436200,2.429436279296875,-1.6335153943121432,-0.4803273557186126,-0.9698008715756236,0.5059378129961074,1.8930471658138754
1789997627535506200,2.439506103515625,-1.3988485603034495,-0.7086486200928688,-1.441711258213222,0.7612888981688494,1.989454881872462
1789997627545577200,2.4495771484375,-0.3184101161003113,-0.4103302749067544,-1.093966764948517,0.46095975674742395,1.1198371854923135
1789997627555647200,2.459647216796875,-1.2421171988904476,0.0985690953016281,-0.8044285230673849,-0.07503533837175132,1.4812312274077413
1789997627565718300,2.46971826171875,-1.2219137842953205,-0.800911893248558,-0.7583110611453652,0.8211260384427901,1.42664671570945
1789997627575788300,2.479788330078125,0.71228317720294,0.0027244565278291,-0.936314927689731,0.05503077708504504,1.1751646712600448
1789997627585859300,2.489859375,0.1043850881040096,-0.4861813424438237,-0.0696446141123771,0.4905245430113026,0.10725944870907676
1789997627595929000,2.49992919921875,-1.4347054711043834,-0.1761351500630378,0.8424817018035798,0.11269899162286057,1.669274613437114
1789997627606000000,2.510000244140625,-0.8058803293108939,0.1798427724093198,0.8509280431095511,-0.23431856125976974,1.1623079946199746
1789997627616070100,2.520070068359375,-0.2934813900163397,0.4771323590695858,0.7370382637530565,-0.5181468375834399,0.7671609161679389
1789997627626141200,2.53014111328125,0.0571078251549974,0.7094587674319743,0.7566932506851851,-0.7461913121168745,0.7227560084384215
1789997627636211200,2.540211181640625,0.4316027800381183,0.9559306055247784,0.4921724726174026,-0.9735528396418338,0.6281026138643683
1789997627646282200,2.5502822265625,-0.107776447575353,0.8254010223388671,0.4928112819775939,-0.8508662310189692,0.46020889483579475
1789997627656352300,2.560352294921875,1.0380395644128322,1.1178969449818137,0.313280790387839,-1.1176071049356184,1.0845823756218378
1789997627666423000,2.570423095703125,0.9809154091775416,-0.6575894639849662,0.5644909090489149,0.6417983951727361,1.1407733120381762
1789997627676493000,2.5804931640625,-0.0474433036983013,-1.3161959960579872,0.5960498303949833,1.2833342337921039,0.665545950176251
1789997627686564000,2.590564208984375,-1.486892754459381,-0.6934183177351951,0.1892491909191012,0.6617845187739502,1.513121123244659
1789997627696634400,2.60063427734375,-1.4627262814521789,-0.3267839766919612,0.5883742542658,0.2756804338864979,1.5863607733830662
1789997627706705200,2.610705078125,-1.2652034754455088,0.3942097457110881,0.1568311685256659,-0.41953768851646595,1.2667775263353789
1789997627716775200,2.620775146484375,-0.2754301850190386,0.9470698381990194,-0.2998016425464302,-0.9343753396154905,0.4354616112103485
1789997627726846200,2.63084619140625,0.226353745427262,1.2159861478120089,-0.0434879171360284,-1.2088712603338214,0.265291923388908
1789997627736917200,2.640917236328125,-0.8873322855949402,0.4375719175755977,0.397520843020454,-0.4697514852168942,0.957175078489897
1789997627746987000,2.650987060546875,-2.204087084579468,-0.7317547703921794,0.7423804284986109,0.6617586325174226,2.3466293131443194
1789997627757058000,2.66105810546875,-3.59364291588068,-2.183506068843603,1.336163994462043,2.0615936443406335,3.9009145113995145
1789997627767128300,2.67112841796875,-1.2433201449394224,-1.7050567819565534,0.8971874707855284,1.6394049689785803,1.6032343303245158
1789997627777199400,2.681199462890625,0.442174479467608,-0.6910603564321994,0.7864180154066532,0.6563027428499864,0.9277945307062185
1789997627787269000,2.69126904296875,-0.2607248198509216,0.7868722619801759,0.5357612197794019,-0.8167414030662671,0.5541831407548882
1789997627797340200,2.701340087890625,-0.6034019832560792,1.3462760770231486,0.3747675978120416,-1.3720117389693534,0.6592327126761138
1789997627807410200,2.71141015625,0.523773698735237,1.8057874392062423,0.4147796555310487,-1.8169776091396148,0.6370570567928536
1789997627817481200,2.721481201171875,1.0794178689837457,0.6127788468778133,0.0075519497495144,-0.5970416707247092,1.0882275159292658
1789997627827551200,2.73155126953125,-1.7383879736721517,-0.7937924166321754,0.0473612514380365,0.7656867236172776,1.7515895858119088
1789997627837622300,2.741622314453125,-3.0549779374837875,-1.5878542978554964,-0.0076621321257203,1.5428212417359441,3.0779754375316153
1789997627847692300,2.7516923828125,-0.838573807644844,-1.5380302365005016,-0.1520504370551556,1.5317641552638541,0.8634587119922044
1789997627857763300,2.761763427734375,0.2570598676025867,-1.222858371669054,-0.3297489639773964,1.2415760509846603,0.358727837724441
1789997627867833000,2.7718330078125,-0.3245288912415504,-0.5467161829054356,-0.301204860407859,0.5567002702660228,0.4301473734898479
1789997627877904100,2.781904052734375,-0.2464472881734371,-0.2622270411074161,0.0440193205989897,0.2561337612337919,0.2565784166258323
1789997627887974100,2.79197412109375,-0.6013444662043824,0.8505190969824791,0.8235282872695475,-0.8997698241644693,0.9765300839312017
1789997627898045200,2.802045166015625,-0.29725981257651,0.9052057959377764,0.7703693824034183,-0.9473727521510859,0.776990851296633
1789997627908115200,2.812115234375,2.7061995711266995,0.7202385201215744,0.153394252879545,-0.6887712615525061,2.7187099129383205
1789997627918186200,2.822186279296875,2.644136205923557,1.2777484842419624,-0.6193000653401017,-1.207033440908643,2.7478537639250296
1789997627928256300,2.83225634765625,0.6213292330801486,2.185010628187656,-0.038908553456515,-2.1711889163175377,0.6691591935891892
1789997627938327300,2.842327392578125,0.4944190094351768,0.9195178144067524,0.4105032203208655,-0.9321438868236879,0.6241665130822551
1789997627948398000,2.852398193359375,1.2567618103146552,-0.6422773285627364,-0.5185125633366405,0.6855564201755465,1.3382219874688497
1789997627958468000,2.862468017578125,0.6351414853334426,-1.458507202452421,-1.1700767026174812,1.5250328687015722,1.2545924459302353
1789997627968539100,2.8725390625,-0.2853144867062568,-1.297020170944929,-0.4587383685166016,1.3145320939707166,0.49609670915326975
1789997627978609200,2.882609130859375,0.6923381212830543,-0.764404409584403,-0.2703594210933894,0.7868943941159829,0.7194008650652441
1789997627988680200,2.89268017578125,1.7276865469157694,0.257616916963458,0.0278491801079362,-0.23424164129096156,1.7312347358511189
1789997627998750200,2.902750244140625,2.0005589006781577,1.2014496729373931,-0.0387383114561438,-1.1695056994102306,2.019770855197547
1789997628008821200,2.9128212890625,1.4458558106720447,1.262922086510062,0.2431768516680225,-1.2530923744649953,1.474573058242248
1789997628018891000,2.92289111328125,1.2924527168989182,1.3497779476642608,0.4866133406529203,-1.3543923650556902,1.3764986008712063
1789997628028962000,2.932962158203125,-0.2539770991563796,0.543871314868331,0.5403973551474511,-0.5742206876893523,0.5679791169685946
1789997628039032300,2.9430322265625,-2.198745723551512,-0.35989012748003,0.3715281044341623,0.3093733819814893,2.237481821959551
1789997628049103400,2.953103271484375,-0.3804582472017034,-1.5436340478569268,-0.4575571959080174,1.559395645647264,0.5524476078602518
1789997628059173000,2.963173095703125,-0.400756427408196,-1.7808301080822944,-1.377155783933401,1.8428000982767967,1.3537383199768058
1789997628069244200,2.973244140625,-1.7956103285849094,-1.6032342378169298,-1.2851190130099654,1.6410394269546762,2.1801598451052193
1789997628079314200,2.983314208984375,-1.4504384622871875,-1.2566343845427037,-0.4706732460580766,1.2583330054006832,1.5234937024389605
1789997628089385200,2.99338525390625,-0.843219587624073,-0.8351660450279712,-0.079826510506682,0.826138764747776,0.8557970605705929
1789997628099455200,3.003455322265625,0.0678419120719656,0.6342892524182796,0.9194355429507792,-0.6792620472444469,0.8893200602603076
1789997628109526300,3.0135263671875,0.303009096818231,0.8686112185120582,1.9685062044657768,-0.9633505445661344,1.9476325030621138
1789997628119596300,3.02359619140625,-0.9688825146216898,0.8951812455296516,1.893762952040136,-1.0040648470183802,2.0780458827921473
1789997628129667300,3.033667236328125,-1.95773448895216,0.58656304012537,0.658991951194033,-0.6469866794992628,2.0475495494768685
1789997628139737000,3.043737060546875,-2.619789700174332,-0.832068663534522,0.1070206242393702,0.788406558688049,2.635432572881707
1789997628149808000,3.05380810546875,-1.0634218429505824,-0.6659732614487409,-0.6081123163715004,0.6809691324193468,1.2167448504283223
1789997628159878100,3.063878173828125,1.4094213922441006,0.6434510485172271,-1.2490372074119749,-0.5590171780880191,1.9099978148823182
1789997628169949200,3.07394921875,0.677979925584793,0.6993892088383435,-0.1859786082832142,-0.6793534557673823,0.7224049901622789
1789997628180020000,3.08402001953125,-1.243923371529579,0.2022925046265125,0.3721800655368715,-0.23855348632956058,1.2922375350563937
1789997628190090200,3.09409033203125,-1.6772691958427428,-0.4099526737660169,0.6765006468124687,0.3512112982931193,1.8208780571855485
1789997628200161300,3.104161376953125,-0.0606056041428819,-0.3850134628206491,0.878180353302881,0.33890045912094624,0.8990303763174278
1789997628210231300,3.114231201171875,0.6855377205532044,0.963180430522561,0.509404835512489,-0.9780788116175525,0.836978872344584
1789997628220302000,3.124302001953125,0.47323352500014,1.2264935133010149,0.3063374375233426,-1.2336859805541827,0.5478118603735752
1789997628230372000,3.1343720703125,-0.2854045396098867,1.1181254930406808,0.2823458826916292,-1.1349765746396994,0.35100960372822737
1789997628240443100,3.144443115234375,-2.3435189361453057,-0.2779366514146328,-0.0414495797088369,0.24651627009601468,2.3473980451783616
1789997628250513400,3.154513427734375,-2.8347546393692493,-1.1176561219632626,0.0400633495148271,1.0739643680977364,2.8518756425233938
1789997628260584200,3.164584228515625,-0.449658697743155,-1.4633797769248484,-0.4195235621225088,1.4763381637236153,0.5831800420777714
1789997628270654200,3.174654296875,-1.420325063574314,-0.3781102593034505,-0.4724705047383904,0.3815539673858444,1.4959731288454925
1789997628280725200,3.184725341796875,-3.1545863127052782,-0.6711936264455318,-0.5066314252763986,0.6514409154533344,3.199096094717929
1789997628290795000,3.194794921875,-1.9039748417139053,-0.5858253735005855,-0.846439937910065,0.601181828430571,2.079267309359396
1789997628300866000,3.204865966796875,-0.178751470041275,-0.3606470833271741,-1.0017641359388827,0.4086260282097485,0.9992870257724837
1789997628310936300,3.214936279296875,1.073586678612232,0.3066992200404405,-0.4442116478510201,-0.26846796599678835,1.1712820784879807
1789997628321007400,3.22500732421875,-1.1034919875323772,1.037210127851367,-0.1335419715433381,-1.044566437250184,1.1046328947662858
1789997628331077000,3.2350771484375,-0.7508546076595782,1.1502975778490303,0.3145862469632178,-1.1753279253902902,0.7775190891708862
1789997628341148200,3.245148193359375,0.3570201250016689,0.4053443031877279,0.5153182973399758,-0.4259693330542588,0.6130827420941105
1789997628351218200,3.25521826171875,1.0676479362130165,-0.5137824660748243,0.0735455488073639,0.5244184071518508,1.065006488306777
1789997628361289200,3.265289306640625,-0.4407271302035078,-0.324233123165369,0.0944758894375525,0.31273633683367436,0.458791018617257
1789997628371359200,3.275359130859375,-1.158981819564104,-0.1647282053858041,0.6735179777398705,0.11381115091941588,1.345751733417034
1789997628381430300,3.28543017578125,-1.3996563695549964,-1.0215578006893395,0.520582428413257,0.9738273243819583,1.5248884221623669
1789997628391500300,3.295500244140625,0.1388508733401074,-1.6396669026792048,0.6575682020012289,1.6058551434846775,0.7492745259221497
1789997628401571300,3.3055712890625,2.0387609133005142,-0.227858907559514,0.3022277371821925,0.24098340053537348,2.0595471223414235
1789997628411641000,3.31564111328125,1.1776608010709284,1.0573206034660338,-0.0639009558938443,-1.0359343671779875,1.1982216572723465
1789997628421712100,3.325712158203125,0.8727449573159217,1.336067986741662,0.4698767253855243,-1.3457849297445112,0.9779613927184818
1789997628431783200,3.335783203125,1.443325999933481,0.5339607462286949,-0.434094158462435,-0.4906981513040271,1.5218268900617795
1789997628441853200,3.345853271484375,-0.1482301115820184,0.0892599996864795,-0.5890730136523022,-0.06123535433340572,0.6108983224045681
1789997628451924000,3.355924072265625,-0.7824620443224907,-0.7594996864080429,-0.2591400531438179,0.7605682286387796,0.8232716205408132
1789997628461994200,3.365994140625,-1.3081249178051948,-0.4871487261712551,-0.8933886630244553,0.5134604149099166,1.5757558146915671
1789997628472065300,3.376065185546875,-1.4081927272319792,-1.337593588873744,-1.5773486859321593,1.3961295974405499,2.0762982421096394
1789997628482135300,3.38613525390625,-0.8370446983814239,-1.188099777498841,-1.018650242679566,1.2264725047809457,1.2828243918435354
1789997628492206000,3.3962060546875,1.002388405317068,-0.6291776084929704,-1.1395059885911645,0.7004992306524198,1.486075941543205
1789997628502276000,3.406276123046875,1.925696844178438,1.1986007132470606,-1.377439569310844,-1.0995513661526004,2.4152181197089324
1789997628512347100,3.41634716796875,1.5267840353429316,2.0430033731758592,-0.3226420545816421,-2.002126933107746,1.6126121395100625
1789997628522417400,3.42641748046875,0.3626186391284689,0.8898603427678347,-0.5272372831925749,-0.8566410836117411,0.6837316094280418
1789997628532488200,3.43648828125,-1.4920412232637406,-0.519613071924448,-0.2399621274052187,0.5100052377223696,1.5144838185063942
1789997628542558200,3.44655810546875,-0.2325625552058219,-0.954021557033062,0.1940594772776588,0.9395176848078215,0.34526522272345683
1789997628552629200,3.456629150390625,1.9075766655981536,-1.2267910349428652,-0.7528154594037682,1.2903882316468647,2.011341419574345
1789997628562699000,3.466698974609375,1.6805775897383688,-0.3758446524590254,-0.440831175099872,0.4215341630861136,1.7269167067939597
1789997628572770000,3.47677001953125,0.5592471266439184,0.3276420548260211,0.4375193836707621,-0.34155412267959945,0.7034704379846456
1789997628582840300,3.48684033203125,1.043628689656779,-0.0135591542750597,0.4720999909255653,0.004259638124788851,1.1455151458860529
1789997628592911400,3.496911376953125,-0.3583166310856118,0.3555219953984022,1.2881971052810548,-0.4256889217458099,1.3164449936408216
1789997628602981000,3.506981201171875,0.7763923690199852,-0.0657084437072277,1.839621027486026,-0.017078878138586898,1.9977528743408581
1789997628613052200,3.51705224609375,1.6574001277685164,-0.2834872712790965,1.2141108554594218,0.24470668079858224,2.0594960612298614
1789997628623122200,3.5271220703125,-0.7737211039841174,0.7764590045154094,1.2831876065559684,-0.8516573559380244,1.4569773897143874
1789997628633193200,3.537193115234375,-0.987677158397436,0.5459288319200277,1.4463416944928469,-0.6327831364594573,1.7219274834273863
1789997628643263000,3.547262939453125,0.2692190554192289,0.151509242850542,-0.0783605478736571,-0.14349995070233465,0.2845735231560617
1789997628653334000,3.557333984375,2.209517292934656,0.8936223256498574,-0.3244030729047953,-0.8446070353948214,2.252199777583862
1789997628663405000,3.567405029296875,2.610014156091213,0.3312614143669605,-0.2796264676650986,-0.2796481424918769,2.6309496189521813
1789997628673475300,3.577475341796875,-1.221987434053421,-0.6751596074670553,-0.5815879551265388,0.6865495182020943,1.3475860243948337
1789997628683546000,3.587546142578125,-3.3463866494119165,-1.6159510960489512,0.2380429959109052,1.554246037754875,3.383871344216507
1789997628693616000,3.5976162109375,-2.212264545816183,-1.122906882098317,0.2034967293171212,1.0796890026128634,2.2429259602177356
1789997628703687200,3.607687255859375,-0.6382979766029864,0.4602940369933843,-0.3562815815940499,-0.45053553524810885,0.737054410670604
1789997628713757000,3.6177568359375,1.3055121049582958,1.2269231368899345,-0.2839120360298082,-1.1922885884065804,1.3670245814126798
1789997628723828000,3.627827880859375,0.4524176045298576,2.1563824995964764,-0.2009332355046644,-2.1367391180873545,0.5739227124100684
1789997628733898200,3.637898193359375,-0.4834136312961578,1.375719613650441,0.2206171197377145,-1.3918677200634662,0.4875134435809442
1789997628743969300,3.64796923828125,-0.997488942837715,-0.9041869742840528,0.7696470594782382,0.8496254387919264,1.297317033523255
1789997628754039000,3.6580390625,-2.840305259233713,-2.4761112970799206,0.7820258448623121,2.3926611565000853,3.0141662418263833
1789997628764110000,3.668110107421875,-3.2124189084708688,-0.881224616369605,1.07727625384517,0.7797062723260881,3.41303007956141
1789997628774180000,3.67818017578125,-0.6097136140882968,-0.1042190838873386,0.7312052467506378,0.058216980851805655,0.9559729100069155
1789997628784251100,3.688251220703125,-0.5462988708088174,0.0937602337151765,0.3757418131390586,-0.12048827133122324,0.6587092866249529
1789997628794321200,3.698321044921875,-1.0216121612250804,0.2288017413675785,0.1398797414638102,-0.2500527203525885,1.0261976534430723
1789997628804392200,3.70839208984375,1.7922563419818878,-0.1544534796088933,0.3511004891617223,0.1617057719542007,1.8256947909067083
1789997628814462200,3.718462158203125,0.1210264628360047,0.1952291421115398,0.7440545722559094,-0.23113277120822456,0.7436105642100127
1789997628824533200,3.728533203125,-2.518705991703272,0.4634440254569053,1.530652255078405,-0.57635897538148,2.927348099363566
1789997628834603000,3.73860302734375,-1.4636182618558409,-0.1562543915510177,1.4844460919596254,0.05974762320266911,2.0896421398825034
1789997628844674000,3.748674072265625,-1.1942705750882625,-0.5330272647708654,0.702553225827217,0.4796179613014959,1.4049725683542666
1789997628854744300,3.758744384765625,-1.4472972416520118,-0.2742699456006288,0.6032302434183657,0.22270150757481147,1.5761294597372961
1789997628864815400,3.7688154296875,-0.6812333744227885,-0.3153027977347373,0.3246187249494716,0.2886980767091023,0.7651963811853122
1789997628874885000,3.778885009765625,-1.4650141001284125,-0.598870148512721,0.6853651404652744,0.542415144991926,1.6371997296002354
1789997628884956200,3.7889560546875,-2.742729851144552,-0.9493488890469074,0.2967454333135858,0.8941232535236532,2.7771265382036083
1789997628895026200,3.799026123046875,-0.1757119196822866,-0.3424555930763482,-0.4157852523770183,0.3606642861562711,0.43697730002062574
1789997628905097200,3.80909716796875,1.085575222569704,1.0312672937989231,-1.212344138047844,-0.9527398312163086,1.6745300589089185
1789997628915168000,3.81916796875,0.5595487399389967,1.263888301193714,-1.8954095502033828,-1.1576925523651358,2.0403023666756206
1789997628925238000,3.829238037109375,-0.9103145172536372,0.0932528687149286,-1.2865829480826854,-0.040482294802427723,1.578298287381365
1789997628935309000,3.83930908203125,-1.8433330337464808,-0.417466702657938,-0.7369998314388095,0.4283432378212933,1.982888283106918
1789997628945379300,3.84937939453125,-1.3890554805636406,-1.5825959389358757,-1.4327809327825902,1.6336986698663496,1.9539638920518676
1789997628955450000,3.8594501953125,0.4902735801935196,-1.8262094649881124,-1.877382602864504,1.9261892843505946,1.8411326600327265
1789997628965520100,3.86952001953125,-0.0485423144487664,-1.1098106691598892,-2.076344209502637,1.213302887449323,2.0182015403114306
1789997628975591200,3.879591064453125,-0.5319394695341587,0.4522445860505104,-1.767137682816386,-0.3691509111100644,1.8638637181179731
1789997628985661200,3.8896611328125,1.4224153138518332,0.8388508710205554,-0.752294869595766,-0.7792548160032229,1.6387939502719822
1789997628995732000,3.89973193359375,1.5682055945336817,1.0987900934517385,-0.6690714466597885,-1.0410068063986897,1.7408532063219582
1789997629005802200,3.90980224609375,0.4036602590909227,0.8359387829661369,-0.6945226987805218,-0.793696106938493,0.8450701287989751
1789997629015873300,3.919873291015625,-1.0618471409797667,0.2906061633735895,0.1816975882294587,-0.3144691953099703,1.0705580001882775
1789997629025943000,3.929943115234375,-0.7847089464664458,-0.0654039078027009,0.474586547044292,0.03004851274721868,0.9188989494702059
1789997629036014000,3.94001416015625,0.0803718694297596,-0.5350052868455648,-0.2222415060691535,0.5467110510629469,0.20781869024193414
1789997629046084000,3.950083984375,1.0145721795856952,-0.8276660446614027,-0.3938439080733805,0.8609126985872879,1.0622288540669502
1789997629056155100,3.960155029296875,0.7189373743951321,-0.0483195020109415,-0.2114741379370912,0.0691878556772483,0.7477566945335707
1789997629066225200,3.97022509765625,-0.167956483249925,-0.2873199813097715,0.0012318250835873,0.28448045604268424,0.1727267768711983
1789997629076296200,3.980296142578125,-1.3773638737261296,-0.0844061299145221,0.2797906269845552,0.05056191791301044,1.407118304485577
1789997629086366200,3.9903662109375,0.004448248113133,0.1179313828974962,0.95333956611827,-0.16624872202013177,0.9461211807885056
1789997629096437200,4.000437255859375,-0.033351613449119,0.1997691236287355,0.9141831023152918,-0.24651278512614605,0.9033173441284156
1789997629106507000,4.010507080078125,-1.186747778367996,0.3495359067261219,0.3405824926808476,-0.3831735492732945,1.2246305994095659
1789997629116578000,4.020578125,-0.0379799308368936,0.8523445588439702,0.2947013967979699,-0.8666970720303354,0.25222771605439315
1789997629126648000,4.03064794921875,1.5205284820795055,1.097992221072316,-0.2752413844486698,-1.0609385507604947,1.5709108802136946
1789997629136719000,4.040718994140625,0.4676175117492676,0.6057376961946487,-0.7969759420391171,-0.5576951895655023,0.9537982080138405
1789997629146789000,4.0507890625,1.753016218483448,0.7736310876131057,-0.4485076645445078,-0.7249198965151097,1.829541251455986
1789997629156860200,4.060860107421875,0.984262381517887,-0.374317881283164,-0.2325344616224989,0.3995553736668484,1.0016556749380447
1789997629166931200,4.07093115234375,-2.06934090661183,-1.5174971515595912,0.008080512801418,1.4856999108670328,2.092302669860498
1789997629177001200,4.081001220703125,-1.778197421491146,-1.9339841955304145,0.4446422943532466,1.8834921733238932,1.8847930765244607
1789997629187072000,4.091072021484375,-1.4649486336767672,-1.0364625243544578,1.1703658948224038,0.9547001837833097,1.9179762643344163
1789997629197142000,4.10114208984375,-1.0915373458445072,0.6107002870380878,1.329155284743756,-0.6929656383063855,1.6884492924131755
1789997629207213000,4.111213134765625,-0.9968927305102347,1.0931792678326369,1.1314018117863684,-1.1633620742866826,1.454474053253655
1789997629217283300,4.121283447265625,-1.4289163663089277,1.2951900329083204,0.8927860209561884,-1.3590497587872323,1.6338206252847083
1789997629227354000,4.13135400390625,-1.106688153225183,1.0943424663931132,0.5765377225322649,-1.1378221400871258,1.2083462356752603
1789997629237424000,4.141424072265625,-0.6101380135128274,-0.2709720730990171,0.2219774117728695,0.25066135408550805,0.6573713690436782
1789997629247495200,4.1514951171875,-1.6820459087252615,-1.6261965957313775,0.1390981260994449,1.5930531212869008,1.7191055373275232
1789997629257565200,4.161565185546875,-0.9226455910384654,-1.234641748443246,-0.0663197805386036,1.2232451796023442,0.9400450401613912
1789997629267636000,4.171635986328125,1.552013169145584,-0.7176677928507328,-0.1777390963946469,0.7476645060526356,1.5480248418138565
1789997629277706200,4.181706298828125,0.8233914360821246,0.0548725769162178,-0.1638140131503343,-0.03480970498012982,0.8405996502821209
1789997629287777300,4.19177734375,1.2352408833801745,0.5351888267189264,-0.2870044673535041,-0.5023572690263007,1.281505309686979
1789997629297847300,4.201847412109375,2.641480138456821,0.5135977571576833,0.1286870240591466,-0.4820764301526381,2.650540066415099
1789997629307918000,4.21191796875,0.6144190153002739,0.1973112090826034,-0.3472625184340402,-0.1706632356836321,0.7126764737855055
1789997629317988000,4.221988037109375,0.0121732528746128,-0.5795511155366897,-1.0016711969584229,0.6299195247933849,0.9708626384332474
1789997629328059100,4.23205908203125,2.136656639385224,-0.2867424736827612,-1.3449522810734809,0.3850452805566249,2.511604987080671
1789997629338129200,4.242129150390625,1.7804326331973075,0.9556073649197816,-1.563170669106394,-0.8494943304834023,2.409354212330332
1789997629348200200,4.2522001953125,1.080218663972616,0.8451911799579859,-1.583518898999691,-0.7480988957798138,1.9568087894057948
1789997629358270200,4.262270263671875,0.1742833481838926,0.051787470382452,-0.5296834342356771,-0.022278304529128788,0.559575593815357
1789997629368341200,4.27234130859375,-2.2734020283460614,-0.8118085503160953,-0.5875612573824822,0.8084422978336719,2.3492635414326344
1789997629378411000,4.282410888671875,-3.368074749606848,-1.2417962963730096,-0.9870430252123624,1.2426900496928268,3.509410340020068
1789997629388482000,4.29248193359375,-3.088197485518456,-1.2237111891061068,-0.6790459473811089,1.212904775711372,3.1661330021995684
1789997629398552000,4.302552001953125,0.5501344669163227,-0.0466384170562028,-1.6833739424586296,0.14007254948121128,1.7660550910618158
1789997629408623000,4.312623046875,1.3478513635158538,1.660081329676509,-0.8015708686139434,-1.597882958824474,1.6315205259453305
1789997629418694100,4.322694091796875,-0.6130360365092754,2.353686694416404,0.2162083451184444,-2.3700767893141164,0.5874830199973174
1789997629428764200,4.33276416015625,-1.857327656829357,0.7995517108112573,0.7171010258134454,-0.861216704578802,1.965067080804511
1789997629438835200,4.342835205078125,-1.8093372406423087,-1.0619371573507783,0.2343654947082512,1.0229309095400427,1.8466053492706012
1789997629448905200,4.3529052734375,-1.4303075284063815,-1.817366233319044,4.164718464e-06,1.7945985658573242,1.4587719627359177
1789997629458976300,4.362976318359375,-2.615505154722929,-1.6906284436315298,-0.1680669578870758,1.6598348818505555,2.640508741913904
1789997629469046000,4.3730458984375,-0.4802233108222484,0.0855880331754684,0.3803709707770496,-0.11162875546759932,0.6084084450782689
1789997629479117000,4.383116943359375,0.2226491004893556,0.5062263516068458,0.5783611385671421,-0.5318209197966567,0.5979179349051306
1789997629489187300,4.393187255859375,-0.1982464075734838,0.9031132075726984,0.941290670275688,-0.9525863069773595,0.9129745656453577
1789997629499258000,4.403258056640625,-0.8284183243334293,0.9515998828440904,0.8735801660310476,-1.0064693839431762,1.158439011250989
1789997629509328100,4.413328125,1.4139689725458622,0.9482768759012222,0.958564095833525,-0.9757660871559743,1.6927087633934097
1789997629519399200,4.423399169921875,-1.5839385857164858,0.539755111721158,1.053862571966648,-0.6150650738697543,1.8794994810982026
1789997629529469200,4.43346923828125,-1.8155203131914133,-0.6120505326032638,0.7687737837750465,0.5463729075281697,1.9907811629130918
1789997629539540000,4.4435400390625,0.466867022175528,-2.126411139702797,-0.2475138031600974,2.142645789748887,0.45817164237143104
1789997629549610200,4.4536103515625,-0.2458931614220142,-1.9333780463308088,-0.7228992637634277,1.9640095443255832,0.6809287570779844
1789997629559681000,4.463680908203125,-0.4290343543222173,-1.342103175252676,0.1853287478060461,1.3247230009082323,0.5145552699565341
1789997629569751000,4.4737509765625,0.287999780267477,-1.0339642777979374,0.5440034168154001,1.0088910999356422,0.6558235030660349
1789997629579822000,4.483822021484375,-1.0438684166967869,0.2732096228927373,0.9172218124240636,-0.3342963714186543,1.3761709772630195
1789997629589892000,4.49389208984375,1.1649018572628498,0.0961608651161193,1.28970297979936,-0.14522517908367094,1.734498968722029
1789997629599963000,4.503962890625,1.501340966528654,0.94807580037117,1.00185115663521,-0.9765338784924721,1.7896814647401322
1789997629610033200,4.514033203125,1.8347160120487207,1.5756161630511285,0.8082002236258238,-1.5886216995688125,1.994547025082099
1789997629620104200,4.524104248046875,1.0698667813062668,1.8580957185924047,0.9835167507823556,-1.8904504942287046,1.4108992724975038
1789997629630174000,4.534174072265625,1.9545453375220296,0.9774351658463476,1.0744370118312536,-1.003139033433358,2.218953346029935
1789997629640245000,4.544244873046875,3.6366333318233486,0.1913011550128459,0.921381489386782,-0.18652135047036056,3.751779811881443
1789997629650315000,4.55431494140625,2.327348722589016,-0.2732861952602863,0.582688025322929,0.27614715477243634,2.398855040393727
1789997629660386000,4.564385986328125,-1.186725566536188,-0.417770654040575,0.966270140166208,0.3512003778511849,1.546992620545468
1789997629670455800,4.574455810546875,0.0771358466506004,-0.2585498138993978,1.7817596440173684,0.16855030593197645,1.794172836859664
1789997629680526800,4.58452685546875,0.3762029643774032,0.8078998524397611,1.7407916738130151,-0.8900934309534817,1.7413558446706727
1789997629690597000,4.59459716796875,0.5057750641753896,1.0483920316010713,1.3694599687337874,-1.1095084919056768,1.4139822416918035
1789997629700668200,4.604668212890625,1.2912006710112094,0.5614677618354559,0.6215051741689444,-0.574070347473287,1.4279905945316946
1789997629710738000,4.614738037109375,-0.4723977317631244,0.4345125300049781,0.9234499662239104,-0.48760912716020516,1.0133893303835777
1789997629720809000,4.62480908203125,-0.8338321660757064,-0.6608318069070577,1.4141815923832357,0.5761044497070682,1.6733164666212579
1789997629730879000,4.63487890625,-0.9484989942193032,-1.6592898870378732,1.047969495340064,1.590193487081523,1.4907776521225433
1789997629740950000,4.644949951171875,-1.0126397502183913,-0.7099807454794644,1.3517384340822696,0.6258356342368476,1.7219287080969674
1789997629751021000,4.65502099609375,0.3659831471255049,0.6190162799626588,0.7869987379040568,-0.6530502087404473,0.8426252174990579
1789997629761091000,4.665091064453125,0.8709550782244652,0.1320382341831922,-0.0256868875075131,-0.11822844794674191,0.8733147736395669
1789997629771162000,4.675162109375,-1.6427742210447789,-0.6673521485865116,0.5486940588496625,0.6152469511825207,1.7511717194009968
1789997629781232000,4.685232177734375,-2.2250725894629952,-1.1095207463026049,0.0988519308310002,1.0714690617168747,2.2458205780667395
1789997629791303000,4.695302978515625,-0.4212894392838701,-0.9076900139689444,-0.1926603876020759,0.910274046309873,0.45815405561524136
1789997629801373000,4.705373046875,-1.015689785438776,-0.2192635131716728,-0.3913368206232785,0.22452024380711424,1.0873993727004725
1789997629811444000,4.71544384765625,-0.193751434241794,0.3669225103348493,-1.3316101305499672,-0.3013428489761285,1.3618185539988177
1789997629821514200,4.72551416015625,0.3753845971992239,1.035551839250326,-1.35966396638453,-0.9595604031920726,1.4632877849895203
1789997629831585000,4.7355849609375,-0.4570283131957053,0.3656681263595819,-0.8837233743827789,-0.32662040933975217,1.0084017891351922
1789997629841655000,4.745655029296875,-2.940463085031509,-0.5668325037389993,-1.0496304873548448,0.5779038992255092,3.1201560033070086
1789997629851726000,4.75572607421875,-5.412374592334031,-1.3456459624260664,0.149973923042044,1.259585492419087,5.435117142142985
1789997629861796000,4.765796142578125,-4.014951096397638,-1.9745821633785965,-0.19693989155218,1.9250707131410818,4.043722925311348
1789997629871867000,4.775866943359375,-1.2488403696656227,-2.133762671509385,-0.9495323558550328,2.161470604563196,1.5304254074139834
1789997629881937200,4.785937255859375,0.7714344543516636,0.0480763409048318,-0.6566403465665877,-0.003662521024566186,1.0141920836776825
1789997629892008200,4.79600830078125,1.3058674942672253,2.4580600920826194,-0.283263180199638,-2.421733099877369,1.4009982694807797
1789997629902078000,4.806077880859375,0.8257271855533123,2.488335403358936,-0.0906781959213316,-2.4685629971397045,0.8877261565029287
1789997629912149000,4.81614892578125,-1.279798987030983,1.3371563665002584,1.057131364504248,-1.4072172282455273,1.600980633869533
1789997629922219000,4.826218994140625,-1.1310744064629077,-0.4591004432946443,0.9630410220518708,0.3934238733659669,1.5042500443773266
1789997629932290000,4.8362900390625,-0.7664040589690208,-1.6386106716245412,1.0961512693807482,1.5696649357595869,1.4177869055601757
1789997629942359800,4.84635986328125,-0.2816296607136726,-1.801685849106312,1.5224866304099558,1.7176585804156423,1.6410367776394326
1789997629952430800,4.856430908203125,-0.2953857988655567,-0.6383014106690883,1.650384696048498,0.5491926725627724,1.7078754387800195
1789997629962501000,4.866501220703125,-0.7320388480305672,0.4274573507964611,1.270055883912742,-0.501885254191532,1.4421351537433398
1789997629972572200,4.876572265625,1.3385539583384989,1.3310469437092542,0.7242105655577034,-1.347134261516661,1.5076879287355123
1789997629982642000,4.886641845703125,1.7688766354382035,1.0133300705701112,-0.0241791863583028,-0.9856668603935306,1.7846029969423776
1789997629992713000,4.896712890625,-0.6264543210089206,1.0618085625350475,0.0705201548378914,-1.0727751678305577,0.6115627288414254
1789997630002783000,4.906782958984375,-2.7052561527967454,-0.6279582958310842,-0.0834129541587084,0.5930698155866077,2.714400189417411
1789997630012854000,4.91685400390625,-1.47156425242424,-1.9800018503397705,-0.198176812935993,1.9665150273647187,1.5026647572549352
1789997630022924000,4.926924072265625,0.8640531168162823,-1.866494713625312,-0.5651294992133975,1.904883015182031,0.959782451404154
1789997630032995000,4.9369951171875,1.208193886500597,-1.0411737707853317,-0.9437914010502396,1.1048642076059538,1.4878819105683105
1789997630043065000,4.947065185546875,-0.7417711374938487,-0.205212191465497,-0.6545739155560731,0.22776669363172014,0.9843402908260301
1789997630053136100,4.95713623046875,-2.024582750344276,0.1578571505725383,0.6848570448126643,-0.22114234962681006,2.1316611893097703
1789997630063207200,4.967207275390625,-0.1026935182878747,-0.1161719720095396,0.907239639852941,0.06835971489666715,0.9178521663528761
1789997630073277000,4.97727685546875,0.5159282093992457,-0.7679775918960571,-0.1957902100604027,0.784170607297838,0.5285657612010215
1789997630083348000,4.987347900390625,0.1398760882019996,0.5351502482742071,-0.3561868159826845,-0.5142868308116666,0.4102794313784376
1789997630093418200,4.997418212890625,0.3755038761973381,1.60619893284142,-0.6533586214821785,-1.5653741657928375,0.8350804645263906
1789997630103489000,5.007489013671875,0.7029881101131439,0.9103004887282848,-0.4438867998108267,-0.8764833689089239,0.8669784644452042
1789997630113559000,5.01755908203125,-0.5409352614164352,-0.0867436329513788,-0.7744450343444943,0.1184079241361949,0.941212032234965
1789997630123630000,5.027630126953125,1.6667629993975162,-0.5113672216266394,-1.035107164222747,0.5869331331872533,1.9407605906208536
1789997630133700000,5.0377001953125,2.4269255336284634,-0.3865086698144674,-1.1873802310526371,0.4807533794295571,2.686653029120289
1789997630143771000,5.04777099609375,0.1478582825949415,-0.3071101389288902,-1.5228785523369908,0.3863185893740206,1.5119840415285222
1789997630153841000,5.0578408203125,-1.796571282571554,-0.0833148275464773,-1.0882821434408425,0.11320730521331779,2.0990835770946403
1789997630163912000,5.067911865234375,-1.5803484522700308,0.4888151980787515,-1.1130674789987505,-0.45380322173132626,1.9415002902950989
1789997630173982200,5.077982177734375,0.234765033686161,0.8259446276962756,-1.7372712446019052,-0.7330066265525823,1.7939096442721576
1789997630184053000,5.088052978515625,1.1590776080887764,0.797107240268588,-2.2571606492497027,-0.6646643633844329,2.5752351998661225
1789997630194123000,5.098123046875,0.0039782194485887,1.4984019904673098,-1.7840270044274626,-1.405407253364346,1.8581730694377445
1789997630204194000,5.108194091796875,-0.9783049344182014,0.883718186751008,-1.1603776578366756,-0.8372310167345477,1.543877881092172
1789997630214263800,5.118263916015625,-0.9979226580798626,-0.4079664683848619,-1.2395084776967764,0.4564005532060407,1.578089373942742
1789997630224334800,5.1283349609375,-0.9534650921940804,-1.3073264609038828,-0.7066942711547016,1.3280010024059596,1.1636272117408475
1789997630234405000,5.138405029296875,0.6327740986149758,-0.7009001979231834,-0.9261914469517768,0.756032212322331,1.085315639647923
1789997630244476200,5.14847607421875,0.3796516069939359,-0.0182177937358617,-1.0217958472289144,0.07559238039891664,1.087575181834139
1789997630254546000,5.1585458984375,-0.5210942503929138,0.0113292032659053,-0.1205264134925324,-0.01254548556107811,0.5348240792827138
1789997630264617000,5.168616943359375,0.8478302962899208,-0.203891756516695,0.1158521837369538,0.20969774129247484,0.8543047731670317
1789997630274687000,5.17868701171875,1.4099720118641852,0.4959072021663188,0.7969135443273931,-0.51585368985729,1.6133540204164216
1789997630284758000,5.188758056640625,-1.0075041408956051,-0.0759556969553232,0.6289290405593813,0.029575448907172987,1.1897524501771968
1789997630294828000,5.198828125,-1.2127543262839318,-0.4846130702137947,0.9449114911213516,0.4186688843387277,1.5566621261796585
1789997630304899000,5.208899169921875,-2.259014606553316,-0.0039747488498687,1.1498425275579094,-0.08652954589109305,2.5333403377987525
1789997630314969000,5.218968994140625,-0.0708639267742633,0.3255021201878786,0.5501029757995158,-0.3540612419717808,0.5368679980046819
1789997630325040000,5.2290400390625,0.8825684321939945,0.2351712763994932,1.0506331615913658,-0.2758604738173533,1.3645378726768511
1789997630335110000,5.23910986328125,-1.2848936798214912,0.3591834405153989,1.5973939873561265,-0.458193765259372,2.0301947041366835
1789997630345181000,5.249180908203125,-3.373923475635052,-0.3920663039416074,1.477606747458875,0.2685622494864158,3.694356726740737
1789997630355251200,5.259251220703125,-3.043598465335369,-1.7364181349039076,1.0781447803080082,1.636047971488708,3.2809118792963745
1789997630365322200,5.269322265625,-0.3747755619227886,-1.1547884595274924,0.963109411112964,1.0988319829171804,1.0927676418914862
1789997630375392000,5.27939208984375,4.262700699341297,-0.1456073253303766,0.8705864641077816,0.16135685351260093,4.350138331440375
1789997630385463000,5.289463134765625,2.956957123714685,2.406290741878748,1.6285352678120135,-2.444036753865279,3.3485283379720134
1789997630395534000,5.2995341796875,-2.889050877702236,2.50817173820734,1.0769240063413976,-2.6003624656109645,3.0058976704422524
1789997630405604000,5.30960400390625,-1.963046623885632,0.0618108517467975,0.6399716819688678,-0.12207440201608227,2.062046125341749
1789997630415675000,5.3196748046875,-0.2552034260809421,-1.6190917321622371,-0.2769712769811973,1.627323641906164,0.3392899624295092
1789997630425745000,5.329744873046875,-0.916363149768114,-1.501165609961748,-0.477308154027909,1.5104133932229615,1.0196538953287022
1789997630435816000,5.33981591796875,-0.2884802207281813,-0.8256067740440368,-0.5329681549947709,0.8475125639593256,0.5749999054507763
1789997630445886200,5.34988623046875,0.1708300659248605,0.4576262790888548,-0.013405233221827,-0.45388823683864493,0.18102456041609483
1789997630455957000,5.35995703125,-0.5146364890882745,1.4245219307422636,-0.0961072626322042,-1.4249154617085078,0.5224614626759161
1789997630466027000,5.370027099609375,0.4441699641337618,0.9773656077414752,-0.0392253734538797,-0.9677208231737675,0.46646063773155877
1789997630476098000,5.38009814453125,1.298413671129942,0.561267855349183,0.7197401421453803,-0.5787709399436733,1.4778192508279129
1789997630486168000,5.39016796875,-0.0797369690597057,0.2630979787230491,1.3773479455046356,-0.33399397422115534,1.3642264910244124
1789997630496238800,5.40023876953125,-2.5147020167589185,-0.8920879556894302,2.0442365682326256,0.7511830842567963,3.2763049727709213
1789997630506309000,5.41030908203125,-1.603794794309139,-2.2118267389208075,1.0533390595491976,2.1324174120663595,2.00665254101111
1789997630516380200,5.420380126953125,-1.250389352673292,-2.0280045414865016,0.5973252936908975,1.9770707458591013,1.4574857549628621
1789997630526450000,5.430449951171875,-0.4829494843831285,-0.5903314527481794,0.2939681140873581,0.5677073334883512,0.5880961351457173
1789997630536521000,5.44052099609375,0.0250035083532333,0.8168997359752654,0.3283634644357487,-0.8321251618853723,0.2886877790969311
1789997630546591000,5.450591064453125,0.0711900899887084,0.9644406597167252,0.3390959439175203,-0.9793532307453481,0.30177329841686695
1789997630556662000,5.460662109375,-1.876453213059902,-0.0830985544472932,0.6747274996601045,0.02208732290636481,1.9956831861591826
1789997630566732000,5.47073193359375,-3.639551265096664,-0.8065800020128489,0.4932925261558964,0.728862421586494,3.6890380585830385
1789997630576803000,5.480802978515625,-2.4917361517131327,0.0137093764007091,-0.3442981156704947,-0.0313969554443355,2.515251959625228
1789997630586873000,5.490873046875,0.8051134365916252,0.4460445623666048,-0.9982938294798136,-0.3832009494155814,1.3026553649149344
1789997630596944100,5.500944091796875,1.9141127893686287,0.0706225192338228,-1.695663222928345,0.04289098719011122,2.557782132914585
1789997630607014000,5.511013916015625,1.1393828006029127,0.4899292968004942,-1.5677910223834215,-0.3932976409128401,1.9599769227446564
1789997630617085000,5.5210849609375,0.641160891753435,0.4655044651180505,-1.205138152191788,-0.39441958593858245,1.3872897506487882
1789997630627155000,5.531155029296875,-0.3324304581463336,0.6268342602372169,-0.9067584322072564,-0.5844865118888523,0.9919765980654404
1789997630637226000,5.54122607421875,-0.6500818648338318,-0.1257832654416561,-0.998418040381372,0.1672543623252919,1.1862935650559425
1789997630647296000,5.5512958984375,0.1489232814779505,-0.1502472600907087,-1.3313402275674044,0.21993664829085308,1.3299800957941963
1789997630657367000,5.561366943359375,0.6172095228016377,0.1753261717677116,-0.6849786984309554,-0.13147259512326173,0.9292995402879887
1789997630667437000,5.57143701171875,1.1741127532005309,-0.2140384719997644,-0.8996258769135922,0.2761538541547037,1.468815506444624
1789997630677508000,5.581508056640625,0.0628525062868371,0.2800713253557682,-0.7402642400622368,-0.2410960304997245,0.7564748733601602
1789997630687577900,5.591577880859375,0.8414566696047783,0.0896826090127229,-0.1152879009176977,-0.07178660912020246,0.8510172031344172
1789997630697649000,5.60164892578125,-0.4227929026493802,-0.2727735695630311,-0.1947342712666839,0.27632921085560025,0.4633819832670814
1789997630707719200,5.61171923828125,0.17876082239151,-0.5926917521387338,0.1702807432127185,0.5857206985812216,0.262993801139823
1789997630717790200,5.621790283203125,0.3420574971368536,0.0233826291531324,-0.2242467449443414,-0.007093610357242118,0.40961733606364087
1789997630727861000,5.631861083984375,1.009412020343542,-0.0496697475761175,-0.6402113359436392,0.09647592778604072,1.1924523724941254
1789997630737931000,5.641930908203125,1.6296400141835212,0.5443500382959843,-0.5531207892507314,-0.49237706426597544,1.7365341845489475
1789997630748002000,5.652001953125,2.546919694274664,0.2987514759063721,-0.2669534668411128,-0.2487212554283275,2.5662139941939817
1789997630758072000,5.662072021484375,1.907598877429962,0.7349293087750672,-0.2315101783423684,-0.6951357945756016,1.936346496845157
1789997630768142800,5.672142822265625,1.536264980393648,-0.1458230139076709,-0.0073880918241571,0.16772168753045275,1.534046433717621
1789997630778213000,5.682213134765625,-0.0754150142073631,-1.6396055278807875,-0.5223080466294661,1.6628441891756143,0.44916434578438563
1789997630788284200,5.6922841796875,-0.7917243781864642,-1.364222068080306,-0.5194540819704533,1.3775700114368115,0.9273956808815752
1789997630798354200,5.702354248046875,0.4203040084430948,-0.0141010060667991,-0.3728429133597761,0.03901089783100395,0.5606641470421071
1789997630808425000,5.712425048828125,0.6711795979201793,0.3259182997733354,-0.0383268719778861,-0.3140192086824021,0.6779127351551397
1789997630818495000,5.722494873046875,-0.0118295905360952,0.1773287437617778,0.3681013448558747,-0.19599233867656443,0.3587074376719506
1789997630828566000,5.73256591796875,-0.0711118005881085,-0.0742050538957119,0.0686006306179333,0.06960245864522087,0.10210201995194249
1789997630838636000,5.742635986328125,0.6068179291794076,-0.294907659959793,-0.2415774536473676,0.3153786889086212,0.6435017294223618
1789997630848707000,5.75270703125,0.1299170042455196,0.0652460868924856,-0.113716651279293,-0.057527018313158734,0.17537844448245618
1789997630858777000,5.762777099609375,1.2496633764863014,0.1953454619675874,-0.6232301713306456,-0.14566388778671466,1.4025035765708973
1789997630868848000,5.77284814453125,-1.3509423152685165,0.8644313024789094,-0.2674901492673903,-0.8687077853865791,1.3744760381513677
1789997630878918000,5.78291796875,-3.489345506060124,-0.1677326478987932,0.3943786725372076,0.0980688725207451,3.514197395626467
1789997630888989000,5.792989013671875,-2.206303591585159,-0.3655453767627477,0.0162845606509596,0.33300321707939273,2.2115092143250417
1789997630899059000,5.803058837890625,-0.8444096741914748,-0.6324912630856037,-0.4407806870216503,0.6421105465805644,0.9460732296017373
1789997630909130000,5.8131298828125,-0.868632261300087,-0.7960176914662123,0.2176509634084999,0.7715378616802719,0.916661028060527
1789997630919200000,5.823199951171875,-1.058985321807861,0.0224964939683675,0.4135942816713824,-0.05850214743945987,1.1356028058355643
1789997630929271000,5.83327099609375,-1.3090098839461803,0.7933382431238889,0.3677051120799035,-0.8294658656593705,1.3379409073002202
1789997630939341000,5.843341064453125,0.4356442009160295,0.5788853451043368,0.0722477092828601,-0.5755943184934392,0.4458755707403434
1789997630949412000,5.853412109375,0.479310287630558,0.8135591933757066,0.2502676684455014,-0.8183876470550087,0.5333783628640485
1789997630959481900,5.86348193359375,-0.2838437930991873,0.9807406371325254,0.0702193269941024,-0.9869599285567487,0.27066649129659204
1789997630969553000,5.873552978515625,-0.6455284393131733,-0.7297650578796863,-0.577295372499153,0.7490125050799603,0.849419931486789
1789997630979623200,5.883623046875,-0.7360124278366565,-1.3558505455762146,-0.5822608859520405,1.3731962685215766,0.9129100411855494
1789997630989694200,5.893694091796875,-1.3404875567495822,-1.0038403576910495,-0.7408971311382949,1.0212072838788426,1.5200876934609764
1789997630999764000,5.903763916015625,-1.4865338580191134,-0.1262140580743551,-0.5099432532381266,0.130981589962781,1.5711775342419747
1789997631009835000,5.9138349609375,-0.5952513369610533,0.3628103988409042,0.2561554843750782,-0.3837652877572456,0.6358422569702699
1789997631019905000,5.923905029296875,-0.2072784398129209,0.5246002126872539,0.7704179707854986,-0.5660289829583057,0.7689764462733706
1789997631029976000,5.93397607421875,-2.022308960193396,-0.4131850798159837,0.6769657801061868,0.34953586309860124,2.1439596051473844
1789997631040046000,5.944046142578125,-1.010523780977726,-0.7981091107875108,0.6008472938045859,0.7521069335546193,1.2056073554913775
1789997631050117000,5.9541171875,1.3486182562351223,0.1306359661698341,0.3472526911597698,-0.12906338158259328,1.3927541174808842
1789997631060187100,5.964187255859375,1.4839865116238593,0.8150292659282684,0.2523873457469046,-0.8057552178868088,1.5102802958863204
1789997631070258200,5.974258056640625,-1.426608673888445,-0.0263946704506874,0.788723004413396,-0.03398027622573929,1.6299810752154347
1789997631080329000,5.984328857421875,-2.469428458315134,-1.0623311251044272,0.7811912937343121,0.9861442073940414,2.62000071941436
1789997631090399000,5.99439892578125,-0.1673439773747697,-0.5880068091928958,-0.2665747697218321,0.59839274275485,0.2945237642218259
1789997631100470000,6.004469970703125,-0.171862331582047,-0.4702063591986894,-0.2598908167121931,0.4803526599527193,0.2956945044051079
1789997631110540000,6.0145400390625,-0.4441068357696756,0.3409107017219066,0.1755509752332232,-0.35565420477586984,0.46666821153412164
1789997631120611000,6.024611083984375,-0.63527709441185,0.0459586180984973,0.4111825808871537,-0.0758164897835628,0.7543289441376393
1789997631130681000,6.03468115234375,-1.0095172342836856,-0.7660206126093864,0.2053395807048305,0.7402171802283708,1.04888297476746
1789997631140752100,6.044752197265625,-0.8771464071452617,-0.6434615699112415,-0.2058775600390508,0.6406410380668667,0.9029912743724168
1789997631150822000,6.05482177734375,0.7039256832242011,-0.0037888708889484,-0.5653496082374826,0.042526865288655305,0.9018521876162784
1789997631160893000,6.064892822265625,0.4490975201964378,0.8694371479421853,-0.4049966587938368,-0.8412480440871233,0.6433766850160115
1789997631170963000,6.074962890625,-1.2994471058309078,1.0680389813572169,-0.2501283513063564,-1.0721867545380541,1.3199431056190545
1789997631181034000,6.085033935546875,-2.1514251694500444,0.5429413405418395,-0.2662038540502078,-0.559053220233709,2.1637327810684077
1789997631191104000,6.09510400390625,-1.167926173520088,-0.0191015908330678,-0.9835391818098724,0.05264063912739501,1.526104420684614
1789997631201175000,6.105175048828125,0.7739163342952727,-0.1581447353422641,-1.1238777729570866,0.22609769004380054,1.354967650133886
1789997631211245000,6.1152451171875,1.1915993100523947,0.4056184439539909,-0.0791768874915316,-0.3841679435553283,1.201298967139453
1789997631221316000,6.125316162109375,-0.4729729743678122,0.2982674917817116,0.26634496128764,-0.31810214402219855,0.5314297653574585
1789997631231385900,6.1353857421875,0.2595639593780041,0.5440729749202728,0.7920343209184706,-0.5799730576317148,0.8089119043385903
1789997631241457000,6.145456787109375,1.110433769494295,1.0315922879695891,1.0279904640853403,-1.0667930043313958,1.488611059072056
1789997631251527200,6.155527099609375,0.5405833427062258,0.1301958211869001,0.6058921926366165,-0.15322147925203622,0.8079664780545
1789997631261598200,6.16559814453125,-0.7547521996200084,0.1593085184246301,1.0086202854439617,-0.22111979057085882,1.250380344255639
1789997631271668000,6.17566796875,0.0331236864447593,0.2681967631667852,1.0287136637933552,-0.31973670612371474,1.0144195006057093
1789997631281739000,6.185739013671875,0.5686205561995505,-0.2464320906043052,1.2460934090450406,0.19067690364653614,1.37856781287449
1789997631291809000,6.19580908203125,0.3678735639819875,-0.2677823371469974,1.319576432276517,0.20541646713595763,1.380624632118999
1789997631301880000,6.205880126953125,-0.0894224967718124,-1.070912490966916,1.188497909970954,1.007631743075207,1.2458151943969924
1789997631311950000,6.2159501953125,-0.7316413731455802,-0.5605278506368399,1.4135802654892204,0.47741649173533923,1.6185713548180696
1789997631322021000,6.226021240234375,1.0029705891191958,-0.1051110642910003,1.0474976400446143,0.06580875931148056,1.452555971923772
1789997631332091100,6.236091064453125,3.172588417863845,0.4485439779669046,1.4076133199088274,-0.47472676303682015,3.4673503901647327
1789997631342162200,6.246162109375,2.3390637103021144,1.2778934456706046,1.3941181707806884,-1.314017981076913,2.705762908838768
1789997631352232000,6.25623193359375,-1.7089409299135208,1.3897785341411828,0.904996244840324,-1.4580880120129875,1.8828066890396387
1789997631362303000,6.266302978515625,-0.4733411135604605,0.3119260147780179,0.3547830866646021,-0.3362501483184068,0.5780627343299903
1789997631372373000,6.276373046875,-1.847217766225338,-0.6657406217366456,-0.0157717157579958,0.6394895739799612,1.8565359902457321
1789997631382444000,6.286444091796875,-2.289274135738612,-2.2696663489490745,-0.0028113310936838,2.234262259012052,2.3238419622793787
1789997631392514000,6.29651416015625,-1.9030536352157592,-2.5210358959555625,-0.0219157714709639,2.491715373957455,1.9414092622184564
1789997631402585000,6.306585205078125,-1.374207455521822,-1.0735697274774312,-0.0294463131062686,1.0541345125061408,1.389483934943733
1789997631412655000,6.316655029296875,-0.177442141008377,0.5978039805859326,0.287342339272052,-0.6141097813823584,0.3070669454025781
1789997631422726000,6.326725830078125,0.5973345729758963,1.573919296005368,1.356778766337037,-1.6323607580505444,1.4178425578215776
1789997631432796000,6.3367958984375,-0.3931026247194036,2.000504540142417,0.9031768473934382,-2.049258994577633,0.8790984469909646
1789997631442867000,6.346866943359375,0.1291208854317665,1.0118903931558132,0.5549330993697047,-1.0369080379213815,0.5228449449749007
1789997631452938000,6.35693798828125,-0.9003823213040828,-0.2856459106177091,0.6721184131402522,0.23828832550222345,1.1345676471595099
1789997631463008000,6.367008056640625,-1.3201543782949448,-0.8541285196512937,0.9249347979541868,0.7871663083338943,1.6456660335874844
1789997631473079000,6.3770791015625,-1.7578759334743022,-1.3385831844329834,0.8568511495482176,1.2682204922882427,2.001934917662701
1789997631483149000,6.387149169921875,-2.878175263422728,-0.5131903454005718,0.8936888150148093,0.42626173521913,3.027249214841982
1789997631493220000,6.39722021484375,-0.3204010341892018,0.484390367373824,1.0839031977042557,-0.5434381339536799,1.1030920121515302
1789997631503289900,6.407289794921875,0.8373556640267371,0.60234103949368,1.5652911683917046,-0.6693634699055031,1.7510191954793404
1789997631513361000,6.41736083984375,-3.0820670199394224,0.5834183123588562,0.6413193702507763,-0.6588470330872781,3.1331653585862447
1789997631523431200,6.42743115234375,-2.4992016652882096,0.4577104502409696,0.624097747945413,-0.5241948706610713,2.56324512222345
1789997631533502200,6.437502197265625,-0.2654279012416489,-0.3438537694364786,0.3918663243900984,0.3196652568484861,0.48995992210406225
1789997631543572000,6.447572021484375,0.8756219740569591,-0.2538847446978092,0.3940510480180382,0.24584772531735807,0.9622922785942287
1789997631553642800,6.457642822265625,0.1490612651765346,0.3401069841235876,0.427659376174584,-0.3593005023736805,0.43782155320372995
1789997631563712500,6.46771240234375,0.5476362203598022,1.2219155378609896,0.7462067087884992,-1.250460785905439,0.8866539836203283
1789997631573783600,6.477783447265625,-0.3558955048859119,1.544712490743399,1.0673948382347822,-1.6019398539113452,1.0420742462019816
1789997631583853800,6.487853759765625,-2.633736392462253,0.0380003525704145,1.6811249944880604,-0.1607988593801741,3.1206307672792812
1789997631593924900,6.4979248046875,-3.627330081427097,-1.5409037461102009,1.3398179869249462,1.4192268517611535,3.9131592423168904
1789997631603994600,6.50799462890625,-1.135389347052574,-1.4453724110692738,0.8600668236590922,1.3835001020022186,1.4845379028504346
1789997631614065700,6.518065673828125,1.836049891000986,-1.382543906712532,0.8901522383864968,1.3612502569322231,2.054720322024175
1789997631624135700,6.5281357421875,1.854101095998287,-0.7840034285455941,0.6074733608808368,0.7781958017344308,1.9534040617588726
1789997631634206700,6.538206787109375,0.5781915541538968,0.1318640466600656,0.6648805708412081,-0.15735925880143764,0.8769252175915911
1789997631644276700,6.54827685546875,-0.4332593150734901,-1.062365027374029,0.7868529727578163,1.0146857791977415,0.9517791002733023
1789997631654347800,6.55834765625,-0.9225649270176888,-2.4777251620173453,0.7077026444796473,2.4251785470429077,1.2687001501629016
1789997631664417800,6.568417724609375,-1.1339537612915038,-1.6985551449775695,0.8472201285023242,1.6370034941195555,1.4862510621213303
1789997631674488600,6.578488525390625,1.6013433095037937,-0.9621510874748228,0.1593303649302571,0.9753398548948603,1.6012911798495704
1789997631684558600,6.58855859375,2.9949639060258866,0.0747942519605159,-0.8338001635022461,0.010123780876940845,3.109746484882859
1789997631694629600,6.598629638671875,1.1089315482378006,0.975133318644762,-0.241050105305016,-0.9458133011381565,1.1593776435941545
1789997631704699600,6.60869970703125,0.2501017555603757,0.0442629200965166,-0.4819627749007195,-0.016122012548189228,0.5445532952165932
1789997631714770400,6.6187705078125,0.1205330898284912,1.1458680709689857,-0.6454690372761338,-1.1096942022728837,0.7160662799866468
1789997631724840700,6.6288408203125,0.7791022125005722,-0.4293026864022016,-1.4232187391892075,0.5121928062660817,1.5982838179947976
1789997631734911700,6.638911865234375,0.1902221641371026,0.6429407609075307,-1.945251731736958,-0.540297851173132,1.9853563472607851
1789997631744981800,6.648981689453125,1.054050788015127,0.7960743900895119,-1.6824264324754477,-0.6943843416792156,2.0231526351203666
1789997631755052500,6.659052490234375,0.2238812726328149,0.9268722688227892,-1.2845799376972018,-0.8569986631518184,1.3508937540156654
1789997631765122600,6.66912255859375,-1.1865922955453394,-0.1726467234253883,-0.7493119813274591,0.19378012351983037,1.40061624867292
1789997631775193600,6.679193603515625,-0.9478618653595448,-1.3290186527520418,-0.1051025156583636,1.3191084391459342,0.9673324969923329
1789997631785263600,6.689263671875,-1.4148621219933033,-1.6802128480792045,-0.4735055468745529,1.6819668904898797,1.490015074191734
1789997631795334700,6.699334716796875,-0.3159305742442607,-0.148780694669485,0.012268310746923,0.14348009558074273,0.3186091594247831
1789997631805404700,6.70940478515625,2.7496143499612806,1.305785661202669,0.9638250851016492,-1.3141541327489181,2.9098819523419897
1789997631815475700,6.719475830078125,0.8954933802187443,2.091747238078713,0.7979197256952524,-2.1167907334616514,1.1546375108275269
1789997631825545500,6.72954541015625,-0.1534767435312271,1.3417156372398138,1.3146581189662216,-1.4089549280726725,1.25176992392465
1789997631835616500,6.739616455078125,0.1131704155733808,-0.4593167163938284,0.7764267096810042,0.420738863701565,0.8059755784123032
1789997631845687600,6.7496875,0.4531599107971414,-0.9727151515871286,0.1194299508921802,0.971683029089882,0.4707698748111054
1789997631855757800,6.7597578125,1.2665806090176104,-0.7218862873286008,0.4374948337513953,0.7165120890609389,1.3428918075411669
1789997631865828900,6.769828857421875,1.4533984811365603,-0.1923644003301858,0.6191610952608287,0.1811215735225521,1.5811156330179512
1789997631875898600,6.779898681640625,0.1432417287101969,0.5070569572120904,0.2410720248758792,-0.5165982480516604,0.26242507881065974
1789997631885969700,6.7899697265625,-0.2449380891868844,-0.1350315707802772,0.5568420017309487,0.10302391521290748,0.6145626741251413
1789997631896039700,6.800039794921875,-1.3083131338536738,-0.277708687877655,0.7714519900083542,0.2195349646666585,1.5283153940575906
1789997631906110700,6.81011083984375,-0.0020014394829049,0.1149701950043439,-0.0988170787133276,-0.1098059648780796,0.10454480676710119
1789997631916180700,6.8201806640625,0.4525029081931337,-0.4116138849765062,-0.2296284745153039,0.42913100591129116,0.492707507860886
1789997631926251800,6.830251708984375,-2.117768399041891,-0.839842220145464,0.6730423961173743,0.7744465408621856,2.2457730448639124
1789997631936321800,6.84032177734375,-1.308495504683256,-0.8921820637136697,0.0565315961696207,0.8695515593396496,1.3248491339032307
1789997631946392800,6.850392822265625,-0.4463514363586902,-0.7880541652411222,-0.0070539370995014,0.7809996749705842,0.4586373707165534
1789997631956462600,6.860462646484375,-1.631421636903286,-0.3320090178638696,0.381367142207548,0.289053460580867,1.683346529797387
1789997631966533600,6.87053369140625,-1.3149673310458658,-0.4275087887227535,0.4670330629248171,0.38453295254807823,1.4078910243419687
1789997631976603600,6.880603759765625,-1.0600912372231484,-0.4675549679070711,-0.1726370057489722,0.4607003619192707,1.0770142949530945
1789997631986674400,6.89067431640625,-1.520322730374336,-0.3598737608671188,-0.0310123933792114,0.33944925121295494,1.5253282606205105
1789997631996744700,6.90074462890625,-0.9312883316993712,-0.4227425972342491,-1.2545324438273906,0.47286342858942043,1.5479861403752746
1789997632006815700,6.910815673828125,0.1501590338179841,0.2139566389352083,-1.0542051017940044,-0.1578528273880234,1.074595766004927
1789997632016885800,6.9208857421875,3.0245500659942626,1.2461100679188966,-1.1267647996354848,-1.1442186926645954,3.265127241032002
1789997632026956500,6.93095654296875,2.405561258560419,1.2112924370378255,-1.3692070168860255,-1.1058582009435376,2.811718305806553
1789997632037026600,6.941026611328125,1.4406453825473784,1.3808832800239323,-0.5978725888427346,-1.3281352896374812,1.6049317855328975
1789997632047097600,6.95109765625,0.0573298704078421,1.848278088933229,-0.5280173276543617,-1.8179972341625674,0.6269824263503392
1789997632057168000,6.96116796875,-3.452496077090501,1.253349956044555,-0.496168921842426,-1.275159080925293,3.480052900744215
1789997632067238700,6.97123876953125,-2.964830633568764,0.0627899259120225,-0.2101508899766951,-0.093930455628343,2.9714480858004646
1789997632077308700,6.98130859375,-2.2544038978874683,-1.6400684692174194,-0.3503601556558162,1.6237349083274901,2.293119862693895
1789997632087379700,6.991379638671875,-2.9002807122468948,-1.8684511083900928,-0.3927043095842004,1.8448204496936822,2.9416988182738093
1789997632097449500,7.001449462890625,-3.3381729478180406,0.1456745453476906,0.4905302218357101,-0.21765856586200283,3.3701430755900454
1789997632107520500,7.0115205078125,-0.8967103547930717,1.3868079938977955,0.9051138798706232,-1.4436408442231086,1.2093213471849358
1789997632117590800,7.0215908203125,0.3967079922676086,2.054442466557026,1.5659975630953906,-2.125703371422785,1.520475130958879
1789997632127661800,7.031661865234375,-1.8554162702500816,0.5435685325294732,2.594427587641776,-0.7011596584614214,3.15871270082101
1789997632137731600,7.041731689453125,-2.3139362833082675,-1.3389584474861622,1.86617600306496,1.20933540505186,3.0277436482979523
1789997632147802600,7.051802734375,-1.7641992912769318,-1.3346639651626349,1.058918394051492,1.2539278472973454,2.1077713723927727
1789997632157872600,7.06187255859375,-2.1242413944482803,-0.7959130620479583,0.1980774076821282,0.75467294468087,2.1483906791426244
1789997632167943700,7.071943603515625,-0.9726327340006828,-0.9258592923879624,-0.7065954869553447,0.9467908131806216,1.1857884308818414
1789997632178013400,7.082013427734375,-0.7739303628206252,-0.6877753434121608,-0.4174630859287455,0.6971267493189277,0.8719477352448118
1789997632188084500,7.09208447265625,1.8191233061194416,0.5132634106367826,-0.07088288720306,-0.483210218472388,1.8287102558982762
1789997632198154800,7.10215478515625,2.159312707829476,0.3503150744050741,-0.6769380883816629,-0.28481758434752924,2.2721083030299316
1789997632208225800,7.112225830078125,-0.438080451619625,0.0247030641019344,-0.6965697675034404,0.004606077044787033,0.8232332285089891
1789997632218295600,7.122295654296875,-1.7328712560772894,-0.9221960937052964,-0.4478082475708797,0.9192035316885022,1.7913362384845781
1789997632228366600,7.13236669921875,1.5070657739162443,-0.5637117413699626,-0.98094668109864,0.6341881169170447,1.7745647347413882
1789997632238436600,7.1424365234375,2.0437281803190706,-0.6254618028402328,-0.8138182096380739,0.6949311428945629,2.1788524793606907
1789997632248507600,7.152507568359375,1.4408464580774307,-0.1044002856731414,-0.3196292095664888,0.14090705834709594,1.4728360288636944
1789997632258577700,7.16257763671875,-0.1482453091511502,-0.5700386063039302,-1.0803352760896086,0.6221572867157247,1.061586220573904
1789997632268648700,7.172648681640625,0.0128804878285154,-0.2840758848220109,-0.7522436508651822,0.322166096832211,0.7368476990688005
1789997632278718700,7.18271875,2.3368518794715403,0.3920306481063366,-0.2586291262133047,-0.34526479017997336,2.358441431376277
1789997632288789800,7.192789794921875,2.7214029854774475,1.900493429338932,0.7281817342109977,-1.896430589208192,2.819877504906911
1789997632298860500,7.202860595703125,1.7334230447411536,3.16804902086854,1.0110122951470315,-3.190589118689723,1.9706793212755376
1789997632308930600,7.2129306640625,1.7733154946684837,2.548368139517307,1.555523661484569,-2.5989371344347725,2.3030431283049313
1789997632319001600,7.223001708984375,0.2579424956560134,1.697914508986473,1.8507083848200736,-1.7861338758542438,1.7844593898604841
1789997632329071900,7.23307177734375,0.4772691006591543,-1.41921388746202,1.89945721815899,1.3272579050315507,2.021949067102484
1789997632339142700,7.243142578125,0.3831809866964817,-2.935830749055743,2.0207441950947045,2.8342486853614055,2.194623281386349
1789997632349212700,7.253212646484375,-0.1745522647857666,-2.564362996506691,1.2602040597230195,2.4941399402132096,1.404922169292749
1789997632359283700,7.26328369140625,0.8596247789800167,-1.3787410072982311,1.1119498731456696,1.3323496543527635,1.449537320932761
1789997632369353700,7.273353759765625,-0.983115549570322,-0.4203998335003852,1.049041727681458,0.35249057106649323,1.455847226717221
1789997632379424500,7.283424560546875,-0.1398924913475289,0.7679208932727575,1.5074372375771403,-0.845586439386269,1.4719453135971117
1789997632389494800,7.293494873046875,1.519657544463873,1.5866069281429052,1.6519493150167166,-1.6470173307166152,2.2006705906564816
1789997632399565800,7.30356591796875,-0.239082275830768,0.891543765810132,1.1368442951012403,-0.9515683398813893,1.113078284223955
1789997632409635600,7.313635498046875,-1.3801087885200976,-0.4305798667311668,0.6963144775681197,0.37500324176850475,1.5602325820590712
1789997632419706600,7.32370654296875,-2.635335644352436,-2.227922718197107,0.1226582652889192,2.1812938307871397,2.676870536740039
1789997632429776600,7.333776611328125,-4.568381097728014,-2.027087426641584,-0.3532388528972864,1.9776347636958616,4.603577708472489
1789997632439847700,7.34384765625,-1.2480863364279269,-1.166120000880957,-0.2090525368133559,1.1574848250325114,1.2733763004706202
1789997632449917400,7.35391748046875,0.8754921371322125,-0.0134328975468873,-0.8509991355843841,0.06912932443820946,1.2190519226779963
1789997632459988500,7.363988525390625,-0.4778326893586665,1.3983219060808418,-0.6727281425364315,-1.368869421508646,0.8731482649953541
1789997632470058800,7.374058837890625,-0.7739958292722702,1.0634884784460068,-0.2232479431653395,-1.061580325382679,0.8080619681721394
1789997632480129800,7.3841298828125,-0.3234101528773084,1.2137503515839576,0.2576707660425454,-1.2297488038709818,0.3631750900118923
1789997632490199600,7.394199462890625,1.999165400493145,0.903833923062682,0.3217079155366867,-0.8906798614236863,2.03070515495998
1789997632500270600,7.4042705078125,2.472671385759115,-0.0369938058763742,0.5499401133880019,0.04390772095244162,2.5329782004547714
1789997632510340600,7.414340576171875,-1.305365974485874,-0.1443611246615648,0.8570172268301248,0.08205835644878391,1.566066861561003
1789997632520411600,7.42441162109375,-2.2037983307659625,-0.0154115041434764,0.7584978889543562,-0.0544002108307613,2.3300910415167455
1789997632530481700,7.434481689453125,-2.861379611444473,-0.7499485987305641,1.027603948985785,0.6561075587915608,3.061928955543518
1789997632540552700,7.444552734375,-3.11191153858304,-1.3112965335786342,1.014371834708005,1.2138017430167716,3.3104573053643116
1789997632550623500,7.45462353515625,-1.817359219056368,-0.6011655659735202,1.1342524519771338,0.5168665885632133,2.1641562150742724
1789997632560694500,7.464694580078125,-0.0605787161359563,-0.3349310427904128,1.2023789166115224,0.2723798762071236,1.2195789627665135
1789997632570764500,7.4747646484375,0.4812578780343756,0.7392699683278798,1.135815609640628,-0.7892677249723853,1.2021908287214143
1789997632580835600,7.484835693359375,-0.2445008302807808,1.253850891304016,1.2238431449227034,-1.3178758608631367,1.1802194594059219
1789997632590905300,7.4949052734375,-0.3594937851062044,1.706249206611514,1.5969959279492496,-1.790269560564024,1.5446206754400216
1789997632600976400,7.504976318359375,-0.9602443770706652,0.8082230930447578,1.5483753971651195,-0.899518555161578,1.778658643836117
1789997632611046700,7.515046630859375,-2.8779110595285893,-0.5249211152046919,1.6316455087870358,0.4004023189905676,3.3256366748393584
1789997632621117700,7.52511767578125,-2.983955020755529,-1.2328887672960758,1.6431152895674108,1.1052968647384156,3.449949126295429
1789997632631187500,7.5351875,-0.5065771012732759,-1.3348358145982029,1.6896213124155997,1.239769011074548,1.831993447045249
1789997632641258500,7.545258544921875,1.3756933101654052,-0.94069036629498,1.9843625297673049,0.8577853721192954,2.4452667244692745
1789997632651328500,7.55532861328125,-0.4222387393653392,-0.1594423739373683,1.2299737566322086,0.09061659970494795,1.3070315594848791
1789997632661399600,7.565399658203125,-0.3869873567095026,0.6682564039498567,1.297262893659621,-0.7388534061872175,1.3165532632995454
1789997632671469600,7.575469482421875,0.8474585403680801,-0.3050537909209728,1.6466545696094632,0.23276308497282056,1.8624007116857841
1789997632681540600,7.58554052734375,0.3907879545688629,-0.7752572275102138,1.0016150828570127,0.7286971709693965,1.1072362898093604
1789997632691610600,7.595610595703125,1.1126187123179434,-1.0450748698771,0.5862232867769896,1.0294982534790618,1.2703908731929139
1789997632701681700,7.605681640625,0.7830068187236785,-0.292197816479206,1.114851147545129,0.2460935720546275,1.3714263659048838
1789997632711751400,7.61575146484375,0.1782102027714252,0.298964241874218,0.1544856283128261,-0.3038927297381889,0.22946353187105598
1789997632721822500,7.625822509765625,0.1424140639807097,-0.1988175219923257,-0.0027570436231791,0.20069413053421586,0.13978426209457853
1789997632731892500,7.635892578125,-0.5379916091799736,-1.2631114716023206,-0.1065729535371065,1.259164724666888,0.5574473534080328
1789997632741963500,7.645963623046875,-2.0651029767811298,-1.1631290023714302,-0.4242228989198803,1.1539002523659523,2.1132909540396043
1789997632752033500,7.656033447265625,0.5921685685148462,-0.7557295202195644,-0.5229800641395151,0.7896787127778017,0.756112689578201
1789997632762104600,7.6661044921875,2.933749266606569,0.6393897904276847,-1.0154217821523546,-0.5453001102911459,3.122408245057598
1789997632772174600,7.676174560546875,2.944269491577148,2.580985630005598,-1.29026718955338,-2.4700384613887696,3.3005922318616596
1789997632782245600,7.68624560546875,4.460836084288358,2.901113071417808,-1.063255108081549,-2.7798305668683154,4.660318558683135
1789997632792316400,7.69631640625,3.3505005144715305,3.0169349148154256,-0.7002715446308255,-2.9296767030132376,3.497874301593395
1789997632802386400,7.706386474609375,-0.4154465950071811,-0.4726619356572628,-0.2827656790062785,0.480524787000702,0.49503286458996126
1789997632812457500,7.71645751953125,-3.894806129103898,-3.7269717743963,0.3222451642185449,3.650273111485871,3.979846925181606
1789997632822527700,7.72652783203125,-3.16709741923213,-3.7237206636458633,0.2375010345213115,3.6616332434185486,3.2473759215497147
1789997632832598500,7.7365986328125,1.1031284149169922,-1.3053560376137494,0.0466654511936008,1.3167563270962492,1.0904939816977635
1789997632842668500,7.74666845703125,1.580633698952198,2.1644944943815467,0.4385771490953862,-2.16144880116985,1.6443625823100545
1789997632852739600,7.756739501953125,1.04259415897727,3.684402798736095,0.8615291512966156,-3.7083793526392395,1.2852943706096025
1789997632862809300,7.766809326171875,1.7574691062390804,2.210160267013311,0.9994076359406112,-2.233107984118166,1.996384336572806
1789997632872880400,7.77688037109375,0.4382265820920467,-0.2421311785399913,0.6962807214289903,0.21253497659392998,0.8308464187990073
1789997632882950700,7.78695068359375,-2.513051326942444,-3.516064001637697,0.6903617066435516,3.4404563156849988,2.7051788593959327
1789997632893021700,7.797021728515625,-3.0881016239285466,-3.98820395924747,0.6902849881455302,3.9038078799100635,3.267861665046196
1789997632903091500,7.807091552734375,0.848445213317871,-0.98272742703557,0.8088169672846793,0.9521672265779619,1.1971528453160765
1789997632913162500,7.81716259765625,0.6670014354526996,0.5379319879472255,0.244292302096635,-0.5401869708739174,0.7086173183845783
1789997632923232500,7.827232421875,-0.8170283307909965,0.875637171626091,0.2085064107052981,-0.8965854934809847,0.8209050650551061
1789997632933303600,7.837303466796875,0.4240822848727926,1.3973890091449022,-0.577102699471265,-1.3600520680193635,0.7847596608103489
1789997632943373600,7.84737353515625,1.615689814764261,0.6464338637202978,-1.1108201384633778,-0.5661168832865277,1.9853874614722111
1789997632953444600,7.857444580078125,0.6428384695768355,0.5511404290884733,-0.2775109733484685,-0.5271479021898628,0.7184180538442473
1789997632963514600,7.8675146484375,0.5786451066076755,-0.0749625942647457,-0.3306191709406674,0.0998766570312618,0.6631615485789741
1789997632973585700,7.877585693359375,0.4003004638016224,-0.2515057406067848,-0.1976307964257896,0.26687898999285775,0.437411860006385
1789997632983655400,7.887655517578125,-0.9592740707337856,-0.2242068147927522,0.1449088216722011,0.2029482917617975,0.9748261363192277
1789997632993726500,7.8977265625,-0.2801134109318256,-0.9225199188321828,0.0943823111362755,0.9124632584723714,0.3253080789335027
1789997633003796500,7.90779638671875,-1.330690969878435,-0.7009446215867996,0.3688927874945104,0.6623617093814393,1.3997930827298153
1789997633013867500,7.917867431640625,-0.982908628821373,-0.673977704206109,0.4378968386810272,0.6368371435846757,1.0984295208415502
1789997633023937500,7.9279375,-1.1456453681290149,0.2548269939839839,0.6108122229799627,-0.30177608877916445,1.2882014090821563
1789997633034008600,7.938008544921875,-0.6030231765389442,0.6933470060646534,0.5395293401412665,-0.7283795904553321,0.777767383825865
1789997633044078600,7.94807861328125,0.0466576880122534,1.0101070168703794,0.5218639195911586,-1.03460945174099,0.4737281481194472
1789997633054149600,7.958149658203125,0.3723895801017061,0.7508610374003648,-0.0606800210859626,-0.7414554257632032,0.3954645539357188
1789997633064219400,7.968219482421875,0.5826057903995737,0.8105787162601947,0.9513402089945971,-0.8496498535343641,1.0860988361562933
1789997633074290400,7.97829052734375,-3.0371441746294496,-0.7041717669397592,0.959683893643692,0.6113675519346122,3.2042667658922
1789997633084360700,7.988360595703125,-4.530838425797223,-2.1531822422504425,1.1291674037978052,2.0285986231958884,4.724880661010448
1789997633094431700,7.998431640625,-0.6801614343423396,-1.117011978840828,0.7823674248415976,1.0659930210345911,1.0890789705982526
1789997633104501500,8.00850146484375,2.40440273617506,0.5080670110374689,0.5686830269765109,-0.5023112793768756,2.471915930854566
1789997633114572500,8.018572509765624,-0.162498309175577,1.1180582730233668,0.7479018953338264,-1.1568778784855385,0.7053019365318974
1789997633124642600,8.028642578125,-1.7494179017305374,0.1436789876163005,0.6393946127332747,-0.20077755484614374,1.857315398805507
1789997633134713600,8.038713623046876,-1.1017547884762289,-0.2461258011341094,0.435930287848413,0.20800253075565778,1.192145832931965
1789997633144783600,8.04878369140625,-0.7285773093998432,-0.4234902007311582,0.1336444272708147,0.4057893545317436,0.7505762310231296
1789997633154854700,8.058854736328126,-0.0753776048064231,-0.0094669165253639,0.1128396127164363,0.002641766422569582,0.13600443038009985
1789997633164924700,8.068924560546876,1.26335521723032,1.3465478797018526,0.1303725659932941,-1.3334381610360728,1.2838213559093945
1789997633174995500,8.078995361328126,-0.1432429342865943,1.7175749027460812,0.4269525430794805,-1.7389413187035556,0.35910116807637793
1789997633185065500,8.0890654296875,-1.387832660770416,1.3021440898299217,0.1736141071528196,-1.3287920931020574,1.373357985556574
1789997633195136500,8.099136474609375,-1.5171791716516017,-0.3655015376210212,-0.4480473535563796,0.3663494782053034,1.5817580420988377
1789997633205206500,8.10920654296875,-1.641305902057886,-1.3757996931493282,-0.8150693787429482,1.3921695030848031,1.820140661225078
1789997633215277300,8.11927734375,-0.2183224329292774,-0.9370300902217626,-0.6787875887058675,0.9671976387450464,0.6715440364475709
1789997633225348400,8.129348388671875,0.4559481167435645,0.7996814746707678,-0.2092502878751605,-0.781460578973902,0.5296075835741295
1789997633235418600,8.139418701171875,2.432810500013828,1.206274901136756,0.1157570345330983,-1.1760782390076767,2.4502868674639955
1789997633245489700,8.14948974609375,0.8492214583873748,0.996815573620796,0.3192477359682321,-0.9996690955280306,0.9041013159848555
1789997633255559400,8.159559326171875,-0.5578770438671111,0.1033376248776912,0.1963446290727704,-0.12108092708518886,0.5880442868111074
1789997633265630500,8.16963037109375,-0.5249404044270515,-0.7859668375730514,0.4799496815126389,0.753005104002632,0.7460839819314502
1789997633275700500,8.179700439453125,0.1758452272057533,-1.1415467006385325,0.6190385648597031,1.110916194868435,0.6950714829658609
1789997633285771500,8.189771484375,0.9471195225596428,-0.9171282889217138,0.503914786728844,0.9035811761539027,1.084265123822759
1789997633295841500,8.199841552734375,0.3706359779000282,0.4399924227207898,0.5510965899467468,-0.4621983428021413,0.6488794214085599
1789997633305912600,8.20991259765625,-0.5003659351408482,0.5137526554584503,0.5634021639641374,-0.5488000395639372,0.7283875170361436
1789997633315982600,8.219982666015625,0.5783341409623622,1.299482177144289,0.8342411122027784,-1.3319676958225122,0.9720826085744625
1789997633326053600,8.2300537109375,3.212590757906437,0.5125678295880556,0.5905369121924042,-0.4964890329702748,3.2688985365894188
1789997633336123400,8.240123291015625,3.055612728255987,0.4614928913891315,0.6878899097025394,-0.452662809209935,3.1333741785671614
1789997633346194400,8.2501943359375,-0.2582698279142379,-0.6110363871246576,0.5690818170357496,0.5775517313467432,0.6560159163467714
1789997633356264700,8.2602646484375,-2.790583489209413,-1.333306120812893,1.1926209081850945,1.2312482449734579,3.0775694650056766
1789997633366335700,8.270335693359375,-2.4988591354608536,-1.33027128316164,1.2568936200007796,1.229070453535023,2.8430768645829048
1789997633376405500,8.280405517578124,-0.2921650467207655,-2.0289450372070075,1.469230402649194,1.9471630530220294,1.6028638119150778
1789997633386476500,8.2904765625,-0.4400490848114713,-0.6967857483416795,0.2149249725107103,0.6786445319693444,0.5145754747093247
1789997633396546600,8.300546630859374,-1.5278011034309864,0.8980465718328953,0.0927864933121949,-0.9231229250473018,1.5156243780762577
1789997633406617600,8.31061767578125,-0.354548766452074,1.2482248681157826,0.5699045315954834,-1.2805147849199316,0.6073246330504626
1789997633416687600,8.3206875,1.05344873046875,1.360432612669468,0.0553599951069802,-1.3464523221595435,1.0726891416204016
1789997633426758400,8.33075830078125,0.433496667493321,1.48092653953135,-0.0954982364889234,-1.467863522572221,0.48534458737115826
1789997633436828700,8.34082861328125,1.0730676231741905,0.0075309800267219,0.0914928002398461,0.002996226678916988,1.0769831914594983
1789997633446899500,8.3508994140625,-1.187264495718479,-0.2406944237351417,-0.2935387827593833,0.2385147742717865,1.223440439027902
1789997633456969500,8.360969482421876,-1.4389187048852443,0.6749965258598327,-0.6050907765932381,-0.6635909412736025,1.5658509698465224
1789997633467040500,8.37104052734375,-0.9713058693110942,0.57397419218719,-0.8930084315352141,-0.5414356144155816,1.3331140233642893
1789997633477110500,8.381110595703126,-0.820162537163496,-0.4536725730270147,-1.2274383929356931,0.5039420925414507,1.4598399798268697
1789997633487181300,8.391181396484376,0.0311970840300433,-1.3425877438992262,-1.197722249912098,1.402142009175354,1.127852597709733
1789997633497251600,8.40125146484375,0.1039384768476709,-0.2914607343763112,-0.6227787743013352,0.3242359039761926,0.6152048820885666
1789997633507322600,8.411322509765625,1.2549018616616725,0.6598638386577368,-0.2499310751685872,-0.62846781882287,1.2952577778222394
1789997633517392600,8.421392578125,1.8043851711928844,0.5393173048257828,0.0967982131715863,-0.5179746315247603,1.8132129429483241
1789997633527463400,8.43146337890625,-1.4341057516455649,0.8835457527935504,0.5441041007108987,-0.9302988732195939,1.5059567334685224
1789997633537533400,8.441533447265625,-2.576690563160181,0.2836146970510482,0.6404585887029767,-0.3522713870421134,2.6468592007088176
1789997633547604500,8.4516044921875,-2.126765359967947,-1.8351374523311847,0.1313768841976299,1.795805832041292,2.164070623758879
1789997633557674200,8.46167431640625,-0.5391548077404499,-1.710451334476471,-0.6506910097081213,1.7335700625084933,0.7965333030145408
1789997633567745300,8.471745361328125,0.4379963170001283,-0.5431663814693689,-0.6982898692943156,0.5841592379218965,0.795762036021942
1789997633577815000,8.48181494140625,-0.5510544678380712,-0.2754951034814119,-0.5073146583002061,0.2931499556033183,0.7422869018260804
1789997633587886000,8.491885986328125,-1.387070444226265,0.6271814662396907,-0.9360945629373192,-0.5982543897536362,1.6839494424542356
1789997633597956000,8.5019560546875,0.045049102038145,0.3236807499796152,-1.4715581149443984,-0.24765804162193075,1.4869254956387392
1789997633608027100,8.512027099609375,2.8474902023017403,0.4007996454954147,-1.1670892843045293,-0.3005402132701087,3.0887884009397073
1789997633618097200,8.52209716796875,1.0436626649916172,0.7246843936145305,-1.5960196302630003,-0.6276409459796165,1.9410679358952176
1789997633628168200,8.532168212890625,-2.3836276591718195,-0.3425239821374416,-1.0379819159414618,0.3611905876238796,2.5972969243314568
1789997633638238200,8.54223828125,-2.121796923905611,-0.4934399352699518,-0.4098226541781797,0.4836119897890334,2.163233507327507
1789997633648309200,8.552309326171875,0.6366565660715103,-0.4176853138446808,-1.4951780599847435,0.5022414104719789,1.6009695815943397
1789997633658379000,8.56237890625,-0.8678174377858638,-0.2692962488412856,-1.7911312834747135,0.34785331186170354,1.9780740438704079
1789997633668450000,8.572449951171874,-2.810440866845846,-0.6376426544994116,-1.7209793043620882,0.6846396891493781,3.2860621240260124
1789997633678521000,8.58252099609375,-2.340983280187845,-0.6275824482560157,-1.1292105122871696,0.6510992408272699,2.5933084288476107
1789997633688591400,8.59259130859375,1.066195983839035,-0.093089787107706,0.1235798005806282,0.10174529666949773,1.0725481090074371
1789997633698662100,8.602662109375,2.565050394248962,1.125258413660526,0.4778339314676821,-1.1117421341496758,2.614965528600472
1789997633708732200,8.612732177734374,1.8816051889956,1.566858856099844,1.3491910876870157,-1.6067613345457565,2.287819784663226
1789997633718803200,8.62280322265625,-0.9647171385705472,0.8798515744507313,1.743039452739805,-0.9810226919139206,1.9443762398961315
1789997633728873200,8.632873291015626,-3.219032189130783,-0.3835018892139196,2.352046818254888,0.2176729085925034,3.9992480135418695
1789997633738944000,8.642944091796876,-2.413196283483505,-1.8989169738024472,1.9531040526725352,1.7626811873222021,3.1838612483021174
1789997633749014000,8.653013916015626,0.7074246312558651,-2.2194605948001147,1.886275080502778,2.1303124694550544,2.1086150437166205
1789997633759085000,8.6630849609375,2.2706115208446978,0.2354237898558378,1.933976158354432,-0.30146333270122516,2.976656627752485
1789997633769155300,8.6731552734375,-1.093723457711935,1.5180547854423525,2.181960008445382,-1.6425087778917193,2.3587784394803593
1789997633779226000,8.68322607421875,-1.390783327269554,0.3686562022596597,1.8084825235091149,-0.4798996570188601,2.2606395148069414
1789997633789296000,8.693296142578125,1.3112287290394304,0.102452074214816,2.012769709084183,-0.18625752175575816,2.397158160148284
1789997633799367200,8.7033671875,3.56747620896697,0.6745739165335893,1.1850064145933836,-0.6835208554360781,3.7575225765421836
1789997633809437200,8.713437255859375,1.540297012388706,0.3267646874696016,0.2658762843299657,-0.31806348072278895,1.564869281489765
1789997633819508000,8.723508056640625,-0.4976736273169517,-0.7903910837560891,0.925517493212968,0.7351200005677888,1.0902193905890536
1789997633829578200,8.733578125,-1.0870026250243183,-1.039328435179591,0.5705710326801985,0.9934492808282673,1.2650644776999167
1789997633839649300,8.743649169921875,-0.465516776610352,-0.7286229021072387,0.28827392103374,0.7063420188286085,0.5760034798212246
1789997633849719000,8.753718994140625,2.374085923844576,-0.8616454711526632,-0.6373441830094904,0.9264705148024103,2.434456178404664
1789997633859790000,8.7637900390625,1.654118621879816,1.4792512997955083,-0.601131188779883,-1.4231809210489852,1.8056044958080826
1789997633869860000,8.773860107421875,0.2644131529748439,2.414538930264116,0.042453276858665,-2.4095870896360405,0.3092004194732516
1789997633879931100,8.78393115234375,-0.4826922947516665,0.5198118093669414,0.6966568612650036,-0.5613862500395838,0.8205927303992301
1789997633890001200,8.794001220703125,1.375581081962585,-0.5770061072289944,0.2470228230390697,0.5830749191876222,1.395063896224633
1789997633900072200,8.804072265625,3.505831361436844,-1.3254834643632172,0.025910394065082,1.371892124641928,3.4880285686904138
1789997633910142200,8.81414208984375,-0.3650034884383902,-0.0627542700767517,0.3935711920792236,0.03746354468691977,0.5391293082732678
1789997633920213200,8.824213134765625,0.8083797449111938,-0.5186760833352804,0.6600862492367625,0.49577128193370684,1.0547167315672867
1789997633930283000,8.834282958984375,-0.0829039086580276,0.5154617974638939,0.5330452388189733,-0.5430571337832727,0.5116640487567599
1789997633940354000,8.84435400390625,-2.00092831851244,0.5040075065135956,1.1902337207876146,-0.5922087598828596,2.3073107283729706
1789997633950424300,8.85442431640625,0.9145172296404838,-0.1778144814521074,1.4822428828269243,0.115021963129281,1.746932644612363
1789997633960495400,8.864495361328125,1.1872796932876108,0.6877578077554702,0.6060067223943769,-0.7008643879194133,1.32615124686261
1789997633970565000,8.874565185546874,0.4241734702875837,-0.1008569139778614,0.794220286655426,0.06627220834257935,0.9035978685949707
1789997633980636200,8.88463623046875,-2.417435236227512,-0.5817787284582853,0.9078354868542402,0.5005498069537072,2.5992450388894444
1789997633990706200,8.8947060546875,-1.8993653020918368,-0.0135094699144363,0.432694009340927,-0.0354039432370879,1.9477529933465834
1789997634000777200,8.904777099609374,-0.7760100917041302,-0.0029161797076463,0.2015235660806298,-0.018324216648380603,0.8015460918130766
1789997634010847000,8.914846923828126,-2.3680337841987606,-0.598241787481308,-0.3419241165481507,0.5813275778325953,2.396757724118993
1789997634020918000,8.92491796875,-3.370186042672396,-0.6987392204970121,-0.4375017749488353,0.6723787959020944,3.4037780506944384
1789997634030988300,8.93498828125,0.2972971854448318,-0.2691056947052478,-0.0005417787265032,0.2729616711092366,0.2937613164214346
1789997634041059300,8.945059326171876,-1.1145020418465137,0.1280851126432418,0.4173180879674851,-0.16491796232780123,1.1855281732659766
1789997634051129000,8.955129150390626,-1.6827122636795042,0.0865787977784872,0.5649260125305503,-0.13902177277761965,1.7716745742064497
1789997634061200100,8.9652001953125,0.4184615223815664,0.4059709106534719,0.1188267243020236,-0.4055363782142011,0.43541068241829467
1789997634071270100,8.975270263671876,-0.3788929341137409,1.2079647539198397,0.9094208563495428,-1.2579437412863892,0.9205229709007138
1789997634081341200,8.985341064453126,-2.054932295900583,0.5767682068198919,1.082286483222619,-0.6601347316053293,2.3002118322076814
1789997634091411200,8.9954111328125,-1.503631123292446,-1.0439672008961438,1.552246393379569,0.9422015596655122,2.2073738147863375
1789997634101482200,9.005482177734375,-2.431842531764507,-0.4041296667009592,1.4310877189986406,0.2963006973653251,2.8350303072482648
1789997634111552300,9.01555224609375,-2.5992355724453926,-0.4204208762884139,1.5794275380328298,0.30264820704008766,3.055449997129148
1789997634121623000,9.025623046875,0.4179787438333034,0.2930038721650839,1.6245996819287538,-0.36940957276628045,1.6623532096013294
1789997634131693000,9.035693115234375,-0.7001204457223414,-0.5946691896915436,1.4675054785527288,0.5092099682514937,1.6547137581776596
1789997634141764000,9.04576416015625,-1.98943895624876,-1.2423732194781305,1.130093724862486,1.154956355288019,2.3333551425940273
1789997634151834400,9.05583447265625,-2.059682120776176,-0.5509872843533754,1.4463006318300962,0.4474416166885669,2.5372148004162773
1789997634161905200,9.0659052734375,-0.4262555737912654,0.2028682586878538,0.5736050666138529,-0.23782154481950213,0.7037847894320473
1789997634171975200,9.07597509765625,2.421674188971519,0.7067173597693442,0.4556737567815929,-0.6946852153898061,2.4675911995848274
1789997634182046200,9.086046142578123,1.5620716218233108,1.636876979699731,-0.5050759394627065,-1.586779312097771,1.6901677779733235
1789997634192116200,9.0961162109375,-1.2252981660366058,1.3284826461791992,-0.2500388098593801,-1.3312223877441691,1.2476329979992375
1789997634202187000,9.10618701171875,-1.9681740499019624,-0.0230161339282989,-0.4957155520517379,0.02039191417628834,2.0296691630683767
1789997634212258000,9.116258056640625,-0.0259211894537322,-1.60405432202816,-1.171968069322035,1.6611239887285316,1.089880005166141
1789997634222328000,9.126328125,-1.7040940744042397,-2.362207854524254,-0.6640174512058497,2.3686195149591303,1.8205832393099772
1789997634232399000,9.136399169921877,-2.3105776205301285,-1.5142928025603293,0.3811682586345821,1.4600903900566358,2.3759791511365305
1789997634242469000,9.14646923828125,0.5748457143247128,-0.9788608147352932,-0.2741124900165945,0.9995806092258563,0.6038148331603777
1789997634252540200,9.1565400390625,3.516545647674799,-0.1597182682693004,0.2009452547360211,0.1989945979546079,3.520281716395056
1789997634262610200,9.166610107421874,3.0520424685537813,0.726841279387474,0.941814694149792,-0.7306209928533829,3.193191093278929
1789997634272681200,9.17668115234375,1.9350281516253949,0.4968874453753232,0.7687480648119002,-0.5079728716147136,2.079463447577271
1789997634282751000,9.1867509765625,-0.5452630614876747,-0.2237158164054155,1.1377052958447484,0.15775878892744669,1.2715526247238789
1789997634292822000,9.196822021484374,-2.6927894699335098,-0.9226941063553096,1.619542983061075,0.8008537497375123,3.1755365355796723
1789997634302892300,9.206892333984374,-0.8148316975295543,-0.6965326503634452,0.735420307162404,0.6465873491795968,1.1277749138852875
1789997634312963300,9.21696337890625,1.4734931746602058,0.1334814187288284,-0.0237654909908771,-0.11124621010542525,1.475529906242259
1789997634323033000,9.227033203125,0.909878463923931,1.4761153398573397,-0.2277599041644483,-1.4495870323784945,0.9784514935242471
1789997634333104000,9.237104248046874,-0.178484946325887,0.9053490038007496,-0.0122889151435345,-0.905982234065912,0.1756727176891979
1789997634343174100,9.247174072265626,1.285067867344618,0.8051350639015435,0.1410107913203537,-0.79301658897005,1.3002502173399113
1789997634353245200,9.2572451171875,4.109934734427929,-0.4565753087311983,-0.241883268193528,0.5263779447698376,4.108705186368574
1789997634363315200,9.267315185546876,2.2550223220467567,0.0224351191699504,0.1305251992717385,0.002840844957207239,2.258906320489226
1789997634373386200,9.27738623046875,0.2600269007146358,0.1960094788342714,0.6516893000304699,-0.22524290174481051,0.6928190845205718
1789997634383456300,9.287456298828126,-0.8139677741765976,0.3391629812717437,-0.0097667762547731,-0.3497030186166381,0.8095543551559486
1789997634393527300,9.29752734375,-0.9984428825616836,-0.4298556441098451,-0.6100018564451486,0.44619664490211874,1.163905014791067
1789997634403597000,9.30759716796875,-1.1949977203190325,-1.6389789204150438,-0.2342505082927644,1.6317168453383988,1.2274546388387921
1789997634413668000,9.317668212890624,-0.5184241544008255,-1.6572119117200377,-0.7100094601172954,1.683718775284621,0.8272360264296419
1789997634423738400,9.32773828125,0.1816155725018121,0.1526601664513349,-0.2627225695393979,-0.13650026879178115,0.3266193009625511
1789997634433809200,9.33780908203125,2.2479262263059616,1.1758517058223483,0.7233261108733713,-1.1792502935200395,2.3597391722187404
1789997634443879200,9.347879150390623,1.0021113419413563,2.068808261039853,1.9416478620260955,-2.150615831523611,2.1045290988496124
1789997634453950200,9.3579501953125,0.444583842164278,2.103023834374547,2.549543320776522,-2.2236229587863425,2.4851631983303277
1789997634464020200,9.368020263671877,-0.544978983849287,0.0447194316923618,1.9286245681934056,-0.1505717549017033,1.998980438141732
1789997634474091000,9.378091064453123,-2.7181086201071736,-1.4341776478379964,1.186141994494572,1.3333336794979445,3.0123303481655337
1789997634484161000,9.3881611328125,-0.5105331454226747,-2.316774137082696,1.2080370885036884,2.2448019459061883,1.4311898286693834
1789997634494232000,9.398232177734377,0.7387187641859054,-0.927183818989992,0.950403366535902,0.8879397311708885,1.2329658712584723
1789997634504302300,9.40830224609375,0.0734872792814858,0.395282343378663,0.9862371156569568,-0.4439109075173867,0.9681194480484142
1789997634514373000,9.418373046875,-1.2382137617111206,0.4416033650487661,1.549417015172541,-0.537395314782068,1.9596137921206989
1789997634524443100,9.428443115234376,-2.372347555744648,0.4029220444768667,1.0596583256985992,-0.489868228219291,2.58327001789915
1789997634534514200,9.43851416015625,-1.0362135180294514,-0.3382306688576936,1.1162618911258877,0.26626238803805,1.5372974307527847
1789997634544584200,9.448584228515625,0.1580372015808709,-0.7975824565649032,1.6822881930485367,0.7130389928451336,1.7270733890765981
1789997634554655200,9.4586552734375,-0.176179555460345,0.0703963092625141,1.4544792621105909,-0.1468531194837208,1.4594310402782507
1789997634564725500,9.4687255859375,0.0165361059929244,1.4866022470802067,1.2128360862832517,-1.546049816254077,1.1362046565988626
1789997634574796500,9.478796630859376,-1.637646795028448,0.6002677403509616,0.7666646826665848,-0.6616282759246178,1.7866816016062488
1789997634584866300,9.4888662109375,0.1190951842461712,-1.2087801619559526,-0.0986089889205992,1.2137964936348573,0.1084202360473244
1789997634594937300,9.498937255859374,-1.2080477560281753,-2.676431624850631,-0.4780423865865916,2.679949337997674,1.2919217052455354
1789997634605007400,9.50900732421875,-2.504969727295637,-1.6544330946564674,-0.0245786340046674,1.6179467579924247,2.528808928510316
1789997634615078100,9.519078125,0.4265513418674468,1.2264525967687367,-1.1557380884025246,-1.1598548922951266,1.2948355792042012
1789997634625148400,9.5291484375,1.740382362359762,1.0273112496495247,-1.1469241558931766,-0.9428601225308808,2.123852391194299
1789997634635219500,9.539219482421874,0.1578606394375674,0.0433294386386871,-0.7588783396393061,-0.0023935014765315175,0.7763298443707888
1789997634645289500,9.54928955078125,-1.49159464854002,0.2067757875204086,-1.6767390344887971,-0.14220002277004168,2.2491873566158365
1789997634655360300,9.5593603515625,-2.14710672172904,0.0425268900841474,-1.3972034234449269,-0.0016853188014123305,2.5620402762370884
1789997634665431300,9.569431396484376,-2.385806756776572,-1.5245055690169331,-0.9740279146861284,1.5382329865652153,2.5688053192631894
1789997634675501300,9.579501220703126,-1.751227581501007,-1.541719738668203,-1.0604433385964482,1.568797842378107,2.0266008977922603
1789997634685572400,9.589572265625,-1.1577648449897766,0.8268921376794576,-1.0009427365534007,-0.7911409401330792,1.5492425305144004
1789997634695642000,9.59964208984375,1.17997083157897,2.0385849722117184,0.3710520113550126,-2.0379430559054303,1.2379933555241944
1789997634705713200,9.609713134765624,3.620728491204977,2.236825571098924,0.3391678035773336,-2.199765237227783,3.659116169597949
1789997634715783400,9.619783447265624,2.0963994477987287,0.6815560305058955,0.3602416443314403,-0.6692996617378859,2.1310141418014896
1789997634725854500,9.6298544921875,-0.7380968328952789,-0.6270388428986072,1.2598382951505482,0.5515719456290641,1.4902770091350381
1789997634735924200,9.63992431640625,-2.393086392390728,-1.263961366429925,1.743721151393652,1.1395592978430875,3.011051125070786
1789997634745995300,9.649995361328124,-1.9536685546875,-0.7251952657461166,2.0188401150390503,0.593751109499412,2.8400535250404046
1789997634756065300,9.660065185546877,1.7680547976613044,-0.4541460357576608,1.3944734139591457,0.407507612773682,2.260699015149501
1789997634766136300,9.67013623046875,1.9090227727532385,-0.3720230483442545,0.8032057032741606,0.3576009653317362,2.073651380236264
1789997634776206300,9.680206298828123,-3.47861017703414,-0.3318383374720812,1.0697382595557718,0.2277070346588356,3.6473736984720957
1789997634786277400,9.69027734375,-3.6730759335577488,-1.4800094246864317,0.9405200512293724,1.3781033479653608,3.829794229450579
1789997634796347400,9.700347412109377,0.2763934953595511,-1.9786551119059324,0.6199135210633278,1.9482322102234755,0.7616780453665665
1789997634806418400,9.71041845703125,2.555080788898468,-0.6872521963208913,0.4956378837056457,0.6971879857480967,2.600065238304345
1789997634816488200,9.72048828125,2.774334949719906,1.2094745739609003,0.5813281351465731,-1.1981508848775169,2.839390782558024
1789997634826559200,9.730559326171877,0.8533458448410034,1.3293266957879066,0.2944499062549323,-1.3303944888403767,0.9011436325017732
1789997634836629500,9.74062939453125,-0.6107119409432634,0.8725064723849296,-0.188860264666751,-0.8703070629319651,0.6422386121567387
1789997634846700500,9.750700439453125,1.535268955093622,0.7251894205272197,-1.0341409495390952,-0.6498042995367308,1.8788699624870442
1789997634856770300,9.760770263671876,1.7590683581292628,0.4986182146906852,-1.153435948939994,-0.414310062762127,2.1217217708253013
1789997634866841300,9.77084130859375,-0.866696324801445,-0.3632008594632148,-0.8896246343158185,0.39573688549775854,1.2320315301067735
1789997634876911400,9.780911376953124,-1.129686751496792,-1.2426426840692757,-1.5454267764925955,1.3036245865728917,1.873301859167716
1789997634886982400,9.790982421875,0.4023802292177453,-0.464500256511569,-0.6882971022639424,0.5045905114665917,0.7725358592890442
1789997634897052400,9.801052490234374,2.0570751531481744,-0.8786685021460056,-0.7750855242051183,0.9460004445606046,2.170128395069414
1789997634907123200,9.811123291015624,-0.5087117752144112,0.0516688124388456,-0.844777119264379,-0.015773999923379866,0.9873484180266247
1789997634917193500,9.821193359375,-0.7601777318000793,0.5254705657809973,-0.7011695163838565,-0.49978258134376086,1.0468264237772436
1789997634927264300,9.83126416015625,0.3690203593969345,1.102462644484639,-0.2008307615108787,-1.0854767111160306,0.4622479989435015
1789997634937334300,9.841334228515626,0.327280856830813,1.5466636248111725,-0.2587128955066204,-1.526699812217457,0.4851815879014242
1789997634947405300,9.8514052734375,1.4072691826462744,-0.4189022884190082,-0.3951333998946473,0.45833945312832575,1.4498072385965404
1789997634957475300,9.861475341796876,-0.62086044652462,0.4119067304432391,-0.4657124818455427,-0.3963969055599404,0.7841507875736837
1789997634967546000,9.871546142578126,-0.8860591969192028,0.0004389759391546,-0.052338893720135,-0.010304082855804236,0.8875439588084221
1789997634977616400,9.881616455078126,1.2168985864818096,-0.4445511089384555,-0.6167497232701629,0.49254509753521614,1.347682234908394
1789997634987687400,9.8916875,1.6700409981548785,0.0406949984818696,-0.6961937007326632,0.018430924097211084,1.8097068791371562
1789997634997757400,9.90175732421875,-0.2317979640414938,-0.1730564732700586,-0.5905851352483034,0.19960970448762458,0.6265984415278034
1789997635007828200,9.911828125,-0.5768143840491772,-0.1459241361945867,-0.4964988113839179,0.16284500039356317,0.7576287103341792
1789997635017898200,9.921898193359375,0.8389701134860515,-0.4643763378709554,-0.068536232745368,0.4790822559731392,0.8334828382803409
1789997635027969300,9.93196923828125,1.1416238575279711,-0.3582581423640251,-0.6850744869556278,0.4087873360122266,1.3167664543269284
1789997635038039300,9.942039306640623,0.9237807325482368,-0.1126841298937797,-1.190205809867382,0.18619752694483466,1.4993294853897103
1789997635048110300,9.9521103515625,-1.5875146906375883,-0.7168254968076944,-0.9598489480122924,0.742249249760327,1.845106430560116
1789997635058180400,9.962180419921877,-2.073919904965162,-1.398797706899047,-0.6561995439965278,1.4009274235402476,2.1738856898537406
1789997635068251400,9.97225146484375,-2.17276957077384,-0.9010416619956492,-0.2260098090941086,0.8805633006215916,2.192827487910935
1789997635078321200,9.982321044921877,0.0326876331150531,-0.1598392643004655,-1.1212423098869622,0.2171730079265205,1.1120419389031946
1789997635088392200,9.99239208984375,1.4683260011553765,1.684061340200901,-1.4687223069965838,-1.5861536244349212,2.152511495437254
1789997635098462500,10.00246240234375,0.163899864802882,2.6394991937726733,-0.5646241435071453,-2.6047414462311576,0.7265958858442501
1789997635108533500,10.012533447265625,-0.9622761751592158,0.8000719352930784,-0.7385766523014754,-0.7749535242199973,1.2292408411481137
1789997635118603300,10.022603271484376,-2.1585072366654874,-1.5153402657866477,-0.5699536314342171,1.5117191318119105,2.2349411670893087
1789997635128674300,10.03267431640625,-1.5419091237604616,-2.068890678626299,-0.8800993386667221,2.0890090133097385,1.7516873506064992
1789997635138744300,10.042744384765625,-1.5384253732979296,-1.676796902155876,-0.4516182343130931,1.6756937307309312,1.6044968154033665
1789997635148815400,10.0528154296875,-1.2597826194405557,0.064702481535077,0.6630826545737684,-0.11619308963598557,1.4203578535280272
1789997635158885000,10.062885009765624,-2.1563293081045147,0.2410772855728864,0.0675429839243181,-0.2746751013911856,2.153367127538365
1789997635168956200,10.0729560546875,-0.6714063924133777,0.6389391240507364,0.2848135149141773,-0.6620444364937441,0.7084106509657503
1789997635179027200,10.083027099609374,1.5941899306178091,1.7104326297760009,0.2071659010828472,-1.6960460482324942,1.6227651797879044
1789997635189097500,10.093097412109374,-0.7948445560336113,1.0986346106290816,-0.0076189323048107,-1.1079522458811237,0.7818412530078097
1789997635199168300,10.103168212890624,-4.029954604262113,0.447390716278553,0.8924087120763957,-0.5492005265330338,4.115272124230831
1789997635209238300,10.11323828125,-2.163312006598711,-0.5839256773591042,0.7204324352584779,0.5158303901907572,2.2964820785065014
1789997635219309300,10.123309326171874,-0.0935562355756759,-0.8205009753376244,-0.5743949018172919,0.8472800577630091,0.5422366888139283
1789997635229379300,10.13337939453125,-1.2062380762577056,-0.4264420362740755,-1.3289163614213466,0.4764569966121815,1.782097228814444
1789997635239450000,10.1434501953125,-0.6716670891761779,0.294378083127737,-1.8094541450202464,-0.2113262839127001,1.9409432344009858
1789997635249520400,10.153520263671876,0.4784299245994537,0.4015560168206691,-1.6385595259591936,-0.310791613739937,1.7258123653333994
1789997635259591400,10.16359130859375,1.4919757568120957,-0.5043389304250478,-1.6215359104439615,0.6073043457596309,2.177362982173184
1789997635269661400,10.173661376953126,1.9040110820710656,-1.1457903295576572,-1.5007231268912553,1.247534538975975,2.3735882451692296
1789997635279732200,10.183732177734376,1.594938118636608,-0.2957680761814117,-2.181202760337293,0.4289799027308472,2.6841997097690395
1789997635289802200,10.19380224609375,1.4933423689901828,0.8685434139728546,-1.2776141903378069,-0.7811529856626745,2.0016336141561104
1789997635299873300,10.203873291015626,0.4674024076938629,1.1654700125396251,-0.9524250816218556,-1.1087327140899363,1.1200940432197182
1789997635309943600,10.213943603515624,1.8557097002387049,0.9323001390904188,-1.8816769390575587,-0.8089364147503201,2.6831272837455846
1789997635320014300,10.224014404296875,0.6406453434467315,-0.5596253488391637,-1.9679063388764857,0.6681113210250461,2.0371277840262643
1789997635330084400,10.23408447265625,-1.078877770757675,-1.6510346843898296,-0.7897676911607384,1.6736854773329013,1.3085880567464983
1789997635340155400,10.2441552734375,-1.1760592110931871,-0.4376905755192041,-0.4008782636895776,0.4408599398157305,1.2413839871932868
1789997635350225200,10.25422509765625,2.48732067335844,-0.4242249447464942,-0.2098514686387032,0.46949428042330366,2.4880401313887752
1789997635360296200,10.264296142578123,2.068947961771488,-0.0977683003127574,0.0435185680026188,0.12467524422484107,2.067958959530608
1789997635370366200,10.2743662109375,0.7372831784248352,0.2878308534413576,-0.1497919175386428,-0.26937421729950045,0.7591496789139759
1789997635380437200,10.284437255859377,-0.5322714779675006,0.5903185932666063,-0.0832915562687441,-0.5927798732756399,0.5360396188706187
1789997635390507300,10.29450732421875,-0.6097533615767955,-0.1737760197162628,0.1422405888436362,0.15766685032822025,0.630373553065793
1789997635400578300,10.304578369140623,0.6963666461467742,-0.6216039583683014,-0.0224899911623448,0.631728700989992,0.6875628225644747
1789997635410648300,10.3146484375,0.1820610695132985,0.5380424625843763,-0.5281353280108422,-0.5078226141064852,0.5862414535593349
1789997635420719400,10.32471923828125,-0.4027016797244548,0.1226654256820678,-0.3265357740845531,-0.1115615703465224,0.5209559264366579
1789997635430789000,10.3347890625,-1.4473475105345248,-0.3141355075210332,-1.2818449597753585,0.35850065578783935,1.9256426755857803
1789997635440860200,10.344860107421876,-1.863732847696543,-0.1758311986804008,-1.1182535763997583,0.2061707500003599,2.170806629109924
1789997635450930400,10.354930419921876,-2.193245372569561,-0.7446668589353561,-0.8996627748578786,0.7584205662746188,2.366230197637395
1789997635461001500,10.36500146484375,-1.883218469411135,-0.672459700858593,-0.9066035339064896,0.6910522235144531,2.084008312094151
1789997635471071200,10.3750712890625,-1.7401894701361655,-0.181746560204029,-0.3714098848819732,0.1757949620539336,1.7799810779958538
1789997635481142300,10.385142333984374,-1.558686071038246,0.3641805181503296,-0.1857448360599577,-0.37625660038726955,1.5668636930623039
1789997635491212300,10.39521240234375,-2.2288263890385624,0.5303665211290121,-0.726075336516276,-0.5241734625820248,2.345502780776685
1789997635501283300,10.405283447265624,-1.5116332279622553,-0.4322983610868454,-0.9854148394886404,0.4604947045560162,1.797471535751888
1789997635511353300,10.415353271484374,-2.1164006178200245,-0.6985960126340389,-1.1399937721081077,0.7257387663018425,2.395845781244926
1789997635521424400,10.42542431640625,-2.113594912749529,-0.6042921735614538,-1.3030360702335837,0.6399086764747534,2.474039686894781
1789997635531494400,10.435494384765626,-0.6118517951607704,0.0473521182835102,-1.6327305275447666,0.027201444194360595,1.7440395349182156
1789997635541565400,10.4455654296875,1.2279834595978258,0.9244792362064124,-1.583788948112726,-0.8251726725152997,2.0469691565630908
1789997635551635200,10.45563525390625,2.996254530358314,1.7455939595282075,-0.8745402432348579,-1.6562482798240734,3.1695901556591144
1789997635561706500,10.46570654296875,2.333501399999857,1.5496937862873077,-0.3774105866014957,-1.4953090532672,2.3985973403543204
1789997635571776500,10.475776611328126,-0.8259972346663474,-0.1586585300832986,-0.3856144243884831,0.16639124272391484,0.910195802828105
1789997635581847600,10.48584765625,-2.011925513345003,-2.479006433999538,-0.3136486738521605,2.463060298350555,2.0554869565040192
1789997635591917600,10.49591748046875,-2.607033094453812,-2.755234527930617,-0.5801030503310263,2.744054351581095,2.6822796506051874
1789997635601988600,10.505988525390626,-1.4645581730544566,-1.182995732358098,-0.7458319571919739,1.198608945720252,1.6321799682162124
1789997635612058600,10.51605859375,2.5511890421569348,0.545251371049881,-1.0381113875400274,-0.45554812937489986,2.7705623510790556
1789997635622129400,10.52612939453125,2.805063265460729,1.3581167369425295,-1.2914376946374773,-1.2507875582939127,3.133081996620635
1789997635632199400,10.536199462890623,0.3016167656769976,1.3664210394293068,-0.6337766997862607,-1.3279734132078953,0.7721649107136747
1789997635642270500,10.5462705078125,-0.5876292080521583,-0.4578191713124513,0.2360769200023263,0.43684770536802264,0.6479219661731684
1789997635652341500,10.556341552734375,-2.2573557334303853,-1.1328554446607828,0.6232081786945461,1.0676138241635567,2.3722574738411626
1789997635662411500,10.56641162109375,-2.3892028289556504,-1.103290912002325,0.7151976033449172,1.0315417938171467,2.524474229188213
1789997635672482600,10.576482666015623,-1.7272668601989745,-0.922228826931119,0.2378473637409508,0.8844011746976543,1.763054947015634
1789997635682552600,10.586552490234377,-0.9690426005542278,-0.6007113924652338,-0.122520610383898,0.592406359654063,0.9818165529958662
1789997635692623600,10.59662353515625,-0.5332722159752622,-0.2389648234635591,-0.1262668477075174,0.23751885168740616,0.5486451996575074
1789997635702693400,10.606693359375,0.5892261218547821,0.5058785610824823,0.3123043100384995,-0.5127414980605594,0.6616121820781007
1789997635712764400,10.616764404296877,2.364503271985054,0.6939660147458314,0.1642874028157442,-0.6679225163421315,2.377674160968524
1789997635722834700,10.626834716796877,1.3451695770859715,0.2311094337880611,0.608728000584431,-0.24275981131255214,1.4746220580916667
