time,seconds_elapsed,z,y,x,vertical,horizontal
1789997626669441300,1.573441162109375,0.2679272620430216,-9.75634838426113,-0.9551322216887026,9.795139758940907,0.4750089225937997
1789997626679511300,1.58351123046875,0.2718059118409641,-9.758051681047675,-0.9364555782694368,9.795944494005182,0.45811743489041235
1789997626689582300,1.593582275390625,0.2764295347873121,-9.759348735120891,-0.9214698252573608,9.796542033672054,0.4451649612951596
1789997626699652000,1.603652099609375,0.2797319190672598,-9.760690212857725,-0.9061286098711192,9.797147149116235,0.43162503879205594
1789997626709723100,1.61372314453125,0.2799748792439699,-9.762163208019732,-0.8900421290755272,9.797802381354972,0.4164851983755659
1789997626719793400,1.62379345703125,0.2833722848636098,-9.763544433245062,-0.8736704746630042,9.79839606152144,0.4022865541358317
1789997626729864400,1.633864501953125,0.2909542826915159,-9.764605340474844,-0.8592063343722373,9.798826183497315,0.39167946139565163
1789997626739934200,1.643934326171875,0.2973593274282291,-9.7655429135859,-0.8462496029697358,9.79919325778447,0.38236220238687657
1789997626750005200,1.654005126953125,0.2979138377721421,-9.766377610844373,-0.8363591272700578,9.799530997214326,0.3735948564178827
1789997626760076300,1.664076171875,0.2983509322814643,-9.767024676576256,-0.828609536056593,9.79978872288458,0.36676840337037153
1789997626770146300,1.674146240234375,0.3001248100861907,-9.76739000275731,-0.8236739793505519,9.799927301437595,0.3631061530598797
1789997626780217000,1.684217041015625,0.3015394809233956,-9.767700968402623,-0.819433711432293,9.800041920260785,0.3599419887317005
1789997626790287400,1.694287353515625,0.303960771519877,-9.768017779266836,-0.8147477455731481,9.8001539165971,0.356876150252467
1789997626800358400,1.7043583984375,0.3032472346893511,-9.7687168674469,-0.8066000218875705,9.800427046175777,0.3493156589443134
1789997626810428400,1.714428466796875,0.3033634814801625,-9.76968483569622,-0.7947382461149245,9.800791291654656,0.33892495923507365
1789997626820499200,1.724499267578125,0.3030871487568132,-9.770907070967557,-0.7796754823438823,9.801240899202835,0.32566470915210366
1789997626830569200,1.7345693359375,0.3069852339075878,-9.772265499839186,-0.7609070689879357,9.801696850127652,0.3116590428946878
1789997626840640300,1.74464013671875,0.307564422035031,-9.773677704724667,-0.7422830325387418,9.8021669170649,0.29644490200896184
1789997626850710300,1.754710205078125,0.3104384065687656,-9.774988202801346,-0.7235960138559341,9.802564665789852,0.28299034162837977
1789997626860781300,1.76478125,0.3152356873152777,-9.77636124472022,-0.7026887618403881,9.80293901408183,0.26976083487749475
1789997626870851300,1.774851318359375,0.3223042374620214,-9.777678757059574,-0.6808101805746555,9.803240570152079,0.2585705386127088
1789997626880922400,1.78492236328125,0.3313379136692732,-9.7789354791224,-0.658030924142152,9.803463348879232,0.2499499593568231
1789997626890992000,1.7949921875,0.3395452220549806,-9.78014777752161,-0.6354390800405293,9.803639622554057,0.24292896803832545
1789997626901063200,1.805063232421875,0.3408388055294752,-9.78169091531038,-0.6105190121870487,9.803929942054163,0.23095326270931446
1789997626911133200,1.81513330078125,0.3392472254890948,-9.78331763972938,-0.5848288732765242,9.804223715842406,0.21820829629809646
1789997626921204200,1.825204345703125,0.3370096026301384,-9.78488532743752,-0.559322895293869,9.804458776588783,0.2073319626543306
1789997626931274200,1.835274169921875,0.3333079716332257,-9.786287010928987,-0.5365351998265833,9.804645778529206,0.19823935647091948
1789997626941345300,1.84534521484375,0.3315762159371748,-9.787376559731364,-0.5173907562324777,9.804734458654583,0.1937991198649281
1789997626951416300,1.855416259765625,0.3325989100484177,-9.788176770198344,-0.5013357665536925,9.804730477138335,0.19396994900388342
1789997626961486300,1.865486328125,0.3362533409027382,-9.78876538374126,-0.4872490447405725,9.804652639342503,0.19797045394237975
1789997626971557400,1.875557373046875,0.3422347899325191,-9.78915584436357,-0.4750581100787967,9.804506370282592,0.20501668155870045
1789997626981627100,1.885627197265625,0.3496197856172919,-9.789297883182764,-0.4666880123468115,9.804326436913186,0.21346629592287525
1789997626991698200,1.8956982421875,0.3538046335538849,-9.789328862842916,-0.4628504800105467,9.80422114527787,0.2182100019382097
1789997627001768400,1.9057685546875,0.3540626269029453,-9.78934172232449,-0.4623889269134029,9.8042141326276,0.2185416700077866
1789997627011839500,1.915839599609375,0.3564113089209422,-9.789048292335869,-0.4667917284496128,9.80417852361971,0.22016694927616126
1789997627021909200,1.9259091796875,0.3581761997016147,-9.788609316396713,-0.4745819439344108,9.804161806605798,0.22091136340600445
1789997627031980300,1.935980224609375,0.357375770038925,-9.788037069466707,-0.4868559172371402,9.804204043088344,0.21908646673018523
1789997627042050300,1.94605029296875,0.3566059181775897,-9.787370714512466,-0.5005945927975699,9.80422731967331,0.21797911525015332
1789997627052121000,1.95612109375,0.3527268847871571,-9.786678056073187,-0.5166288319492712,9.804297251211905,0.2148124492577187
1789997627062191400,1.96619140625,0.3483511539209634,-9.785822900548578,-0.5354699817478656,9.804340819162684,0.2128557501982842
1789997627072262400,1.976262451171875,0.3476096879038959,-9.784705879217386,-0.5559735848659649,9.804258937806575,0.21659858130782791
1789997627082332400,1.98633251953125,0.3472011436356231,-9.783494165340066,-0.5771539182018488,9.804121664308727,0.22273696171268376
1789997627092403200,1.9964033203125,0.3436426109038293,-9.782126968640087,-0.6018955242158844,9.803965921082174,0.22940949185895193
1789997627102473200,2.00647314453125,0.3386309567542746,-9.780583830851317,-0.6291971169110387,9.803744289436615,0.23870047434108174
1789997627112544300,2.016544189453125,0.3336004883063957,-9.779136554652451,-0.6538756310936064,9.803484549431706,0.2490884789185923
1789997627122615300,2.026615234375,0.3269244446085765,-9.7776319953084,-0.679272961070016,9.803180937048168,0.2608108496543212
1789997627132685300,2.036685302734375,0.3237404077449813,-9.776018130370971,-0.7035891447462141,9.802762503554625,0.27608571215658906
1789997627142756000,2.046756103515625,0.3220044142652303,-9.774411279696226,-0.7263485274344682,9.802292279174964,0.29231996919849396
1789997627152826400,2.056826416015625,0.3186710320588201,-9.77318729085922,-0.7440536224078387,9.801924421293938,0.3043591318579246
1789997627162897400,2.0668974609375,0.3136263524224981,-9.772137489545344,-0.7598336676027625,9.801608280363858,0.31441202940839547
1789997627172967200,2.07696728515625,0.3080126407265663,-9.770959093415737,-0.7770807896755635,9.801230382023299,0.32596156865076564
1789997627183038200,2.0870380859375,0.3024096330877393,-9.769563839665055,-0.7965838739816099,9.80075095645413,0.34008199206408357
1789997627193108200,2.097108154296875,0.2988188237878493,-9.767651284042,-0.8210277756907045,9.800035000539944,0.36014565490221795
1789997627203179300,2.10717919921875,0.2949022348660044,-9.765440037733317,-0.8482935298874974,9.799159855779479,0.38321598664820156
1789997627213249300,2.117249267578125,0.2906709357054904,-9.763134683400391,-0.8758299907844513,9.798200068464464,0.4069914374775537
1789997627223320300,2.1273203125,0.2830935775200836,-9.76082523741424,-0.9036130468536168,9.797201431291741,0.4303625705320926
1789997627233390300,2.137390380859375,0.2749724130478687,-9.758416422706842,-0.9317229237243532,9.796112515674118,0.45451962965127485
1789997627243461400,2.14746142578125,0.2714888269821182,-9.755514856046435,-0.962615490116179,9.794738819971435,0.48321456939442553
1789997627253531100,2.15753125,0.2697940970945172,-9.752242117986082,-0.9956901497874407,9.793130884497147,0.5147829990788293
1789997627263602200,2.167602294921875,0.2625143884151242,-9.74887059572637,-1.0300465928975493,9.791410588454614,0.5465037677655319
1789997627273672400,2.17767236328125,0.2561188786917366,-9.745179339993,-1.0659501193191856,9.78946228942095,0.5803404083211855
1789997627283743500,2.187743408203125,0.2525097665501758,-9.741474055734276,-1.1001263104915615,9.787451429677223,0.613310990845827
1789997627293813200,2.197813232421875,0.2520254353656433,-9.737618549349904,-1.1338771158587186,9.785313088082164,0.6465732091500143
1789997627303884300,2.20788427734375,0.2537397102039307,-9.733741415655611,-1.1663118701912465,9.783117227939345,0.6789745726675466
1789997627313955300,2.217955322265625,0.2530555455983616,-9.72977368106842,-1.1991093203563243,9.780815443033525,0.7113686986732868
1789997627324025300,2.228025390625,0.2495538393540307,-9.726093531250951,-1.2293204072900117,9.778629294299217,0.7408173093488382
1789997627334096100,2.23809619140625,0.242637392762769,-9.72274305177927,-1.2568908435218036,9.77658959839067,0.7672520918558018
1789997627344166400,2.24816650390625,0.2368963648927398,-9.719583126443624,-1.2821756530344486,9.774640426883176,0.7917038397800095
1789997627354237400,2.258237548828125,0.2293824821312911,-9.71656582444906,-1.3061920500464737,9.772744018352265,0.8147881732848145
1789997627364307200,2.26830712890625,0.2196082349561154,-9.713941321164368,-1.327228408334404,9.771056146272379,0.8347938680702724
1789997627374378200,2.278378173828125,0.2119215163784101,-9.711392221203448,-1.3469731193765997,9.769407322464195,0.8538540596970147
1789997627384448300,2.2884482421875,0.2053907994354143,-9.70918506654799,-1.3637906909257174,9.767967261559225,0.8701727775183811
1789997627394519300,2.298519287109375,0.2043598124198615,-9.707027011731268,-1.3792181232906875,9.766583223094406,0.8855682454769577
1789997627404589000,2.308589111328125,0.2059396289572119,-9.704653852859138,-1.3955878049418329,9.765069284134523,0.9021112636164237
1789997627414660000,2.31866015625,0.2045053218377754,-9.702796826815604,-1.4086504078716038,9.763859730318115,0.9151108279285288
1789997627424730400,2.32873046875,0.2018729092412628,-9.701483406129478,-1.4180463049873708,9.762989365778752,0.924352161067669
1789997627434801400,2.338801513671875,0.2011163735192269,-9.700359370535612,-1.4258173773802816,9.762251913016614,0.9321011177327336
1789997627444871200,2.34887109375,0.1985090222987346,-9.699902858939767,-1.4292806695766749,9.761935520032058,0.9354033568273513
1789997627454942200,2.358942138671875,0.1999442062010057,-9.699686585840585,-1.4305629644721745,9.761805141697733,0.9367861655534079
1789997627465012200,2.36901220703125,0.2032530019554309,-9.699506553098558,-1.431314513491839,9.761710424028852,0.9377686230326956
1789997627475083300,2.379083251953125,0.2076524972897022,-9.69974679159522,-1.429053728953004,9.761897424050186,0.9358208286040897
1789997627485153300,2.3891533203125,0.2106894720991142,-9.700841601094602,-1.4211542078748345,9.7626314013606,0.928129962294821
1789997627495224300,2.399224365234375,0.2137158341829665,-9.702710317575931,-1.4078909678064286,9.763864927865562,0.9150741020282029
1789997627505294300,2.40929443359375,0.213834565191809,-9.704994044598935,-1.392034788635373,9.765339729324534,0.8991859933398326
1789997627515365400,2.419365478515625,0.2136991753091104,-9.707250299093127,-1.3762306319124995,9.766786151842474,0.8833316043048323
1789997627525436200,2.429436279296875,0.2149517874523997,-9.709544547510149,-1.3597573437564074,9.768256071787043,0.8669330659907271
1789997627535506200,2.439506103515625,0.2170115329938009,-9.712115274780988,-1.3409499135643244,9.76989464194014,0.8482820711084401
1789997627545577200,2.4495771484375,0.2208454486008733,-9.714898183497786,-1.3199869127735495,9.771660423867088,0.8276698849296235
1789997627555647200,2.459647216796875,0.226077540568076,-9.717723177790642,-1.2981294473610818,9.773442458841563,0.8063605771227335
1789997627565718300,2.46971826171875,0.2301162032333202,-9.72055693991184,-1.2760123080991208,9.775203148749823,0.7847238368692141
1789997627575788300,2.479788330078125,0.2335768285485915,-9.723483641013502,-1.2528833614461123,9.77699695071698,0.7620627237645105
1789997627585859300,2.489859375,0.2372370680891908,-9.72658511416018,-1.2278630480885504,9.77887179311028,0.7375998429035758
1789997627595929000,2.49992919921875,0.2422434980743564,-9.729426475065946,-1.2041559362214058,9.780572794519152,0.714708874943149
1789997627606000000,2.510000244140625,0.2462361113744787,-9.731960377457735,-1.18267482984066,9.782065779958462,0.6939696251684171
1789997627616070100,2.520070068359375,0.2508341066892258,-9.734314247107504,-1.1621589152302592,9.783436694285697,0.6743674100014282
1789997627626141200,2.53014111328125,0.2568314656741917,-9.736647658491131,-1.1411124739397316,9.784779954113581,0.6545906775375557
1789997627636211200,2.540211181640625,0.2630154698050581,-9.73890975820422,-1.1202015686623752,9.786061543144319,0.6351310447676559
1789997627646282200,2.5502822265625,0.2684877637363039,-9.741109898597,-1.099591911353916,9.787286534118355,0.6159808490538112
1789997627656352300,2.560352294921875,0.2705406959444284,-9.743307700902225,-1.079425321637839,9.788483394266466,0.5966482110802741
1789997627666423000,2.570423095703125,0.2714019158836454,-9.745666831248998,-1.057696670236811,9.789744961693,0.5755838921380763
1789997627676493000,2.5804931640625,0.2716004889293573,-9.748008425939082,-1.0358347478449343,9.79097286035058,0.5542915933760505
1789997627686564000,2.590564208984375,0.2718354667290114,-9.750089323866368,-1.0159970247570425,9.792044015755193,0.5350329823223825
1789997627696634400,2.60063427734375,0.2731074411598965,-9.752057993590832,-0.9965857834529132,9.793039482157662,0.5165110932568708
1789997627706705200,2.610705078125,0.2746024472243152,-9.753893392324446,-0.9780425571549684,9.793949218213847,0.49896770186726286
1789997627716775200,2.620775146484375,0.2752806752794422,-9.75563819016516,-0.9602968379102648,9.794797538804024,0.4820447472282549
1789997627726846200,2.63084619140625,0.2746329519604332,-9.7574496235013,-0.941875630556792,9.795659253268756,0.46415074141396495
1789997627736917200,2.640917236328125,0.2732188473788089,-9.759245859268306,-0.923496947170794,9.79649711841097,0.44611556866795515
1789997627746987000,2.650987060546875,0.2733133937944658,-9.760834005242586,-0.9065328067578374,9.797220550290518,0.42994407522476263
1789997627757058000,2.66105810546875,0.2770750661492347,-9.762063839298486,-0.8920395865030586,9.797763854240062,0.4173955860526266
1789997627767128300,2.67112841796875,0.2827961472097784,-9.763168585669996,-0.8780337113738059,9.798234771884951,0.40616874131782604
1789997627777199400,2.681199462890625,0.2877572584821842,-9.764269824910164,-0.864080077888444,9.798694099815222,0.3949655335727598
1789997627787269000,2.69126904296875,0.2927469747945666,-9.765278125169871,-0.8508980132974684,9.799100312280489,0.3847312725404385
1789997627797340200,2.701340087890625,0.2961966037917882,-9.76623323393762,-0.8386440964020788,9.799478889539435,0.3749418910531018
1789997627807410200,2.71141015625,0.2992327200846746,-9.767105925118925,-0.8273304560314864,9.799817196253596,0.3660013343583471
1789997627817481200,2.721481201171875,0.2996420680705458,-9.768055773189664,-0.8158941391292959,9.800189156798913,0.3559138861130072
1789997627827551200,2.73155126953125,0.3015684695558622,-9.76897581064403,-0.8040785405859351,9.800533489519365,0.3462911362114999
1789997627837622300,2.741622314453125,0.3059858841393142,-9.769789465114474,-0.7924501351777463,9.800816348525201,0.3382154242175605
1789997627847692300,2.7516923828125,0.3084084716437384,-9.770531223392489,-0.7822866146903484,9.801073793941994,0.33063727239433716
1789997627857763300,2.761763427734375,0.3127604928407818,-9.771315651768443,-0.7706859740719199,9.801327956698014,0.3230415580975378
1789997627867833000,2.7718330078125,0.3165975867856294,-9.77214333476424,-0.758528649418801,9.801589684461721,0.31499961361616563
1789997627877904100,2.781904052734375,0.3188718518605455,-9.773218855041264,-0.743575118175894,9.801934415472928,0.30409162694945235
1789997627887974100,2.79197412109375,0.3234667419027537,-9.774157012674213,-0.7291068862318992,9.802199506608972,0.2953941869964319
1789997627898045200,2.802045166015625,0.3313774784946814,-9.774824536672234,-0.7164997719846665,9.802336005909405,0.2908375946971126
1789997627908115200,2.812115234375,0.3366814301216975,-9.7755575271219,-0.7039109240464866,9.802501944506858,0.2851763811918648
1789997627918186200,2.822186279296875,0.3376930548496544,-9.77656524285972,-0.6892807064738125,9.802777572627015,0.2755436464596178
1789997627928256300,2.83225634765625,0.3403916828164831,-9.777622642958164,-0.6727679630901664,9.803030813509968,0.2664106742482815
1789997627938327300,2.842327392578125,0.3402598000651225,-9.778662507399916,-0.6575549041282385,9.80329269474249,0.2566085702404165
1789997627948398000,2.852398193359375,0.3407691743593662,-9.77968249809742,-0.6419270538203418,9.80352267721104,0.24764259250365184
1789997627958468000,2.862468017578125,0.3415427525477483,-9.780773215943574,-0.6246767168771475,9.803744405706007,0.23873161025238457
1789997627968539100,2.8725390625,0.3453185082267969,-9.781699098616835,-0.6078785076156258,9.803867009742056,0.23364516540633745
1789997627978609200,2.882609130859375,0.3486898843560367,-9.782652453818915,-0.5903560757327825,9.80397445090226,0.22908280134450362
1789997627988680200,2.89268017578125,0.3518269037401303,-9.783546772310135,-0.5734278834160417,9.80404988282306,0.22582083334264058
1789997627998750200,2.902750244140625,0.3539878446336835,-9.78451123342812,-0.5553227928070351,9.804121626506195,0.2225983111212206
1789997628008821200,2.9128212890625,0.3535367398653179,-9.785532977691291,-0.537364490257576,9.804221107679997,0.2182955588879457
1789997628018891000,2.92289111328125,0.3504178041271865,-9.786495100721716,-0.5216284668674692,9.80433648259007,0.21298212953045706
1789997628028962000,2.932962158203125,0.3458544052017852,-9.787285374316571,-0.5097216829093173,9.80445480914535,0.20749061994005594
1789997628039032300,2.9430322265625,0.3451848719097674,-9.787783971488476,-0.5005157188750803,9.804474463493005,0.20655301468796627
1789997628049103400,2.953103271484375,0.3439467814821749,-9.788273216310143,-0.49174387194179,9.804498843580404,0.20544198073736775
1789997628059173000,2.963173095703125,0.3428462363617494,-9.788849554893376,-0.4808942688863724,9.804506339397955,0.2050216785531251
1789997628069244200,2.973244140625,0.3438265891686081,-9.789422970867156,-0.4683342817164957,9.804453250717549,0.2074904332393692
1789997628079314200,2.983314208984375,0.3456633030764758,-9.789912800210711,-0.4566309844411909,9.804372426637704,0.211350255645174
1789997628089385200,2.99338525390625,0.3477691893145442,-9.790300922745466,-0.4465985429875552,9.804278926314254,0.21563988632916697
1789997628099455200,3.003455322265625,0.347551856769435,-9.79061305743456,-0.439846913302876,9.804243751169173,0.2171775963452996
1789997628109526300,3.0135263671875,0.3449220927877351,-9.790902395769953,-0.4354688443491235,9.804272558519042,0.21590202930056548
1789997628119596300,3.02359619140625,0.3420497156891972,-9.79098539787829,-0.4358435594130307,9.804333903641444,0.21304784358841664
1789997628129667300,3.033667236328125,0.3398526805689558,-9.790921684992313,-0.4390247101997956,9.804401196305061,0.21001705692751596
1789997628139737000,3.043737060546875,0.3421566101297736,-9.79070482737124,-0.4420592190574854,9.804371744858749,0.21138402100234693
1789997628149808000,3.05380810546875,0.3451616736972704,-9.79055285167992,-0.443091850040853,9.804315062563779,0.21400528985262418
1789997628159878100,3.063878173828125,0.3468752361495048,-9.790647544226047,-0.4396230779517441,9.80425722289717,0.2165883714554216
1789997628169949200,3.07394921875,0.3477866884386166,-9.790921100470424,-0.4327728832634165,9.804194467744281,0.21944198192840922
1789997628180020000,3.08402001953125,0.348043622341752,-9.791219791156053,-0.4257503276828676,9.804138778747449,0.22191329469253016
1789997628190090200,3.09409033203125,0.3496841926230117,-9.791441324952244,-0.4192736059494316,9.804053402849982,0.22567561956155507
1789997628200161300,3.104161376953125,0.3520989621471613,-9.7915401091516,-0.4149022955300286,9.803963607566375,0.22950573984067266
1789997628210231300,3.114231201171875,0.3545929343873634,-9.791647661179304,-0.410194958089292,9.803866577114634,0.23358105996005712
1789997628220302000,3.124302001953125,0.3533640867121517,-9.79189783654809,-0.4052477474780753,9.803847107046264,0.23438655607721393
1789997628230372000,3.1343720703125,0.3494483380405232,-9.792317523264884,-0.3984645901439711,9.803865424278829,0.23365228359370338
1789997628240443100,3.144443115234375,0.3484006190858781,-9.792674081617593,-0.3905541823456063,9.803803860986529,0.2362436979427386
1789997628250513400,3.154513427734375,0.3512199142903089,-9.792869896450638,-0.3830327007995918,9.803656271624968,0.24226843523971783
1789997628260584200,3.164584228515625,0.3525434179790317,-9.79310779685974,-0.3756505546590313,9.803536650272452,0.24704183543643202
1789997628270654200,3.174654296875,0.3538576789153739,-9.79335504961908,-0.367894204911217,9.803407182646996,0.2521351662490909
1789997628280725200,3.184725341796875,0.3581585909796878,-9.793562554889917,-0.358124323383905,9.803177729897717,0.2609684269621922
1789997628290795000,3.194794921875,0.3628566126028075,-9.793787011295557,-0.3470695896778255,9.802905394596683,0.2709835208965721
1789997628300866000,3.204865966796875,0.3671457976967096,-9.79405998301804,-0.3346493763048201,9.802606193288074,0.2816185577926037
1789997628310936300,3.214936279296875,0.3683214173473417,-9.79447148642838,-0.3210350577764213,9.80234049216328,0.290717644722423
1789997628321007400,3.22500732421875,0.369369209367223,-9.79489994097352,-0.3063925469777546,9.802037554085002,0.3007235402532851
1789997628331077000,3.2350771484375,0.3712251394322142,-9.795310859861967,-0.2906442668942734,9.801672226814203,0.3124397437168685
1789997628341148200,3.245148193359375,0.372014207450673,-9.79570248952806,-0.2760478054607287,9.801331201260147,0.32294102866523144
1789997628351218200,3.25521826171875,0.3723141767779365,-9.796099964413049,-0.2611912135199643,9.800975849681594,0.3335949684592988
1789997628361289200,3.265289306640625,0.3715943015381693,-9.796507376170158,-0.2465077861890196,9.800624815914409,0.3437417673580489
1789997628371359200,3.275359130859375,0.3732345795584842,-9.796796714505552,-0.2320871014474891,9.80020263073646,0.3555597500975981
1789997628381430300,3.28543017578125,0.3776323761260137,-9.796941675934194,-0.2184641612212173,9.799715889919845,0.36873768419500746
1789997628391500300,3.295500244140625,0.3833838157922029,-9.7969866841197,-0.2061116427895613,9.799213170311933,0.3818828237937097
1789997628401571300,3.3055712890625,0.3856677985435351,-9.797112356325984,-0.1955361257014796,9.798832451126888,0.3914934795187293
1789997628411641000,3.31564111328125,0.3876985737187787,-9.797205295306444,-0.1867421217353083,9.798506180051735,0.39961361583707017
1789997628421712100,3.325712158203125,0.3885509162317961,-9.797327460381387,-0.1783827645930461,9.798214561210557,0.40670505729961515
1789997628431783200,3.335783203125,0.3855446470879018,-9.797575882184503,-0.1710403111420571,9.798046235007167,0.4107098814966785
1789997628441853200,3.345853271484375,0.3842085396459326,-9.797747147098184,-0.1640530095379799,9.797842564288707,0.4155235682346225
1789997628451924000,3.355924072265625,0.3824806198747828,-9.79788158713281,-0.1599948201883584,9.797745732513679,0.41779411622599216
1789997628461994200,3.365994140625,0.383662851929292,-9.797893862092494,-0.1564688745519146,9.797595164890476,0.42134642563876423
1789997628472065300,3.376065185546875,0.3867660055764019,-9.797839501556751,-0.1521628844536841,9.797365500365107,0.42664931383539945
1789997628482135300,3.38613525390625,0.3923214842790737,-9.79769570917189,-0.1471764286774676,9.797046560338186,0.4339319673360885
1789997628492206000,3.3962060546875,0.3970223919790238,-9.797571790531276,-0.1427387293578125,9.796763323979677,0.44027546960092834
1789997628502276000,3.406276123046875,0.3999716702386736,-9.797526782345772,-0.137491631617723,9.79649290040196,0.44625014164151416
1789997628512347100,3.41634716796875,0.4018949664514512,-9.797524444258212,-0.131957076972071,9.796235939989522,0.4518615696392188
1789997628522417400,3.42641748046875,0.4003837947035208,-9.797636672461032,-0.1280258019377477,9.796126455337829,0.45419007651704896
1789997628532488200,3.43648828125,0.4020801868252456,-9.79759984758198,-0.1254528827098198,9.79598265697635,0.45726738345814166
1789997628542558200,3.44655810546875,0.4055446845980361,-9.797440273106098,-0.1268722388552967,9.795944576400805,0.45811441514408113
1789997628552629200,3.456629150390625,0.4083647835200652,-9.797310509246588,-0.1278018387224525,9.79590221262858,0.459007801254387
1789997628562699000,3.466698974609375,0.4098599174486473,-9.79726667010486,-0.1262953066170215,9.795802865113943,0.4611031222812933
1789997628572770000,3.47677001953125,0.409356936362572,-9.79730758663714,-0.1247767644133884,9.795759285419793,0.4620371322471947
1789997628582840300,3.48684033203125,0.4065095841074362,-9.797428582668305,-0.1244917734595481,9.795825332355145,0.46060952454912285
1789997628592911400,3.496911376953125,0.4072471046017483,-9.797354348388314,-0.1279070709289051,9.795935542545429,0.45826793164999485
1789997628602981000,3.506981201171875,0.4088875652851537,-9.797205295306444,-0.1340516837642993,9.79612278769926,0.4542783526262175
1789997628613052200,3.51705224609375,0.4074498971648514,-9.797149181205034,-0.1422566997282207,9.79646422817418,0.4468479520008612
1789997628623122200,3.5271220703125,0.4093535753617063,-9.7969130343616,-0.1526755740830209,9.79678587364617,0.43974052503045963
1789997628633193200,3.537193115234375,0.4132177399765699,-9.79652549634874,-0.1664912878018803,9.797157035827498,0.43138621384087056
1789997628643263000,3.547262939453125,0.4167194279545917,-9.796101133456826,-0.1820088461357168,9.797572958068908,0.42183391273993015
1789997628653334000,3.557333984375,0.4184187061531469,-9.795714179965852,-0.1982811500933021,9.798039179740595,0.4108943367747279
1789997628663405000,3.567405029296875,0.414610619107075,-9.795540576964616,-0.214177643008437,9.798621430518875,0.39674586901132003
1789997628673475300,3.577475341796875,0.4087074960105121,-9.795431855893137,-0.2298967700626701,9.799229812375449,0.3814114181283634
1789997628683546000,3.587546142578125,0.4052599128399044,-9.795113291463256,-0.2488169033816084,9.79982636958083,0.36577720955768683
1789997628693616000,3.5976162109375,0.4059883367123082,-9.794501297044754,-0.2706839038074016,9.800339022558893,0.3517200677351708
1789997628703687200,3.607687255859375,0.4077060638830065,-9.793788180339336,-0.2929958532554097,9.800787342810768,0.3390061753221649
1789997628713757000,3.6177568359375,0.4069405959358438,-9.793227039325236,-0.3122442138817161,9.801196307247935,0.3270227641672739
1789997628723828000,3.627827880859375,0.4027615566855296,-9.792838332268596,-0.329382468752563,9.801621740291601,0.31401201323756694
1789997628733898200,3.637898193359375,0.3957267261452972,-9.792535549929738,-0.3464623810322955,9.802089619793334,0.29904415298373455
1789997628743969300,3.64796923828125,0.3883141483338549,-9.792208217671512,-0.3636802404779941,9.802534665900742,0.28408994554209444
1789997628754039000,3.6580390625,0.3823583817346021,-9.791779178604482,-0.3811468139877542,9.802911414701287,0.270810088377824
1789997628764110000,3.668110107421875,0.3808268247857689,-9.791080090424416,-0.400166206430085,9.80316013122408,0.26165405009114706
1789997628774180000,3.67818017578125,0.3789721002971753,-9.790417827123402,-0.417714503406547,9.803366141123421,0.2537691704885703
1789997628784251100,3.688251220703125,0.3775075807025655,-9.78982746001482,-0.4326040660351514,9.803514079576114,0.24797507909298733
1789997628794321200,3.698321044921875,0.3766748196728527,-9.789297298660872,-0.445140416601114,9.803611246109293,0.24409434036001795
1789997628804392200,3.70839208984375,0.3716532651837915,-9.789116096875071,-0.4533030821274966,9.80377493295411,0.2374886436597421
1789997628814462200,3.718462158203125,0.3666427435453981,-9.789095638608933,-0.4577978727960959,9.803912522679354,0.2317292886419263
1789997628824533200,3.728533203125,0.363176309543848,-9.789009129369258,-0.4623895114352926,9.804010922209867,0.22753167727503035
1789997628834603000,3.73860302734375,0.3594419087884947,-9.788960029530523,-0.466311799445562,9.804108805173788,0.22323569641900884
1789997628844674000,3.748674072265625,0.3573481513796374,-9.788974642577768,-0.4676222244570031,9.804160515573423,0.22097371789914338
1789997628854744300,3.758744384765625,0.3573371915942058,-9.789009713891147,-0.4669105325236916,9.804159142780104,0.22106559111383028
1789997628864815400,3.7688154296875,0.3580163329647853,-9.789126033747197,-0.4639314071150496,9.804133204480229,0.22219059064837546
1789997628874885000,3.778885009765625,0.3588927139405161,-9.789271579697727,-0.4601605468068271,9.804098924872813,0.22368290355452483
1789997628884956200,3.7889560546875,0.3643895212585106,-9.789243522647023,-0.4564087199926376,9.803957597302052,0.229766879420028
1789997628895026200,3.799026123046875,0.3699416024276986,-9.78920845133364,-0.4527115094425156,9.803812828084897,0.23592506337497013
1789997628905097200,3.80909716796875,0.3760856946732848,-9.789256966650486,-0.4465383372329175,9.80363382249286,0.24321342468244947
1789997628915168000,3.81916796875,0.3797274487091228,-9.78963982848823,-0.4348968531474471,9.803474855312894,0.2495134083604223
1789997628925238000,3.829238037109375,0.3825432733148336,-9.79021792063713,-0.4191360971748828,9.80328940746986,0.2567063514349879
1789997628935309000,3.83930908203125,0.3878087195623665,-9.790511350625753,-0.407278924512118,9.803053112992194,0.26558218296057984
1789997628945379300,3.84937939453125,0.3956117945287376,-9.79061013482511,-0.3972869611993432,9.802753310934213,0.2764416007364898
1789997628955450000,3.8594501953125,0.4015671958018094,-9.790905902901292,-0.3837913736797869,9.80244567899019,0.2871395848172791
1789997628965520100,3.86952001953125,0.4052776676923036,-9.791436064255237,-0.3658909387974068,9.80211606496453,0.29810571344161846
1789997628975591200,3.879591064453125,0.4110330163486301,-9.792025262320042,-0.3430517688712104,9.801622838738444,0.3139763075283563
1789997628985661200,3.8896611328125,0.4149844208555295,-9.792716167193651,-0.3176140338191762,9.801073343696043,0.33066899875630257
1789997628995732000,3.89973193359375,0.4170364214818924,-9.79348130634725,-0.2901055021087639,9.800465670208824,0.34818001669763604
1789997629005802200,3.90980224609375,0.4171017418030649,-9.794292622730136,-0.2612126581667922,9.799805522656824,0.36631354543957456
1789997629015873300,3.919873291015625,0.417058121857047,-9.794987619256972,-0.23377141953893,9.799101594405771,0.38467773201968564
1789997629025943000,3.929943115234375,0.4209390914762392,-9.795414904758331,-0.2074834243331104,9.798244556140093,0.4059505690827
1789997629036014000,3.94001416015625,0.4264507310371845,-9.795677939608693,-0.1823787206277251,9.797306812545168,0.4280277340692051
1789997629046084000,3.950083984375,0.4295795671148225,-9.796004102823138,-0.155326042926032,9.796299218009754,0.4504251301191392
1789997629056155100,3.960155029296875,0.4305781862307339,-9.796338449344038,-0.1294003508271183,9.795327056571114,0.4711230138235344
1789997629066225200,3.97022509765625,0.4308707759691402,-9.796609667500851,-0.1058285831768997,9.794401734445701,0.4900050573816997
1789997629076296200,3.980296142578125,0.4352453377915546,-9.79661492819786,-0.0854114344995468,9.793429191307196,0.5090602552290014
1789997629086366200,3.9903662109375,0.4407247555833309,-9.796492763122917,-0.0700288778893416,9.792601392330468,0.5247578324994004
1789997629096437200,4.000437255859375,0.4457523744869976,-9.796329096993803,-0.0603509991941507,9.792016249027903,0.5355548317824026
1789997629106507000,4.010507080078125,0.4533742476675659,-9.796008194476366,-0.0553732381810434,9.791550112588082,0.5440012342626098
1789997629116578000,4.020578125,0.4623527596214786,-9.795585000628233,-0.0558797446647658,9.791280278347482,0.5488247767455914
1789997629126648000,4.03064794921875,0.4693521169895306,-9.795229026797411,-0.0599469027721323,9.7912308926031,0.5497220534268171
1789997629136719000,4.040718994140625,0.4739019623136147,-9.794982943081855,-0.0641885269638383,9.79126548578893,0.5491031587429004
1789997629146789000,4.0507890625,0.4731421934548765,-9.794982943081855,-0.0695377516378415,9.791527129080684,0.5444137855268016
1789997629156860200,4.060860107421875,0.467521321365796,-9.795202723312377,-0.0761679012341657,9.792004724568187,0.5357402354971436
1789997629166931200,4.07093115234375,0.4616341995559632,-9.79540262979865,-0.0855926819511223,9.792601014262983,0.5247001969936391
1789997629177001200,4.081001220703125,0.4567477061560377,-9.795508428260684,-0.0988297463986556,9.793311604071723,0.5112914819672367
1789997629187072000,4.091072021484375,0.4532486850591376,-9.795503752085564,-0.1142236326870508,9.794041323239963,0.49712143844579276
1789997629197142000,4.10114208984375,0.4492926774423569,-9.795455236768722,-0.1325032944116741,9.794867748425045,0.4805518904717257
1789997629207213000,4.111213134765625,0.4453284499865025,-9.795354114481809,-0.1520237408444751,9.79570470596829,0.46320642019959296
1789997629217283300,4.121283447265625,0.441457417239435,-9.795204476878046,-0.1716824084378778,9.796501572342175,0.44603496225269873
1789997629227354000,4.13135400390625,0.4382575982848182,-9.795020352482796,-0.1894252233394421,9.797175935362832,0.4309513137133059
1789997629237424000,4.141424072265625,0.4355111491208895,-9.794849672091006,-0.2040208627890795,9.79770987779241,0.4186355490544578
1789997629247495200,4.1514951171875,0.4354144472807645,-9.794593651503323,-0.216161437236797,9.798071058191256,0.4100973598465817
1789997629257565200,4.161565185546875,0.4372216793658212,-9.794247614544627,-0.2278676753878593,9.798347157064756,0.4034424358545923
1789997629267636000,4.171635986328125,0.4387655843395739,-9.793924373939634,-0.2385526807324029,9.798590294150744,0.397499068312322
1789997629277706200,4.181706298828125,0.4408962031600996,-9.793585935765504,-0.2482878380062058,9.798778185099604,0.3928204079510576
1789997629287777300,4.19177734375,0.4398027453675865,-9.793418177983163,-0.2567786760410294,9.799027560179296,0.3866008626476631
1789997629297847300,4.201847412109375,0.4359669665969908,-9.793373754319548,-0.2648572434805333,9.799340321180328,0.37857009505805533
1789997629307918000,4.21191796875,0.4333435592908412,-9.793270878466965,-0.2728357115464285,9.799606760173354,0.37160168307977354
1789997629317988000,4.221988037109375,0.4319514838779345,-9.793177939486505,-0.2783289021352306,9.799773983019982,0.36716903240596965
1789997629328059100,4.23205908203125,0.4275335213052109,-9.79329542838633,-0.2810099579127505,9.799965349971476,0.3620303789694816
1789997629338129200,4.242129150390625,0.4226815512293949,-9.793503518179058,-0.2811128520316444,9.800109770664935,0.35811139723601443
1789997629348200200,4.2522001953125,0.417204361927323,-9.7938185754776,-0.2782720756477676,9.800202272583538,0.35554540288836095
1789997629358270200,4.262270263671875,0.4096025816867127,-9.794242353847622,-0.2746186129078269,9.800331914299983,0.3519478838346546
1789997629368341200,4.27234130859375,0.4039787139229476,-9.794503635132312,-0.2736030791897326,9.800461584262557,0.348298205936918
1789997629378411000,4.282410888671875,0.4025573028177022,-9.794575531324744,-0.2732049101850017,9.800493002846824,0.347476682637671
1789997629388482000,4.29248193359375,0.4065428653225302,-9.794404266411066,-0.2733974005497991,9.800388143905671,0.35038607657335047
1789997629398552000,4.302552001953125,0.4084441688992082,-9.794428231808542,-0.2696960070149041,9.800250485682415,0.3542278662631534
1789997629408623000,4.312623046875,0.4075470008637756,-9.794680160742995,-0.261753907170333,9.800084954523408,0.3587533988806132
1789997629418694100,4.322694091796875,0.4047400536842644,-9.795013922742008,-0.2534679988567717,9.799956626406498,0.3622270072233294
1789997629428764200,4.33276416015625,0.4022514517389237,-9.795315536037087,-0.2457426105028018,9.799829238894834,0.365717103885267
1789997629438835200,4.342835205078125,0.3994522494744509,-9.795618902897834,-0.2381065444000996,9.799703758293335,0.36907013777487585
1789997629448905200,4.3529052734375,0.3979584672527387,-9.795857972350715,-0.2305956755796447,9.799538906891875,0.3733844319647918
1789997629458976300,4.362976318359375,0.3996721027702093,-9.796002933779356,-0.2212900688295252,9.799234049146547,0.3813038328630936
1789997629469046000,4.3730458984375,0.4010657856183126,-9.7961706915617,-0.2111308774573728,9.798903965622324,0.3897066878218715
1789997629479117000,4.383116943359375,0.4019384402669966,-9.796328512471913,-0.2020226564428769,9.7986101071141,0.3970641717809225
1789997629489187300,4.393187255859375,0.4035486884752288,-9.796376443266867,-0.1963947700911201,9.798394165583748,0.4023501506618193
1789997629499258000,4.403258056640625,0.4046448862140998,-9.796378781354427,-0.1939261332215741,9.798286297527786,0.4049292389245073
1789997629509328100,4.413328125,0.4024815341677516,-9.796496270254254,-0.1924194184530526,9.798296304076937,0.4046545793162053
1789997629519399200,4.423399169921875,0.4025498866962269,-9.796486333382129,-0.1928477634003385,9.798309159523987,0.4043745363630466
1789997629529469200,4.43346923828125,0.4048858918957412,-9.796292272114751,-0.1977566695614717,9.798398372473903,0.40220877763698354
1789997629539540000,4.4435400390625,0.4056699184129014,-9.796115746504068,-0.2048407643372193,9.79859391098969,0.3974530259793119
1789997629549610200,4.4536103515625,0.4086987647147849,-9.795815886774658,-0.2129342736175283,9.798749434991775,0.3935658559829252
1789997629559681000,4.463680908203125,0.4119758136240765,-9.795424841630458,-0.2243842354525811,9.798988325236499,0.38761835101134495
1789997629569751000,4.4737509765625,0.4142492749813944,-9.79500983108878,-0.2378449160555377,9.79929147849671,0.37983782921622417
1789997629579822000,4.483822021484375,0.4201791399544105,-9.794351074919105,-0.2540279890934005,9.799541563610529,0.373334770326074
1789997629589892000,4.49389208984375,0.4252976520119235,-9.79357541437149,-0.274561494159419,9.799884961922395,0.3641925822294327
1789997629599963000,4.503962890625,0.4321265116512775,-9.792557177239656,-0.2991530607108958,9.800216951554331,0.35517551686402143
1789997629610033200,4.514033203125,0.4369327063566073,-9.79146821295917,-0.326516704057902,9.800590864899394,0.34466188091136263
1789997629620104200,4.524104248046875,0.4407249747790396,-9.79023545629382,-0.3569841038402169,9.800964894137461,0.3338766049700298
1789997629630174000,4.534174072265625,0.4419007405601441,-9.788845463240149,-0.3919398645503446,9.801373455528754,0.32166288313218055
1789997629640245000,4.544244873046875,0.4381477081695571,-9.787411046522855,-0.4301212362434715,9.80183220253071,0.30737299665300527
1789997629650315000,4.55431494140625,0.4303226770997047,-9.785950910842418,-0.4694122496789321,9.802264183404288,0.29321932873182477
1789997629660386000,4.564385986328125,0.4226758521409705,-9.784221310570835,-0.5106235636524856,9.802527380205415,0.28431481546321524
1789997629670455800,4.574455810546875,0.4144232433088123,-9.782283035984635,-0.5527859678057954,9.802622057667127,0.28103583659075704
1789997629680526800,4.58452685546875,0.4098439526945352,-9.779871298667787,-0.5971114682771265,9.802406030164402,0.288500969514612
1789997629690597000,4.59459716796875,0.4074633046356961,-9.77705156507194,-0.6431189670186489,9.80189931941135,0.3051809112031403
1789997629700668200,4.604668212890625,0.401948998193629,-9.774355750116705,-0.686148618993163,9.801320402061833,0.32328258607765287
1789997629710738000,4.614738037109375,0.3957826575836166,-9.771599729406834,-0.727723980506137,9.80059808786507,0.34447713382296663
1789997629720809000,4.62480908203125,0.390755769332312,-9.768609899941088,-0.7693931577824056,9.799663183268207,0.3701307528881769
1789997629730879000,4.63487890625,0.385562730733864,-9.765541160020232,-0.809896067758277,9.798587741195263,0.39757098240250055
1789997629740950000,4.644949951171875,0.3837124266920611,-9.762257316043971,-0.8494049982607365,9.797294154979094,0.4282747049906147
1789997629751021000,4.65502099609375,0.3801102740142494,-9.759029586169124,-0.8872558593578637,9.795947398729831,0.45801725449880665
1789997629761091000,4.665091064453125,0.3725334820844233,-9.756427879238128,-0.9185261730208992,9.794834491858,0.48122111932272177
1789997629771162000,4.675162109375,0.3665145505884662,-9.753857736489175,-0.9477773288812488,9.793672319078121,0.5043193741341627
1789997629781232000,4.685232177734375,0.3613356501132249,-9.751325587663054,-0.9754288675252348,9.792478512868733,0.5270106443523335
1789997629791303000,4.695302978515625,0.3557481688370928,-9.749202019637822,-0.9984550844561308,9.791451411999349,0.5457917015431911
1789997629801373000,4.705373046875,0.3501021623067558,-9.747498722851276,-1.0169026683598756,9.790610018581265,0.5606686873838416
1789997629811444000,4.71544384765625,0.3411439624885097,-9.746507958248255,-1.029372127702087,9.790128907369633,0.5690162894982371
1789997629821514200,4.72551416015625,0.3304559432029724,-9.746105807188153,-1.0366325471591205,9.789945873821415,0.5721419061574389
1789997629831585000,4.7355849609375,0.3184634902553632,-9.74600059324801,-1.0413643979866056,9.789912157440362,0.572718357669462
1789997629841655000,4.745655029296875,0.3075898852698505,-9.746040340736508,-1.044248282859847,9.789944922574248,0.572142246300836
1789997629851726000,4.75572607421875,0.3028495954075828,-9.74579191893339,-1.047949037073925,9.789818255847381,0.5743115063860877
1789997629861796000,4.765796142578125,0.3037880818340927,-9.745334238293768,-1.051935549426824,9.789577484498947,0.5784182655003312
1789997629871867000,4.775866943359375,0.3073203841460868,-9.745068865355847,-1.05336697046943,9.789435326575973,0.5808192234266287
1789997629881937200,4.785937255859375,0.3108940048491582,-9.745192783996462,-1.051173844339326,9.789497934803654,0.5797707434891333
1789997629892008200,4.79600830078125,0.3120140218550339,-9.745859138950705,-1.0446206963688134,9.789845504947431,0.573829673897894
1789997629902078000,4.806077880859375,0.3104711032619699,-9.747104755097627,-1.033399264326319,9.790496152964591,0.5626211257171381
1789997629912149000,4.81614892578125,0.3102962581517174,-9.748284320271017,-1.0222655105672775,9.791104654620542,0.5519305871466528
1789997629922219000,4.826218994140625,0.3113593573385849,-9.749326522800326,-1.0119725915465505,9.79163630909697,0.5424566471115276
1789997629932290000,4.8362900390625,0.3141988916134461,-9.750308519575,-1.001580523000285,9.792127915946983,0.533508755479502
1789997629942359800,4.84635986328125,0.3172439949303865,-9.751384624373912,-0.9900760362327098,9.792659761015377,0.5236517996797964
1789997629952430800,4.856430908203125,0.3200753458987921,-9.752533794409036,-0.9777637402135878,9.793220411780416,0.5130492530999569
1789997629962501000,4.866501220703125,0.3239773217733949,-9.753770642727613,-0.9640469842240214,9.793812242773344,0.5016287442450882
1789997629972572200,4.876572265625,0.3269127176381647,-9.75519512257278,-0.948517333593592,9.794485458971433,0.4883067996106639
1789997629982642000,4.886641845703125,0.3267977129563689,-9.757104171064496,-0.9287130743838846,9.795381759567896,0.46998160501641534
1789997629992713000,4.896712890625,0.3270290740268304,-9.759195005863903,-0.906395736374706,9.796336522215736,0.44964336107426767
1789997630002783000,4.906782958984375,0.3308067659346386,-9.761232064649462,-0.8827971994485706,9.79722249710755,0.4299381046766156
1789997630012854000,4.91685400390625,0.3362641180250793,-9.763257432997229,-0.8579653213351964,9.79805774904718,0.41041210873596823
1789997630022924000,4.926924072265625,0.3427731345929205,-9.765135501828787,-0.8336828207328915,9.798788755097624,0.3925949177372994
1789997630032995000,4.9369951171875,0.348186063019745,-9.76715151782632,-0.8074176218807697,9.799541053309767,0.3733639876558168
1789997630043065000,4.947065185546875,0.3531625727906823,-9.76933061543107,-0.7783557049822062,9.800307621469932,0.3526366465012831
1789997630053136100,4.95713623046875,0.3597156476959586,-9.77132500411868,-0.7497997648444026,9.800937799883119,0.33467239727117065
1789997630063207200,4.967207275390625,0.3668037793260068,-9.773076816222073,-0.7230355304289608,9.801424543144076,0.3200512015613059
1789997630073277000,4.97727685546875,0.3757612484918907,-9.77473919647634,-0.695451284867525,9.801806660345846,0.30815833239227947
1789997630083348000,4.987347900390625,0.3865485269008204,-9.776319743666052,-0.6667358433190733,9.80207533477634,0.29950510877042613
1789997630093418200,4.997418212890625,0.3957289911676198,-9.77790847416222,-0.6374153485495597,9.802298647163273,0.29212175874374546
1789997630103489000,5.007489013671875,0.4025350544532761,-9.779619954255224,-0.6061202292388305,9.802510408281082,0.28490761233121925
1789997630113559000,5.01755908203125,0.4108998549556359,-9.781257784590125,-0.5731912251159549,9.802587467487074,0.2822581481955471
1789997630123630000,5.027630126953125,0.416491829743795,-9.782952898070215,-0.5392301745316014,9.80262996290098,0.2807985784598304
1789997630133700000,5.0377001953125,0.418133861329779,-9.784807586026192,-0.503075742088817,9.80266425939766,0.27956044311056344
1789997630143771000,5.04777099609375,0.4158262419745326,-9.78684347576797,-0.4638598762487992,9.802667756101792,0.2794414625150241
1789997630153841000,5.0578408203125,0.4131718184756114,-9.788727974340318,-0.4248534519083797,9.802525833588419,0.28441878391782693
1789997630163912000,5.067911865234375,0.4133250362759456,-9.790289816829562,-0.3870495717581361,9.802162647069892,0.29669360376500387
1789997630173982200,5.077982177734375,0.4154096605302765,-9.791631294566391,-0.3489763000819832,9.801593000484795,0.3149090434716001
1789997630184053000,5.088052978515625,0.4155584213512018,-9.793018949532508,-0.3073284578546881,9.800860068247813,0.3369000609846946
1789997630194123000,5.098123046875,0.4154563857488333,-9.794310158386828,-0.2631650160772725,9.799899180883154,0.36379576324029733
1789997630204194000,5.108194091796875,0.4155175413515418,-9.79538450962007,-0.2194305951005779,9.798745893026515,0.3936257466653143
1789997630214263800,5.118263916015625,0.4179265387220308,-9.796120422679186,-0.1781580524590797,9.797413205144176,0.42552638781037605
1789997630224334800,5.1283349609375,0.4227000002015382,-9.796531926089523,-0.1402545569924172,9.795961555223863,0.4577353147779842
1789997630234405000,5.138405029296875,0.426809590944834,-9.796774502673744,-0.1067568496034946,9.794556173270601,0.48685056921493947
1789997630244476200,5.14847607421875,0.429588408008404,-9.796960380634664,-0.0734017518559237,9.793082613624694,0.5156545742236573
1789997630254546000,5.1585458984375,0.432208819639869,-9.797029938739538,-0.0424289826676249,9.791611967135282,0.5428953747792128
1789997630264617000,5.168616943359375,0.4315714350517839,-9.79713865981102,-0.0154454349541862,9.7903374916552,0.5654292034090952
1789997630274687000,5.17868701171875,0.4296720677038654,-9.7972304297477,0.0058922175392362,9.78931573636088,0.5828158469053452
1789997630284758000,5.188758056640625,0.4278086484521627,-9.797283036717772,0.0248376274341484,9.788377196718944,0.598384411342268
1789997630294828000,5.198828125,0.4231166547110304,-9.7974344278872,0.040152900094958,9.787682151216288,0.6096223703174045
1789997630304899000,5.208899169921875,0.4220631270701065,-9.79743793501854,0.0496524630811763,9.787187026478003,0.6175458279376841
1789997630314969000,5.218968994140625,0.421914256651327,-9.797412800577282,0.0554804020496783,9.786863057030072,0.6226546417018103
1789997630325040000,5.2290400390625,0.4201760712144896,-9.797461900416016,0.0596779039718676,9.786673765196198,0.6256082534362728
1789997630335110000,5.23910986328125,0.4174447830870747,-9.797575297662616,0.0604409607662353,9.78670952175972,0.6250693615362137
1789997630345181000,5.249180908203125,0.4160376562355086,-9.797655377161504,0.0569268653977895,9.78694853083352,0.6213029404785498
1789997630355251200,5.259251220703125,0.420600762899965,-9.797498725295066,0.0501227109414292,9.787203105166887,0.6172956651996377
1789997630365322200,5.269322265625,0.4287947003474459,-9.797187759649754,0.0403603323005605,9.787505565368768,0.6124676784744191
1789997630375392000,5.27939208984375,0.4290360713552683,-9.79721289409101,0.0305311377844656,9.788034591114624,0.6039564853407026
1789997630385463000,5.289463134765625,0.4233562721531838,-9.797489957466722,0.0182265490061196,9.78885750473253,0.5904582618297687
1789997630395534000,5.2995341796875,0.4207785306196659,-9.797617383238672,0.0042076902414744,9.789662152363931,0.5769693296887084
1789997630405604000,5.30960400390625,0.4190857186945155,-9.797681096124649,-0.013289327782666,9.790592802561502,0.5609428505969547
1789997630415675000,5.3196748046875,0.4186077989844605,-9.79765888429284,-0.0321800283694989,9.791525797206708,0.5444356887589702
1789997630425745000,5.329744873046875,0.4200152546295896,-9.797520937126874,-0.0506133348694304,9.792346590717669,0.5294707588598935
1789997630435816000,5.33981591796875,0.419113958408311,-9.797467161113024,-0.0663305302614811,9.793080479578604,0.5157458123553164
1789997630445886200,5.34988623046875,0.4176941912708803,-9.797408124402164,-0.082063621908985,9.793802592202178,0.5018362447429171
1789997630455957000,5.35995703125,0.4185689282787963,-9.79719418939054,-0.1008157965161837,9.794556207314898,0.48687417155218127
1789997630466027000,5.370027099609375,0.4181916924642399,-9.797005388820171,-0.1190911930576432,9.79529293799102,0.4718239623256961
1789997630476098000,5.38009814453125,0.4152355826050042,-9.796900174880028,-0.1367520287641789,9.796045373321608,0.4559273920495175
1789997630486168000,5.39016796875,0.4113334240673109,-9.796808989465235,-0.1540605530348606,9.796780498247216,0.4398728054633775
1789997630496238800,5.40023876953125,0.4098988246869295,-9.796526080870628,-0.1745147823195904,9.797519247359356,0.4230984596156858
1789997630506309000,5.41030908203125,0.4096869355019181,-9.796142049989104,-0.1953170943896286,9.79819203211385,0.4072150756874939
1789997630516380200,5.420380126953125,0.411969749209471,-9.795610719591378,-0.2160486793110147,9.798749402410937,0.3935678145130575
1789997630526450000,5.430449951171875,0.4136677487663924,-9.795117967638372,-0.2344124756551347,9.799216456373394,0.3817892824650688
1789997630536521000,5.44052099609375,0.4137349687837064,-9.794707048749924,-0.2508512039544992,9.799644139663487,0.37062630466601965
1789997630546591000,5.450591064453125,0.4115408197402954,-9.794406019976735,-0.2657735546078533,9.80007236311202,0.35912726235400966
1789997630556662000,5.460662109375,0.4110524882340803,-9.794031925967335,-0.2799836653386242,9.800415479525572,0.34967527290740463
1789997630566732000,5.47073193359375,0.4139631515163928,-9.793448573121427,-0.2956212698555551,9.80067038845214,0.34242125707361193
1789997630576803000,5.480802978515625,0.4201532383281737,-9.792675835183262,-0.3120123778872192,9.80082092456464,0.3380675749471191
1789997630586873000,5.490873046875,0.4264045903405174,-9.791961549434063,-0.325699798184447,9.800893022993012,0.336018110587591
1789997630596944100,5.500944091796875,0.430408711415343,-9.791529587757587,-0.3332729368524625,9.80090392441772,0.3356433249241323
1789997630607014000,5.511013916015625,0.4319612015543505,-9.791402746507526,-0.335000747025758,9.80088719803529,0.3361455872968994
1789997630617085000,5.5210849609375,0.4315910896003246,-9.791517312797904,-0.3320888051018119,9.800848090869705,0.33725632627589314
1789997630627155000,5.531155029296875,0.4310416755566373,-9.791688577711582,-0.3277518353434279,9.800790503445725,0.33895265464844376
1789997630637226000,5.54122607421875,0.4299648401053622,-9.791899005591867,-0.3228821104152128,9.800737436881521,0.3405208510107196
1789997630647296000,5.5512958984375,0.4300248997295275,-9.792122877475618,-0.3158704415548592,9.800604803756404,0.34425496133496775
1789997630657367000,5.561366943359375,0.4308520712686702,-9.792385327804087,-0.3065201371464878,9.800402458077546,0.3500145278315871
1789997630667437000,5.57143701171875,0.4291036566987633,-9.792826057308911,-0.2946318021604791,9.800212478671781,0.3552680799493279
1789997630677508000,5.581508056640625,0.4293061570009216,-9.793283153426646,-0.2787679876722395,9.799863997747474,0.36479571849567727
1789997630687577900,5.591577880859375,0.4279188673609867,-9.793830850437285,-0.2610506908044219,9.799489126628885,0.3746966830281616
1789997630697649000,5.60164892578125,0.4284794603858143,-9.79424527645707,-0.2440031281580217,9.799042821774977,0.38617675609150004
1789997630707719200,5.61171923828125,0.430114148915559,-9.794552150449157,-0.2283401517378166,9.798574809904528,0.39789562521552885
1789997630717790200,5.621790283203125,0.4338136975532397,-9.794716985622047,-0.2137424299289472,9.798048403360754,0.4106196103080801
1789997630727861000,5.631861083984375,0.4381824506893754,-9.794837981653211,-0.1988066718047484,9.797470469832696,0.4242068274307735
1789997630737931000,5.641930908203125,0.4420929021313786,-9.794946118202803,-0.1842932855447754,9.796894720994475,0.4373024507804644
1789997630748002000,5.652001953125,0.4420921714790165,-9.795202723312377,-0.1701379920074716,9.79643015477562,0.44759919324823216
1789997630758072000,5.662072021484375,0.4405138527790084,-9.795487385472654,-0.1573979903618805,9.796043363900845,0.45599793134214195
1789997630768142800,5.672142822265625,0.4371554822618141,-9.795799520161747,-0.1468882137200795,9.795772398620853,0.4617493006171462
1789997630778213000,5.682213134765625,0.4321511711684986,-9.79614906425178,-0.1381923728987574,9.795607880674245,0.4652467128130863
1789997630788284200,5.6922841796875,0.4297517818765714,-9.796350139781833,-0.1313199481123127,9.795424791362235,0.4691063213899287
1789997630798354200,5.702354248046875,0.4290388478342443,-9.796440740674733,-0.1267971095261629,9.795274875465132,0.47222149418293097
1789997630808425000,5.712425048828125,0.4291058486558496,-9.796481072685122,-0.123281676150579,9.79513708909927,0.4750379082292829
1789997630818495000,5.722494873046875,0.4297669429130852,-9.7964822417289,-0.1209000051784329,9.795026328685225,0.47732585237542136
1789997630828566000,5.73256591796875,0.4297929906697944,-9.796489255991576,-0.1202255673824343,9.794999358439386,0.4778760433540352
1789997630838636000,5.742635986328125,0.4295724067216739,-9.79650386903882,-0.1199470701014623,9.794996650138152,0.477962793654029
1789997630848707000,5.75270703125,0.4297272684898227,-9.796478734597564,-0.1213640333604533,9.795045894171261,0.4769342537271229
1789997630858777000,5.762777099609375,0.4247813365202397,-9.7966920850873,-0.1215161369159352,9.795196745173586,0.47381630273750797
1789997630868848000,5.77284814453125,0.4198967062838375,-9.796897836792468,-0.1218668409165926,9.795350987897887,0.47060707527599793
1789997630878918000,5.78291796875,0.418183070766367,-9.796934661671518,-0.1248814029647968,9.795517031314795,0.4671694550852416
1789997630888989000,5.792989013671875,0.4197808248192071,-9.796794376417994,-0.1304581710506696,9.795683512825896,0.46368075833046174
1789997630899059000,5.803058837890625,0.4216832609070465,-9.7966523375988,-0.1348752477074042,9.795793499407198,0.46134027108529996
1789997630909130000,5.8131298828125,0.423609004805237,-9.796529003480076,-0.1377445286665577,9.795843678793746,0.46026653234037085
1789997630919200000,5.823199951171875,0.4258676339196041,-9.79637585874498,-0.1415531180361285,9.795916627539219,0.4586915291872526
1789997630929271000,5.83327099609375,0.4291415044911205,-9.796136204770209,-0.148186829562718,9.796061403922385,0.45561747148741644
1789997630939341000,5.843341064453125,0.4307574517877772,-9.79596435533464,-0.1546980654871091,9.79624420673734,0.45166421895923614
1789997630949412000,5.853412109375,0.4304860875004902,-9.795855634263155,-0.1621311380973085,9.796510299754207,0.4458456365236077
1789997630959481900,5.86348193359375,0.429889911705628,-9.795743406060335,-0.1703269569746218,9.796807136815197,0.43928966511843925
1789997630969553000,5.873552978515625,0.4275073639506473,-9.795745159626009,-0.1761300354965031,9.797070692189473,0.43337445727045976
1789997630979623200,5.883623046875,0.4258127253945916,-9.795742237016558,-0.180292342807725,9.797255756716224,0.42914731450175586
1789997630989694200,5.893694091796875,0.425902960961312,-9.795654558733103,-0.184761012654379,9.797397026451218,0.4258987016487925
1789997630999764000,5.903763916015625,0.4270997329978272,-9.795507259216905,-0.1897621636762283,9.797521521688404,0.4230347008384939
1789997631009835000,5.9138349609375,0.4284046781165525,-9.79536755848527,-0.1940559701463207,9.797619116175245,0.4208010788539928
1789997631019905000,5.923905029296875,0.4282930709682405,-9.795249485063552,-0.2001491176559589,9.797809898844733,0.4163271366075109
1789997631029976000,5.93397607421875,0.4321109852885827,-9.794942611071466,-0.2068045021582394,9.797896346761553,0.41426554046907893
1789997631040046000,5.944046142578125,0.4377112164484337,-9.794586052718758,-0.2117894509639591,9.797873325383282,0.41477719850537453
1789997631050117000,5.9541171875,0.4405982431268319,-9.794380301013588,-0.2152722333121113,9.797886037195326,0.41446788693157066
1789997631060187100,5.964187255859375,0.4409518423374742,-9.794332370218632,-0.2167735595194622,9.797919623176307,0.4136990928884359
1789997631070258200,5.974258056640625,0.443190305446647,-9.79417162669897,-0.2195016327764838,9.79792967754913,0.41348579258617363
1789997631080329000,5.984328857421875,0.4467771144248545,-9.793877027666568,-0.2252876322994008,9.797980844926652,0.4122655730790799
1789997631090399000,5.99439892578125,0.4504579583620652,-9.793549695408345,-0.2320176164078526,9.79804872337327,0.41061100498112724
1789997631100470000,6.004469970703125,0.4534803749231621,-9.793286660557984,-0.2372052847114391,9.798092961390399,0.40957140201720726
1789997631110540000,6.0145400390625,0.4551798723174259,-9.7930703874588,-0.242887988256663,9.798190394470065,0.4072786496236475
1789997631120611000,6.024611083984375,0.4557121160306036,-9.79290321419835,-0.2485265056002885,9.798318101171118,0.4041716313669145
1789997631130681000,6.03468115234375,0.4563071227816864,-9.792707399365304,-0.2550192103541456,9.798461590054824,0.40064905560250136
1789997631140752100,6.044752197265625,0.4578620240734889,-9.792414553898572,-0.2633859836178832,9.798617188505656,0.3968548827734472
1789997631150822000,6.05482177734375,0.4574113211639225,-9.792235690200329,-0.2706756291694007,9.798803397208719,0.39220174430915455
1789997631160893000,6.064892822265625,0.454564078506641,-9.79217782253325,-0.2775004702207632,9.799052872056397,0.3859330656948661
1789997631170963000,6.074962890625,0.4518996816029771,-9.792060918155313,-0.285873563627433,9.79932481717958,0.3789817527097894
1789997631181034000,6.085033935546875,0.4513926453962922,-9.791742353725432,-0.2973313434427604,9.799582969467522,0.37222734232442584
1789997631191104000,6.09510400390625,0.4529575200928374,-9.791288764739036,-0.309628953349404,9.79977835240371,0.36704294302636475
1789997631201175000,6.105175048828125,0.4526628479951992,-9.790960263437032,-0.3202748139936476,9.799988241236225,0.36140415364032924
1789997631211245000,6.1152451171875,0.4500752061221748,-9.79073814511895,-0.3305307985374703,9.800252083732495,0.35416214017296394
1789997631221316000,6.125316162109375,0.4473844326682388,-9.790527132716774,-0.3402657914144918,9.800499028669533,0.34723762024250454
1789997631231385900,6.1353857421875,0.4437320476405322,-9.79033014883995,-0.3506033532945439,9.800777066621208,0.33934371236387567
1789997631241457000,6.145456787109375,0.4401119209146127,-9.79003087363243,-0.3633002647170796,9.801073552949278,0.33067703523081515
1789997631251527200,6.155527099609375,0.4341557159239426,-9.78975147216916,-0.3776948469029739,9.80144329502004,0.31951182199010697
1789997631261598200,6.16559814453125,0.429739835710451,-9.789385561466217,-0.3919637203499674,9.801742031182929,0.31021719754428195
1789997631271668000,6.17566796875,0.4259643357597291,-9.788889302381872,-0.4081665940668433,9.802018138862191,0.3013963562391295
1789997631281739000,6.185739013671875,0.4225790041703731,-9.788265617525576,-0.4262289415126666,9.80226720305382,0.2931648077744538
1789997631291809000,6.19580908203125,0.4201184592757374,-9.787566529345511,-0.4443461609508842,9.802456841999607,0.2867777147472589
1789997631301880000,6.205880126953125,0.4172786692725494,-9.786792037841677,-0.4636533573586493,9.802626414490792,0.2809086924757637
1789997631311950000,6.2159501953125,0.4180012844586744,-9.785714763998984,-0.4852285352310165,9.802659496193032,0.279735677481088
1789997631322021000,6.226021240234375,0.4179883519118652,-9.784588974839448,-0.5074556376734748,9.802666924758796,0.2795139626748803
1789997631332091100,6.236091064453125,0.4134766831737011,-9.783537419959902,-0.5308867456108332,9.802746170831389,0.27672307854564365
1789997631342162200,6.246162109375,0.4043926284860819,-9.782546655356883,-0.5555490393109619,9.802884151669119,0.27175265636564555
1789997631352232000,6.25623193359375,0.3957202964045107,-9.78130571538508,-0.5829761215493082,9.802918915365046,0.27051422862059704
1789997631362303000,6.266302978515625,0.3841575766436755,-9.780096924117206,-0.6103642965493723,9.80294292505246,0.2696803134930601
1789997631372373000,6.276373046875,0.3764300876641646,-9.778513454318048,-0.6397904071178286,9.802750792419793,0.27646637034378596
1789997631382444000,6.286444091796875,0.3700226683072745,-9.776759304127095,-0.6696600602027029,9.802429472320064,0.28768090363921145
1789997631392514000,6.29651416015625,0.3650784168381243,-9.774836811631918,-0.699786537592858,9.801973815417833,0.30286542314181847
1789997631402585000,6.306585205078125,0.3614591303624213,-9.77276175892353,-0.7299644529093057,9.801387168759357,0.32122074993856814
1789997631412655000,6.316655029296875,0.3576056698046624,-9.770738728663323,-0.7584015159077941,9.800760514074488,0.3398283742823918
1789997631422726000,6.326725830078125,0.3506204870924353,-9.768672443783284,-0.7877068861734121,9.80009059073194,0.35861203531414065
1789997631432796000,6.3367958984375,0.3431235919984057,-9.766547706714272,-0.8168360230892896,9.799346086132541,0.3784511589715092
1789997631442867000,6.346866943359375,0.3328101781789213,-9.764642749875785,-0.8434343994185328,9.798652353730546,0.3959852071158238
1789997631452938000,6.35693798828125,0.3226309486657381,-9.76281845705807,-0.8681436740655452,9.797944875253114,0.41311574023747466
1789997631463008000,6.367008056640625,0.3132431983238086,-9.7610146225065,-0.8915657584462314,9.797203474670473,0.4303734885194933
1789997631473079000,6.3770791015625,0.3045956536236219,-9.759141229850052,-0.9147610483337192,9.796391532747808,0.4484604430953156
1789997631483149000,6.387149169921875,0.3002180413275957,-9.757186588650942,-0.9367844448976218,9.795499168242577,0.4675276882169811
1789997631493220000,6.39722021484375,0.2960107988961041,-9.755336576870084,-0.9571599281240254,9.7946297828777,0.48538300902891346
1789997631503289900,6.407289794921875,0.2898642224324867,-9.753428112900256,-0.978262848842144,9.793711642339504,0.5035788807007725
1789997631513361000,6.41736083984375,0.2881831557440571,-9.751564072594046,-0.9971575189262628,9.792788569306332,0.521216411460755
1789997631523431200,6.42743115234375,0.2883063437323085,-9.749756730911136,-1.0146519668236371,9.791876331102474,0.5381016539256798
1789997631533502200,6.437502197265625,0.2880225218222476,-9.748004918807744,-1.0314173697941005,9.7909766651091,0.5542153048941477
1789997631543572000,6.447572021484375,0.2860150727236643,-9.746396314567328,-1.0470695508256551,9.790138944454158,0.5688407817526763
1789997631553642800,6.457642822265625,0.2826433130019344,-9.744980018028617,-1.061075352889672,9.789390132991326,0.5815879320995113
1789997631563712500,6.46771240234375,0.2767182520681992,-9.74362743437588,-1.074960524248704,9.788662693309327,0.5936929983225377
1789997631573783600,6.477783447265625,0.2695542604566551,-9.74230933751464,-1.0886434510339051,9.78794187245028,0.6054660949787731
1789997631583853800,6.487853759765625,0.264075956909731,-9.740801855561136,-1.1033741333063691,9.787109123389055,0.6187781389523808
1789997631593924900,6.4979248046875,0.2627286339540034,-9.739077515986562,-1.1188031731065362,9.786153802218928,0.63369669161485
1789997631603994600,6.50799462890625,0.2647976953130215,-9.73734499310553,-1.1333050881244242,9.785191414376554,0.6483939704998205
1789997631614065700,6.518065673828125,0.2657593799520283,-9.735828158801793,-1.1460323216199877,9.784338384251237,0.6611281648938945
1789997631624135700,6.5281357421875,0.2659637616840191,-9.734621121099591,-1.1561943077374248,9.783653382744339,0.6711906267574306
1789997631634206700,6.538206787109375,0.2678592565744184,-9.733810973760486,-1.1625754601418972,9.783196109091124,0.6778497221516533
1789997631644276700,6.54827685546875,0.271352231523022,-9.733388948956131,-1.1652863996010272,9.782962116458636,0.6812026763336595
1789997631654347800,6.55834765625,0.2765790993258357,-9.733152217590808,-1.1660426978610456,9.782838147093283,0.6829944728826766
1789997631664417800,6.568417724609375,0.2858085173008963,-9.732861125689745,-1.1662477189138531,9.782688426614733,0.6851372783423175
1789997631674488600,6.578488525390625,0.2932183368996717,-9.732748897486925,-1.1653441942028702,9.782635138349564,0.6858971756159251
1789997631684558600,6.58855859375,0.2969137208188884,-9.733153386634587,-1.1610187322191894,9.782871066226395,0.6825179876905525
1789997631694629600,6.598629638671875,0.300056676753424,-9.733871179515123,-1.1541709121510386,9.783283606312384,0.6765755845242862
1789997631704699600,6.60869970703125,0.3016121808334253,-9.734496033415198,-1.1484887748613952,9.783640244943339,0.671411167401163
1789997631714770400,6.6187705078125,0.3045870684583671,-9.734767251572013,-1.145393804520741,9.783795556555628,0.6691324229985003
1789997631724840700,6.6288408203125,0.3053224335282109,-9.735281630834937,-1.140821820430085,9.784086806486695,0.6648684149440076
1789997631734911700,6.638911865234375,0.3091180081525817,-9.735820560017228,-1.1351881984572858,9.784391790567001,0.6603676660922994
1789997631744981800,6.648981689453125,0.3106442313391715,-9.736772746175529,-1.1265709575638174,9.784925431370851,0.6524107403078824
1789997631755052500,6.659052490234375,0.313168123793602,-9.737834822449088,-1.1166549090314657,9.785516781364992,0.6434911114775717
1789997631765122600,6.66912255859375,0.3165992672860622,-9.738900405853986,-1.106344162093103,9.786104365704489,0.6344879508123307
1789997631775193600,6.679193603515625,0.3217779485655948,-9.7396760664016,-1.0979840377658605,9.786526474209484,0.6279326742611188
1789997631785263600,6.689263671875,0.329839966729097,-9.740129070866107,-1.091554223914072,9.786765447838256,0.6241966144788089
1789997631795334700,6.699334716796875,0.3421170818369835,-9.740618900209665,-1.0833743515245615,9.787011691027645,0.6203247552982768
1789997631805404700,6.70940478515625,0.3502784687217324,-9.741157829391955,-1.0759038695134222,9.787284882680977,0.6160151170650018
1789997631815475700,6.719475830078125,0.3563754338899627,-9.74182009269297,-1.0678660359431058,9.787623150391886,0.6106006099820105
1789997631825545500,6.72954541015625,0.3625197453312576,-9.742520349916814,-1.0593764400172978,9.787977024300506,0.6049029242179155
1789997631835616500,6.739616455078125,0.3688121965389698,-9.743123576506973,-1.0516100437995046,9.788272924289204,0.6000635860046851
1789997631845687600,6.7496875,0.3750835684260353,-9.743730894750357,-1.0437413562510165,9.788567403322274,0.5952509067453278
1789997631855757800,6.7597578125,0.3807796611757948,-9.744664960730075,-1.0329027860462665,9.789028808193015,0.5876150993933199
1789997631865828900,6.769828857421875,0.3817569817753508,-9.745966690978408,-1.0201898733370005,9.789695185989768,0.5764205737679854
1789997631875898600,6.779898681640625,0.3806395951179787,-9.747328042459488,-1.0075156852029263,9.79039344972104,0.5644239756406232
1789997631885969700,6.7899697265625,0.3785653461271897,-9.748681210634112,-0.995130470078066,9.791084724203033,0.5523057521109203
1789997631896039700,6.800039794921875,0.3784657216776162,-9.74980524622798,-0.9840868057552724,9.791643425117647,0.5422956006382136
1789997631906110700,6.81011083984375,0.37579635633789,-9.751032157674432,-0.9728872202184052,9.792260576527424,0.531030494499923
1789997631916180700,6.8201806640625,0.3725994234601035,-9.752669403487443,-0.9575962006494402,9.793071687772985,0.5158761728558171
1789997631926251800,6.830251708984375,0.370150386340171,-9.754200850838425,-0.9428389956962316,9.793814907735182,0.501577981807847
1789997631936321800,6.84032177734375,0.3680230919878929,-9.755729960101842,-0.92772165219374,9.794542004411378,0.4871575088564691
1789997631946392800,6.850392822265625,0.3659966276615858,-9.75735668452084,-0.91127203717418,9.795300165130234,0.47167192110445416
1789997631956462600,6.860462646484375,0.3666844637952745,-9.758802207154035,-0.8953721649918704,9.795943757085732,0.4580995920087648
1789997631966533600,6.87053369140625,0.3662649962741881,-9.76026701900959,-0.879434225821495,9.796589013130333,0.444083995683646
1789997631976603600,6.880603759765625,0.367119238483347,-9.761822431758045,-0.861658257569,9.797249162210509,0.4293221760420736
1789997631986674400,6.89067431640625,0.372303253525123,-9.763110133481025,-0.8446669368881732,9.79774316219211,0.4178760020090699
1789997631996744700,6.90074462890625,0.377329593787156,-9.764435829126834,-0.8269266975361853,9.798234737400765,0.40618773661262475
1789997632006815700,6.910815673828125,0.3816534848682582,-9.765924606379864,-0.8071371975041925,9.798774881600396,0.39296828793152133
1789997632016885800,6.9208857421875,0.3801552821997553,-9.767820795390008,-0.7845561670575291,9.79949738304712,0.37446034283824825
1789997632026956500,6.93095654296875,0.3753031659934669,-9.77011387476325,-0.7578914474938064,9.800360842597591,0.35114725302953037
1789997632037026600,6.941026611328125,0.3651816214842721,-9.772710905519128,-0.7288145522218197,9.80133047667519,0.32299782979264813
1789997632047097600,6.95109765625,0.3519283548206091,-9.775329563584924,-0.699609427460283,9.802270888657892,0.29301948738172406
1789997632057168000,6.96116796875,0.3412308005217462,-9.777755329427125,-0.6704058370687067,9.803054899633183,0.26551151108542936
1789997632067238700,6.97123876953125,0.3318071751488372,-9.779807001259922,-0.644728813368082,9.803662932078057,0.24205235045027948
1789997632077308700,6.98130859375,0.3236306272275746,-9.78162018816173,-0.6209376034140587,9.804146476961375,0.22159795565911444
1789997632087379700,6.991379638671875,0.3187328087160364,-9.783381352615356,-0.5952032965682447,9.804525496177721,0.20417652436222167
1789997632097449500,7.001449462890625,0.318186828738451,-9.78503087338805,-0.5677433349736034,9.80476670037324,0.19223552428981824
1789997632107520500,7.0115205078125,0.3174632271716371,-9.78671371190846,-0.5383520034575835,9.804940316404135,0.18307498693941798
1789997632117590800,7.0215908203125,0.3157166027000174,-9.788312379276752,-0.5095561536166817,9.805045733613156,0.1773748656547821
1789997632127661800,7.031661865234375,0.3177398886885493,-9.78937679363787,-0.4873804525678977,9.805008064353792,0.17948038383584664
1789997632137731600,7.041731689453125,0.3227087631423026,-9.790037887895108,-0.4705059631997719,9.804879239126008,0.18628408357367612
1789997632147802600,7.051802734375,0.3288755786763504,-9.79044296156466,-0.4576745021447539,9.804717567915832,0.1947097666189132
1789997632157872600,7.06187255859375,0.3368206924619153,-9.79064929779172,-0.4473737286111339,9.804511451394623,0.20484214347437862
1789997632167943700,7.071943603515625,0.3435559555336833,-9.790886613678932,-0.4369350809767842,9.804312140534268,0.21416603946597398
1789997632178013400,7.082013427734375,0.351802865277417,-9.791046188154816,-0.4266425638148561,9.804064016106677,0.2251740658669785
1789997632188084500,7.09208447265625,0.3561583570731803,-9.79124492559731,-0.4184322232218459,9.803905993122912,0.23203183356419285
1789997632198154800,7.10215478515625,0.3569936388535424,-9.791551215067503,-0.4104784877384081,9.803818654774837,0.2356947785945901
1789997632208225800,7.112225830078125,0.3578742941455915,-9.791848736709357,-0.4025185051772743,9.80372288442691,0.2396131160456236
1789997632218295600,7.122295654296875,0.3609930837532505,-9.79200714214146,-0.3958486720245331,9.803585540297334,0.24520726637610438
1789997632228366600,7.13236669921875,0.363404711472243,-9.792109433472156,-0.3910806539051235,9.80347900203943,0.24942669433218456
1789997632238436600,7.1424365234375,0.3657363692902028,-9.792157948789,-0.387622074416466,9.803384309951973,0.2530362223389759
1789997632248507600,7.152507568359375,0.3672247446844354,-9.792181914186475,-0.3856128169532865,9.803326977339106,0.25526079527265544
1789997632258577700,7.16257763671875,0.369260013371706,-9.7922146474123,-0.3828211769407615,9.803246294863847,0.2583307845066825
1789997632268648700,7.172648681640625,0.3745307203162461,-9.792219908109306,-0.3775201479231938,9.803056153910559,0.2654345391939453
1789997632278718700,7.18271875,0.3793703788997605,-9.792264916294812,-0.3714948232190683,9.802862727009819,0.27251575067319006
1789997632288789800,7.192789794921875,0.3849241405693814,-9.79223218306899,-0.3666573565926402,9.802662253342934,0.27969284072759915
1789997632298860500,7.202860595703125,0.3893361117927357,-9.792206464105844,-0.362632558055967,9.802494018561218,0.28548805904263624
1789997632308930600,7.2129306640625,0.3917908845337107,-9.7921748999238,-0.3608170695992186,9.802404767924104,0.28851185659231526
1789997632319001600,7.223001708984375,0.3968715122662484,-9.791962133955955,-0.361066039391607,9.802276828603903,0.29286018898568694
1789997632329071900,7.23307177734375,0.4024509198337793,-9.79163421717584,-0.3637264177072793,9.802163744711716,0.296564014406882
1789997632339142700,7.243142578125,0.4072044710364192,-9.7912963635236,-0.3675479852894321,9.802088187341543,0.29909638689268647
1789997632349212700,7.253212646484375,0.4124757990354671,-9.790914670729636,-0.371805606201291,9.801998378915526,0.302015832099705
1789997632359283700,7.26328369140625,0.4164858383944257,-9.790509012538196,-0.3779774632366374,9.801964276033972,0.30313441283261244
1789997632369353700,7.273353759765625,0.4219748642647639,-9.78997359048724,-0.3856983032796531,9.801900382671048,0.3052175582348407
1789997632379424500,7.283424560546875,0.4252516209131106,-9.789421801823377,-0.3959290072517469,9.801916664004812,0.30464347324736657
1789997632389494800,7.293494873046875,0.4244340574525296,-9.788842540630698,-0.4108549563679844,9.802086695107704,0.29913336683084546
1789997632399565800,7.30356591796875,0.4225383798990398,-9.788099028787016,-0.4301059656091034,9.802297694732326,0.2921854296964662
1789997632409635600,7.313635498046875,0.4192859539743512,-9.787274268400669,-0.4515074308823794,9.802517875356958,0.2846762714862951
1789997632419706600,7.32370654296875,0.4157613600447774,-9.786332019114491,-0.4746060189297422,9.802703301471478,0.2782278803001634
1789997632429776600,7.333776611328125,0.4186315817188471,-9.785005738946795,-0.4987976994434371,9.802651331874475,0.28002807556347986
1789997632439847700,7.34384765625,0.4223862215446308,-9.783463185679912,-0.5252193674989044,9.802509452379583,0.2850014836974589
1789997632449917400,7.35391748046875,0.4247086366102099,-9.7818428910017,-0.5527510791555047,9.802326209816142,0.29113983257345305
1789997632459988500,7.363988525390625,0.4281527857147157,-9.780120889514684,-0.5798880193408579,9.802037164241549,0.3006941423428964
1789997632470058800,7.374058837890625,0.4299793800873682,-9.778381936892869,-0.6072407211687415,9.801719302164477,0.31092697868615243
1789997632480129800,7.3841298828125,0.430999297719635,-9.776461782485246,-0.6367026702355593,9.801316488380602,0.32334310555982304
1789997632490199600,7.394199462890625,0.4282551866432652,-9.774651518192886,-0.6657249127108603,9.800947788984873,0.33440529899179555
1789997632500270600,7.4042705078125,0.4193748013015836,-9.7730978590101,-0.6935922129973768,9.80068974450425,0.34185914592759686
1789997632510340600,7.414340576171875,0.4091858906446025,-9.771523157039285,-0.7212957740895449,9.800383843376606,0.35048825637933056
1789997632520411600,7.42441162109375,0.3979713267343118,-9.769840318518876,-0.7498189079362899,9.79999718527404,0.361171136138153
1789997632530481700,7.434481689453125,0.3902645517492666,-9.76778046337962,-0.7801034254323691,9.799373336952284,0.37773689061647775
1789997632540552700,7.444552734375,0.3864133196812123,-9.765327809530495,-0.812061794424802,9.7984969991703,0.39980419761647146
1789997632550623500,7.45462353515625,0.3844295619854703,-9.762586401867866,-0.8453023852474987,9.797424013468056,0.42532124904396285
1789997632560694500,7.464694580078125,0.3799053990919143,-9.759770759925246,-0.8791616194251924,9.796272472145194,0.4510257233369851
1789997632570764500,7.4747646484375,0.3739210274526849,-9.756880299180745,-0.9131547821808604,9.795032385721155,0.4772026049867325
1789997632580835600,7.484835693359375,0.3670539181621745,-9.754014972877505,-0.9459661147408188,9.793744734682745,0.5029439651378725
1789997632590905300,7.4949052734375,0.3582967938739806,-9.751067228987813,-0.979142481220886,9.792366640076096,0.5291165104176977
1789997632600976400,7.504976318359375,0.3473291539294645,-9.748022454464436,-1.0128224133089183,9.79088603085314,0.55582307046215
1789997632611046700,7.515046630859375,0.338261648517847,-9.744856683909893,-1.045814143937081,9.789276422924877,0.583478424645974
1789997632621117700,7.52511767578125,0.3326758477421477,-9.741382285797595,-1.0794302170086651,9.78743965004592,0.613511815552505
1789997632631187500,7.5351875,0.3273113615669309,-9.737896781769397,-1.112020015772432,9.785542657693039,0.6430473308815853
1789997632641258500,7.545258544921875,0.3194006249750032,-9.7344562859267,-1.143997747052461,9.783623433797134,0.6716392579122921
1789997632651328500,7.55532861328125,0.3127041960762813,-9.73115432177186,-1.1735604530800132,9.78173674542162,0.6985833727513933
1789997632661399600,7.565399658203125,0.3072312810905278,-9.728215930232404,-1.1991007717236877,9.780025600639714,0.722162140303834
1789997632671469600,7.575469482421875,0.3020573125187307,-9.725454064303635,-1.222581600554287,9.778390091174748,0.7439679910826512
1789997632681540600,7.58554052734375,0.2976952996506355,-9.722868139463662,-1.244028000947833,9.77683816457949,0.7640867225622187
1789997632691610600,7.595610595703125,0.2915808718909509,-9.720603701663016,-1.263034314712882,9.775458240896622,0.7815545983909192
1789997632701681700,7.605681640625,0.2858546031986363,-9.718409406489132,-1.281098671452701,9.774105885822209,0.7982870317372095
1789997632711751400,7.61575146484375,0.2816264275769703,-9.716406834495068,-1.2971183706223963,9.7728620563026,0.8133624739433647
1789997632721822500,7.625822509765625,0.2782178429761901,-9.714673142570255,-1.3107615499190983,9.771777307080807,0.8262829640583578
1789997632731892500,7.635892578125,0.2761256564699113,-9.713106039384009,-1.3227654375761746,9.770794056179374,0.8378342467665992
1789997632741963500,7.645963623046875,0.279926747519616,-9.711333769014477,-1.3349166247494515,9.769696769664142,0.8505233571303787
1789997632752033500,7.656033447265625,0.2847083740392699,-9.709624042487144,-1.3462927358970045,9.768636338883281,0.8626158554481579
1789997632762104600,7.6661044921875,0.2891449134483002,-9.70832581937015,-1.354687931537628,9.767830164801016,0.8717042270628269
1789997632772174600,7.676174560546875,0.2920915248268284,-9.707624977624416,-1.3590664388827978,9.767394932357016,0.8765603149453922
1789997632782245600,7.68624560546875,0.2874650706025771,-9.707678753638268,-1.359677118127048,9.767414301171389,0.8763576241964733
1789997632792316400,7.69631640625,0.2779118640332482,-9.708130004537106,-1.35844260789603,9.767666955063836,0.8735397890567993
1789997632802386400,7.706386474609375,0.2664082175158895,-9.7086800396353,-1.356813399259001,9.767970573040436,0.8701350096380147
1789997632812457500,7.71645751953125,0.2595099641684442,-9.708988667193054,-1.3559417309910058,9.768136826210418,0.8682668273408921
1789997632822527700,7.72652783203125,0.2582911629632115,-9.708799282100795,-1.3575386447936295,9.768011785709032,0.8696865822486733
1789997632832598500,7.7365986328125,0.25992057252964,-9.7087197871238,-1.3577902814671396,9.767968258945572,0.8701661620585621
1789997632842668500,7.74666845703125,0.2630505959173664,-9.7090710847795,-1.3546582670517264,9.768203845795046,0.8674961629888315
1789997632852739600,7.756739501953125,0.2643398137439973,-9.709860189330575,-1.3487491891384125,9.76870918360236,0.861803744991572
1789997632862809300,7.766809326171875,0.2600937188731506,-9.711044430679085,-1.3410302853241562,9.769438666004493,0.8535004713258635
1789997632872880400,7.77688037109375,0.2559424992115237,-9.711911861163378,-1.335532564690709,9.769966226998745,0.8474347860229827
1789997632882950700,7.78695068359375,0.2551691036862321,-9.712498136618732,-1.3314090550199151,9.770330772167286,0.843218832527124
1789997632893021700,7.797021728515625,0.256358861460071,-9.71276350955665,-1.329237410069257,9.770502017672081,0.8412236762108847
1789997632903091500,7.807091552734375,0.2581249030182138,-9.712919576901196,-1.3277601771235463,9.77060762047117,0.8400053497773201
1789997632913162500,7.81716259765625,0.2598542840940878,-9.713560212892292,-1.3227305123932658,9.771015702737968,0.8352511021904826
1789997632923232500,7.827232421875,0.26262071660012,-9.714280928382276,-1.3168719956234096,9.771476212822389,0.8298361714354199
1789997632933303600,7.837303466796875,0.2655967915351502,-9.715293320295212,-1.3087798745825885,9.772117219067669,0.822250431413772
1789997632943373600,7.84737353515625,0.2658529582533054,-9.71686626870036,-1.2969983975045385,9.773091666946566,0.8105874362509102
1789997632953444600,7.857444580078125,0.2662107039161026,-9.718687638908625,-1.283209233865887,9.774213392518803,0.7969542376695983
1789997632963514600,7.8675146484375,0.2639642036309466,-9.72061363853514,-1.2690066671207547,9.775381720473986,0.782493930132305
1789997632973585700,7.877585693359375,0.2600504277206957,-9.722588153478505,-1.2546020019322632,9.776564625852497,0.7675655847550135
1789997632983655400,7.887655517578125,0.2564270130591466,-9.724448686653377,-1.2408544854782522,9.777671277811768,0.7533401021897752
1789997632993726500,7.8977265625,0.2518316663592122,-9.726290515127776,-1.227288609201461,9.778754755210915,0.7391475769840065
1789997633003796500,7.90779638671875,0.2488109120322391,-9.728198979097604,-1.2126994542915372,9.779874936844497,0.724188119884483
1789997633013867500,7.917867431640625,0.2459434120382182,-9.730324885210392,-1.1961106499969958,9.78111259987169,0.7072676504245947
1789997633023937500,7.9279375,0.2455756564380601,-9.73242331879437,-1.1789862044557928,9.782330905360514,0.6902040188038835
1789997633034008600,7.938008544921875,0.2479339465346187,-9.734600662833452,-1.160375758140534,9.783590894734923,0.6721178551577449
1789997633044078600,7.94807861328125,0.2499237503786571,-9.73697148361802,-1.1398670769885182,9.7849422191448,0.6521336327731047
1789997633054149600,7.958149658203125,0.2501026871421374,-9.739742701897024,-1.115920676472783,9.78649271949706,0.6284731185043231
1789997633064219400,7.968219482421875,0.2490799016993492,-9.742745390844345,-1.0896052087381485,9.788136736601668,0.6022850527345456
1789997633074290400,7.97829052734375,0.2531371046682819,-9.745620654019714,-1.062634638095647,9.789691989950848,0.5764750140191248
1789997633084360700,7.988360595703125,0.2607802580988966,-9.748243988260626,-1.036391943336278,9.791083444040929,0.5523227767469846
1789997633094431700,7.998431640625,0.2689568790853954,-9.750716515854,-1.0107141889832914,9.792360614019463,0.5291759179779822
1789997633104501500,8.00850146484375,0.2727636874898336,-9.753275552687048,-0.9846753462329506,9.793643986357496,0.5048831962133111
1789997633114572500,8.018572509765624,0.2765214873870834,-9.755737558886407,-0.9588906974393874,9.79484271439016,0.4810478363401027
1789997633124642600,8.028642578125,0.2787785821314901,-9.75834335747063,-0.931337431538105,9.796073750675973,0.4553142462603243
1789997633134713600,8.038713623046876,0.2811422607892193,-9.760888365778326,-0.9035477265324444,9.797233549246084,0.42964629131102733
1789997633144783600,8.04878369140625,0.2847517747895792,-9.763388365900516,-0.8749491162966936,9.798324831140807,0.4039831880229653
1789997633154854700,8.058854736328126,0.2874137788067571,-9.765908824288845,-0.8454653207242488,9.799378068221708,0.37760154816083563
1789997633164924700,8.068924560546876,0.285693695282191,-9.768450909987092,-0.8161616309590637,9.800400100983168,0.3500453354217358
1789997633174995500,8.078995361328126,0.2834532776779495,-9.770621824285389,-0.790571920215711,9.80123324205383,0.32592558923910814
1789997633185065500,8.0890654296875,0.2853025222738273,-9.772381819695234,-0.7678251047480851,9.801858638717555,0.3065396829208199
1789997633195136500,8.099136474609375,0.2883542927935719,-9.773943662184475,-0.7465097103230655,9.80237605525573,0.28952258752005594
1789997633205206500,8.10920654296875,0.291575026672054,-9.775345345675944,-0.7266469258591532,9.802809894556919,0.2744568261944278
1789997633215277300,8.11927734375,0.2946370080585591,-9.776573426166175,-0.7086523464199155,9.803163259301908,0.2614903120499741
1789997633225348400,8.129348388671875,0.2974762135398574,-9.777488787445426,-0.6947104764375835,9.803407559512452,0.25219427909709846
1789997633235418600,8.139418701171875,0.2961305710845627,-9.77841467011869,-0.6821354378290474,9.803672783730896,0.24165156941267232
1789997633245489700,8.14948974609375,0.2919140493680723,-9.7791961758852,-0.6726917560487985,9.803912684082755,0.23173679078533618
1789997633255559400,8.159559326171875,0.2867336327891797,-9.779802909606694,-0.6660571403399109,9.804107465574479,0.22331601955204675
1789997633265630500,8.16963037109375,0.2843240691631101,-9.78009400150776,-0.6628068333070725,9.804198564988718,0.21927665444647332
1789997633275700500,8.179700439453125,0.2824950453713536,-9.78020272257924,-0.6619845571387559,9.804239396448098,0.2174446054308446
1789997633285771500,8.189771484375,0.2800581918795592,-9.78016472865641,-0.6635781099405139,9.804248138406713,0.21704621405242844
1789997633295841500,8.199841552734375,0.2769956807700917,-9.77992215207219,-0.6684123982291669,9.804208757043524,0.21879143076273883
1789997633305912600,8.20991259765625,0.2751619442705996,-9.779612355470658,-0.6736850779350847,9.804141950590184,0.22177492139374133
1789997633315982600,8.219982666015625,0.2751978741005063,-9.779145907002686,-0.6804137286029756,9.80401929204449,0.22714995850256156
1789997633326053600,8.2300537109375,0.269326534381695,-9.77887644241154,-0.6866042538061737,9.80398239809623,0.22872646816116732
1789997633336123400,8.240123291015625,0.2596080542480573,-9.778827927094698,-0.6910322993814945,9.804021990117269,0.22704718814194083
1789997633346194400,8.2501943359375,0.2473465751007199,-9.778900992330907,-0.6944781289864331,9.804097013589203,0.22375559388816538
1789997633356264700,8.2602646484375,0.2392615231215022,-9.77878350343108,-0.6989665995121002,9.804093905667903,0.22394168772523312
1789997633366335700,8.270335693359375,0.235890366187971,-9.77837550715208,-0.705778398418799,9.803985667745534,0.22860445762663692
1789997633376405500,8.280405517578124,0.2330585402955301,-9.777911981293558,-0.7131117369815707,9.803856162545372,0.23411896691810508
1789997633386476500,8.2904765625,0.2319041278297081,-9.777548408678172,-0.7184556552927941,9.803748889943407,0.23857627733097284
1789997633396546600,8.300546630859374,0.2355303372365422,-9.777242703729868,-0.7214141397722065,9.803645544102622,0.24273820065609547
1789997633406617600,8.31061767578125,0.2385791851468384,-9.777119369611144,-0.722085974619165,9.803599710446246,0.24458958949795725
1789997633416687600,8.3206875,0.2389717829273082,-9.777247964426875,-0.7201997224811464,9.803637627834703,0.24302710402428052
1789997633426758400,8.33075830078125,0.2406209383738227,-9.777584649035337,-0.7150888092081994,9.803736911645098,0.23907023515614736
1789997633436828700,8.34082861328125,0.2385054805898107,-9.778119486564398,-0.7084487866718322,9.803902967511988,0.23214617108242344
1789997633446899500,8.3508994140625,0.2378141373247839,-9.778741417855024,-0.7000550523359328,9.804086834770986,0.22427147334445774
1789997633456969500,8.360969482421876,0.2379267673864029,-9.779398420459032,-0.6907710180968045,9.804271759320212,0.2160150030766668
1789997633467040500,8.37104052734375,0.2410742716318927,-9.78012790377736,-0.679233798103407,9.804457248665292,0.20735291236927136
1789997633477110500,8.381110595703126,0.244506109244097,-9.781090611329674,-0.663980845522508,9.804690448435345,0.1960422354511386
1789997633487181300,8.391181396484376,0.2475778448396362,-9.782219323098658,-0.645962592946738,9.804943515807897,0.18292074175277537
1789997633497251600,8.40125146484375,0.252049254632648,-9.783338682517408,-0.6269943461697548,9.805158663742183,0.17096810396318593
1789997633507322600,8.411322509765625,0.2546427782571874,-9.784465640720724,-0.6080909813225269,9.805358146160074,0.15917627354921524
1789997633517392600,8.421392578125,0.2520845634080469,-9.78587375395298,-0.586113213998638,9.805608981725419,0.1429438790016339
1789997633527463400,8.43146337890625,0.2506221079063602,-9.787132814103364,-0.5653526769774034,9.805788451652148,0.13006403300346414
1789997633537533400,8.441533447265625,0.2522191678394563,-9.78814637506008,-0.5467854487493634,9.805877719480488,0.12312776205059302
1789997633547604500,8.4516044921875,0.2562956417644396,-9.789012051978707,-0.5291137811215594,9.805899977313093,0.12137313572498731
1789997633557674200,8.46167431640625,0.261876949028112,-9.789796480354664,-0.5115441856287419,9.805867579495525,0.12382701823905463
1789997633567745300,8.471745361328125,0.2655994401499629,-9.790658065620065,-0.492825529698655,9.805827431536022,0.1270976245161501
1789997633577815000,8.48181494140625,0.2694363148991018,-9.79152549610436,-0.4731110676642507,9.805744030777154,0.13336249050151458
1789997633587886000,8.491885986328125,0.2752629752259701,-9.792334474399686,-0.4525423268880695,9.805586898791114,0.14437552399267925
1789997633597956000,8.5019560546875,0.2792160602333024,-9.793197228708864,-0.4309343427246436,9.805404051732689,0.15629894013373505
1789997633608027100,8.512027099609375,0.2778411551509052,-9.794149999389052,-0.4096420734468847,9.80525182201041,0.16556948187253298
1789997633618097200,8.52209716796875,0.2753934149389155,-9.795117383116484,-0.3875764451764524,9.805059632358926,0.17659894893084
1789997633628168200,8.532168212890625,0.2740362829752266,-9.796023392045496,-0.3650203299753368,9.804796601224133,0.19071872432580442
1789997633638238200,8.54223828125,0.2746704161603003,-9.79669033152163,-0.3461466296140104,9.804510508125096,0.20488161093847346
1789997633648309200,8.552309326171875,0.2729900435916148,-9.79732453777194,-0.3290538578527048,9.804249681974824,0.21692458872295234
1789997633658379000,8.56237890625,0.274205556861218,-9.797872234782576,-0.3112769762847572,9.803908586233398,0.23185945156702384
1789997633668450000,8.572449951171874,0.2776745664123445,-9.798382522392272,-0.2914967920703813,9.803459992606504,0.2500915294559686
1789997633678521000,8.58252099609375,0.2819696880566887,-9.798865921995043,-0.2703499591453001,9.802926640445722,0.270182613556057
1789997633688591400,8.59259130859375,0.2850309935897588,-9.79930255984664,-0.2506221079063602,9.802401398980312,0.2886374559268281
1789997633698662100,8.602662109375,0.2861451471104286,-9.79975030361414,-0.2310815228678286,9.80186924658931,0.3061747889325156
1789997633708732200,8.612732177734374,0.2838012508654035,-9.800219090169668,-0.2134416568840853,9.801405989580346,0.32067948738687085
1789997633718803200,8.62280322265625,0.279526441356726,-9.800648129236697,-0.1989291291406378,9.801034980512732,0.3318507099808195
1789997633728873200,8.632873291015626,0.2792512959434651,-9.800833422675728,-0.1899330449974164,9.800758033792047,0.33990232415559035
1789997633738944000,8.642944091796876,0.2844510565436445,-9.800797182318568,-0.18393859035559,9.80049013647895,0.3475115858689859
1789997633749014000,8.653013916015626,0.288413566966448,-9.800778477618096,-0.1787604205327108,9.80026381889401,0.35387218169621926
1789997633759085000,8.6630849609375,0.288191101588495,-9.800857388073206,-0.1746867778856307,9.800132038755644,0.3574732797108006
1789997633769155300,8.6731552734375,0.290916873290576,-9.800794844231008,-0.1736737466518767,9.800056546250321,0.35953646051914245
1789997633779226000,8.68322607421875,0.2961839817722327,-9.800613057923316,-0.1750384226012043,9.800018993483521,0.3605654433586348
1789997633789296000,8.693296142578125,0.3012667831955477,-9.800315536281468,-0.1828514527060091,9.800191617561168,0.35584434543410515
1789997633799367200,8.7033671875,0.302002659722045,-9.800074713262916,-0.1942559131652116,9.800542265126888,0.3460876497010715
1789997633809437200,8.713437255859375,0.3008448679890483,-9.799871884167194,-0.2058715686896815,9.800914827062748,0.3353330227435968
1789997633819508000,8.723508056640625,0.2983566131035797,-9.799611771926283,-0.221322929919511,9.801406688319547,0.32065295653061354
1789997633829578200,8.733578125,0.2991606046965345,-9.799074011787772,-0.2430144093816168,9.801985602824585,0.30246123897707244
1789997633839649300,8.743649169921875,0.3037584538808092,-9.798231715744734,-0.2697187668359838,9.802569321695204,0.2828371621155915
1789997633849719000,8.753718994140625,0.3053257762627676,-9.797489957466722,-0.293850588654913,9.803079583148364,0.2645980937654177
1789997633859790000,8.7637900390625,0.30613309232397,-9.796707282656431,-0.318092574583739,9.80354384672001,0.24678327275763703
1789997633869860000,8.773860107421875,0.3091484398234635,-9.795713010922071,-0.3447212729860097,9.803949569503743,0.2301559142618948
1789997633879931100,8.78393115234375,0.3161456782996654,-9.794351659440991,-0.3756842742655426,9.804265745671477,0.21629697382389765
1789997633890001200,8.794001220703125,0.3204119574420154,-9.792881002366542,-0.4089307833723724,9.80455042569735,0.20297163479369656
1789997633900072200,8.804072265625,0.3198033970896154,-9.79139339415729,-0.443548982691206,9.804819084977105,0.1895183971338547
1789997633910142200,8.81414208984375,0.3207099905405193,-9.789686005717517,-0.4791640110276639,9.804940458424623,0.18316043455393755
1789997633920213200,8.824213134765625,0.3183908634105697,-9.787913150826096,-0.5155363240048288,9.804989399684667,0.18049144981835874
1789997633930283000,8.834282958984375,0.3148428886054084,-9.785960263192653,-0.5533959894629195,9.804916918666898,0.18437911075902802
1789997633940354000,8.84435400390625,0.3155590009855106,-9.7836338660717,-0.5927307324422523,9.80460686641172,0.20020745426117323
1789997633950424300,8.85442431640625,0.3128104329297319,-9.781166014653444,-0.6334983943015337,9.804179524887152,0.22009777946944212
1789997633960495400,8.864495361328125,0.3080480773661285,-9.778540342324971,-0.6749895115971565,9.803602942621112,0.2443870467983417
1789997633970565000,8.874565185546874,0.3008210304557345,-9.775971953141688,-0.7143136601172387,9.802938362841408,0.26974873556640233
1789997633980636200,8.88463623046875,0.2939283665988594,-9.773143451717496,-0.754756218208,9.802075713834006,0.29949200611914467
1789997633990706200,8.8947060546875,0.2883668417478911,-9.77009575458467,-0.7952658501856028,9.801016416208977,0.33234240001330717
1789997634000777200,8.904777099609374,0.2828038007932715,-9.766922969767451,-0.8352388180032372,9.799804856760616,0.3663481126260066
1789997634010847000,8.914846923828126,0.2781954850139096,-9.763714529114962,-0.873432647319138,9.798480597668158,0.4002208146215396
1789997634020918000,8.92491796875,0.2758297057306393,-9.760330731895566,-0.9111819477379322,9.79699030569822,0.43516837487007043
1789997634030988300,8.93498828125,0.2696795308041386,-9.757212307614088,-0.9457664274502544,9.795550339954138,0.46646193618231485
1789997634041059300,8.945059326171876,0.2653081655858084,-9.753972887301444,-0.9798059135656804,9.793986951993263,0.4982115227312229
1789997634051129000,8.955129150390626,0.2595089229888283,-9.750774968042968,-1.0126418691102417,9.792383528650474,0.5287965028384506
1789997634061200100,8.9652001953125,0.2480240359708666,-9.74814461953938,-1.0404445066627117,9.791010173262334,0.5536099749751429
1789997634071270100,8.975270263671876,0.2367367173516191,-9.745687874037026,-1.0657920792132616,9.789687957848804,0.5765404197093187
1789997634081341200,8.985341064453126,0.2277076442542485,-9.743418175539372,-1.088271914307773,9.788438436525105,0.597375299549482
1789997634091411200,8.9954111328125,0.2189924594116397,-9.741310974127051,-1.1087202435746788,9.787252177882396,0.6164840443805994
1789997634101482200,9.005482177734375,0.2122680099948309,-9.739204941758512,-1.1283708465926348,9.786054619072562,0.635237251433933
1789997634111552300,9.01555224609375,0.2093737133254297,-9.737128720006346,-1.1466755148943513,9.784872459794315,0.6531835452773439
1789997634121623000,9.025623046875,0.2060098446492105,-9.735286307010051,-1.1628180367261172,9.783807042962323,0.6689581961275617
1789997634131693000,9.035693115234375,0.2028748345591128,-9.73376713461876,-1.1760114994939417,9.7829174824146,0.6818426568428554
1789997634141764000,9.04576416015625,0.1993243390033021,-9.7323479154706,-1.188302752725035,9.782075918073659,0.6938157572881336
1789997634151834400,9.05583447265625,0.1993874491010792,-9.73091116066575,-1.1999969899110496,9.78123754641676,0.7055297357241025
1789997634161905200,9.0659052734375,0.2009012329312041,-9.729694770613312,-1.2095647364623845,9.780531464220234,0.7152431501137336
1789997634171975200,9.07597509765625,0.1983307065897621,-9.728965871816872,-1.2158325646854935,9.78008639538808,0.7212980855710894
1789997634182046200,9.086046142578123,0.1925780796134844,-9.728680040612817,-1.219048531057313,9.779883368906775,0.7240595700765873
1789997634192116200,9.0961162109375,0.1869629431454464,-9.728538586315512,-1.2210483996376396,9.779764537021634,0.7256603628496422
1789997634202187000,9.10618701171875,0.1832965478586964,-9.728568396931886,-1.2213761702872812,9.779759145321249,0.7257489146321874
1789997634212258000,9.116258056640625,0.1788511310234666,-9.728900405365229,-1.2193906955584883,9.779926719129458,0.7234900562249739
1789997634222328000,9.126328125,0.1791365603687241,-9.729408354887363,-1.2152812144130467,9.780228736336275,0.719382470220257
1789997634232399000,9.136399169921877,0.1827316805175505,-9.729476743948458,-1.2142008718304336,9.780292860741055,0.7185150613522554
1789997634242469000,9.14646923828125,0.186211083598528,-9.729804660728574,-1.2110408003643154,9.780508611709582,0.7155727915538435
1789997634252540200,9.1565400390625,0.1866868296178057,-9.73072820531428,-1.2035171268612146,9.781054480453236,0.7080608046669347
1789997634262610200,9.166610107421874,0.1852170127935707,-9.73173124487698,-1.1955997778654095,9.78163217207555,0.70002088782509
1789997634272681200,9.17668115234375,0.1803993285798467,-9.732968093195558,-1.1862367601059376,9.782322384364406,0.690317492393552
1789997634282751000,9.1867509765625,0.1747603911111131,-9.734367438599469,-1.1755636095959692,9.783096538951938,0.6792808945640768
1789997634292822000,9.196822021484374,0.1746876181358471,-9.735393859037757,-1.167038869291544,9.783686407118378,0.6707230159495147
1789997634302892300,9.206892333984374,0.1794700301067903,-9.736349552327392,-1.158295956191793,9.784263200631687,0.6622350335848689
1789997634312963300,9.21696337890625,0.1868854757287539,-9.737371881112455,-1.1484954237978904,9.784889918459388,0.6529229313130429
1789997634323033000,9.227033203125,0.1960924992089159,-9.73835504693091,-1.1385809827007352,9.785497064642394,0.6437586041161424
1789997634333104000,9.237104248046874,0.2034750106756575,-9.739353994840384,-1.128697740459442,9.786095756832898,0.6345917933586781
1789997634343174100,9.247174072265626,0.2116071897322312,-9.740295659604667,-1.119042169494182,9.786659441176491,0.6258510196501967
1789997634353245200,9.2572451171875,0.2147416883656755,-9.741676300308107,-1.106351468616724,9.787436257558026,0.6135765714690461
1789997634363315200,9.267315185546876,0.2165421436500735,-9.743042912486194,-1.0938920192118733,9.788191974209916,0.6013928169109105
1789997634373386200,9.27738623046875,0.2149229266840964,-9.744085699537395,-1.0848901629149914,9.788752020671238,0.5922149337344506
1789997634383456300,9.287456298828126,0.2121252405232749,-9.744933256277442,-1.0777991817407309,9.789197747206012,0.5847904147870855
1789997634393527300,9.29752734375,0.2117983831890858,-9.745949739843606,-1.068632709466666,9.7897414213965,0.575615893295936
1789997634403597000,9.30759716796875,0.2156193297167308,-9.74679788110554,-1.0601149834249168,9.790208682656662,0.5676428089803266
1789997634413668000,9.317668212890624,0.2218430082708597,-9.747717334038018,-1.0503273105125874,9.79071646894515,0.5588076847706774
1789997634423738400,9.32773828125,0.2282408012828789,-9.748767719873785,-1.0391242178443818,9.79128539287523,0.5487033941960036
1789997634433809200,9.33780908203125,0.2305206375820562,-9.75008464769125,-1.0261922555569558,9.79197421327305,0.5362853283994592
1789997634443879200,9.347879150390623,0.2304534175647422,-9.75120166902244,-1.0155404400959611,9.79254632135397,0.5257391912539975
1789997634453950200,9.3579501953125,0.2284853871610946,-9.752048641240595,-1.0078269431091844,9.792971498225405,0.517766989552614
1789997634464020200,9.368020263671877,0.2226594574865885,-9.752608028689028,-1.0037143932238222,9.793238296838341,0.5127054122607255
1789997634474091000,9.378091064453123,0.2196092761357314,-9.75302771540582,-1.0002918714292346,9.793439982229685,0.5088172502493512
1789997634484161000,9.3881611328125,0.219338441571407,-9.753442141425609,-0.9962996599879116,9.793646711301456,0.5048168626285271
1789997634494232000,9.398232177734377,0.2189614797514863,-9.75379869977832,-0.9929003729384392,9.793824345027527,0.501387130608318
1789997634504302300,9.40830224609375,0.2163615263861603,-9.754367439576985,-0.987883348494023,9.794100048694906,0.49599818826885955
1789997634514373000,9.418373046875,0.2103532258820719,-9.75504782305658,-0.9824401345267892,9.794417336307013,0.4896776183751799
1789997634524443100,9.428443115234376,0.206941937867552,-9.755721192273498,-0.9764598180081696,9.794736997236054,0.4832410145904621
1789997634534514200,9.43851416015625,0.2079698926758021,-9.756323249819872,-0.970215809052065,9.795034799540971,0.47718636102816625
1789997634544584200,9.448584228515625,0.2105202347457409,-9.756807818466424,-0.9647761752814054,9.795277766743135,0.47216958443251694
1789997634554655200,9.4586552734375,0.2102972396448254,-9.75718775769472,-0.9609747371718288,9.7954604481531,0.46836409134421164
1789997634564725500,9.4687255859375,0.2076216089610941,-9.757520350649951,-0.958152738553658,9.795611037752428,0.4651571705523125
1789997634574796500,9.478796630859376,0.2086077156553044,-9.757789815241098,-0.9552081364691256,9.795744129319433,0.4623838171201
1789997634584866300,9.4888662109375,0.2107062588371336,-9.758160986641048,-0.9509493830461054,9.79592759995564,0.45848680925371854
1789997634594937300,9.498937255859374,0.2126595665956847,-9.758752522793412,-0.9444126747537404,9.796213077586248,0.4523267968572247
1789997634605007400,9.50900732421875,0.2155141705755144,-9.759175132119656,-0.9393868094157428,9.796419544524612,0.4478362451410783
1789997634615078100,9.519078125,0.2188364468660205,-9.759536951169371,-0.9348488737251608,9.796596765967085,0.44394269164587075
1789997634625148400,9.5291484375,0.2203199634220451,-9.760161805069446,-0.9279508578397332,9.796890472718362,0.4374119426175234
1789997634635219500,9.539219482421874,0.2183274378979578,-9.761093532961606,-0.9185591254424303,9.797314482897212,0.4277775350694361
1789997634645289500,9.54928955078125,0.2124921010742895,-9.762033444160222,-0.9098964379720388,9.797729442676662,0.418161636048485
1789997634655360300,9.5593603515625,0.2100471556075848,-9.762834823670982,-0.9018285745896398,9.798084301193077,0.4097589614905204
1789997634665431300,9.569431396484376,0.2111233882706612,-9.763706345808506,-0.8921026418019086,9.798474571066734,0.4003472192044445
1789997634675501300,9.579501220703126,0.2135513278036378,-9.764599495255949,-0.881703193666786,9.79887125809698,0.39055097147819245
1789997634685572400,9.589572265625,0.2180411317698657,-9.765645204916597,-0.8689289061591029,9.799328522236255,0.3789012545504173
1789997634695642000,9.59964208984375,0.2224322428682819,-9.766619018384814,-0.8567757462244481,9.799744223383266,0.3679687330849494
1789997634705713200,9.609713134765624,0.2224141409560106,-9.767636670994758,-0.8450923957586288,9.800165269401878,0.3565614062640807
1789997634715783400,9.619783447265624,0.2193923089168034,-9.768748431628945,-0.8329468346085399,9.800614276173903,0.34400457061717876
1789997634725854500,9.6298544921875,0.2134675767766311,-9.769783035373688,-0.822298087887466,9.801021399698715,0.33223881862543003
1789997634735924200,9.63992431640625,0.2104724866138771,-9.770614225500822,-0.8131248936116695,9.801341962279007,0.3225970276678839
1789997634745995300,9.649995361328124,0.2124859818607568,-9.771134449982643,-0.8063267579041421,9.801543766922165,0.31641959128095903
1789997634756065300,9.660065185546877,0.2116511750044301,-9.771638892373442,-0.8004122000981122,9.801734522839126,0.31045594965395007
1789997634766136300,9.67013623046875,0.2067039826595224,-9.772358438819646,-0.7928805624842643,9.801999580423873,0.3019599393172412
1789997634776206300,9.680206298828123,0.2094769727705046,-9.77288918469548,-0.7855763038855046,9.802196860416297,0.29548342987432163
1789997634786277400,9.69027734375,0.2188411595737561,-9.773336928462982,-0.777415063131228,9.802360830220866,0.29000431879000715
1789997634796347400,9.700347412109377,0.227884900517296,-9.77388170286417,-0.7679050381164997,9.802548481727412,0.283577997057415
1789997634806418400,9.71041845703125,0.2365576892565935,-9.774510648417472,-0.7572043420124799,9.802754310440092,0.27637709941981126
1789997634816488200,9.72048828125,0.2432568763679824,-9.775179925981163,-0.7463784851588309,9.802966130314262,0.2687980361252936
1789997634826559200,9.730559326171877,0.2481360267116688,-9.775920515215397,-0.7349830117236822,9.803194417312868,0.26033181029169083
1789997634836629500,9.74062939453125,0.252778774483595,-9.776693253153562,-0.7230313657104969,9.803423143933175,0.2515891330808872
1789997634846700500,9.750700439453125,0.2557440540299751,-9.777665897578,-0.7086882945161312,9.803706000622673,0.24029810230354215
1789997634856770300,9.760770263671876,0.2578963184267282,-9.77884137109816,-0.6914458486184477,9.80403226589646,0.22649009468813516
1789997634866841300,9.77084130859375,0.2603640967797487,-9.780134918040035,-0.6719935446515679,9.804368373375448,0.21157646647618622
1789997634876911400,9.780911376953124,0.262537550095003,-9.781608497723935,-0.6493079578518867,9.804715457435417,0.19479833369875338
1789997634886982400,9.790982421875,0.2662001642557792,-9.78298329320848,-0.6267182326421141,9.804989836802008,0.18048458654801686
1789997634897052400,9.801052490234374,0.2688915222316049,-9.784358673214912,-0.6036754299025983,9.805227992941411,0.16704887892505318
1789997634907123200,9.811123291015624,0.2719857253872789,-9.78574340557158,-0.579323882652074,9.805414542855418,0.15560217952414687
1789997634917193500,9.821193359375,0.2734068442315794,-9.78729005049169,-0.5518957775004207,9.805582456331914,0.1447047899167821
1789997634927264300,9.83126416015625,0.2759168542911298,-9.788775905135273,-0.5235648782901465,9.805659092635812,0.13940506528239857
1789997634937334300,9.841334228515626,0.2817441174061968,-9.79005074737668,-0.4959096133191138,9.805606328848345,0.1431232061383645
1789997634947405300,9.8514052734375,0.2843846037113107,-9.79131857535541,-0.4685747394088655,9.805517807051116,0.148919001284257
1789997634957475300,9.861475341796876,0.288216400426533,-9.792537888017296,-0.4398942230433225,9.805329164020176,0.16091579913535917
1789997634967546000,9.871546142578126,0.2930459942737594,-9.793621591600775,-0.4116873155388981,9.80504332917629,0.17751505000983034
1789997634977616400,9.881616455078126,0.2968355227498337,-9.794700619009136,-0.3822308463647961,9.804674486834767,0.19679982395392004
1789997634987687400,9.8916875,0.3014346505757421,-9.79571944066286,-0.3512694525204599,9.80418034008735,0.22004612258950432
1789997634997757400,9.90175732421875,0.3055698506843298,-9.796699683871864,-0.3189122934687882,9.803570033995465,0.24579924551147633
1789997635007828200,9.911828125,0.3091133685100823,-9.797644271245598,-0.2846094802420586,9.802816679423893,0.27417521097963177
1789997635017898200,9.921898193359375,0.3106950847435742,-9.79851871599257,-0.2507904502105899,9.801990170703723,0.30229953140047594
1789997635027969300,9.93196923828125,0.3116561848606914,-9.799293207496405,-0.2170906809109263,9.801061144393131,0.33106759378210376
1789997635038039300,9.942039306640623,0.3102809144521132,-9.800060100215672,-0.1815221585973165,9.799996329513494,0.36121247112510574
1789997635048110300,9.9521103515625,0.3082632910193875,-9.800752758654951,-0.1435787512453738,9.798727368136745,0.39412905958566213
1789997635058180400,9.962180419921877,0.3066993296382949,-9.80127707479,-0.1062040380263235,9.797325674011242,0.4275344555212999
1789997635068251400,9.97225146484375,0.3097805637145415,-9.801488087192178,-0.0723675362702459,9.795856976942419,0.45995202860715473
1789997635078321200,9.982321044921877,0.3143218238733709,-9.801536017987132,-0.0384491146846441,9.794241902777497,0.4931636697483234
1789997635088392200,9.99239208984375,0.3146068148272112,-9.801601484438777,-0.0019160677490865,9.792451007069044,0.5275187704302777
1789997635098462500,10.00246240234375,0.3126952821174636,-9.801602068960666,0.0343085397146176,9.790579962372513,0.5611617716841638
1789997635108533500,10.012533447265625,0.3097066216954961,-9.80152198946178,0.0680505407208111,9.788739550294862,0.5924191033469332
1789997635118603300,10.022603271484376,0.3083878672471269,-9.801301624709367,0.0987448719936422,9.78693785577678,0.6214616416997774
1789997635128674300,10.03267431640625,0.3087458138393238,-9.800963771057129,0.1272725084855686,9.785152879243572,0.6489963331060696
1789997635138744300,10.042744384765625,0.3085535792028531,-9.800555774778127,0.1557847099463455,9.783290863271578,0.67645219066518
1789997635148815400,10.0528154296875,0.3082365856755524,-9.80012381310165,0.1814719993126578,9.781546998509373,0.7012181881253132
1789997635158885000,10.062885009765624,0.3095021851645782,-9.799628138539196,0.2046478173146955,9.779889778082461,0.7239750782732187
1789997635168956200,10.0729560546875,0.3104811497319489,-9.799154091286658,0.2248521634915843,9.778401411542776,0.7438035891846929
1789997635179027200,10.083027099609374,0.3084532606335357,-9.798795194846392,0.242644681020081,9.77710832406312,0.7606312807814128
1789997635189097500,10.093097412109374,0.3055294456087052,-9.798415255618094,0.2609553772037848,9.775755166591358,0.7778164278396915
1789997635199168300,10.103168212890624,0.3060738912163302,-9.797945300018789,0.2774580923837609,9.774453231845534,0.7940153276469014
1789997635209238300,10.11323828125,0.3094512221623212,-9.797481774160266,0.2897710277236998,9.773411129217516,0.8067287782740793
1789997635219309300,10.123309326171874,0.3147202120738104,-9.797035199436545,0.2990617291656323,9.772566601673757,0.8169011228959365
1789997635229379300,10.13337939453125,0.3218793996460735,-9.796499192863704,0.3088368531236425,9.771634831605141,0.8279708348149845
1789997635239450000,10.1434501953125,0.3278006794538349,-9.795916424539683,0.3208592993507161,9.770524422321925,0.8409727015827451
1789997635249520400,10.153520263671876,0.33290468806196,-9.795354114481809,0.3325224838113412,9.76944117864689,0.8534506538915292
1789997635259591400,10.16359130859375,0.3380917353110387,-9.79476842354834,0.3443789258217439,9.76832592024606,0.866140896635419
1789997635269661400,10.173661376953126,0.3414512018067762,-9.794214881318808,0.3565939354788511,9.767198660875822,0.8787625495365264
1789997635279732200,10.183732177734376,0.3412228364109992,-9.793698163968324,0.370737465513125,9.765959232622217,0.8924367126585904
1789997635289802200,10.19380224609375,0.3388201957160607,-9.793230546456575,0.3850258473781868,9.764730710437817,0.9057829303189029
1789997635299873300,10.203873291015626,0.3370489117272198,-9.792826057308911,0.3966710212580859,9.763708752127977,0.9167243098829571
1789997635309943600,10.213943603515624,0.3342357540026306,-9.7924922953099,0.4071479916088283,9.762802173838299,0.9263272070530766
1789997635320014300,10.224014404296875,0.332747013282217,-9.7920048040539,0.4199052549164742,9.761644696449018,0.9384518639004055
1789997635330084400,10.23408447265625,0.3317369594568386,-9.791454768955706,0.4333309190049767,9.76039749666088,0.9513423649332877
1789997635340155400,10.2441552734375,0.3350962067568674,-9.790786660435796,0.4456199072137475,9.759152060936064,0.9640129932645936
1789997635350225200,10.25422509765625,0.3370900839878246,-9.790037303373216,0.4603448173325508,9.757682141103322,0.9787832805071172
1789997635360296200,10.264296142578123,0.3385711893910542,-9.789237092906236,0.4760231191860511,9.756105639475894,0.9943812512327915
1789997635370366200,10.2743662109375,0.3369653250969946,-9.788471953752635,0.4926115946870297,9.754474156453053,1.0102618145952438
1789997635380437200,10.284437255859377,0.3354973349036648,-9.78764427075684,0.509758690451458,9.752753721310347,1.0267363861111705
1789997635390507300,10.29450732421875,0.3339707829235121,-9.786851074552535,0.5257416743399576,9.751126174368231,1.04208112880199
1789997635400578300,10.304578369140623,0.3316432167587801,-9.786141464978456,0.5402361001711339,9.749646568042339,1.0558403468238742
1789997635410648300,10.3146484375,0.3288022577118128,-9.78534885329604,0.5561175233813003,9.748006187706645,1.0708898961253024
1789997635420719400,10.32471923828125,0.3230940361328422,-9.784615862846374,0.5720910818543284,9.746380104114417,1.0855691648667194
1789997635430789000,10.3347890625,0.3150392514277249,-9.78400971364677,0.5867782903112471,9.74491300112482,1.098669727062478
1789997635440860200,10.344860107421876,0.3094473131721839,-9.7832995195508,0.6014052564809098,9.743379896430575,1.1121796640955774
1789997635450930400,10.354930419921876,0.307063961699605,-9.782489372211694,0.6156505298566073,9.741811791011283,1.1258397743176611
1789997635461001500,10.36500146484375,0.3043923496038653,-9.781673379653691,0.6297739669509231,9.740239975918676,1.1393547602427836
1789997635471071200,10.3750712890625,0.3003765015586279,-9.780974875995517,0.6424035852909088,9.738842541836553,1.151227118883715
1789997635481142300,10.385142333984374,0.2975395610996522,-9.78042542541921,0.6520156093753874,9.737764284014737,1.1603113359965238
1789997635491212300,10.39521240234375,0.2985017571953125,-9.779915137809514,0.6591872545704245,9.736903129428589,1.1675138913589929
1789997635501283300,10.405283447265624,0.2980724258673377,-9.77942004776895,0.6666867434803396,9.73602077769726,1.174850744540505
1789997635511353300,10.415353271484374,0.2996513290892355,-9.778880534064768,0.6738726363964378,9.73513843397697,1.1821503372769997
1789997635521424400,10.42542431640625,0.3037276020848192,-9.778312963309885,0.6802445095159113,9.73430484158743,1.1889897848494744
1789997635531494400,10.435494384765626,0.3109304278694093,-9.77768694036603,0.6859733354914933,9.733489839823571,1.1956481881540637
1789997635541565400,10.4455654296875,0.3159772994628176,-9.777041043677926,0.6928466553270817,9.732566223213963,1.2031477141611513
1789997635551635200,10.45563525390625,0.3146265424409881,-9.776645322358608,0.699015407089889,9.73183783283894,1.2090238025277003
1789997635561706500,10.46570654296875,0.309398469061777,-9.7764699657917,0.7037701273363083,9.731346669253272,1.2129619943053356
1789997635571776500,10.475776611328126,0.3048098260972648,-9.77652958702445,0.7049409977465868,9.731281691476498,1.2134818694517673
1789997635581847600,10.48584765625,0.3021661431880668,-9.776760473170876,0.7028560081660747,9.731581037199552,1.2110684590388725
1789997635591917600,10.49591748046875,0.3029134178914129,-9.777063840031625,0.6983166842360049,9.732125695403477,1.206693627704386
1789997635601988600,10.505988525390626,0.307559928523004,-9.777359023585914,0.692112057442218,9.732802124680171,1.2012179184511047
1789997635612058600,10.51605859375,0.3089840795746073,-9.777892692071198,0.6839191794406623,9.733772378035226,1.1933471396434479
1789997635622129400,10.52612939453125,0.307100019393675,-9.77852397571206,0.6756791012965142,9.73479572805955,1.18496242403275
1789997635632199400,10.536199462890623,0.3048637117089703,-9.779045953759551,0.6690911012083292,9.735620818119152,1.1781561169807662
1789997635642270500,10.5462705078125,0.3016712358105927,-9.779787127515672,0.6596537761036306,9.736796365820112,1.1684097863835134
1789997635652341500,10.556341552734375,0.3017422917528077,-9.780812378910184,0.6442223251506686,9.738606975039351,1.153211078689587
1789997635662411500,10.56641162109375,0.3054981371549889,-9.781946351376176,0.6249567028623074,9.740773504643464,1.1347713182378554
1789997635672482600,10.576482666015623,0.3124427321285009,-9.783142867684363,0.6023677813701331,9.743216812667994,1.1135878572254183
1789997635682552600,10.586552490234377,0.3214113072102889,-9.78428677702248,0.5786159535784274,9.745695427282577,1.091691359221339
1789997635692623600,10.59662353515625,0.3306626082235947,-9.785407305485007,0.5539310827203094,9.748202203608502,1.0690777973013055
1789997635702693400,10.606693359375,0.3395746308125555,-9.786702021470663,0.524918046464771,9.751098520601643,1.0423358307063622
1789997635712764400,10.616764404296877,0.3439372464688494,-9.788191383245588,0.4933697926431894,9.754253968458528,1.0123866137279671
1789997635722834700,10.626834716796877,0.3445381349714472,-9.78980992435813,0.4596844902602955,9.757594036595671,0.9796700103039622
1789997635732905700,10.63690576171875,0.3470142427613958,-9.791293440914153,0.4249145709784701,9.760881018519934,0.9463615935227275
1789997635742975500,10.6469755859375,0.3533446148267015,-9.792540226104856,0.3895077054999769,9.764018541842619,0.9134301636721621
1789997635753046500,10.657046630859377,0.3585921235587447,-9.793846048006415,0.3498299577692523,9.767417183055843,0.8763283029935589
1789997635763116500,10.667116455078125,0.362205564815551,-9.79517525078356,0.3061298774535768,9.77102088447441,0.8351750964802377
1789997635773187600,10.6771875,0.3628183264190331,-9.796415021711589,0.262645997171849,9.774481833522731,0.7936448963903726
1789997635783257600,10.687257568359374,0.3619519919132813,-9.797467161113024,0.2214349206603132,9.77761876194923,0.7540403090049987
1789997635793328600,10.69732861328125,0.3634336087731644,-9.798251589488984,0.1805018025736324,9.780507404847668,0.7155934623524376
1789997635803398700,10.707398681640624,0.3689727573955431,-9.798730897438526,0.1382906821740791,9.783213813564075,0.6775838597411695
1789997635813469700,10.7174697265625,0.3755153839720412,-9.798973474022745,0.0973905895741656,9.785631254262503,0.6417155372433613
1789997635823539500,10.72753955078125,0.3788649866608902,-9.79915292224288,0.0585932733732042,9.787833422689044,0.6071957946121006
1789997635833610500,10.737610595703124,0.3786466312024742,-9.799311912196874,0.0226723208927316,9.789818235019412,0.5743345569096759
1789997635843680500,10.747680419921876,0.3770408399736508,-9.799391991695762,-0.0119706178584252,9.791639547903014,0.542384975411983
