time,seconds_elapsed,z,y,x
1789139607785900800,1.55990087890625,1.9043034500614713,0.0023982617078093134,0.16833764565748868
1789139607795872800,1.569872802734375,0.6431234835911777,0.5496609486585458,-0.5763573897117774
1789139607805845800,1.579845703125,0.8060233841711173,0.7605156004007665,0.288604020450135
1789139607815818800,1.58981884765625,0.6141634934578052,0.6163165476926611,0.42823343779598205
1789139607825791500,1.59979150390625,0.8011894253809337,0.6259871612059408,0.43949662737249223
1789139607835764700,1.6097646484375,0.3681751825054974,0.9176891993946891,-0.13676575390795043
1789139607845737700,1.61973779296875,-0.46506450382833786,0.7176789432882208,0.4712845561520944
1789139607855710700,1.629710693359375,-0.7955049445177439,0.2864607255695928,-0.4136528475309848
1789139607865683700,1.63968359375,-0.21608800520044857,-0.38138201500663094,-0.06234241063601716
1789139607875656700,1.64965673828125,-1.450019305409523,-0.48244291519981486,0.24380040210185122
1789139607885629700,1.659629638671875,-1.7508221256880563,-0.7246436359609761,0.09252599637247204
1789139607895601700,1.6696015625,-0.08610421877001243,-0.9360042643616727,-0.10194819154989426
1789139607905575000,1.679574951171875,-0.3977266287614136,-0.9986075215431337,0.3226899992499718
1789139607915547600,1.689547607421875,-0.9356171098404755,-0.6685721313533629,-0.4277404265048814
1789139607925520600,1.699520751953125,0.6946478740920181,0.3072738102274599,-0.11591674311653453
1789139607935493600,1.70949365234375,0.8585510532954788,0.5304819783550976,-0.2931171822606377
1789139607945467000,1.719466796875,0.6013443141368877,0.4851952197788567,-0.39569265161627903
1789139607955439900,1.72943994140625,0.2198230232015745,0.8753923713431138,-0.10156971232753069
1789139607965412600,1.73941259765625,-0.34774403803862747,0.3870085929095763,0.07831333206475415
1789139607975385600,1.749385498046875,0.19779179535885266,-0.26748280948631503,-0.046087170004824325
1789139607985358600,1.759358642578125,-0.9993588127626467,-0.27779547773162167,-0.06588298018975669
1789139607995330800,1.769330810546875,-1.6342969864290506,-0.5517134031531872,0.025357672939288048
1789139608005303600,1.779303466796875,-0.49724610739458186,-0.6775910314031051,-0.464782778637801
1789139608015276500,1.789276611328125,-0.06883318256213922,-0.84381399760877,0.1643969572338574
1789139608025249800,1.799249755859375,0.05877585716830707,-0.6434002608400864,0.16167809094973826
1789139608035222800,1.809222900390625,-0.05732146067158611,-0.6517825988902624,0.04629994138823331
1789139608045195800,1.81919580078125,-0.725056990863979,0.17815318829959234,0.1473424615149375
1789139608055168500,1.82916845703125,0.2599825962841958,0.5566706414493744,0.6902413904209688
1789139608065141800,1.839141845703125,0.24402916744802947,0.2865089394030601,-0.0066744621863815265
1789139608075114800,1.84911474609375,0.15726125513028655,0.039138627378176805,-0.274002597761758
1789139608085087700,1.859087646484375,-1.2579791134329914,0.3812425156368695,0.5071195347915024
1789139608095059700,1.869059814453125,-1.1101648598014944,0.35600681881739965,-0.2158403178211566
1789139608105032700,1.87903271484375,-0.20522739923406982,0.12199797809334346,0.016139599544325645
1789139608115005700,1.889005615234375,0.582975653668356,-0.06242830999994528,0.020292520073767056
1789139608124978700,1.898978759765625,-0.9933497578745678,0.2684336726184067,0.26384245344823914
1789139608134952000,1.908951904296875,0.4489726907239521,0.34363435537333353,-0.25086211980397344
1789139608144924700,1.918924560546875,0.2409402090624677,0.672106445998695,0.13306578403593558
1789139608154897700,1.928897705078125,0.9610378615975663,0.25071537058822785,-0.050951338245146055
1789139608164871000,1.938870849609375,0.26150442554534903,0.3497006418056455,-0.4187215414921517
1789139608174844000,1.948843994140625,0.618406336031878,0.17200488840052847,-0.4808227567349363
1789139608184817200,1.958817138671875,1.0122221949501005,0.04537646634743977,-0.5896422298314795
1789139608194788900,1.968788818359375,0.31127920903237344,-0.364743819449877,-0.9706535060404226
1789139608204761900,1.978761962890625,0.22741656977952923,0.07043804633311528,-0.6308700229344145
1789139608214735000,1.988735107421875,0.26016605764658085,0.4790844861330252,-0.5427275680257859
1789139608224708000,1.9987080078125,0.6008789918475532,-0.5213028716079013,-0.1891342103000112
1789139608234680800,2.008680908203125,0.898701771949716,-0.4459538696509395,-0.0645267525588541
1789139608244653800,2.01865380859375,-0.30576973698420423,-0.050332896354979985,-0.3806283965049467
1789139608254627000,2.028626953125,0.10200363292959828,0.23699293490694712,0.26356164946753735
1789139608264600000,2.03860009765625,1.3417852757613666,-0.25186550622397286,-0.7136935243460963
1789139608274572800,2.04857275390625,0.20806498680746485,-0.01091433005090987,-0.6771072731310513
1789139608284545800,2.0585458984375,-0.8724267439813763,0.02690346047138934,-0.40314439473659697
1789139608294519000,2.06851904296875,0.9386531110698112,-0.5149395106490927,0.1765449370297945
1789139608304491000,2.078490966796875,1.2816486664690763,-0.4681760256981625,0.3695437106173186
1789139608314463700,2.088463623046875,-0.10419710671883119,-0.380511926284193,0.7565176905568434
1789139608324437000,2.09843701171875,-0.8328284648383968,-0.4588823161373501,0.5040341406966319
1789139608334410000,2.108409912109375,0.532132479901295,-0.43901582492879476,0.16526708799883166
1789139608344383000,2.118383056640625,0.7611581137108062,0.36127037916851434,0.3979891469703242
1789139608354356000,2.12835595703125,-0.975483228287727,-0.09174643590662918,0.17510935617526496
1789139608364329000,2.138328857421875,0.4029768602043693,-0.22699375708714473,0.3592686531204569
1789139608374302000,2.148302001953125,0.2685527199166792,0.38757144509391694,0.6590984360424827
1789139608384275000,2.15827490234375,-1.1093338537822413,-0.13178784336770533,0.7751027514266596
1789139608394248000,2.168248046875,0.5897384095172675,-0.32915860819213943,0.6658394555004192
1789139608404221200,2.17822119140625,-0.36841765100509977,-0.2948982334861687,0.06741211556479261
1789139608414193000,2.18819287109375,-0.8420100974847156,-0.5403531203987819,1.0914295882802227
1789139608424166000,2.198165771484375,-0.6881159717140325,-0.9618476830744028,0.5262490611238692
1789139608434139100,2.20813916015625,0.41735190561984475,-0.6871834139272502,0.4591550654640533
1789139608444112100,2.218112060546875,0.202115287365369,-0.4816165230884323,0.10331897749178194
1789139608454084900,2.2280849609375,-0.19160759361468505,-0.2781818540289344,-0.32920931612045073
1789139608464057900,2.238057861328125,0.8473037226564066,0.037146267644242933,-0.45290195993650734
1789139608474030800,2.24803076171875,1.3239561884346651,0.4049117873465334,-0.499089619789823
1789139608484004000,2.258004150390625,0.41630709848507874,0.6617431002409765,-0.7000121828362484
1789139608493977000,2.26797705078125,0.7468089837874308,0.6891481049933125,-1.1678231514186304
1789139608503949800,2.27794970703125,0.46070480633440875,0.38905717748995233,-0.49630481984689756
1789139608513922000,2.287922119140625,0.4783432371366059,0.3763465832149793,0.1321559635839238
1789139608523895000,2.29789501953125,-0.9648363210636643,0.38824593212095077,-0.4927489730506694
1789139608533868000,2.307867919921875,-0.29439767202618194,-0.18632116385194675,0.12825285237579848
1789139608543840800,2.3178408203125,0.4403578027208668,-0.6339034187104212,0.8320184339989765
1789139608553814000,2.32781396484375,-0.407763663631277,-0.6151257759427213,0.28458956465946456
1789139608563787000,2.337787109375,-2.3033247365019096,-0.3639218039174962,-0.30329028206251446
1789139608573760000,2.347760009765625,-1.0621722407969894,-1.027973963021223,0.42920070802293797
1789139608583733000,2.35773291015625,2.5041789025608825,-0.6305440810517177,0.5490805327070954
1789139608593706000,2.3677060546875,1.2837193645896325,0.21522306484616946,0.6495657559890337
1789139608603679000,2.377678955078125,-2.53844919233022,0.44521489774868317,0.7411853687275419
1789139608613652000,2.38765185546875,0.8513618865826417,0.4184764892336137,0.5063303975836033
1789139608623624000,2.3976240234375,3.9605271868701535,1.2213964030999231,0.742022690616213
1789139608633597000,2.407596923828125,-0.0542328194547327,1.32065588271762,0.4812931725588339
1789139608643570000,2.41756982421875,-1.7014281331562549,1.0509172626765788,0.4003905770893178
1789139608653543000,2.42754296875,0.7124822351271003,0.1985651200601534,0.9910561102943876
1789139608663516200,2.43751611328125,0.49819116755188936,0.17397523541878795,1.0362064824163442
1789139608673489000,2.447489013671875,-1.4828660066890387,-0.20879856913649372,-0.19300110305310322
1789139608683462000,2.4574619140625,-1.4139267811229501,-0.9770382500696331,0.43718905640109557
1789139608693435000,2.467434814453125,-0.340562524698656,-0.8695149896117329,1.4241574713439735
1789139608703408000,2.477408203125,-1.1203135362386243,-0.5662081727568675,0.7034774770549751
1789139608713381000,2.487381103515625,0.0805483814442691,-0.7840033699250863,0.43480515731860025
1789139608723353900,2.497353759765625,0.1879004004572595,-0.28957848926659524,0.9690580390220984
1789139608733326000,2.507326171875,-1.4247911486048128,-0.29719647196678695,0.21834275396048364
1789139608743299000,2.517299072265625,1.1205774155636439,-0.2633914807878106,-0.09734661106354592
1789139608753272000,2.52727197265625,1.7847868737936827,-0.3671240328507907,-0.025121784156277804
1789139608763244800,2.537244873046875,-0.8524259698026316,0.09034304592333653,-0.4294044919574482
1789139608773217800,2.5472177734375,-0.6854608835161106,0.2767876359529179,-0.6051606205082076
1789139608783191000,2.55719091796875,0.4642826232593909,-0.30744090386196915,-0.5944960244202255
1789139608793164000,2.5671640625,0.35441696213344487,0.11275509463873906,-0.3130583170789366
1789139608803137000,2.577136962890625,-0.21148561844373487,0.290590226186206,-0.2761817595168178
1789139608813109800,2.58710986328125,0.03358570214269044,-0.1907914545405648,-0.04048674087808779
1789139608823083000,2.5970830078125,-0.47410498248519845,-0.22811078887705943,0.6188010059317358
1789139608833056000,2.607055908203125,0.046728139748404895,0.022535419651695508,0.07467078388626935
1789139608843028000,2.617028076171875,0.2735840771566016,-0.07546796289343596,0.5420693899741947
1789139608853001000,2.6270009765625,1.163031293714229,-0.29080888196282306,0.20026740388790173
1789139608862974000,2.636973876953125,0.048845945152967966,0.04144329795277321,1.1901291522400324
1789139608872947000,2.646947021484375,-0.48725799986272333,0.6220225176391379,0.4908375744738653
1789139608882920000,2.656919921875,0.88967687607168,0.9625249472194501,0.9571602417635499
1789139608892893200,2.66689306640625,1.5445367876805483,0.7435352149535416,0.5827271193294896
1789139608902866000,2.676865966796875,0.4731031927276877,0.10419585266085506,0.7417159658232315
1789139608912839000,2.6868388671875,-0.5859973593355798,0.2418258111507447,0.3340039756274626
1789139608922812000,2.69681201171875,-0.41780503090280496,0.1454747729660578,-0.04703510222747391
1789139608932785200,2.70678515625,0.5443367620614913,-0.5789499157767101,-0.6933415245169716
1789139608942758000,2.7167578125,-1.1153868407988263,-0.8743493034438885,-0.21174233188441832
1789139608952729900,2.726729736328125,-1.7204592485574013,-0.27200131506495273,0.1996525026885696
1789139608962703000,2.736703125,0.19809887041403737,-0.4480573556776823,-0.2800372241502992
1789139608972676000,2.746676025390625,1.5480903114391549,-0.39604503495392984,0.7661718309801782
1789139608982648800,2.75664892578125,0.4114727962945839,0.2146462985469788,0.867723450924261
1789139608992621800,2.766621826171875,0.004835159685077854,0.6837628417913457,0.04718634800172475
1789139609002595000,2.776594970703125,1.4833540684922404,0.5940422904750662,-0.8391018708987187
1789139609012568000,2.786568115234375,1.4791956816646559,0.5641961274161961,0.18861954778178983
1789139609022541000,2.796541015625,0.7319715512390229,0.33810847927996324,0.10213416418324897
1789139609032513800,2.806513671875,-0.7675582623066864,0.7442445014731321,-0.3927497954811089
1789139609042486800,2.81648681640625,-0.2801094194299139,0.297255519422763,-1.2179035820529664
1789139609052460000,2.8264599609375,0.9616890838516667,-0.5224648497543484,0.46334410197180215
1789139609062432000,2.836431884765625,0.5839271396826883,-0.7361053564516017,0.6718860269945909
1789139609072404700,2.84640478515625,-1.1795811568066277,-0.2959191305441764,0.5785946947668066
1789139609082378000,2.8563779296875,0.09282652361404452,-0.7289344064939476,0.810294657377354
1789139609092351000,2.86635107421875,0.2386031095020664,-0.9576553985426395,0.9492950316882446
1789139609102324000,2.876323974609375,0.7719937349923007,-0.9826197262150995,0.6665982964444107
1789139609112297000,2.886296875,0.5677399132413794,-0.2240455745982819,0.36833849008040337
1789139609122270000,2.89627001953125,1.1123454599478486,-0.19155665299899471,0.6993431898951753
1789139609132243000,2.906242919921875,1.7298255959803983,0.3514155348014774,0.9708870298306546
1789139609142216000,2.9162158203125,2.8066737655626617,0.5292651013921893,1.1493890642281035
1789139609152189000,2.92618896484375,0.9399555893446039,0.8745609973127761,0.821728444052252
1789139609162162200,2.936162109375,2.035838355683112,0.5421349634352599,-0.02590881500995412
1789139609172134100,2.946134033203125,0.9594764955824204,0.9119159083439995,1.054641383058949
1789139609182107000,2.95610693359375,-0.7671083695234785,0.49451131981794416,0.18706499561530018
1789139609192080100,2.966080078125,-0.21440125120673983,-0.12663729903140636,-0.38402166708307656
1789139609202053000,2.97605322265625,-1.0464923199952412,-1.0299528175386226,0.8227310413261263
1789139609212026000,2.986026123046875,-2.238160964948063,-1.3855486212679728,2.1312670737243278
1789139609221999000,2.9959990234375,-1.3484934419992889,-0.973432871104135,0.5313504429497252
1789139609231972000,3.00597216796875,-0.23594558416173503,-0.7360757066405925,0.08219581927612998
1789139609241945000,3.015945068359375,1.3422878977218584,-0.7091257598468049,0.90666910906059
1789139609251918000,3.02591796875,0.13711164550044785,0.22419177452019107,0.7561327359439042
1789139609261891000,3.03589111328125,0.4906167458208735,0.22706823307151608,0.5623752541829979
1789139609271864000,3.045864013671875,2.01117737189028,0.533166346520667,1.7582909231964183
1789139609281837000,3.055837158203125,1.7759820127290542,1.5473992701069068,0.32438859062150904
1789139609291809000,3.06580908203125,-0.5412118749180664,1.1864244613429207,-0.6091119475270127
1789139609301782000,3.075781982421875,-0.4925895700488988,0.26426370878304145,0.29035717411927203
1789139609311755300,3.08575537109375,-0.6297027152808528,-0.1987660784479987,0.7249341829847825
1789139609321728000,3.09572802734375,-1.1488952096724152,0.31338160103484425,0.01309659836373455
1789139609331701000,3.105700927734375,-0.859173664897064,0.5012302980636589,0.04062446486727889
1789139609341674000,3.115674072265625,-0.6110949331704575,-0.527976295757424,1.2222089421319238
1789139609351647200,3.125647216796875,-0.3933251761778215,-1.483040581451217,1.7418186491405854
1789139609361620200,3.1356201171875,-0.015758761850616178,-0.5821707188342491,0.5710188931482062
1789139609371593000,3.145593017578125,0.24161669556368873,-0.22731794946516992,0.7259544624713334
1789139609381566000,3.15556591796875,0.6320326668315565,0.24882192632713154,0.8932897512490943
1789139609391539200,3.165539306640625,-0.35903206711333946,0.11088466567941725,0.29524114151952296
1789139609401512200,3.17551220703125,-0.8762763726090897,-0.14532224144788505,1.0674768620611998
1789139609411484000,3.18548388671875,0.04893374112522835,-0.465838231242263,1.0961578317321228
1789139609421457200,3.19545703125,-1.114911714004636,-0.13475536183004663,0.8662536677269708
1789139609431430100,3.20543017578125,-0.003581272398168833,-0.3177155193142169,1.07596411684591
1789139609441403100,3.215403076171875,0.8790387393280158,-0.43486216333946043,1.6028036110215929
1789139609451376000,3.225376220703125,0.07426324956465703,-0.21781399451505568,1.0356798112335452
1789139609461349000,3.23534912109375,0.5851122512023024,0.31844996863721936,1.001536456592072
1789139609471322000,3.245322021484375,0.8371046929738611,0.08777299197127295,1.5953278042104666
1789139609481295000,3.255295166015625,-0.219309598767201,0.1900117001649862,1.7002605320348319
1789139609491268000,3.26526806640625,0.5616906963704834,0.42003878602634,0.8728605023091792
1789139609501241000,3.275240966796875,0.40354022194005984,0.11823033990413286,1.0803282751423853
1789139609511214000,3.285214111328125,-0.5898064816101996,0.03131594003483091,1.0563430332290344
1789139609521187000,3.29518701171875,0.049484159843548835,-0.0654305318053876,1.058061504527712
1789139609531159000,3.305158935546875,-0.11844254902796766,0.026205198847373084,0.866165477620008
1789139609541132000,3.315132080078125,0.8063434124421105,0.06852040162622751,1.283970661871479
1789139609551105000,3.32510498046875,0.41168867718583574,-0.46061171225950276,1.0943006296184359
1789139609561078000,3.335078125,-0.2862553893869469,-0.25671158120891074,0.9104698520610204
1789139609571051000,3.345051025390625,-0.6750193898732411,0.015851159089437804,0.14767279770608446
1789139609581024300,3.355024169921875,-0.500395418095032,0.2857153986667899,-0.014128683236587612
1789139609590997000,3.3649970703125,-0.09999810950835077,0.3008250002020674,-0.27935002644486934
1789139609600970000,3.374969970703125,-0.7260567379591367,0.26024317614601256,0.21668626589672182
1789139609610943000,3.38494287109375,-0.3209933861087772,0.3391753520317143,0.36073948922483956
1789139609620916200,3.394916259765625,-0.4894075474702355,0.12478250384986919,0.8220438417873125
1789139609630889200,3.40488916015625,1.0838477410702554,-0.04969664413147573,0.24071220280616615
1789139609640862000,3.414862060546875,1.5603646276967695,-0.007101351187689339,0.0030906837605774815
1789139609650834200,3.424834228515625,0.09589635004196816,0.09932430756077551,-0.04371565979597094
1789139609660807200,3.43480712890625,0.35395005863813495,-0.27772219490478844,-0.19491256947771426
1789139609670780200,3.4447802734375,1.2109955224058748,-0.3305314621002582,-0.3321270800301679
1789139609680753000,3.4547529296875,-0.37545927117591615,-0.22621919770637638,-0.372032711311112
1789139609690726100,3.46472607421875,-0.3086420689696603,-0.3465992978056235,-0.1812579938508694
1789139609700699100,3.47469921875,0.3134960102137743,-0.6894242075859986,-0.20266981656721847
1789139609710672100,3.484672119140625,0.03024245506024086,-0.41081470644216594,0.1867777293830707
1789139609720645000,3.49464501953125,-0.7805823258911128,-0.20672492396454262,0.8947260937451086
1789139609730618000,3.5046181640625,1.2625962505191415,-0.5133907399010885,0.8458328353254877
1789139609740591000,3.514591064453125,1.463365424646707,-0.4782208330846429,0.3399842060809831
1789139609750564000,3.524564208984375,0.2664649011653581,0.2871902896589932,0.9462949403027522
1789139609760537000,3.534537109375,0.9723918697797923,0.6007623943457133,0.8487640964805812
1789139609770509000,3.544509033203125,1.7801212369016266,-0.009713301150542784,0.46382725233967975
1789139609780482000,3.55448193359375,0.5640128372006016,0.07488085283485922,1.0043526308028436
1789139609790455000,3.564455078125,0.01981072048469381,0.33037898891601125,1.6646801092552228
1789139609800428000,3.574427978515625,-0.5470225269094382,-0.2043873420048692,1.3929651140745192
1789139609810401300,3.5844013671875,0.37855294237302173,-0.030362341356963148,1.8445564495865139
1789139609820374000,3.5943740234375,-0.651382790654359,0.23593047327458133,1.3986427271040298
1789139609830347000,3.604346923828125,-0.9965219892532698,-0.30613033007741597,0.8471484091635095
1789139609840320000,3.614320068359375,0.47561608814862893,-0.47384730848921625,0.5201387426175689
1789139609850293200,3.624293212890625,0.547003951389021,-0.37832567603507644,1.1849312566901007
1789139609860266000,3.634265869140625,0.2874621674761221,-0.11831543491631778,0.27951041835992574
1789139609870239000,3.644239013671875,-0.02959473153910993,-0.08246718157304617,0.7008115551225642
1789139609880212000,3.6542119140625,0.1735553264599674,0.07274681127489735,1.031533987805603
1789139609890184200,3.66418408203125,0.7295572907520863,0.7013131525848676,0.789903295843107
1789139609900157000,3.674156982421875,0.31665494968349,0.3675901234027539,0.41057694946296547
1789139609910130000,3.6841298828125,0.15706309017587947,0.046431168129672115,0.847598213042086
1789139609920103200,3.694103271484375,-0.21844148212260597,0.23793575920846805,0.338108859349548
1789139609930076200,3.704076171875,1.0809560899207273,0.25526809193661837,-0.5682439882047879
1789139609940049200,3.714049072265625,0.5038080649559784,-0.11628370278780087,-1.0917283891279044
1789139609950022000,3.72402197265625,-0.35330176874257235,-0.32059085511478175,-0.6068080409881716
1789139609959995100,3.7339951171875,0.23100683403993927,-0.36755067031882305,-0.6267358821506596
1789139609969968000,3.743968017578125,0.5854349950568265,-0.1780055715733515,-1.0770006938565375
1789139609979941000,3.753941162109375,0.0034312754575290014,0.24543465563066927,-0.14319919483477353
1789139609989914000,3.7639140625,-0.15931741227323457,-0.20082834196179677,-0.3200227832933455
1789139609999887000,3.77388720703125,0.16245747619906137,-0.6428380552580895,-0.6298510116119702
1789139610009860000,3.783860107421875,-0.17108641556301832,-0.2186872557155337,-0.16393915143060253
1789139610019832000,3.79383203125,-0.6223874294212511,0.1666591496099539,0.3396874367991037
1789139610029805000,3.80380517578125,0.26723085619055376,-0.3696521958596095,-0.8124239292798455
1789139610039778000,3.813778076171875,-0.07387052869627675,-0.3935170582368278,-0.1341422571098006
1789139610049751000,3.8237509765625,-1.0009313535988218,-0.20890984221071912,0.4249883211303751
1789139610059724000,3.83372412109375,-0.5023209164095337,0.1309781929500067,0.16472139998934965
1789139610069697000,3.843697021484375,-0.023621518609339896,0.013319865211701776,0.22915940846597718
1789139610079670300,3.853670166015625,-0.1210790616195811,-0.216119126078759,0.5272114680449277
1789139610089643000,3.86364306640625,0.08747011424517179,-0.19392743567554963,0.20483846225551214
1789139610099616000,3.873615966796875,-0.024492218692390107,-0.04271365040665373,0.6685529382137936
1789139610109589000,3.883589111328125,-0.716626346233485,-0.14961996420668958,1.106924104586814
1789139610119562200,3.893562255859375,-0.12240656568902596,0.19626044201817563,0.6210601354917756
1789139610129535200,3.90353515625,1.2361764278802243,0.3182332647083142,0.2426904429623747
1789139610139507000,3.9135068359375,0.30731150989585687,0.23707542998823833,0.45651089244971127
1789139610149480200,3.923480224609375,-0.7367240155455185,0.21275763132511222,0.5931977707986568
1789139610159453200,3.933453125,-0.07804044298591138,-0.24888470338859617,-0.14476768817105243
1789139610169426200,3.94342626953125,0.41399112569971463,-0.4680999287660552,0.16150070502453578
1789139610179399000,3.95339892578125,-0.3026344633869539,-0.18112321454018104,0.30827649736152996
1789139610189372200,3.9633720703125,-2.2091002293684228,0.05277185263482047,0.2022542175560947
1789139610199345200,3.97334521484375,-1.4169620502820888,-0.7242764097755097,0.5249458523879214
1789139610209318100,3.983318115234375,0.7657954941175461,-0.6248516382933692,0.4849341619364026
1789139610219291000,3.993290771484375,0.9278016472405475,0.9134217139591522,-0.009819541545064658
1789139610229264100,4.00326416015625,-1.416309198676687,0.7599847385758122,0.07574749912346884
1789139610239237000,4.013237060546875,2.733583304273803,-0.10695251927071371,0.08262966396683198
1789139610249210000,4.023210205078125,1.6525038880718868,0.7923484391659632,-0.34828414956807374
1789139610259183000,4.03318310546875,-2.584606834145581,1.4426480248093536,0.3505376529434938
1789139610269156000,4.043156005859375,0.8721702863525133,0.8122407978754754,-0.42618625962401707
1789139610279128000,4.053128173828125,1.669391198351718,0.30645428698094274,-0.7649675030180044
1789139610289101000,4.06310107421875,-3.014852515684529,0.541768732808982,-0.12487684130659968
1789139610299074000,4.073073974609375,-1.549819352630337,-0.5956016699150134,-0.04710523809573849
1789139610309047000,4.083047119140625,1.5419134419231055,-1.3561673055286199,-0.854350745638526
1789139610319020000,4.09302001953125,-0.59486940054835,-0.8157976385472777,-0.21665588976750885
1789139610328993000,4.102992919921875,-2.0009035331251934,-0.4347207244227287,-0.4991656725827522
1789139610338966000,4.112966064453125,0.418698144926418,-0.9300306413871321,-0.5271761219441801
1789139610348939300,4.122939208984375,-0.39186594382517986,-0.482947163915018,-0.3733976967345324
1789139610358912000,4.132912109375,-0.6681068795683089,0.12835154492375891,-0.03643444919758296
1789139610368885000,4.142885009765625,0.8401422054719542,-0.04531637295569276,-0.4575516404980601
1789139610378858000,4.15285791015625,1.4058919744221396,-0.351671045452609,-0.28387928669626467
1789139610388831200,4.162831298828125,0.19774178565069184,0.2750143624321665,-0.05919310094899191
1789139610398804200,4.17280419921875,1.2410244046719194,0.6494386392636432,0.23929084958389954
1789139610408776000,4.18277587890625,1.5984918864341489,-0.04587980792004939,-0.8571276576968728
1789139610418749200,4.192749267578125,0.9200695095575305,0.10404996564771432,-0.12153037979329875
1789139610428722200,4.20272216796875,-0.7958384438860672,0.11960518092312283,-0.44037246476247743
1789139610438695200,4.212695068359375,0.3625766645921816,-0.615953984958375,-0.6897853695248524
1789139610448668000,4.22266796875,0.6002307628139404,-0.5374271731766492,-0.665409690422355
1789139610458641200,4.23264111328125,-0.9784174737501876,-0.15589133687750753,1.1277321482135105
1789139610468614100,4.2426142578125,-0.833692969321761,-0.3170221967063018,-0.276724361212884
1789139610478587100,4.252587158203125,0.15761453299419717,-0.7129017070072646,0.29566269307451026
1789139610488560000,4.26256005859375,0.3290990434430106,-0.6496063825647761,0.9362337670452181
1789139610498533000,4.272533203125,0.27700156107074253,-0.38330771426883964,1.105228613887966
1789139610508506000,4.282506103515625,-0.2314669486379844,-0.1433879658594187,0.0860651591695157
1789139610518479000,4.29247900390625,0.11791117693434217,0.25851613508589255,0.7892970077345373
1789139610528452000,4.3024521484375,0.3422105796490203,0.3086972013782454,0.6258805351440146
1789139610538424000,4.312424072265625,0.2665809774298569,-0.10132116716661316,0.8351980513857749
1789139610548397000,4.32239697265625,-0.905789483834254,-0.013469835468442132,0.41559353764582524
1789139610558370000,4.3323701171875,0.153787364752934,0.8742899848466477,0.4966254049905659
1789139610568343000,4.342343017578125,0.5044976383730536,0.5272481661224584,0.5954299789439521
1789139610578316000,4.35231591796875,1.3878202641367947,0.27471156113437506,0.5433254847065023
1789139610588289000,4.3622890625,1.0303016610737548,0.5521886288029845,0.11836187013116206
1789139610598262000,4.372261962890625,0.15146906690643078,0.504638555263771,0.3045505992283502
1789139610608235000,4.382235107421875,0.6980705928048418,0.8102392680946612,-0.10098708230009731
1789139610618208300,4.392208251953125,0.5860636651062129,0.7939055225893322,-0.13253430867266947
1789139610628181000,4.402180908203125,0.6712843731623267,-0.11760997360846644,-0.021708396719860183
1789139610638154000,4.412154052734375,-0.5419966538902622,-0.5841987255841716,-0.6522626224662366
1789139610648127000,4.422126953125,-1.1856859937204958,-0.6044149801624232,0.059398875519132
1789139610658100200,4.432100341796875,-0.020707850502502526,-0.7958401743799249,0.7392836359948801
1789139610668072000,4.442072021484375,0.7971699370957627,-0.8511093279882842,-0.13657116038465436
1789139610678045000,4.452044921875,-0.5870722972549122,-0.6037435250866448,0.38271389002914724
1789139610688018200,4.46201806640625,-1.2996269296703031,-0.539185650948271,0.24730361332214693
1789139610697991200,4.4719912109375,0.37660511661135565,-0.17880614405260362,-0.15950028621426424
1789139610707964200,4.481964111328125,0.686186326234344,-0.0775087993241799,-0.14585910822938003
1789139610717937000,4.49193701171875,0.5271253974380722,0.19373533263337978,0.4154148648643356
1789139610727910100,4.50191015625,-0.13633478522142192,0.37425246383926813,0.06799897351524585
1789139610737883100,4.511883056640625,0.06521039795004113,0.4232570557944135,0.08818514602246523
1789139610747856100,4.521856201171875,1.33729081293224,-0.09840702059690483,0.8853326643573215
1789139610757829000,4.5318291015625,-0.20192428836628795,-0.09865676139863261,0.3993079184026941
1789139610767802000,4.541802001953125,-1.0384735575252122,0.012358076024754121,0.30435007758082616
1789139610777775000,4.551775146484375,0.34898000395902923,-0.3755385540344966,0.23895854990123053
1789139610787748000,4.561748046875,1.4851983349095994,-0.5369523982862289,0.14151405663263378
1789139610797720300,4.57172021484375,-2.0079291021378105,-0.07164677660399257,0.06586351278608997
1789139610807693000,4.581693115234375,-1.3546742706834103,-0.17112933703173244,0.6965837189976398
1789139610817666000,4.591666015625,1.3509106461030918,-0.12660893475255672,0.16102007697816778
1789139610827639000,4.60163916015625,1.1794160104282512,0.09819897021597715,0.5086000121448491
1789139610837612000,4.611612060546875,-1.9926932014864,0.24155449350888,1.1221039900181118
1789139610847585300,4.621585205078125,-1.087200903615148,-0.15593685003201277,0.6831542374381672
1789139610857558000,4.63155810546875,2.1279122202125365,0.45183420608183605,0.05568115603074209
1789139610867531000,4.641531005859375,1.032789819012781,0.7244601385009728,0.5984521522030327
1789139610877504000,4.65150390625,-1.5416646319018412,0.11364708396586315,0.9174527605626936
1789139610887477200,4.661477294921875,0.4535351911538825,0.2536642238505268,1.3330340903243638
1789139610897450000,4.671449951171875,0.40779713017150776,0.048710532506327536,0.8590002464379949
1789139610907423000,4.681423095703125,-1.3295733691602425,-0.360419241275333,1.0596954666801215
1789139610917396000,4.69139599609375,-1.4122326739063784,0.4232351827196108,0.7777337586573297
1789139610927369200,4.701369140625,-0.9657007833317406,0.35776127691776705,0.18242759294397395
1789139610937341000,4.7113408203125,-0.8055770422949485,-0.20470668765819364,0.3651216296062734
1789139610947314000,4.72131396484375,0.21003167908896286,0.0029235788774981688,0.48315658769678593
1789139610957287200,4.731287109375,0.4120189844450151,-0.23442767556463062,0.35799255766402494
1789139610967260200,4.74126025390625,0.35081235073610445,0.01153060162906171,-0.05003909239334546
1789139610977233200,4.751233154296875,0.35648012294087544,0.09824074034851413,0.3124616592598156
1789139610987206000,4.761205810546875,-0.23994197689766059,0.13483390455432268,0.08738014792790162
1789139610997179100,4.77117919921875,-0.13976523660958198,-0.03338688041186772,-0.8767837732855426
1789139611007152000,4.781152099609375,-0.9377265096412685,-0.10604906352046282,-0.27803161126331455
1789139611017125000,4.791125,-0.8920613554232047,-0.8254965419628282,-0.7305673916405812
1789139611027098000,4.80109814453125,0.8462379647389366,-1.0999994477681547,-0.9892491226670211
1789139611037071000,4.811071044921875,0.34976661832518235,-0.5195887861349902,-0.7905480024656177
1789139611047044000,4.821044189453125,-0.1464772467618924,0.07930438040455029,-0.6228685077114606
1789139611057017000,4.83101708984375,1.628221798602545,0.519058293010419,-1.1016420053329747
1789139611066990000,4.840989990234375,2.710195196286663,0.5203312793545487,-1.0270670139537807
1789139611076963000,4.850963134765625,1.6007430717820532,0.510480697684986,-0.7905116841792262
1789139611086935000,4.86093505859375,2.100755455462125,0.47360531076569934,-0.8204213071235872
1789139611096908000,4.870907958984375,1.891111876033896,0.44158082426599055,-0.4796442517221032
1789139611106881000,4.880881103515625,1.8194222178376707,0.09192464779749891,-0.43315132094617337
1789139611116854300,4.890854248046875,0.17112922781482212,-0.3827163277391424,-0.4078014933463427
1789139611126827000,4.900826904296875,-0.3729794473814773,-0.9124081546495918,-0.4083598366018092
1789139611136800000,4.910800048828125,-0.9500211193666731,-0.7446287823051899,-0.257735283647287
1789139611146773000,4.92077294921875,-1.4954072702011012,-0.46775225043051405,-0.20170394882695278
1789139611156746200,4.930746337890625,-0.32482066937910076,-1.2942077152336176,0.2034721675971126
1789139611166719500,4.940719482421875,0.9265740674025876,-0.9307666418981366,0.16987049371486682
1789139611176692500,4.9506923828125,1.0120453829529226,0.0672618436699694,0.6088145187692243
1789139611186665500,4.96066552734375,0.9509308199565775,0.6350028819873659,0.9919363602956691
1789139611196638500,4.970638427734375,1.3902792949054164,1.0138461693721565,1.4955486303108383
1789139611206611500,4.980611572265625,1.193942408500438,1.125471818631489,0.2601476264821586
1789139611216584400,4.99058447265625,1.0740439557602124,1.0756389084332107,0.7869280340515401
1789139611226556400,5.000556396484375,0.3728321532491154,0.46232284919698247,0.5395838720547624
1789139611236529400,5.010529296875,-0.19985119092946596,0.45232703682878994,0.2567020985134102
1789139611246502400,5.02050244140625,-0.30853238746391276,0.34396518277850624,-0.8696710217323815
1789139611256475400,5.030475341796875,0.5894590380807937,-0.06297957065457142,0.5654169275786639
1789139611266448400,5.040448486328125,-0.02384569931184221,-1.0809749537086655,0.8041400842777437
1789139611276421600,5.050421630859375,-0.3578548664025159,-1.1212830290585558,0.17096799074615504
1789139611286394400,5.060394287109375,-0.24039927558454294,-0.6829528683072663,0.8761527964884067
1789139611296367400,5.070367431640625,-0.029279308498269915,-0.42336350169993736,1.5168736885241556
1789139611306340400,5.08034033203125,0.3918741420244558,-0.4581377869165676,0.2485726077595941
1789139611316313600,5.090313720703125,1.4783586056771163,-0.2778346179947234,0.6894952218129731
1789139611326286600,5.10028662109375,-1.1431410014819883,0.2875092765588627,0.5446189603380812
1789139611336259300,5.11025927734375,0.17302984436443072,0.1523659783218657,0.2649210342223099
1789139611346232300,5.120232421875,1.8509446566452856,0.14677550552999752,0.20703632590308865
1789139611356205600,5.13020556640625,1.0360228114157795,-0.009785560469910234,0.7488949926890868
1789139611366177500,5.140177490234375,-0.6654005808171467,-0.0026928980666837605,0.17422830678311527
1789139611376150300,5.150150390625,0.30713913151498584,-0.8731588354730895,-0.01436731115618887
1789139611386123500,5.16012353515625,-0.741455268843442,-0.5294593654019044,0.03552739776289752
1789139611396096500,5.170096435546875,-0.48622354994288725,-0.22558829340932046,-0.2504629787858486
1789139611406069500,5.180069580078125,0.7212112200800658,-0.5960235023637128,-0.343581686137212
1789139611416042500,5.19004248046875,0.5557210364236838,-0.7265915697343378,-0.0635185591190104
1789139611426015500,5.200015380859375,-2.7713208088480497,0.43320061956830364,-0.014157002160067286
1789139611435988500,5.209988525390625,-0.46927840529311543,0.6228482037485792,0.17387957638963303
1789139611445961500,5.21996142578125,2.1614529096043604,0.5559572144567816,0.2744171122423779
1789139611455934500,5.2299345703125,1.3352166112304595,0.362031158726916,0.33130964640922406
1789139611465907500,5.239907470703125,-1.019492180499248,-0.0791627729439346,0.4835581864849561
1789139611475880400,5.24988037109375,0.8476034319136141,-0.25014997635824654,0.9832408103266842
1789139611485853400,5.259853515625,2.2108515654677614,0.33858877937213044,0.5274035274615706
1789139611495826400,5.269826416015625,-0.1489320402672661,0.6957327574347846,0.4701363533402872
1789139611505799400,5.27979931640625,-0.8782838843322798,0.8064663439200543,0.21215957281663125
1789139611515771400,5.289771484375,0.05411202302769658,0.7538504693093381,0.12175673681271473
1789139611525744400,5.299744384765625,0.5023304459402674,0.30598205851186394,0.14923113423556317
1789139611535717400,5.30971728515625,-0.016251444257878906,0.23926239341565594,1.589290027758483
1789139611545690600,5.319690673828125,-0.7719442216758315,0.2766955363645293,1.2039900188425179
1789139611555663400,5.329663330078125,0.6865581075415991,-0.1841662948071562,0.829285969782133
1789139611565636400,5.33963623046875,0.4724857308506562,-0.6320981301947355,1.5175160578856783
1789139611575609300,5.349609375,-0.5978974550131655,-0.6193482445768091,1.733392300989346
1789139611585582600,5.35958251953125,-0.5908758155867726,-0.2712021052226756,0.44293402207572175
1789139611595555600,5.3695556640625,0.5423912204840665,-0.48508112206531456,0.49563977528838
1789139611605528300,5.3795283203125,0.6632858431980244,-0.46752149000784143,1.114033420602652
1789139611615501300,5.389501220703125,-0.9947913545952417,-0.2243035951639419,0.40715085040144844
1789139611625474600,5.399474609375,-0.37144317134501764,-0.2014916174140654,0.7197560063044588
1789139611635447600,5.409447509765625,0.28879624274823756,-0.49616288369453193,0.15711101492601318
1789139611645420500,5.419420654296875,0.7161517055123323,-0.38455823449519005,-0.11488862338540834
1789139611655393300,5.429393310546875,-0.015875667432858464,-0.07012263218564593,-0.23715862824402031
1789139611665365500,5.439365478515625,0.7525021726628616,0.04508073245356137,0.06236728306832522
1789139611675338500,5.44933837890625,1.2335802087251773,-0.020689859436826198,-0.8692776879346897
1789139611685311500,5.4593115234375,0.5805014825346388,0.6474354786159221,0.03524386375244207
1789139611695284500,5.469284423828125,0.09953678808546444,0.6552136260437204,-0.6936173427948196
1789139611705257500,5.479257568359375,0.7529730789948798,0.33088018405327696,-0.6375415787832561
1789139611715230500,5.48923046875,-0.26609608223469783,0.4480999256249121,-0.30062753527803593
1789139611725203500,5.499203369140625,-0.16080280219052026,0.6697552641672081,-0.38495859217434036
1789139611735176400,5.509176513671875,0.392562265509266,-0.18271726052038598,-0.5084730634959899
1789139611745149400,5.5191494140625,0.17742590040588532,-0.7843397583086272,0.28615232368442634
1789139611755122400,5.529122314453125,-1.793819574988127,0.0817612857651791,0.5105760369579404
1789139611765095400,5.539095458984375,-0.3031645923618927,0.07341968921429533,0.5305484897570237
1789139611775068400,5.549068359375,1.7302846394796465,-0.7675761585873503,0.022867062829329685
1789139611785041700,5.559041748046875,-0.39329210622494254,-0.4541647561912819,0.8125243378261909
1789139611795014400,5.569014404296875,0.85796140646598,0.1816010834098186,0.9546367412737606
1789139611804987400,5.5789873046875,1.3387558319708872,-0.0586614638035716,0.7998985418431049
1789139611814959600,5.588959716796875,1.736668686104314,0.39821059570084455,1.2567830446653228
1789139611824932600,5.5989326171875,0.4771826057449272,0.8295294745356079,0.994410261744208
1789139611834905300,5.6089052734375,-0.5193156281175313,0.5790672120211207,0.8227244274370934
1789139611844878300,5.61887841796875,0.9918419882721468,0.3819788811552985,0.44784241737097225
1789139611854851600,5.6288515625,0.8349770044536851,0.6328487000573224,0.746950190705393
1789139611864824600,5.638824462890625,-1.2550734982240264,0.4169395291278573,-0.15222964073794187
1789139611874797300,5.64879736328125,0.26611935047945506,0.135208640059272,0.3978307404317196
1789139611884770300,5.658770263671875,2.8038000761384874,-1.088696733814819,0.07186256483628678
1789139611894743600,5.66874365234375,-0.5024743924903596,-0.5631744637028663,0.38514568083509265
1789139611904716500,5.678716552734375,-2.704743473130926,-0.01839354129316659,1.102093148657741
1789139611914689500,5.688689453125,1.581732813146011,-0.30708410002061265,0.7512889687533778
1789139611924662300,5.698662353515625,3.092659632823809,-0.7503506372954195,-0.004511371541468349
1789139611934635500,5.708635498046875,-2.3438506055879293,-0.19201834706831905,0.7199853159548523
1789139611944608500,5.7186083984375,-2.0617312062988717,-0.249489391049081,-0.3304151033363792
1789139611954581500,5.72858154296875,3.1258537005786353,-0.24462837831824344,-1.0269460040070337
1789139611964553500,5.738553466796875,1.4680941591055634,-0.011075111328958727,-0.7694911459478171
1789139611974526500,5.7485263671875,-1.5979962366169638,0.002504917397514384,-0.890025731543481
1789139611984499500,5.75849951171875,-0.21391395925974382,0.1271216356115633,-0.5991785326410239
1789139611994472400,5.768472412109375,2.414262974784378,-0.371313852747727,-0.38708044934826824
1789139612004445400,5.778445556640625,1.1320263478925707,0.07969263974999523,-0.11680435669536939
1789139612014418400,5.78841845703125,-1.0885828687115497,-0.1834817004451688,-0.6019247365591047
1789139612024391400,5.798391357421875,0.11226840210884473,-1.0531898898831287,-0.6447076885439275
1789139612034364400,5.808364501953125,2.402332379291785,-0.29029629312131494,-0.4003440646342686
1789139612044337400,5.81833740234375,-0.9398008452192478,-0.09274143606269797,-0.8760888859159153
1789139612054310700,5.828310546875,-1.148855338834782,-0.7457508109580753,-0.10431810262035196
1789139612064283400,5.838283447265625,1.7027891713033723,-0.3213516565730691,-0.36392442255966634
1789139612074256400,5.84825634765625,-0.47879691631544535,-0.1273123188726207,0.06449747972459993
1789139612084229400,5.8582294921875,-0.9521410210044307,0.26746519407814007,-0.09464550298902652
1789139612094202600,5.86820263671875,0.6786633212718381,0.42029131427466154,-0.2500999145063024
1789139612104175600,5.878175537109375,-0.23275179860670203,0.005448160763855004,1.1088333045214045
1789139612114148400,5.8881484375,-0.21257927747653696,-0.37956726910120697,1.5854616170083125
1789139612124120600,5.89812060546875,1.2724145765692254,0.10025533191505752,0.9694286989001106
1789139612134093600,5.908093505859375,-0.0901325391684124,-0.1326435776484619,1.2688330438771764
1789139612144066600,5.918066650390625,-0.6131274469918914,-0.22406724706819914,1.7663611281944152
1789139612154039300,5.928039306640625,1.4892887632269116,0.5502756782753223,0.9655465030591487
1789139612164012300,5.93801220703125,-0.0384250517722046,0.5364272943734743,1.3038759444004657
1789139612173985000,5.947985107421875,0.7970591728731111,0.0494353855805296,1.0990945705336368
1789139612183958000,5.9579580078125,1.2640563252071149,0.017853684288092253,0.3635161327424303
1789139612193931000,5.967930908203125,-3.330285927561821,0.5228330033250547,0.3424974956054866
1789139612203904300,5.977904296875,-0.9440042879117078,0.057499343725227026,0.5505921764049891
1789139612213877200,5.987877197265625,0.8040074344836594,-0.940703118343527,-0.03199574699529658
1789139612223850000,5.99785009765625,-2.059811194953963,-0.5950874712576989,0.1928829002817529
1789139612233823000,6.007822998046875,-3.3670556067952258,-0.8767243844843353,1.4825712817339116
1789139612243796200,6.017796142578125,0.7204275513264967,-1.7524853671956515,0.9058524922939881
1789139612253769200,6.027769287109375,2.005322474420993,-1.1532171580318988,1.233242613572495
1789139612263742000,6.037741943359375,-0.18800728071211886,-0.228412109896324,1.6076267161369096
1789139612273714200,6.047714111328125,-0.4403767499357518,0.29705060264733874,1.094959762927958
1789139612283687200,6.057687255859375,1.1873691450636104,1.1489585382178211,0.5562673946666815
1789139612293660200,6.06766015625,1.2199101159411299,1.3418643378161834,0.3689845403620548
1789139612303633000,6.0776328125,0.5926104149650236,1.3574099584668342,0.3711410690816614
1789139612313606100,6.087606201171875,-0.4852626134008948,1.5806544008752947,-0.6094143925952584
1789139612323579100,6.0975791015625,0.7975960687647188,1.3500915543598302,-1.08519490328104
1789139612333552000,6.10755224609375,0.298891475562365,0.43427880767597893,-0.7556965358558664
1789139612343525000,6.117525146484375,-0.49144066443242307,-0.7059590805052263,-0.8558201534582939
1789139612353497900,6.127497802734375,-0.4077886077822507,-0.45665214577707053,-1.168537230938939
1789139612363471000,6.13747119140625,0.0827084899080676,-1.0679091639811655,-0.9187639387932736
1789139612373444000,6.147444091796875,0.6067217285890638,-1.735661997260896,-0.4509092303129805
1789139612383417000,6.1574169921875,-0.8160685531574343,-1.224371645616169,-0.4509814725771154
1789139612393390000,6.16739013671875,0.2603688940547372,-0.4834397579787038,0.28169316157005053
1789139612403363000,6.177363037109375,1.345952661495279,-0.5883489131870313,0.1487247969761559
1789139612413336000,6.187336181640625,0.28478164084357194,0.49792862799692184,0.5800637712759182
1789139612423309000,6.19730908203125,0.5135076931519834,1.5888247933137847,-0.7784180015712021
1789139612433281300,6.20728125,1.3138985406862562,0.9830289759509949,0.8012217184079119
1789139612443254000,6.21725390625,1.8738552799716717,0.8682772882216335,0.7379519174104747
1789139612453227000,6.22722705078125,1.2015343745188347,1.5210577051109995,0.48044279308666044
1789139612463200000,6.237199951171875,0.7324154247174984,1.0560681998851287,0.4246532137120615
1789139612473173200,6.24717333984375,-0.022174105427469216,-0.31701429541937565,1.2654381940132453
1789139612483146200,6.257146240234375,-2.2235450473025486,-0.8895726696032374,1.3475819469698385
1789139612493119000,6.267118896484375,-2.3850046590126044,-0.689316927943149,2.0340163849735844
1789139612503092000,6.277092041015625,-0.6952781776158035,-1.2049912552784723,1.6498994068015422
1789139612513065200,6.287065185546875,-0.47812948084930124,-1.98203624435027,0.928267737959678
1789139612523038200,6.2970380859375,-0.4152188064982843,-0.8689666079582615,0.8007517188240317
1789139612533011200,6.30701123046875,-0.7488106976575865,-0.21627529842263984,0.9524410955989322
1789139612542984000,6.31698388671875,1.5465322723087231,-0.023444759551842814,0.08665384421509521
1789139612552957200,6.326957275390625,2.9608375559240807,0.5052269182044536,0.21708052953275345
1789139612562930200,6.33693017578125,0.3907385330579584,1.06472479342588,-0.04988891851823775
1789139612572903200,6.346903076171875,0.8958005529032083,0.9697143921152793,-0.1274305037217775
1789139612582875100,6.356875244140625,1.7032504666102612,0.7883868974867352,-0.8915093719247942
1789139612592848100,6.36684814453125,0.6081328039583959,0.7573582185068941,0.05530961682101633
1789139612602821000,6.376821044921875,1.062642226321865,0.25055499576056933,0.15571997512249935
1789139612612794000,6.386794189453125,0.711219263120907,-0.8550702870599478,-0.10527577149957898
1789139612622766800,6.396766845703125,0.3639100743506433,-0.8281291918576423,0.04285073463328581
1789139612632740000,6.406739990234375,-0.7345804902982886,-0.2694733499136327,-0.11696886175906414
1789139612642713000,6.416713134765625,-0.21743534312820756,-0.6550869917242724,0.5412604001520321
1789139612652686000,6.42668603515625,0.7662133737692985,-0.4414685357384236,0.19773336620673715
1789139612662659000,6.4366591796875,-0.12396511331272354,-0.7649377312768989,0.11545081167122462
1789139612672632000,6.446632080078125,0.6246425075826657,-0.16357105358856527,0.33665705745771257
1789139612682605000,6.45660498046875,1.3753134172442227,0.15027228606376156,0.3490223825864284
1789139612692578000,6.466578125,2.3304319390444714,0.0011485828355297376,0.43926996518061534
1789139612702551000,6.476551025390625,0.18731969213874544,0.35443153718189246,1.2674344150414631
1789139612712524300,6.486524169921875,-1.436864150702111,0.5774061945462173,0.7520524513434923
1789139612722497000,6.4964970703125,1.494105427634145,0.5438237032278438,0.6270716822990506
1789139612732470000,6.506469970703125,0.017669442274402907,0.3417282482243261,0.6613333738595758
1789139612742442200,6.516442138671875,-2.3451621564708027,-0.09753831664760806,0.6210285002632836
1789139612752415200,6.526415283203125,-0.6192290621271574,-0.7850585958639903,-0.0774909619042546
1789139612762388000,6.536387939453125,0.34935197461001494,-0.9044742239843386,-0.12620941281899492
1789139612772361000,6.54636083984375,-1.065754552298892,-0.09726329116337315,0.322000210591338
1789139612782334200,6.556334228515625,-0.5607662061473295,-0.37351783486514717,0.36086547770131394
1789139612792307200,6.56630712890625,-0.3378778142169133,-0.7741852504203816,0.8403355051325754
1789139612802280200,6.5762802734375,-0.8348248772584986,-0.4951179962464808,0.14678279794851873
1789139612812253000,6.5862529296875,-1.3476026103719443,0.010528964615252491,-0.18142629586295397
1789139612822226000,6.596225830078125,0.9736592155921053,0.1709349942028805,0.0667205758826678
1789139612832199200,6.60619921875,-0.521079680377799,-0.4398318937263961,-0.11178145584709752
1789139612842172200,6.616172119140625,-0.557538920526059,0.20404489930636807,0.060180146382625144
1789139612852145200,6.626145263671875,0.4795073882131382,0.1447856925075688,-0.17337941163042
1789139612862118000,6.636117919921875,1.4765154545281118,-0.054535924733544815,-0.11361894123550946
1789139612872091100,6.646091064453125,-0.9367477772887488,0.34507801791857895,0.024203879670872282
1789139612882064100,6.656064208984375,-0.04141054826240237,0.6687350208589264,-0.013414684483574264
1789139612892037000,6.666037109375,0.9518833767187013,0.1308298458476371,-0.4442441007569555
1789139612902009000,6.676009033203125,0.5155741903642539,-0.10342255731371709,0.3280172273519813
1789139612911982000,6.685982177734375,-0.6045520779965021,-0.0889910247763763,-0.2811556959963527
1789139612921955000,6.695955078125,-0.7463297042620126,-0.7155688326736036,0.8673965322996734
1789139612931928000,6.705927978515625,1.1971931667231568,-0.9142617382089662,1.0259211653365152
1789139612941901300,6.7159013671875,-0.3315634864615464,-0.044726694044401244,0.7465953419377137
1789139612951874000,6.7258740234375,-2.0947985360550754,-0.1836683304606071,1.0908228759223022
1789139612961847000,6.735846923828125,0.1594214681772704,-0.3431156364195055,0.3567996616626468
1789139612971820000,6.745820068359375,1.6225744031406506,0.8690733570697832,0.6142042763094687
1789139612981793300,6.755793212890625,0.055001000343592406,1.2764324242818066,0.3160741005337649
1789139612991766000,6.76576611328125,-0.27675064176516595,0.8860057130786875,0.411800874660212
1789139613001739000,6.775739013671875,1.6867799537625052,0.9738891621432172,-0.36246269915604146
1789139613011712000,6.7857119140625,1.616177858505649,0.32861892067924586,-0.0783250919785741
1789139613021685200,6.795685302734375,-1.3556623968088317,0.3072153832437909,0.12769839957783916
1789139613031658200,6.805658203125,-2.306473374983567,0.3869198142336385,-0.09357511496277
1789139613041631000,6.815630859375,0.30918951781781606,0.7484327871688514,-1.091921079590894
1789139613051604000,6.82560400390625,1.9948552215346593,-0.6174214202973102,-0.8422191799178165
1789139613061577000,6.835576904296875,-1.476763166888661,-0.8621479864960321,-0.32195184191762455
1789139613071549200,6.845549072265625,-0.6907111425414958,-0.6320139132087709,-0.5549200733976836
1789139613081522000,6.85552197265625,1.9373729374442121,-0.6414916646049821,-0.09575897767140468
1789139613091495000,6.865494873046875,2.134102607441727,-0.5343629060924356,0.5837134712515112
1789139613101468200,6.87546826171875,-0.25371229649324817,-0.24910133854281152,-0.08527590553017965
1789139613111441200,6.885441162109375,0.28667893495992747,0.2746758537794076,0.35199640102775076
1789139613121414100,6.8954140625,0.1953505721184633,0.4248058590018088,0.06886404304303713
1789139613131387000,6.905386962890625,0.878993914891494,0.13459672552530536,0.20990117931461985
1789139613141360000,6.915360107421875,1.1703833543755773,0.01038440163318216,-0.2033988435017761
1789139613151333000,6.9253330078125,-0.5551298739763703,-0.2332089666581114,-0.07856538377906772
1789139613161306000,6.93530615234375,-0.056799961704795975,-0.429307765200698,0.2980631166457115
1789139613171278800,6.94527880859375,0.004727196505414999,-0.4528459045981379,0.7935538159172366
1789139613181252000,6.955252197265625,-0.13519376920623793,-0.8385062925424358,0.7717070157933068
1789139613191225000,6.96522509765625,0.06860764773362296,-1.3896808135547185,0.8567533660303822
1789139613201197800,6.97519775390625,-0.6054907638596307,-0.9633300784343497,0.7575420586882677
1789139613211170800,6.9851708984375,-0.7572966502493783,0.16226943434965652,1.041107652331422
1789139613221144000,6.99514404296875,0.9016656365151382,0.43356389520360955,0.54599327712616
1789139613231116000,7.005115966796875,1.3819386957089097,0.7265385070724895,0.5821780968610325
1789139613241088800,7.0150888671875,0.16949033570712385,0.8832163584850666,0.493152887470482
1789139613251062000,7.02506201171875,-0.027951926201432453,1.375766293356472,0.40638746276610294
1789139613261035000,7.035034912109375,0.7970172086196091,0.7004433219840456,0.6175105131975188
1789139613271008000,7.045008056640625,-0.30795800729998035,0.872575279526047,0.020717200378483496
1789139613280981000,7.05498095703125,-0.986807223645364,0.418501913770116,0.1884431118622335
1789139613290954000,7.0649541015625,-0.7471832291069386,-0.07788097763194565,0.4221005370561656
1789139613300927000,7.074927001953125,0.8278970372840057,-0.33738154657978453,0.14572065493669964
1789139613310900000,7.08489990234375,0.18533874363216638,-0.17725898440737012,0.12829773321327517
1789139613320873000,7.094873046875,0.0839665071080805,-0.059372289753310145,0.42331554570953095
1789139613330846000,7.104845947265625,0.7796753695650623,0.109483583935912,-0.8050593626591569
1789139613340819000,7.11481884765625,1.2276112483827912,0.24002846316542326,0.5524581334074359
1789139613350792000,7.1247919921875,-0.03435016323513927,0.3290529196063201,-0.014565963088058529
1789139613360765000,7.134764892578125,-0.041694834436038296,-0.10102837810510835,-1.0324147969471238
1789139613370738000,7.144738037109375,-0.10200414403042891,-0.5929050606708817,-0.5025990703450962
1789139613380711200,7.154711181640625,0.01992638607271457,-0.5487160964802819,0.42940676719825965
1789139613390683000,7.164682861328125,-0.4502791396882642,-0.7264301625447976,-0.5604489961354199
1789139613400656000,7.17465576171875,-0.16944134056975044,-0.46279878122916696,-0.32637787157365233
1789139613410629000,7.184629150390625,0.5894127569677725,-0.5413980999392701,-0.21392266126555826
1789139613420601900,7.194601806640625,-0.3065996360537744,-0.43505681146364483,0.4111721503634496
1789139613430574800,7.204574951171875,0.045551146277590576,0.1083140287145858,0.14317181630385536
1789139613440547800,7.2145478515625,1.2424384089123606,0.05954493635157637,0.25581604475595193
1789139613450521000,7.22452099609375,0.7977773333286307,-0.04250648118373684,-0.010024399335820834
1789139613460494000,7.234494140625,-0.49194455084497796,0.1585443442157921,0.5488562348639179
1789139613470466800,7.244466796875,0.7275504226559457,0.12794591140810782,-0.5643900057898905
1789139613480439800,7.254439697265625,2.697565900543485,-0.15631058334943757,0.7590195862430831
1789139613490413000,7.2644130859375,0.7475368226228822,-0.37385293345494275,-0.017048805388085293
1789139613500386000,7.274385986328125,-5.1977512178111205,0.47414265068839534,0.7718083427399458
1789139613510359000,7.284359130859375,-1.0997577927996327,-0.085774639062479,-0.25588452753750296
1789139613520331800,7.294331787109375,4.035337734585616,-0.3492576231706753,-0.6915533191746066
1789139613530305000,7.304304931640625,-4.071525325046853,0.13960641577077743,-0.19454354172217275
1789139613540278000,7.314278076171875,-4.976749742651837,-0.7420483406451103,0.5568014169625742
1789139613550251000,7.3242509765625,3.246300678118242,-1.5655756132733623,-0.5729787726632044
1789139613560224000,7.33422412109375,2.024426484618978,-0.17660335593205193,0.3629559034410693
1789139613570196000,7.344196044921875,-1.186184603276032,0.7702089292148893,0.5949347686368276
1789139613580169000,7.3541689453125,0.8716901933608222,0.7979511681967111,0.6448089730486886
1789139613590142000,7.364141845703125,1.4497655163091239,1.329298985591929,0.7364782036907174
1789139613600115000,7.374114990234375,0.6572744759113854,1.558358889555578,0.7255833016101327
1789139613610088000,7.384087890625,0.1792811737682492,1.272872030936138,0.6296590423724858
1789139613620061000,7.39406103515625,-0.732580161073534,1.0637950477380909,0.6078099147798952
1789139613630034000,7.404033935546875,-0.3812162456469476,0.9890104495525454,0.9328041485427229
1789139613640007000,7.4140068359375,-0.6284819110772456,0.20873447505865259,0.9125249294124969
1789139613649980200,7.423980224609375,-0.7600004571227836,-0.6219946365319446,0.21843843794590165
1789139613659953000,7.433952880859375,-0.9257611142291182,-0.49725854453189333,0.9339166152521302
1789139613669926000,7.44392578125,0.04889398745510344,-0.8941062860989989,1.1059994853307151
1789139613679899000,7.45389892578125,0.44441648995236044,-0.4988347737695992,0.4841162404624336
1789139613689872100,7.4638720703125,-0.42030677229665653,0.10685775647259199,0.7875127921939921
1789139613699845000,7.47384521484375,-0.6534468098691426,0.08299693851510219,0.04930307485718237
1789139613709817900,7.48381787109375,1.3132920970777004,0.42394123280096563,-0.6079900854240992
1789139613719790800,7.493790771484375,1.5172469237960384,0.3512016604906875,-0.528416107098876
1789139613729764000,7.50376416015625,0.9065388075273468,0.6252180728245654,-0.5533993923254554
1789139613739737000,7.513737060546875,1.405112543566781,0.04247199571139598,-0.5566740939130471
1789139613749708800,7.523708740234375,0.9227425192617023,0.03531498103689157,-0.28516096985502765
1789139613759682000,7.53368212890625,1.0196395276530732,0.13426913473340146,-0.09704038748175196
1789139613769655000,7.543655029296875,0.07276340804032219,-0.5168423662151479,-0.5809379797114973
1789139613779628000,7.5536279296875,-0.23849201610083415,-0.8146434259246511,-0.5218353594107654
1789139613789600800,7.563600830078125,-1.0486171484573656,-0.7862506187917482,-0.799037920283937
1789139613799574000,7.573573974609375,-0.7267290708297316,-0.5193887483705604,-0.31684612837604076
1789139613809547000,7.583547119140625,0.8626946893170232,-0.8068235803454374,0.3241059070891046
1789139613819520000,7.59352001953125,0.636699615735695,0.004189613539470273,0.8508422686917038
1789139613829493000,7.603492919921875,-0.2197385265136752,0.13864505442934325,0.25489977423378424
1789139613839466000,7.613466064453125,-0.07877244886797602,0.021155559024283715,0.43033690166435573
1789139613849439000,7.62343896484375,1.1208122235871574,0.08052388767854825,-0.27989356663390974
1789139613859412000,7.633411865234375,-0.13030719592173176,0.3511018182227853,0.38434779207978154
1789139613869385000,7.643385009765625,-1.0787684402477544,0.5286117068319366,1.286811360575301
1789139613879358000,7.65335791015625,0.4180603792406598,0.23067662149649235,0.4011267180376366
1789139613889331000,7.6633310546875,-0.3631564243938488,0.2711886258251161,0.6624653906544152
1789139613899304000,7.673303955078125,-0.6616611920516213,0.17418506726121516,0.8298848558891204
1789139613909277000,7.68327685546875,0.746563126803677,-0.008658077597283102,-0.3875420679447125
1789139613919249200,7.693249267578125,0.6820975443081853,0.10219794522003492,-0.18922031193094208
1789139613929222000,7.703221923828125,0.23565586878780168,0.4412293351827878,0.4019270602980955
1789139613939195000,7.71319482421875,0.16878553309606031,0.2027352934566076,0.22665469958406412
1789139613949167900,7.72316796875,0.06782055911185844,-0.411617906334172,0.14164373162723298
1789139613959141000,7.73314111328125,-0.9082666199249637,-0.3247154494791077,0.8649792591468424
1789139613969114000,7.743114013671875,-1.0143326611198722,-0.2332862898601976,0.6294745538668067
1789139613979086800,7.7530869140625,0.6261307838685608,-0.7069396688943848,0.8083860065602422
1789139613989059800,7.763059814453125,-0.22169904559462408,-0.9646211803555762,0.9052414975405066
1789139613999033000,7.773033203125,0.09221407994894557,-0.5339347017140098,0.9456650979294439
1789139614009006000,7.783006103515625,2.1885432887256804,-0.3312558374559461,0.5822640657812055
1789139614018979000,7.79297900390625,1.3155363384275927,-0.07212179525170469,0.677288165991741
1789139614028951800,7.802951904296875,0.6474160841312547,0.47197772255232673,0.26645466702173554
1789139614038925000,7.812925048828125,0.9327401036201952,0.6347606475666626,0.4152243242901883
1789139614048898000,7.82289794921875,0.99079374904817,0.5517002046802335,-0.6045679538072392
1789139614058871000,7.83287109375,0.219428630343241,0.8593140259534138,0.5069578343125791
1789139614068844000,7.842843994140625,-0.21494565667869314,0.2382240284067195,-0.12190259389175837
1789139614078816800,7.852816650390625,-0.4242349448138711,-0.45539257139998596,0.2192318419713901
1789139614088789000,7.8627890625,-0.31959037377977006,-0.9787491924595068,0.010195546291300043
1789139614098762000,7.872761962890625,-0.2749556692057768,-0.9245660894537376,-0.43509256698678267
1789139614108734700,7.882734619140625,-1.3376373247477813,-0.9819643108548463,-0.49705888179202135
1789139614118708000,7.8927080078125,-0.9481726729968849,-0.9511906878741276,-0.29688744403980494
1789139614128681000,7.902680908203125,0.33285014970012883,-0.7074439988708018,-0.4200968634409099
1789139614138654000,7.912654052734375,-0.5605756219113086,-0.5704980385454859,-0.29250017566385467
1789139614148627000,7.922626953125,0.692928492096697,-0.27683419565349754,0.07006329646348114
1789139614158600000,7.932599853515625,1.5725504832682342,0.4492638212082555,0.0656751195975259
1789139614168573000,7.942572998046875,0.634252802318721,0.5911519959862711,-0.21621079069390167
1789139614178546000,7.9525458984375,-0.06834354845878017,0.685396607233391,-0.18077119910382872
1789139614188519000,7.962518798828125,1.0692117322764239,1.2777211197012492,-0.5094930477293524
1789139614198492200,7.9724921875,0.4155316730459619,1.1213689654049743,0.3322406426226871
1789139614208465200,7.982465087890625,-0.12190311261115941,0.3213995563177601,1.3199112717785937
1789139614218438000,7.99243798828125,-1.0228004014095462,-0.13291911018518446,1.140285348778358
1789139614228411000,8.002410888671875,-1.2244299222772932,-0.4943344133945269,1.3361025399705344
1789139614238384000,8.012384033203125,-0.6763653811397128,-0.7520257055375275,1.5640404475419403
1789139614248357000,8.022357177734374,-0.5298498992818719,-1.134887426523974,-0.009841830108983244
1789139614258330000,8.032330078125,-0.4810434713906245,-0.9702678560897865,0.4467019644624659
1789139614268302800,8.042302734375,-0.7677706771180676,-0.272211012761369,0.24365252352365183
1789139614278275000,8.052275146484375,0.31556673207695457,-0.013799234570171544,-0.058378628932094584
1789139614288248000,8.062248046875,1.100542180048588,0.10533191345791265,0.06396039989474483
1789139614298221000,8.072220947265626,0.1646560805116008,0.7398475126635671,0.4025866106510358
1789139614308194000,8.082194091796875,0.08734742840520986,0.43943696975078883,-0.08103976266541636
1789139614318167000,8.0921669921875,0.7425578682837457,0.1282538782518475,0.5545061377351342
1789139614328140000,8.10214013671875,0.7792906537355965,0.36321237014045454,0.36724073053329387
1789139614338113000,8.112113037109374,0.46941826197831205,-0.043151812777773066,0.0678418169827569
1789139614348086000,8.1220859375,-0.5423566113516428,-0.3062258570749003,-0.06966563745763941
1789139614358059000,8.13205908203125,-0.20393216134257222,0.22273439679700385,0.7643549638911229
1789139614368032000,8.142031982421875,0.04563195054829758,-0.087992371394246,-0.02845977412453238
1789139614378005000,8.1520048828125,-0.40012352324280187,-0.29354598157472145,0.41825289679084404
1789139614387978000,8.16197802734375,0.6360289118685158,-0.6596466470693874,0.17802193428716742
1789139614397951000,8.171950927734375,-0.06354349671092836,-0.3961180617775165,0.6529682089233098
1789139614407924000,8.181924072265625,0.24766318784540975,-0.16859145670179934,0.0642393286494893
1789139614417897000,8.19189697265625,1.2423685702941467,-0.21360152525607096,-0.21380559105677976
1789139614427870000,8.201869873046874,0.1239157130151732,0.263927704354024,0.23571703791894927
1789139614437843200,8.21184326171875,0.15963704783653532,0.3405192819034315,0.14383454135090956
1789139614447816000,8.22181591796875,1.3121353476071838,0.49589338628989055,-0.48947807383638714
1789139614457788000,8.231787841796875,0.351567595123307,0.6257206119073208,0.37151551395354465
1789139614467761200,8.24176123046875,-0.013475389240338167,0.5802790523383162,-0.6378132843652186
1789139614477734100,8.251734130859376,-0.5118738689347527,0.15684589919186,0.01310364979971067
1789139614487707000,8.261706787109375,0.7648288575479897,0.000606384932790266,0.9434005939814771
1789139614497680000,8.271679931640625,0.4818939978921041,-0.37921893168154036,-0.023787669714803773
1789139614507653000,8.281653076171875,-1.38559936563076,-0.5421283613954289,-0.08466381510244379
1789139614517626000,8.291626220703124,-0.36042238682335964,-0.43720095017845734,1.003992246211621
1789139614527599000,8.30159912109375,0.5508586835427486,-0.29978742416850485,0.5648954680623299
1789139614537571800,8.31157177734375,-0.13906445779546084,-0.22060644970496548,0.11234872359881522
1789139614547544800,8.321544921875,-0.61826286712593,-0.29970180094450094,0.6801950749681733
1789139614557518000,8.33151806640625,-0.2560578958659485,-0.7475300274541253,0.48780631641758676
1789139614567491000,8.341490966796876,1.2089557341937291,-0.19046975162495236,0.2660868379941649
1789139614577464000,8.351464111328125,0.7644771427986661,-0.04488271456696681,0.20805110356426576
1789139614587436800,8.361436767578125,0.9075295257920962,-0.017147798304862984,0.38106174931382364
1789139614597410000,8.37141015625,1.1666741162029255,0.2469669847789071,-0.5927751956048537
1789139614607383000,8.381383056640624,0.5762639561538873,0.5440251694029788,-0.6219434672849472
1789139614617356000,8.39135595703125,0.45269943289938985,0.4240012863799676,-0.9871821791063836
1789139614627329000,8.4013291015625,0.4573036217684578,0.5512817499895184,0.1990421961591706
1789139614637302000,8.411302001953125,0.2813080680845019,0.3774285778610218,-0.6589308921354683
1789139614647274000,8.42127392578125,-0.9042280471615508,-0.22592839481931004,0.08357675129049606
1789139614657247000,8.4312470703125,-0.7985653560126883,-0.6429602086779463,0.5798450081492894
1789139614667220200,8.44122021484375,0.34200452574343043,-0.4792400113769277,0.6696809612118081
1789139614677193000,8.45119287109375,-0.8467974752202818,-0.5920700613073733,1.142840343013408
1789139614687166000,8.461166015625,-0.3337103319943892,-0.3191940754266313,0.9113126703675832
1789139614697139000,8.471138916015626,-0.0787066533387571,-0.1836501961810911,0.6090940795217274
1789139614707112200,8.4811123046875,-0.44879931097257497,-0.42384796834474253,0.47358062390432415
1789139614717085200,8.491085205078125,0.7677438169979912,0.11412190863793413,1.1764635883664747
1789139614727058000,8.501057861328125,0.053148501340108366,0.3923374233445624,0.9044973994312713
1789139614737031000,8.511031005859374,-0.07567633120888585,-0.016849702718256584,0.49539380170079433
1789139614747004200,8.521004150390626,-0.3292234291004554,0.09049696725369523,0.2954253118882187
1789139614756977200,8.53097705078125,0.2016901290335834,0.6234671813485361,0.27163988907433806
1789139614766950000,8.540949951171875,0.32925977446166277,0.37985219246206464,-0.4409503995035864
1789139614776923000,8.5509228515625,0.037563308749818315,-0.036667690169507036,0.6931325675353913
1789139614786896000,8.560895751953124,-1.034819067418241,0.05149477393408954,-0.1287412646090053
1789139614796869000,8.570869140625,-0.5684371124726462,0.05966723710766885,0.41973685429493807
1789139614806842000,8.580842041015625,0.05403547139677635,-0.2442495761670152,0.5975385546314642
1789139614816814800,8.59081494140625,-0.5799252167206075,-0.5113688622506274,0.6120571485009939
1789139614826787800,8.600787841796874,-0.04234339680273182,-0.32554488387969643,0.5611012454756023
1789139614836760000,8.610760009765626,-1.7114390714438867,-0.39286995707471056,0.1341004357242299
1789139614846733000,8.620733154296875,0.32132013817076466,0.01139701477508887,-0.08551806487534765
1789139614856705800,8.630705810546875,0.005433051076960908,-0.1645262801849541,0.454633640622813
1789139614866679000,8.640678955078124,0.4050689469372454,0.2237771885231638,0.5384017609047057
1789139614876652000,8.650652099609376,0.22190013056187052,0.18914985141973886,0.9703635407706137
1789139614886625000,8.660625,0.6304988895834711,-0.16465888410491666,1.20157480806538
1789139614896598000,8.670597900390625,0.9251928192054967,0.38954527223158036,0.789786060054683
1789139614906571000,8.680571044921875,0.34361552132931633,0.048907609879342576,0.18740237792698386
1789139614916544000,8.6905439453125,-0.3887400318850293,-0.12960479089876165,0.8552465772442075
1789139614926517000,8.70051708984375,-0.23866139673848932,0.5439168556424233,0.5204442059287778
1789139614936490000,8.710489990234375,-0.7249107514462166,0.0880931708402951,1.0985737384857204
1789139614946463200,8.720463134765625,0.5559595533874476,0.14645420817694285,1.378633060756182
1789139614956436000,8.73043603515625,0.7568643471691261,0.013849304285805693,0.8505225271205473
1789139614966409000,8.740408935546874,0.08384927164612904,0.06900932521466037,1.0701468770751215
1789139614976382000,8.7503818359375,0.5120212393981884,0.23074071470207694,0.6946832206782246
1789139614986355000,8.76035498046875,1.7386479172812979,0.018224404569968912,-0.596967813373576
1789139614996328200,8.770328125,0.6614924638278188,0.3231399917375355,0.531614710133695
1789139615006301000,8.780301025390624,0.45271157401413015,-0.12214404313745525,0.7894450855737278
1789139615016274000,8.79027392578125,0.6715308449469616,0.004034668381796519,0.44305016876578474
1789139615026247000,8.800246826171875,0.5176300247859679,-0.1572521016132041,1.1616820843284266
1789139615036219100,8.81021923828125,-0.05903027486227447,-0.07926533044132446,0.13978862430991196
1789139615046191900,8.82019189453125,0.17522324181862628,-0.629447119452837,0.46671358999194135
1789139615056164900,8.830164794921876,-0.3656264772197673,-0.6180972265643008,-0.1520177461766949
1789139615066138000,8.84013818359375,-0.3114318010544975,-0.1695671810047417,0.07729458288419426
1789139615076111000,8.850111083984375,-0.5542946019882868,-0.768819975172016,-0.10182439108401597
1789139615086083800,8.860083740234375,-0.04101280198963646,-0.29737895492212674,1.439027638103627
1789139615096056800,8.870056884765624,0.6831233714199693,-0.31794557678054364,0.4086641665802728
1789139615106030000,8.880030029296876,0.051503116443615694,-0.10606136036821313,1.1132495806421119
1789139615116003000,8.890003173828125,1.2313615022516784,-0.02816897126002609,0.4005098780919045
1789139615125976000,8.89997607421875,0.8727787636554397,0.4805917007551332,0.9201422089538073
1789139615135948800,8.90994873046875,1.3713893105578168,0.9255836541871005,0.7198129214369167
1789139615145922000,8.919922119140624,0.916267955036793,1.1382478580412039,1.4597779097114205
1789139615155895000,8.92989501953125,0.5592952053102958,1.057549811174579,1.0279218908363228
1789139615165868000,8.939867919921875,0.4820464127614617,0.4665644447353,1.391542117371877
1789139615175841300,8.94984130859375,-0.07292513041150503,-0.1098433538003687,0.965349920241499
1789139615185814000,8.95981396484375,-0.10405488686318043,-0.040532633338036764,1.0543129761160894
1789139615195787300,8.969787353515626,0.07533589496442994,-0.2787981796131064,0.7820416990290481
1789139615205760300,8.97976025390625,-0.2576771040761607,-1.5150933372706021,0.833821049214545
1789139615215733200,8.989733154296875,-0.23602576462414826,-0.9849095904961944,1.3397819053816122
1789139615225705200,8.999705322265624,-0.426828733504429,-0.1213009389429318,0.8612467038453054
1789139615235678200,9.00967822265625,-1.086847449900713,-0.6280516588295145,0.675317156894175
1789139615245651200,9.019651123046875,1.074659822924418,-0.26297490555182007,0.9388904061435945
1789139615255624200,9.029624267578123,-0.5938335603504156,0.2007036871856935,0.8324663042877212
1789139615265597200,9.03959716796875,-0.4643503333443532,-0.05832329258953931,0.6255229531554655
1789139615275570200,9.049570068359374,1.4581916995948192,0.1081973392712899,0.8986837136509908
1789139615285543200,9.059543212890626,1.0910810491968133,0.5142474412706779,1.654468195413174
1789139615295516200,9.06951611328125,-0.6165913114493656,0.2686468555146925,0.9652155896680473
1789139615305489400,9.079489501953123,-0.17012267000501924,0.24472905805112224,0.7436472924963987
1789139615315462100,9.089462158203125,0.42737386323775667,0.4929233669831078,0.48517684542620115
1789139615325435100,9.09943505859375,-0.20343335106638064,0.5091070984198435,0.3733223000739639
1789139615335408000,9.109408203125,-0.45793617889870614,-0.279167048458394,0.9500611817681361
1789139615345381400,9.11938134765625,-0.8878976713241141,-0.8317813733802484,0.6357966868875423
1789139615355354400,9.129354248046877,0.2864044188918245,-0.7783102110118217,-0.4906365180072809
1789139615365327000,9.1393271484375,0.026420225261891372,-0.5378011352897667,0.40545271900896807
1789139615375300000,9.149300048828126,-0.6704320933585118,-0.27435337498953627,-0.3208980341425331
1789139615385273300,9.1592734375,-0.517590587112393,0.013921636206586353,-0.387964633407105
1789139615395246300,9.169246337890623,-1.3206072519942011,0.36277701014568614,0.3130053576882028
1789139615405219300,9.17921923828125,-0.43842931940375607,0.4146873053923869,0.021867124786380157
1789139615415192000,9.189192138671874,0.5517293820717307,0.1820635959141159,0.009378599793046765
1789139615425164300,9.199164306640624,0.42201397514775574,-0.19827733866372588,-0.008968906804168958
1789139615435137300,9.20913720703125,0.07101214039159164,-0.26855723345205557,0.8878049775416544
1789139615445110300,9.2191103515625,-0.39637010541261025,-0.6277753979147195,0.7812188439895421
1789139615455083000,9.2290830078125,1.1441531149332511,-0.28157628780233074,1.344795975299531
1789139615465056300,9.23905615234375,1.5084403336856993,-0.043374173012305124,1.0156638454009
1789139615475029200,9.249029296875,-1.1568737798908435,-0.3253467545166842,1.3315649462547736
1789139615485002200,9.259002197265623,0.4152173772908526,0.22576519074889037,1.1392113263412953
1789139615494975200,9.268975341796876,-0.6171005350908328,0.11215561067007083,0.8390257874195638
1789139615504948200,9.2789482421875,0.6275888230667446,0.2958444062588399,1.1956015341204895
1789139615514921200,9.288921142578126,0.09587981598756128,0.019420475396322377,0.5156158494815709
1789139615524894200,9.298894287109375,-0.8306671211383774,0.0929927873965603,0.7430345513495764
1789139615534867200,9.3088671875,0.15927984713492277,-0.39930539130283704,0.046052352549402216
1789139615544840200,9.318840087890624,0.3711778244181167,-0.054455478631617746,-0.03111227345733669
1789139615554813200,9.328813232421876,-1.0434714527626836,-0.23213135188408654,0.05498732323321051
1789139615564786200,9.3387861328125,-0.8635080434977809,-0.6511265077194661,0.2992241656888778
1789139615574759200,9.34875927734375,0.8974414994653428,-0.15666222462608037,0.13650550769545233
1789139615584732400,9.358732421875,-0.4545245852518446,0.9379624901165692,1.5049839922429604
1789139615594705200,9.368705078125,0.8263679365919729,0.34099454637852195,-0.5672711592555955
1789139615604678100,9.37867822265625,3.2135037967916666,0.5453721492387024,-1.1051358895495345
1789139615614651100,9.388651123046875,0.06218388648191753,0.9122211818042111,-0.6564681721766709
1789139615624624000,9.3986240234375,-0.3427422261213274,1.1884946105338885,-0.9776872917416564
1789139615634596000,9.40859619140625,0.6055227558756976,0.37440834611841484,-1.568242904418394
1789139615644569000,9.418569091796876,-2.161770661302084,0.21094481696017833,0.42019877060501487
1789139615654542000,9.4285419921875,-2.6418075785346615,-0.9334175239184255,0.28908993045212333
1789139615664515300,9.438515380859377,0.5144628105227621,-1.2376487708810078,0.503910107741441
1789139615674488300,9.44848828125,-1.4186154681703793,-1.8797611743078624,0.7634298398434797
1789139615684461000,9.4584609375,-0.22468535177819124,-1.3755495642926558,0.5924367808193656
1789139615694434000,9.46843408203125,1.9178620358435672,-0.7633831089296554,0.27557305986759906
1789139615704407300,9.4784072265625,0.10211070243930026,-0.44153497521540197,0.47963681544895836
1789139615714380300,9.48838037109375,1.3480966666684235,0.37997633750110316,0.9478837119126224
1789139615724353300,9.498353271484374,1.084657762001808,0.5045584984442592,0.27280063555000694
1789139615734326000,9.508325927734376,1.9578502267371114,0.748570944405068,0.3858672446596109
1789139615744299300,9.51829931640625,1.3941370713187176,1.6170753121254429,0.4131980787968081
1789139615754272300,9.528272216796877,-0.4378312909878888,0.9413966642433595,-0.305906362990906
1789139615764245200,9.538245361328125,0.5104949221303863,0.2093044574371744,-0.4680277429094442
1789139615774218200,9.54821826171875,0.146470190348517,0.24344366684984733,0.01399238304525615
1789139615784191200,9.558191162109376,-1.2030181317052722,-0.11810837579378693,-0.9798467837230357
1789139615794164200,9.568164306640623,-1.3237849130275523,-1.0015280171079362,-0.19420751630830757
1789139615804137200,9.57813720703125,-0.2966312303853378,-1.156792629569783,0.21907556090040464
1789139615814110200,9.588110107421874,0.5379212102348141,-0.9098859863025318,0.29367981335287724
1789139615824083500,9.59808349609375,0.20814298004093637,-0.49223900278683447,-0.423660150668706
1789139615834056200,9.60805615234375,0.3723738141055519,0.1188278613400295,0.0870765859597975
1789139615844028200,9.618028076171877,1.2643824067984168,-0.13850968218494714,-0.24056377843985613
1789139615854001400,9.62800146484375,1.0137651021087657,0.21866065668371842,-0.9534225692126523
1789139615863974100,9.63797412109375,-0.4156461538529635,0.48869712984582653,-0.784704452265124
1789139615873947100,9.647947021484375,-0.26816945725335317,0.9155227122046428,-0.576104569500344
1789139615883920100,9.657920166015623,1.2564195631121369,1.135747278551902,-0.8040407789785361
1789139615893893000,9.66789306640625,-0.04877657125266592,0.5549374150862235,0.3766691328085654
1789139615903866400,9.677866455078124,0.009258376860850319,0.06351438474311469,0.19602672029265586
1789139615913839000,9.687839111328126,0.37809950009833904,0.08142873027768244,-0.07998806938448215
1789139615923812000,9.69781201171875,-0.09557545549812826,-0.0893565823973278,0.5798457076858685
1789139615933785000,9.70778515625,-0.14715819203274036,-0.5165611576323369,-0.2953077479254651
1789139615943758300,9.71775830078125,-0.6696553906067975,-0.7253861323387264,-0.09097474221302049
1789139615953731300,9.7277314453125,-4.021631024753751,-0.7380721149672518,0.11774266651103794
1789139615963704000,9.7377041015625,-1.1714939252842234,-0.8098342773035405,0.3841788890670287
1789139615973677000,9.747677001953123,1.6203670282637586,-0.296569748290151,0.32505494141176416
1789139615983650300,9.757650390625,-0.9093130999407224,-0.14455449795991432,-0.027993644723292122
1789139615993623300,9.767623291015624,1.1581864693237165,-0.03857683535496969,0.0618090077348179
1789139616003596300,9.77759619140625,1.0874129603568492,-0.0644758785107239,-0.002283183451935792
1789139616013569000,9.787569091796875,1.2902018204854815,0.5355500955375366,0.8183963972647201
1789139616023542300,9.797542236328123,0.4260574548114699,0.3454921516056015,-0.04825515296827319
1789139616033515300,9.807515380859376,-1.3796318371989746,0.3892514647088349,0.450170350587694
1789139616043488300,9.81748828125,-0.9851132405601428,0.38102845342435687,0.5905090096884817
1789139616053460200,9.827460205078124,-0.9525895993072555,-0.0732122255015258,0.7452975339072923
1789139616063433200,9.83743310546875,0.9371057762208144,-0.4408524501046253,0.4906052725200186
1789139616073406200,9.84740625,-0.8889203528047502,-0.7237003787482733,0.5815535337796703
1789139616083379200,9.857379150390624,-1.454573773817029,-0.13658198589745899,0.31590299375722525
1789139616093352200,9.867352294921876,0.618309976742829,0.6728425834031545,0.1564221305916889
1789139616103325200,9.8773251953125,0.7988511848037775,0.13515148255969778,0.10777353182231812
1789139616113298200,9.887298095703123,-0.3624883405097462,0.33234558788471047,1.0641951174802424
1789139616123271200,9.897271240234376,0.32045384296655943,0.33098165106881644,0.6272510962537243
1789139616133244200,9.907244140625,1.9711193009647179,0.2330415729337685,0.6865934888027996
1789139616143217400,9.917217529296876,0.5487758664187251,0.6513220988083259,1.0518902320151966
1789139616153190100,9.927190185546875,-0.26963585116514216,0.8922828080831173,0.5930345753637133
1789139616163163100,9.9371630859375,0.6184451929150147,0.04169232892440429,0.5884587924584228
1789139616173136000,9.947135986328124,-0.5018194096125834,0.3810271078197472,0.49934076601834854
1789139616183109000,9.957109130859376,-0.30418609370482347,0.4277642939584246,0.2696606443299212
1789139616193081900,9.967081787109375,0.0418309135106235,-0.3352509662594891,-0.3561852083498907
1789139616203054800,9.977054931640623,-0.9862597996922277,0.12679087266480754,0.9752161515720984
1789139616213027800,9.98702783203125,-0.4213484536371184,-0.4330450235432329,0.46805480075653694
1789139616223001000,9.9970009765625,0.7076558096369647,-0.7030901324181369,0.7472718989781592
1789139616232974000,10.00697412109375,0.4011223873057696,-1.0130766422828112,0.3890943334275745
1789139616242946800,10.01694677734375,0.18521816203922384,-0.9364533135136129,0.40238766712056423
1789139616252919800,10.026919921875,1.5995374278764398,-0.8284105103932347,0.38901381953368325
1789139616262892000,10.03689208984375,2.0987669513809766,-0.415622297482576,0.7201758506909549
1789139616272865000,10.046864990234376,-3.106042937119033,0.758236175647966,0.480776376519525
1789139616282837800,10.056837646484375,0.66299684990528,0.12938751076997324,0.7881486558076535
1789139616292811000,10.06681103515625,2.5653892727593,0.14946710526001183,0.566244386268872
1789139616302784000,10.076783935546874,-0.5543836323191799,0.5096387580877696,1.7795950998861085
1789139616312757000,10.086757080078126,-0.2897193049086853,0.21155484837503657,0.6328582301457853
1789139616322730000,10.09672998046875,3.5335616047576544,-0.98178422544027,-0.2295495572187902
1789139616332703000,10.106702880859377,1.4619331031017535,0.15323705180659372,0.6911452413905208
1789139616342676000,10.116676025390625,-1.4284701187893603,0.41556034997120056,0.42160832597008363
1789139616352649000,10.12664892578125,0.5379409178969952,-0.44349278306592155,-0.01429286199143558
1789139616362622000,10.1366220703125,-0.43916880635641764,0.41195083932251864,0.7054601821191452
1789139616372595000,10.146594970703124,-1.8194211949864394,-0.10080257311089465,1.1139385831473405
1789139616382568000,10.15656787109375,-0.7181211736075377,-1.3181386577520462,0.8162682204357558
1789139616392541000,10.166541015625,1.23955461330747,-0.7260432357514789,0.5172936474353858
1789139616402514000,10.176513916015624,0.04804147177086611,-0.43521035700084365,1.475436049848093
1789139616412487000,10.18648681640625,0.6925485148500413,-0.8823376642581452,0.6672384961491581
1789139616422460200,10.196460205078123,0.021418705941415272,-0.022608537403725044,0.013516197919858655
1789139616432433000,10.206432861328125,-0.057745030635210005,0.9047131623547049,-0.12397085473938275
1789139616442406000,10.216406005859374,1.977873497673952,1.1213377421716602,0.04416450820742344
1789139616452379000,10.22637890625,0.8616547566804305,0.23469696791958874,0.608749188842287
1789139616462352100,10.23635205078125,-0.18528280110862666,0.09743977038444943,0.15622029988557978
1789139616472324900,10.246324951171877,0.26809853894253666,0.5031215590657956,0.5210457804091466
1789139616482296800,10.256296875,0.055157477354568774,0.1404487750786998,1.3338047130960933
1789139616492270000,10.26627001953125,0.23640386874194708,-0.1950774246572669,0.7208108485246094
1789139616502243000,10.2762431640625,0.048649417400099614,-0.46804703393753244,1.3260629595500233
1789139616512215800,10.2862158203125,-1.7063875209923365,-1.379242367931708,0.24909754921328423
1789139616522188800,10.296188720703125,0.6620957188590308,-1.0609994127790519,-0.040796747721357905
1789139616532162000,10.306162109375,-1.1553101518909727,-0.9945757689112102,0.8024364319647248
1789139616542135000,10.316135009765626,1.1851628962758922,0.01037074804930138,0.6741542753031234
1789139616552108000,10.32610791015625,-1.456404884412432,-0.8967231277994312,0.6689819997255304
1789139616562080800,10.336080810546877,-0.02263893886740755,-1.1561023442338856,1.0644191503906297
1789139616572054000,10.346053955078125,1.6044288609502708,-0.5912818158324545,0.11667209536809517
1789139616582027000,10.356027099609374,-0.6487914720164338,-0.5926119982406974,-0.7879354239980387
1789139616592000000,10.366,0.6321793994741713,0.37148114454862097,-0.1385245184945923
1789139616601973000,10.375972900390623,-1.477854290336055,-0.0397158980692635,-0.44340873100753214
1789139616611946000,10.385946044921877,-0.2831004843821079,-0.38670940573415097,0.3992129948740921
1789139616621919000,10.3959189453125,1.0593698243614942,0.2687841349415769,0.39871555977349515
1789139616631892000,10.40589208984375,-0.3537300456065822,-0.006618553056347725,1.1236251144278198
1789139616641865000,10.415864990234375,-0.3521072131059722,-0.437827912947538,0.6521478891714975
1789139616651838000,10.425837890625,0.6875972280264806,0.27652264094803725,0.031866465789618194
1789139616661811000,10.43581103515625,-1.8251890804158724,0.1638138389724498,0.6525582807817079
1789139616671784000,10.445783935546874,0.9565884512777427,0.041681834742751,0.8214936226383329
1789139616681757000,10.4557568359375,0.3100283868856988,-0.12502117494484769,0.933491214424928
1789139616691730000,10.46572998046875,-0.19097091845979133,-0.1832473686785714,1.771762935135065
1789139616701702000,10.475701904296876,1.1412319659246826,0.11947523573288193,0.6788659489556432
1789139616711675000,10.4856748046875,0.9080825452000232,0.22401802206189964,0.5704911723149404
1789139616721647900,10.49564794921875,-0.895268239653902,0.15628256415262878,0.8234656618012486
1789139616731621000,10.50562109375,0.10595005491991287,0.06947926795601123,0.4919489985865954
1789139616741594000,10.515593994140623,-1.7326414730398347,-0.16796042891824298,0.7855974338305534
1789139616751566800,10.52556689453125,-1.070932413164973,0.07665588719748292,2.0143345231032352
1789139616761539800,10.535539794921876,-0.7111830013530017,-0.9168689037285616,1.828109831161865
1789139616771513000,10.54551318359375,-1.0632924025518085,-1.0315726044837985,1.5200163904867976
1789139616781486000,10.555486083984375,-0.8965327081778267,-1.0342563809852385,1.4715098585289397
1789139616791458800,10.565458740234376,0.03914285387969156,-1.3977149472466823,1.0832738565177076
1789139616801431800,10.575431884765624,1.8957218873331263,-0.9244222647564002,0.44059761784267126
1789139616811405000,10.585405029296876,1.2276271405629435,0.15460376615466237,0.014288737948369663
1789139616821378000,10.5953779296875,-0.7470209982603674,0.05128645079413901,0.11190888409934437
1789139616831351000,10.60535107421875,2.518004591757394,0.7478789729237948,-0.5104178410788517
1789139616841323800,10.61532373046875,1.5093549704094567,1.143440718082553,-0.48156571061372555
1789139616851297000,10.625297119140624,-0.7797298951566374,0.8965644608039367,0.44013780121112217
1789139616861270000,10.63527001953125,0.36000407970174286,0.4138797050756357,-0.9392942017013888
1789139616871243000,10.645242919921875,-0.2690700378164007,-0.27558329176112395,-0.6600612846285865
1789139616881216000,10.655216064453125,-0.2382528733786498,-0.5777351276167566,-0.10801083383813455
1789139616891188700,10.665188720703124,-1.4379579546361343,-0.9635666033532623,-0.6922541877881762
1789139616901162000,10.675161865234376,-3.855131732629529,-1.7114922540838815,-0.029861914315830126
1789139616911135000,10.685135009765624,0.6722740567853647,-0.6183006789071691,0.14925155005523516
1789139616921107000,10.69510693359375,0.025580789508359212,-0.5548618714545456,0.5399780411036816
1789139616931080000,10.705079833984374,-1.9091627920697114,-0.5203175989851707,0.638695479889699
1789139616941053000,10.715052978515626,2.2600339357293313,0.07206478202661669,0.8616925678271777
1789139616951026000,10.72502587890625,0.812038695857826,0.9053675324391228,-0.031872974009452396
1789139616960999000,10.7349990234375,0.2915367120976907,0.9744299046655915,0.11235176974665975
1789139616970972200,10.74497216796875,1.0894846094395763,1.3096687238085092,0.004433813535332974
1789139616980945000,10.75494482421875,1.4925362382550758,0.7277632494494861,0.30395391551976314
1789139616990918000,10.76491796875,-0.5123656898323521,-0.03771494644287296,1.265350703474588
1789139617000891000,10.774890869140624,-1.3891538040877827,-0.47653699920292847,1.2814515876076327
1789139617010864000,10.784864013671877,-0.3422620064348989,-0.8953047566932228,1.0644868788806732
1789139617020837000,10.794837158203125,-0.3702486365058142,-0.4557588170649089,0.9717175832679776
1789139617030809900,10.804809814453124,-1.2556503944959514,-0.40127616875563626,0.44757013570343024
1789139617040782800,10.814782958984376,-0.09092869353583512,-0.4973169958245732,-0.770825613133429
1789139617050756000,10.824756103515623,1.1259918381196248,-0.2829157618841947,-0.08475901893236015
1789139617060729000,10.83472900390625,0.4121627640045579,0.33914615075637045,-0.645232903523034
1789139617070702000,10.8447021484375,2.1507018292750626,1.043117560517478,-0.04899094541716635
1789139617080674800,10.8546748046875,1.1833403475236046,0.8735347281087339,0.2903344994613
1789139617090647800,10.864647705078124,-0.8316878984595851,0.7456862315014552,0.597018614156829
1789139617100621000,10.87462109375,-0.82375413813443,0.6870199023610198,0.03290145391387599
1789139617110594000,10.884593994140625,0.010529060314795478,-0.10222625184566404,0.02854605475466349
1789139617120566800,10.89456689453125,-0.5006846859411798,-0.2897165825904405,-0.364865432217769
1789139617130539800,10.904539794921876,-1.1468457493840618,-0.2628812701612339,-0.5750732919769906
1789139617140513000,10.914512939453124,-0.11024864247636519,-0.760817961036944,-1.4532421987188446
1789139617150485000,10.924485107421877,-0.39370909921547464,-0.4290006928653015,-1.2255658533210358
1789139617160457700,10.934457763671874,-2.2521448073146377,0.5194756513624331,-0.853657257913795
1789139617170431500,10.944431396484376,-0.14238999509000216,-0.024052017060378253,-0.10053238922468936
1789139617180404500,10.954404541015624,0.1637431035258719,0.20071131892015903,-0.04357986928675453
1789139617190377500,10.96437744140625,-1.840716872960742,0.31358468646217014,0.1573890106753903
1789139617200350500,10.9743505859375,-0.779166364540596,-0.028677104705822642,-0.06022861434585932
1789139617210323500,10.984323486328124,1.310541403427908,0.07593359960123675,-0.8180494491856553
1789139617220296700,10.994296630859376,0.739217049784759,1.2073256238441723,0.05590913483911599
1789139617230269400,11.00426953125,0.12227714971967855,0.8275614687042974,-0.6170339771454945
1789139617240242400,11.014242431640625,0.8100360749621041,1.0520685086745951,-0.07594486013989155
1789139617250215400,11.02421533203125,0.03030030466939154,1.3485463605009613,0.08170037955989609
1789139617260188700,11.034188720703124,-0.46880725112537364,1.0056812340772543,0.35069351595666126
1789139617270161400,11.044161376953124,0.043502356522451116,0.2677141262494559,0.10665626855716227
1789139617280134400,11.054134521484375,-1.7824770305337592,-0.1330935189530924,0.8958027667990404
1789139617290107400,11.064107421875,-1.1796657879637695,-0.6882508083671783,-0.18231199228231648
1789139617300080600,11.07408056640625,-2.9980042060722294,-0.45146207625027207,-0.43035349437864795
1789139617310053600,11.0840537109375,-1.6065575861621133,-0.6751169101472121,0.02702406749720482
1789139617320026400,11.0940263671875,0.38874435755477305,-0.6368229840321304,0.1696326048414046
1789139617329999400,11.103999267578123,-1.1403511836978621,0.005370005548488844,-0.07320952759138169
1789139617339972600,11.11397265625,-0.9823581093398374,0.09339156035552976,0.3844978540161533
1789139617349945600,11.123945556640624,-0.3690422271759763,-0.010349313464495207,0.3775891749585906
1789139617359918600,11.133918701171876,0.46917260539804756,0.4746281428898625,0.8714193984868159
1789139617369891300,11.143891357421875,1.1859490267641288,0.6156394730198231,0.5944609683363077
1789139617379864600,11.153864501953125,-0.3409531945154535,0.8670562374508555,0.5253343986492065
1789139617389836500,11.16383642578125,0.5137313128214288,0.6158505171680246,-0.2187037304186397
1789139617399809500,11.1738095703125,1.3131647440391154,0.4373198857103737,-0.19373833754025388
1789139617409782500,11.183782470703123,0.3599956689093784,0.6166995239888104,-1.1176984609878067
1789139617419755500,11.193755615234377,-0.7170655181613516,0.6297407825283835,-0.22465216362502818
1789139617429728500,11.203728515625,-0.8370274526738747,0.7236390667827858,-0.45551288280723007
1789139617439701500,11.213701416015626,-0.46933766994509646,0.4145567452886715,0.3465903129576124
1789139617449674500,11.223674560546876,-0.2956905993791745,-0.24007027339387774,0.44257565379305874
1789139617459647500,11.2336474609375,-0.92959552401548,-0.466387263590755,-0.028020370311972385
1789139617469620500,11.243620361328125,-0.22928188792735182,-0.43468326768660026,0.09428172015085422
1789139617479593500,11.253593505859374,2.0263982872756277,-0.9662265533651165,-0.06103754751925965
1789139617489566500,11.26356640625,0.24677296574115412,-0.23093738360025623,-0.39912284493923533
1789139617499539700,11.273539794921875,-0.024455288011612425,0.20393217457140436,0.03505138972872295
1789139617509512400,11.283512451171877,1.1831825492384305,0.39632539383991916,0.2364189033557323
1789139617519485400,11.2934853515625,0.3056771733323138,0.5722694763207634,0.30035601247841803
1789139617529458400,11.30345849609375,-0.9597719992725403,0.7426737192638634,0.06276153312473623
1789139617539431700,11.313431640625,0.4474061559698126,0.2218997785007897,0.07110196739993348
1789139617549404700,11.32340478515625,0.7766132737155338,-0.12312009183420175,-0.07558864773844916
1789139617559377400,11.33337744140625,0.6102759317742454,-0.04260085110287673,-0.967676454134509
1789139617569350400,11.343350341796874,0.8992943500305505,0.09125508739124556,-0.7918964040273578
1789139617579323600,11.35332373046875,0.6638354236855697,-0.20446448536707307,-0.06648891127856087
1789139617589296600,11.363296630859375,0.5320213963547786,-0.04362305390013386,-0.47451752300741273
1789139617599269400,11.373269287109377,-0.33052980827984674,0.37814154022410607,0.49170429849144404
1789139617609242400,11.383242431640625,-0.43455855126987813,0.27725430285082725,1.0698063264276272
1789139617619215600,11.393215576171874,0.1520006238368796,0.27133582566342,0.8892443172217847
1789139617629187600,11.4031875,0.14361673981542053,0.348786668577885,1.5023396162910396
1789139617639160300,11.413160400390623,-0.5093532292320462,0.03161235432082224,1.3949058789248783
1789139617649133600,11.423133544921876,1.4017555863610303,-0.013717367793854676,0.7614840239946579
1789139617659106600,11.4331064453125,0.9177556662767768,0.17064944960863881,0.8940107888574231
1789139617669079600,11.44307958984375,-0.2569951194347597,-0.12303826678273999,0.8527234805598642
1789139617679052500,11.453052490234375,0.5650166265993906,-0.08782890353950613,0.47229955996748196
1789139617689025300,11.463025390625,0.5498243613600451,-0.07950786559986624,0.9335069864306706
1789139617698998500,11.47299853515625,-0.01242309710404476,-0.26511765236783774,0.47334457973875926
1789139617708971500,11.482971435546874,0.4301972242582037,-0.7194925108782457,0.10652312554130987
1789139617718944500,11.492944580078126,-0.03220762068565883,-0.4853415658689306,0.29112565249827876
1789139617728917500,11.50291748046875,-0.300660032041275,0.09996066345174055,-0.2736764084552958
1789139617738890500,11.512890380859377,-0.38187588312817977,0.013604819184654927,-0.23356903703271115
1789139617748863500,11.522863525390624,0.2727486626719184,-0.28420080602849607,-0.09444417921977907
1789139617758836500,11.53283642578125,0.6979265032489249,-0.31624129162566644,-0.5689030012789461
1789139617768809500,11.5428095703125,-0.12259376344212412,-0.2292444075764941,-0.8357449958517604
1789139617778782700,11.55278271484375,0.27035798350867407,-0.09396291080281208,-0.8460234850041805
1789139617788755500,11.56275537109375,1.0953880262750337,0.24183409279866874,-1.29899236278165
1789139617798728400,11.572728515625,-0.3057917569938048,0.26410062712897925,-0.7422859749225991
1789139617808701400,11.582701416015626,0.42808013021803554,0.3918144619811532,-0.3742138929430365
1789139617818674700,11.5926748046875,1.0388985505311732,0.5913169653326079,-0.7544614648310825
1789139617828647700,11.602647705078123,-0.25132894419927415,0.47992609325418983,-0.243228443106027
1789139617838620400,11.612620361328124,0.9569535224666286,0.8938985517780951,-0.45434249873601656
1789139617848593400,11.622593505859374,0.574922687431189,0.7514948788065985,-0.2531540902594199
1789139617858566400,11.63256640625,-0.9296676465179736,0.2912734004765991,0.08663272964983607
1789139617868538600,11.64253857421875,-0.3622280435813401,0.45496850323699456,0.09253845296913615
1789139617878511400,11.652511474609376,-1.5728469755635772,-0.13460467468819137,0.014659383834163616
1789139617888484400,11.662484375,-1.5206752161891195,-0.4610761142079167,0.9652706898257151
1789139617898457600,11.67245751953125,-1.513298296753029,-0.8096352440443366,0.8387396231143935
1789139617908430600,11.6824306640625,-1.0874296732708146,-1.1935482447294574,0.7065303016040766
1789139617918403300,11.6924033203125,-1.215580833062532,-1.2843971334803628,1.1033994880910323
1789139617928376300,11.702376220703124,-1.0904810288199458,-1.1519493614529643,0.6073397617050369
1789139617938349600,11.712349609375,0.1960294877213156,-0.5651730525977913,0.3641611614282327
1789139617948322600,11.722322509765624,0.6130662544790213,-0.25482451911411436,-0.10845526812031013
1789139617958295600,11.732295654296877,0.5167150305451308,-0.007655467584584075,-1.008663213493958
1789139617968268300,11.742268310546876,1.1942777455308844,-0.024731093768795023,-1.008768824709801
1789139617978241500,11.752241455078124,1.1283660508808153,0.13070902766499215,-1.0345036751838597
1789139617988214500,11.762214599609376,0.8573024719478946,0.47426820181471285,-1.085473402737017
1789139617998187500,11.7721875,0.44878356590573915,0.340122313824234,-0.15131736009165297
1789139618008160500,11.782160400390625,0.5131843550443496,0.20493449057684063,-0.6949224904556415
1789139618018133500,11.792133544921874,-0.3872838605116136,-0.29529918140515604,-0.42666432400533116
1789139618028106500,11.8021064453125,-0.01982733449977656,-0.6173539327579388,-0.4246203718636498
1789139618038079500,11.81207958984375,-0.12798448076631386,-0.451697647495368,-0.39128562046238263
1789139618048052500,11.822052490234377,-0.5393388396362933,-0.19369398956387296,-0.5195106404914306
1789139618058025500,11.832025390625,0.3294445111002418,-0.28861972934749236,-0.6280711791762547
1789139618067998500,11.84199853515625,-0.04839894536191293,-0.08868302980212177,-0.28129086155072097
1789139618077971500,11.851971435546876,-0.370932985667627,-0.015482970311181305,-0.7225573514831981
1789139618087944400,11.8619443359375,0.6973518169726072,-0.2960739752827419,0.0470991414505324
1789139618097916700,11.871916748046877,0.7278313450454645,0.13429161440407839,-0.6183938751083015
1789139618107889400,11.881889404296874,-0.1426884951384788,0.07473405803866322,-0.9670621696108684
1789139618117862400,11.8918623046875,-0.32605629811193504,0.21169377010164417,-0.3154090593022358
1789139618127835400,11.90183544921875,0.34039672413033095,0.9561437988610749,-1.2742892724041486
1789139618137808600,11.91180859375,0.9671140337309266,0.3655092545356607,-0.5854950904935345
1789139618147781600,11.92178173828125,0.6012153564067995,-0.5893569730994342,0.187656086368742
1789139618157754400,11.93175439453125,0.018451082854923116,-0.4271776872533089,0.328057267192804
1789139618167727400,11.941727294921876,0.09979271959636521,-0.37000706824357665,0.905631261847926
1789139618177700600,11.95170068359375,0.6748717904700557,-0.4694677503859298,0.4438835555431652
1789139618187673600,11.961673583984377,-0.1677682181375144,-0.2712068033076896,-0.037399666206133254
1789139618197646600,11.971646484375,-1.1214878972086393,-0.4013158663053916,-0.222675214322267
1789139618207619300,11.981619384765626,-0.004013871722519027,-0.5127982983300787,-0.05730195058103156
1789139618217592600,11.991592529296875,1.4470541133628911,-0.21628172833574574,0.1765200004240305
1789139618227565600,12.001565673828123,0.2646843840308952,-0.026682491645741314,0.3232985154139289
1789139618237538600,12.01153857421875,1.417130004978203,-0.2391446147433419,-0.06814466852649405
1789139618247511300,12.02151123046875,0.9129685078903176,-0.5591100350280329,0.24891861355919495
1789139618257484500,12.031484619140626,0.03547393683787423,-0.29228325022703827,0.06590365319936507
1789139618267457500,12.04145751953125,0.9722140653603059,-0.7940206053090074,-1.2128012130322552
1789139618277430500,12.051430419921877,0.5554693702135979,-1.4007675714562842,-1.0107134889878981
1789139618287403500,12.061403564453125,-1.1717776391895143,-0.7410307557827405,-0.09462654567812831
1789139618297376500,12.07137646484375,-1.2217693523250959,-0.5709833221454542,-0.47991902205464454
1789139618307349500,12.081349609375,0.5787550119212426,-0.7677085364178993,0.6196938659046772
1789139618317322500,12.091322509765623,0.5120582616044874,-0.40745202240439093,0.44729157750532317
1789139618327295500,12.10129541015625,-1.1247706274728475,-0.07977939813440416,-0.23108431308474517
1789139618337268500,12.1112685546875,0.058103904102181934,0.02051440149379629,-0.2937031888965793
1789139618347241500,12.121241455078126,1.773076659577399,0.26516654965621456,-0.6533440899164228
1789139618357213400,12.13121337890625,0.9538666257236084,0.5802618152865651,0.16309330051469342
1789139618367186400,12.1411865234375,0.057222037879175326,0.6962906905253456,-0.09119266294926068
1789139618377159700,12.15115966796875,0.9598421878409836,0.5159087844797425,0.16744462237116126
1789139618387132400,12.16113232421875,0.49737966643674797,0.8296276834583239,0.14866741470029193
1789139618397105400,12.17110546875,-0.2765569263851778,0.9167396001183793,0.5240810118574591
1789139618407078400,12.181078369140623,-0.3113004703958905,0.621048545729562,0.5448377601755704
1789139618417051600,12.1910517578125,-0.12934377442760844,-0.10454473353932621,0.31749148719067455
1789139618427024600,12.201024658203124,-0.7472139920200852,-0.03844446938629525,0.32295614971682096
1789139618436997400,12.210997314453126,-1.2711346959983476,-0.26453528366228884,-0.4793439703914046
1789139618446970400,12.220970458984375,-1.177039938187973,-0.7487819811051982,0.19205541441247992
1789139618456943600,12.230943603515623,-0.36123225902950235,-0.7033176231631592,0.160939655231449
1789139618466916600,12.24091650390625,-0.5701065293789384,-0.8759457542223416,0.322062398773262
1789139618476889600,12.2508896484375,-0.4506735777659537,-1.0223578881192459,0.32443785889114424
1789139618486862300,12.2608623046875,-0.8019687477522359,-1.3546099062892012,0.3705891912950358
1789139618496835600,12.270835693359375,0.9176095421620828,-0.6221931655404218,0.2268823035070671
1789139618506808600,12.28080859375,0.3206161763907162,-0.5521893558997993,0.14241202992886612
1789139618516781600,12.290781494140624,0.812665729065357,-0.2888794444634939,-0.8500240954008932
1789139618526754600,12.300754638671876,0.7145051368981483,0.11862753515772526,-0.6518710801933815
1789139618536727600,12.3107275390625,0.7968767724156673,0.518958169136485,-0.9815276233540157
1789139618546700500,12.320700439453123,0.9490973127315531,0.6542735486566429,-0.7288300453480818
1789139618556673500,12.330673583984376,0.649565100566252,0.8172104989510833,0.19704571769799173
1789139618566646500,12.340646484375,-0.1889627755407329,0.516574372300424,-0.2784193493428584
1789139618576619300,12.350619384765626,-0.10349308368274415,-0.1588571114807412,0.11020611010911026
1789139618586592500,12.360592529296875,-0.47695498639521666,-0.48554905075123567,0.7448600229497893
1789139618596565500,12.3705654296875,-0.7368262206084559,-0.4049566101160509,-0.3257337108146861
1789139618606538500,12.38053857421875,-1.3146029364146936,-0.4646618548442236,0.10557706958541173
1789139618616510500,12.390510498046876,-0.12216242879316981,-0.31319344097229196,0.3679937149737232
1789139618626483500,12.4004833984375,-0.31571821901858144,-0.009109180756143462,0.1832776537026442
1789139618636456400,12.41045654296875,-0.3543377915721931,-0.008397827310658985,-0.14307440618415931
1789139618646429400,12.420429443359374,-0.1736414755662378,0.2563888647118438,0.777167603969873
1789139618656402700,12.430402587890624,0.232390629250984,0.5947160045910121,0.49742240151219463
1789139618666375400,12.44037548828125,-0.6124303910100669,0.7304800537070024,0.5151478901476343
1789139618676348400,12.450348388671877,-0.6160194974089548,0.5965192985136092,1.0651351972661738
1789139618686321400,12.4603212890625,0.12934909508254205,0.8479605845571995,0.5228234329715731
1789139618696294700,12.470294677734374,0.4456383114572372,0.943606347111421,0.6927337497608691
1789139618706267600,12.480267578125,-0.0033625955060219495,0.007077456765098884,1.4238944306441732
1789139618716240400,12.490240478515624,0.021469577864161666,-0.09870955283733854,0.3881158746106764
1789139618726213400,12.50021337890625,0.033708780029333536,0.24650531099184658,-0.04219583025885592
1789139618736186600,12.5101865234375,0.3225693920589801,-0.1724242422731515,1.2096327831658458
1789139618746159600,12.52015966796875,-0.09523909880660866,-0.2690729858960441,-0.6276368806243126
1789139618756132600,12.530132568359376,0.14751801203672688,-0.5057866736028224,-0.6624389307734357
1789139618766105300,12.540105224609375,-0.12517184912218185,-0.5376412252822198,-0.6126923746998277
1789139618776078300,12.550078369140625,0.026602384201753176,-0.6140775962657774,-0.7505761363614314
1789139618786051600,12.560051513671874,1.6747664479616537,-0.4338921086334198,-0.5016772768178545
1789139618796024600,12.570024658203126,1.0105860580093085,0.007984920772846828,-0.125586629324955
1789139618805997600,12.57999755859375,0.4314711479888726,-0.5632729913383846,-0.41842548466325086
1789139618815970300,12.58997021484375,1.4759969394788204,-0.1890636087102206,-0.6491210832011266
1789139618825943600,12.599943603515625,0.5368455735402429,-0.06981099162529934,-0.4775956021792109
1789139618835916500,12.60991650390625,0.36538215457570034,-0.09874812228552572,-0.9452200544723509
1789139618845889500,12.6198896484375,-0.7286893853029527,0.02936641306800544,-0.8774897340002789
1789139618855862500,12.629862548828124,-0.9469539615400299,0.16117496682150975,-0.15809329521687032
1789139618865834500,12.63983447265625,0.31641770557412285,-0.2171846066518799,0.30648408296909785
1789139618875807500,12.649807373046874,1.1374284134616437,-0.7070091795221605,0.5201475005298697
1789139618885780500,12.659780517578126,1.4014232366372203,-0.6927833333940326,0.5147842761368607
1789139618895753700,12.669753662109375,-2.6756943609382935,0.4919686362952134,0.645810724632072
1789139618905726500,12.6797265625,-1.073338707007167,0.6784722285411388,0.09701315506255495
1789139618915699500,12.689699462890625,1.7139171345728665,0.7900544821418499,-0.0510497106344129
1789139618925672400,12.69967236328125,-0.6401623580271854,0.9534504017534146,1.5370409501703968
1789139618935645700,12.709645751953126,-1.54688654378974,0.12587227273925247,1.545642850933917
1789139618945618400,12.719618408203123,1.393294586635813,-0.2958563001890432,0.5792515321371782
1789139618955591400,12.72959130859375,1.0949903330132376,0.6665056325861954,1.164494261144523
1789139618965564400,12.739564453125,-0.4433612167515839,0.7837484187303473,0.6107053863307299
1789139618975537700,12.74953759765625,-0.10627228516549092,0.18031625889376332,0.15526399431628932
1789139618985510700,12.7595107421875,0.14853637963669708,0.2886104864275979,1.3857963097909438
1789139618995483400,12.7694833984375,-0.25866834822321055,0.1317089438909728,0.5016291325999614
1789139619005456400,12.779456298828125,-0.6694350705896648,-0.3532942823226145,-0.20276409317790836
1789139619015429400,12.789429443359374,-0.5998391687749468,-0.24466978792570382,0.3796604619012255
1789139619025402600,12.799402587890626,0.002186310659135662,-0.27883377927431086,0.4119420460913531
1789139619035375600,12.809375732421875,-0.6972241633680453,-0.7099703817076624,-0.39852957776122455
1789139619045348400,12.819348388671877,-0.49337809202312227,-0.8557906302722359,0.3341037015500434
1789139619055321300,12.8293212890625,0.1545991533581445,-0.8050191360447345,-0.052419190196493014
1789139619065294600,12.839294677734374,0.6747957714439733,-0.6259593123744781,0.35845337758672047
1789139619075267600,12.849267578125,0.3780837438434505,-0.6636464149066317,0.07617208133304114
1789139619085240600,12.859240478515623,1.4221199478929043,-0.15635049070148258,0.08748821361394996
1789139619095213300,12.86921337890625,0.2220972067447301,-0.13544760524624752,-0.34493715833347804
1789139619105186600,12.8791865234375,0.38517932092072515,0.21594794676994994,0.29154221694133514
1789139619115159600,12.88915966796875,0.4382436770425962,0.04335338303578153,-0.2537032967246306
1789139619125132500,12.899132568359375,0.9324677582660015,0.3151871398502964,0.6815997178418475
1789139619135105500,12.90910546875,-0.23689033850247274,0.07563334764440063,-0.1222708498101829
1789139619145077500,12.919077392578124,-1.048684651761704,-0.1008961015705677,0.7943397892120184
1789139619155050500,12.929050537109376,1.112256455335886,-0.2233153871323834,0.9195654673169176
1789139619165023500,12.9390234375,-3.33851398727761,0.46146178672056043,0.4255473553983759
1789139619174996000,12.948995849609377,-2.316759524511144,0.10284175742708986,0.8247722273684573
1789139619184969000,12.958968994140625,2.191982315078897,0.13360288869597672,0.4293627277863032
1789139619194942000,12.96894189453125,-0.7950517110787348,-0.000134729900154626,0.6816794080014659
1789139619204915000,12.9789150390625,-1.8856718008804996,-0.18352504856540341,0.5816304362408103
1789139619214888000,12.988887939453123,2.751056788426453,-0.18315134796106156,0.893269097071633
1789139619224861000,12.99886083984375,1.134371848947825,0.5486034273114357,0.9753668609518078
1789139619234834000,13.008833984375,-0.946214086172291,0.9029664535511465,0.8108641095916418
1789139619244807000,13.018806884765626,-0.41791881051892626,0.7283782934671681,0.38812373420649726
1789139619254780200,13.0287802734375,0.8108485210822453,0.6359636363036342,-0.010242713062735663
1789139619264753000,13.0387529296875,-0.4981109287481754,0.6903553476363617,-0.39839681306013447
1789139619274726000,13.048725830078125,-0.7561571480091334,0.1374507803621915,0.5703016429066822
1789139619284699000,13.058698974609374,-0.8862109282882296,-0.42850775933879276,-0.00539769965706124
1789139619294672100,13.068672119140626,-0.9597170151336567,0.09596279806894494,-0.17964082331633435
1789139619304645000,13.07864501953125,-0.07699548534232804,0.3494944974531696,0.6142312275140378
1789139619314617900,13.088617919921877,-0.18795963873867244,-0.6030914850458373,0.4542191480297893
1789139619324590800,13.0985908203125,0.6358126402163825,-0.05286518686583114,0.6677819755643118
1789139619334564000,13.108564208984374,-0.4507403001803712,-0.24623661012916784,0.3560706705261082
1789139619344537000,13.118537109375,-0.001539463759475207,-0.3509142966489071,-0.047947537472879734
1789139619354510000,13.128510009765623,1.1674381703898422,0.43487041309789554,0.1502884026986909
1789139619364482800,13.13848291015625,-0.04745426998523188,-0.1692241543783774,-0.49245501071218545
1789139619374455800,13.148455810546874,0.2599028432190602,-0.5884106181007442,-0.4714656771286852
1789139619384429000,13.158428955078126,0.3289417523859985,-0.30491815895037977,-0.3876115651265647
1789139619394402000,13.168402099609375,0.7750118962385261,-0.2719147060874185,-0.44570855949803917
1789139619404375000,13.178375,0.8775534217527754,-0.4866873369525523,-0.7284100145605807
1789139619414347000,13.188346923828124,-0.21538837235233949,-0.39198413798785237,-0.9519713556890753
1789139619424320000,13.198320068359376,-0.9779293567995332,-0.20181485115265752,-0.7024572911648772
1789139619434293000,13.20829296875,0.6949474722110673,-0.40131257795974146,-0.4989231525885197
1789139619444266000,13.218265869140623,0.24106122095791796,-0.5693382993715727,0.38231216939585644
1789139619454239000,13.228239013671876,-0.5855153495763257,-0.10654341333797493,0.3979643162832336
1789139619464212000,13.2382119140625,-0.04083971434173063,0.14749308480759366,-0.18240247009634303
1789139619474185000,13.24818505859375,0.4342891895645287,0.18555585937545738,-0.04525976835297651
1789139619484158000,13.258157958984375,0.5117671155232941,0.7504989475581514,0.1714735709667354
1789139619494131000,13.268130859375,0.15156182468624885,0.579208738513643,0.7059047050366065
1789139619504104000,13.27810400390625,-0.05535545140855233,-0.06058238490042894,0.3721767510005585
1789139619514077000,13.288076904296876,1.0260701007521569,0.31121284147600087,0.5619714029364038
1789139619524050000,13.2980498046875,-0.25725737445910246,0.6169921033400526,0.2951238840990353
1789139619534023200,13.308023193359375,-0.6588679913216429,0.2578849412395534,-0.047097107908378365
1789139619543996000,13.317995849609376,0.9316679873005487,0.066810728238863,-0.6540565339024337
1789139619553969000,13.327968994140624,0.9764268201554616,-0.19432482956809177,0.0007309671142119283
1789139619563942000,13.33794189453125,-1.3894316644503517,0.2093511277410365,-0.3246396843011596
1789139619573915000,13.347914794921875,-1.2019572322313279,-0.10187325233560791,0.12056923819283591
1789139619583888100,13.35788818359375,0.9132349423069215,0.23818028759457993,0.2585620524846149
1789139619593860900,13.36786083984375,0.07000038148248398,0.16067583516447212,-0.04693658359070272
1789139619603833900,13.377833740234376,0.34887068213191696,-0.7171947769035348,-0.6547751546507926
1789139619613806800,13.387806884765626,-1.6029927004769902,-1.1832696858448255,0.665230071157087
1789139619623780000,13.397780029296875,1.1096191192119698,-0.20565492681719003,0.11644219076870323
1789139619633753000,13.407753173828125,2.6517449335757917,0.25951653221259324,0.38114333564925884
1789139619643725800,13.417725830078124,-0.48519243780505417,-0.08069435596197597,0.7452982003802952
1789139619653698800,13.42769873046875,0.21884235747234457,0.04446025882732399,0.5996458286165081
1789139619663672000,13.437672119140624,0.6926602402795902,-0.3535830426709198,0.5872880039305362
1789139619673645000,13.44764501953125,2.2300404954534643,0.3197953924419114,0.2935834090691904
1789139619683618000,13.4576181640625,-0.790958741731234,0.8795101613522684,-0.011196957053054055
1789139619693590000,13.467590087890626,-1.628742003927096,0.16057033970382315,0.2965597645540437
1789139619703563000,13.47756298828125,-0.14971329861819951,-0.33410443297149944,-0.6760694424427657
1789139619713536000,13.487535888671877,0.08977477105607878,-0.2355560874079494,0.49575535831257844
1789139619723509000,13.497509033203125,-0.1898505897519974,-1.0494368203052937,0.1486732955456511
1789139619733482000,13.50748193359375,-4.750523080991411,-0.6038253030939044,-0.04989039663800259
1789139619743455000,13.517455078125,-0.9668328021759343,-0.336902040785406,0.5784328594282445
1789139619753428000,13.527427978515624,2.9258767847318548,-0.5162449990026226,0.8434884802148847
1789139619763401000,13.53740087890625,-1.4536532273928005,-0.1123579317104089,0.5724128023613391
1789139619773374200,13.547374267578125,-2.247017183882683,0.3191723689860077,-0.1462912973884422
1789139619783347000,13.557346923828124,2.5465590747728712,-0.2979337758996396,-0.04462794261792114
1789139619793320000,13.56731982421875,1.8575326732385693,0.6407213108849457,-0.013100280126953003
1789139619803293000,13.57729296875,-1.7195437630205708,1.1577661697502193,-0.7561012325664281
1789139619813266000,13.587265869140625,-0.7391617987441502,0.22723008211825876,-0.3805509916977306
1789139619823239000,13.597239013671874,1.6553539627317257,0.6588682940792426,-0.7678596789614199
1789139619833212000,13.6072119140625,0.18313208780656046,0.6233615134310194,-0.4605141231373159
1789139619843185000,13.617184814453124,-0.44906799579503176,-0.3748450236844543,0.3635423438286791
1789139619853158000,13.627157958984377,-0.09415038038091961,-0.76792265740118,-0.3980921659248761
1789139619863131100,13.637131103515625,-1.8029890484548161,-0.15003004782397428,-0.0067822498277518815
1789139619873104000,13.647103759765624,-0.2304482646270719,-0.08265713436589182,1.263859214650915
1789139619883076900,13.657076904296876,0.3932058114322383,-0.4999166256628074,0.5909430861472198
1789139619893049900,13.6670498046875,-1.4420319168670759,-0.5659952056657606,1.422559857132418
1789139619903023000,13.677023193359377,-1.2545860839012068,-0.7227525327622956,0.6689835222371462
1789139619912996000,13.68699609375,1.881933642884887,-0.23037257160128294,0.4075049193411633
1789139619922968800,13.69696875,1.5061132674820588,0.08534975428628061,-0.14893006508457685
1789139619932941800,13.70694189453125,-0.7481774714822156,0.5065607578737384,0.027358194343001
1789139619942915000,13.7169150390625,0.417322663497854,0.5627275572749617,-0.016401139853744844
1789139619952888000,13.72688818359375,1.037948639180577,0.4510575228324162,0.8474777285513276
1789139619962861000,13.736861083984374,0.6508795619537461,0.38747021853530206,0.728100901337102
1789139619972833800,13.746833740234376,-0.16349063653903936,-0.44784861700452605,0.540097096128954
1789139619982806000,13.756805908203123,0.2344955909769222,-0.6194541250635024,-0.03182781154626489
1789139619992779000,13.766779052734377,-0.2307438996621029,0.24969393116257094,0.0880838185979932
1789139620002752000,13.776751953125,0.24318288783383882,0.2446207660563479,0.2964527435925752
1789139620012725000,13.78672509765625,1.0054368330274417,-0.06574854936005935,0.3116584221386957
1789139620022698000,13.796697998046875,0.7774494559537732,-0.05172969720466832,0.747546832462644
1789139620032671000,13.8066708984375,0.36097102577380547,0.12546869411282854,0.41222927985295926
1789139620042644000,13.81664404296875,-0.023859660535289352,0.002833404416647768,0.06688246233098447
1789139620052617000,13.826616943359374,0.30077682643011816,0.27670238320622775,-1.237427759786301
1789139620062590000,13.83658984375,0.4812942959894085,0.3014165447471918,0.029023093128028112
1789139620072563000,13.84656298828125,0.21458560661710663,0.04003289228635301,0.0047309027947043236
1789139620082536000,13.856535888671877,0.31338348637597174,0.30750396705873334,0.5934601739603198
1789139620092509000,13.866509033203124,0.46666892475845867,-0.0737016011649276,0.6278391100708738
1789139620102482200,13.876482177734376,0.022333504214703412,-0.31598889960500914,1.1282128181517304
1789139620112455000,13.886454833984375,0.23024074264559735,0.394223639110297,-0.09201512632586159
1789139620122428000,13.896427978515623,0.3152475840414755,-0.1624735528856486,0.16148501922170072
1789139620132401000,13.90640087890625,0.22975698803415082,0.3079407197097653,-0.09538615592099552
1789139620142374100,13.9163740234375,-0.5416792982064437,-0.06536380221563566,0.008103962765872132
1789139620152347000,13.926346923828126,0.058924875606774646,-0.6016143243611102,-0.12127563356751439
1789139620162320000,13.93631982421875,0.20364761381288704,-0.20455893996313848,0.7137627557358692
