time,seconds_elapsed,z,y,x
1789139607785900800,1.55990087890625,0.04266795535036694,0.11578113994401777,0.0008806203748672102
1789139607795872800,1.569872802734375,-0.00233341578190878,0.09633821914049823,0.025014111318089543
1789139607805845800,1.579845703125,-0.00027462192833973257,0.08447058558521994,0.017203858724760646
1789139607815818800,1.58981884765625,-0.01229931905830946,0.06669778619688305,-0.014412857939886219
1789139607825791500,1.59979150390625,-0.009478230131609942,0.07315764788853717,-0.02123880048168493
1789139607835764700,1.6097646484375,-0.038126693515358655,0.05567192035488493,-0.05432952536251646
1789139607845737700,1.61973779296875,-0.015800989627078856,0.02736504935625743,-0.043355080484877316
1789139607855710700,1.629710693359375,-0.05723634946528946,0.033001637122694966,-0.015247076989481696
1789139607865683700,1.63968359375,-0.07880811685458247,0.015835251514645522,-0.02024525267731891
1789139607875656700,1.64965673828125,-0.0791099132469138,-0.02855687617679029,-0.005557812660392934
1789139607885629700,1.659629638671875,-0.08370658395898303,-0.030466004109389478,0.03700734793873309
1789139607895601700,1.6696015625,-0.10496295123513678,-0.022041183536546168,0.02360683472845771
1789139607905575000,1.679574951171875,-0.09303704154377164,-0.057441955547274916,0.040711304034808826
1789139607915547600,1.689547607421875,-0.11309307026108137,-0.06377276369832753,0.04584518164721343
1789139607925520600,1.699520751953125,-0.10667584925529715,-0.05715840325569392,0.03927226913882513
1789139607935493600,1.70949365234375,-0.09596754793201695,-0.051610399693048294,0.017475133547855147
1789139607945467000,1.719466796875,-0.11876478044016117,-0.05474799409916878,-0.009192450353287916
1789139607955439900,1.72943994140625,-0.13032579315416318,-0.05442578792599399,0.0018235569722982517
1789139607965412600,1.73941259765625,-0.11361501605323293,-0.06922347249686472,-0.011207234940511459
1789139607975385600,1.749385498046875,-0.10050038645810774,-0.06953275354920652,-0.060036397002912516
1789139607985358600,1.759358642578125,-0.1131990588329443,-0.0747542635107925,-0.038303098519881416
1789139607995330800,1.769330810546875,-0.10417888971226948,-0.08754428469385621,-0.00687672385828529
1789139608005303600,1.779303466796875,-0.12884423617997764,-0.08701052615834477,0.006150143410558363
1789139608015276500,1.789276611328125,-0.12408906966545688,-0.08761174342543637,0.006972642777351503
1789139608025249800,1.799249755859375,-0.1147516554692319,-0.08716920172240389,-0.0149158982444851
1789139608035222800,1.809222900390625,-0.12862745596037536,-0.10973127268348339,-0.013550830014840731
1789139608045195800,1.81919580078125,-0.1498898818784593,-0.14200855851329583,0.0025358234821001597
1789139608055168500,1.82916845703125,-0.11838568485861888,-0.14231897575166286,-0.0023370205051550805
1789139608065141800,1.839141845703125,-0.10351053240895473,-0.14368732734851958,0.011471236736243768
1789139608075114800,1.84911474609375,-0.13087029345473872,-0.15201977197938216,-0.019733789352889254
1789139608085087700,1.859087646484375,-0.1341787183295102,-0.20075424010265966,-0.001979931583540082
1789139608095059700,1.869059814453125,-0.1489086609753311,-0.20841646891517998,0.014254651602563641
1789139608105032700,1.87903271484375,-0.17595708344485683,-0.23831712068373495,0.0019451557844759688
1789139608115005700,1.889005615234375,-0.17818090244646845,-0.2834057258245729,-0.0134563603842107
1789139608124978700,1.898978759765625,-0.16871924413340325,-0.28894585668633904,0.025573633537674872
1789139608134952000,1.908951904296875,-0.17466919314814403,-0.2633696188972509,0.013947271304310314
1789139608144924700,1.918924560546875,-0.1602215461292661,-0.2828650637838765,0.028211147010506348
1789139608154897700,1.928897705078125,-0.14184412020661394,-0.31323038239775136,0.015794650773369053
1789139608164871000,1.938870849609375,-0.15462957795991608,-0.315169783256073,0.008664744272747419
1789139608174844000,1.948843994140625,-0.15746045297035186,-0.3065816216611499,0.025961978844212048
1789139608184817200,1.958817138671875,-0.1408424933747877,-0.2967073271573389,-0.004684822547818381
1789139608194788900,1.968788818359375,-0.13515439047215685,-0.28894768874433097,0.023393776365621
1789139608204761900,1.978761962890625,-0.13419177330088272,-0.260970947801896,-0.009950819760660555
1789139608214735000,1.988735107421875,-0.14159292608490848,-0.25782917366868363,0.01140336536363123
1789139608224708000,1.9987080078125,-0.13216748653750982,-0.2579631899403511,0.00862345003053624
1789139608234680800,2.008680908203125,-0.09523512503895543,-0.2356989802556644,-0.03236567395492047
1789139608244653800,2.01865380859375,-0.10682840189858385,-0.22179483438851366,0.016412146595267994
1789139608254627000,2.028626953125,-0.06810757042563409,-0.20631225596059474,0.03253575795171182
1789139608264600000,2.03860009765625,-0.07010199422246075,-0.19121901710418313,-0.011307399752680384
1789139608274572800,2.04857275390625,-0.07059682482441011,-0.1622760697555381,0.0018504142789005017
1789139608284545800,2.0585458984375,-0.07906729982262585,-0.1401869590050798,0.05234849745699605
1789139608294519000,2.06851904296875,-0.05832506958271527,-0.13000374753211646,0.0249812352074272
1789139608304491000,2.078490966796875,-0.03140519510967015,-0.13143420526462765,-0.022899883387205035
1789139608314463700,2.088463623046875,0.0077668036964057136,-0.10813680428638066,-0.002917078466089537
1789139608324437000,2.09843701171875,0.007376637098501797,-0.10754285562429082,0.03879991398278242
1789139608334410000,2.108409912109375,0.0014961233960734547,-0.11750215240184517,2.2547702044715503e-05
1789139608344383000,2.118383056640625,0.0004650298601809884,-0.13991402423783433,-0.02199631987382568
1789139608354356000,2.12835595703125,-0.0007030361771279664,-0.16346256047132382,0.0323878732438598
1789139608364329000,2.138328857421875,-0.009839482939687247,-0.17220116608904973,0.003192282221511787
1789139608374302000,2.148302001953125,-0.0028810108305307386,-0.1879198369450239,-0.025942655668760903
1789139608384275000,2.15827490234375,-0.028507294425337462,-0.2327475563329773,0.019441543526864388
1789139608394248000,2.168248046875,-0.04511555260791096,-0.25259482469993355,0.008608095353357065
1789139608404221200,2.17822119140625,-0.07689023476393664,-0.2503619905609025,-0.004845912945840097
1789139608414193000,2.18819287109375,-0.04119369376496267,-0.24888411209939232,0.005416270741271842
1789139608424166000,2.198165771484375,-0.037416347499967265,-0.26584104137138875,0.07320630463831725
1789139608434139100,2.20813916015625,-0.010765276439005858,-0.23347787561778313,0.04466737726827125
1789139608444112100,2.218112060546875,0.0052553905948336845,-0.22769876118587742,0.03716530474254488
1789139608454084900,2.2280849609375,0.019949797322182505,-0.21884545412455703,0.06956994611181977
1789139608464057900,2.238057861328125,0.02845119768079077,-0.17398948242307297,0.041178560348116074
1789139608474030800,2.24803076171875,0.04308670115847873,-0.1447243330754529,0.009600062003905237
1789139608484004000,2.258004150390625,0.07026512940109854,-0.11816760868754153,0.02391774383186805
1789139608493977000,2.26797705078125,0.06314262111128324,-0.06601030828292569,0.0064493930737812765
1789139608503949800,2.27794970703125,0.0647709799972546,-0.05368272528521057,-0.024021823016892933
1789139608513922000,2.287922119140625,0.09379100368332596,-0.02409531504260078,-0.026472579548402504
1789139608523895000,2.29789501953125,0.08162593392460772,0.021305015256659895,0.041568345315119534
1789139608533868000,2.307867919921875,0.08292247182887177,0.02773917274474083,0.02123679295089081
1789139608543840800,2.3178408203125,0.11050630546593751,0.01806840016409253,-0.008345344462577597
1789139608553814000,2.32781396484375,0.1178284240104997,0.0637154603565584,-0.009139500514586498
1789139608563787000,2.337787109375,0.08563851501013439,0.07584883623769448,0.08272227208370324
1789139608573760000,2.347760009765625,0.1041559395991608,0.06379575826700762,0.14464207825964662
1789139608583733000,2.35773291015625,0.1264565506496727,0.08498752909985768,0.03948378765734681
1789139608593706000,2.3677060546875,0.13722464535700138,0.08854932960637836,0.027386444829131818
1789139608603679000,2.377678955078125,0.14842814539546326,0.08392487094588758,0.1022991423733165
1789139608613652000,2.38765185546875,0.14223526962496955,0.07798093756320841,0.049994504258798346
1789139608623624000,2.3976240234375,0.11646881340061127,0.056247307579288225,-0.024697484978694662
1789139608633597000,2.407596923828125,0.1124280130904363,0.03037628516718455,-0.027769956280028363
1789139608643570000,2.41756982421875,0.08643019143282718,0.019986824463152815,-0.008929152065625636
1789139608653543000,2.42754296875,0.109125178843536,0.0270911275420348,-0.03029459892199707
1789139608663516200,2.43751611328125,0.11524471985512495,5.088406775094963e-05,-0.07618279056983851
1789139608673489000,2.447489013671875,0.07091076937719934,-0.031743059295058995,-0.03459380178026376
1789139608683462000,2.4574619140625,0.020677465036636644,-0.051620821383882395,-0.01822627282645068
1789139608693435000,2.467434814453125,0.048151313553960316,-0.09356796907531786,0.024361627622386774
1789139608703408000,2.477408203125,0.04961625552784619,-0.0825752032088018,0.010292307856204976
1789139608713381000,2.487381103515625,0.03749242172956453,-0.08680387483390696,0.01021112351313476
1789139608723353900,2.497353759765625,0.07786199029568965,-0.08588646975829797,0.00848520062991917
1789139608733326000,2.507326171875,0.06761411642075768,-0.08458643449940487,0.0650927359324611
1789139608743299000,2.517299072265625,0.07813562662225315,-0.05268760386891242,0.012662288899746944
1789139608753272000,2.52727197265625,0.08561594530519542,-0.04210029043397168,-0.032175469137606307
1789139608763244800,2.537244873046875,0.0962539671300226,-0.030877320978201037,0.014547683354545232
1789139608773217800,2.5472177734375,0.0861776069831344,-0.027398614416161544,0.008623459070315132
1789139608783191000,2.55719091796875,0.09066155801170207,0.005697020715960602,-0.010098143741513394
1789139608793164000,2.5671640625,0.0845870692426735,0.027571989138908588,-0.013771039734002384
1789139608803137000,2.577136962890625,0.07942969057890804,0.01756914965335318,-0.007571775502395626
1789139608813109800,2.58710986328125,0.09164501787087917,0.018274806019762613,-0.007391095432162775
1789139608823083000,2.5970830078125,0.1262105267269966,0.018762554254631608,0.03073167746255915
1789139608833056000,2.607055908203125,0.08636862721896668,-0.002728602335380418,0.035669037965699146
1789139608843028000,2.617028076171875,0.09158545392472525,-0.035312138323822614,0.017398791267898905
1789139608853001000,2.6270009765625,0.06386909520106589,-0.034230550556963356,-0.00845011362771087
1789139608862974000,2.636973876953125,0.06762198758564632,-0.05896013043278644,-0.011680333506742649
1789139608872947000,2.646947021484375,0.024051674581062735,-0.10901466292585583,0.03308641631675435
1789139608882920000,2.656919921875,0.036359036004886366,-0.13785668356109898,-0.04667319491823598
1789139608892893200,2.66689306640625,0.03284276841906796,-0.15219523725243236,-0.04450658107914375
1789139608902866000,2.676865966796875,0.051221164514953545,-0.14854927604364235,-0.05306990436604734
1789139608912839000,2.6868388671875,0.04833207171435323,-0.15970087180172765,-0.03652912117676948
1789139608922812000,2.69681201171875,0.04589096972613948,-0.18342120931108225,-0.03563867185445937
1789139608932785200,2.70678515625,0.02865259085886899,-0.16273687568848832,-0.042715492193324885
1789139608942758000,2.7167578125,0.007052666996446345,-0.16794499876946498,-0.039481776604897496
1789139608952729900,2.726729736328125,0.04571495750163806,-0.17521184865202077,0.027508122439449438
1789139608962703000,2.736703125,0.03130320246634884,-0.15410289764183277,0.033999266461827625
1789139608972676000,2.746676025390625,0.07729659553698845,-0.13024870333629376,-0.008878222310150624
1789139608982648800,2.75664892578125,0.08560515890729933,-0.13549594316183475,0.00014965957212753695
1789139608992621800,2.766621826171875,0.10296477951040407,-0.10377928630012107,0.029196467577758664
1789139609002595000,2.776594970703125,0.08116535536288647,-0.07592849810516694,0.01770963531199561
1789139609012568000,2.786568115234375,0.11240177147210006,-0.07196220249402799,-0.013868335317020884
1789139609022541000,2.796541015625,0.13833390778094207,-0.02264920818572397,-0.08168533336935757
1789139609032513800,2.806513671875,0.1262054155596035,0.00019223881051353531,-0.02868267525177296
1789139609042486800,2.81648681640625,0.08093381963173188,0.004523623944370723,0.0006156028795650782
1789139609052460000,2.8264599609375,0.1316008219279748,0.02561717683763597,-0.020282355501029217
1789139609062432000,2.836431884765625,0.14292730986064522,0.04596141803832991,-0.03372168991167767
1789139609072404700,2.84640478515625,0.16441537739500126,0.07254305893186325,0.0003225645847730148
1789139609082378000,2.8563779296875,0.17788035579203865,0.08261395373587352,-0.010185799770642249
1789139609092351000,2.86635107421875,0.19972825301500347,0.10437626008509328,0.02486642436562988
1789139609102324000,2.876323974609375,0.18717893074527928,0.11566605496766476,0.007528679094497886
1789139609112297000,2.886296875,0.18491667449848997,0.1139612473378904,0.020216940535938244
1789139609122270000,2.89627001953125,0.20041258443870366,0.19915092781360696,-0.016161867191531974
1789139609132243000,2.906242919921875,0.2352306226854975,0.23723523199914012,-0.016106200952924466
1789139609142216000,2.9162158203125,0.27440269654476,0.24525511941394063,-0.07935112856885972
1789139609152189000,2.92618896484375,0.28363974350996213,0.2259651333021407,-0.043876621979429396
1789139609162162200,2.936162109375,0.23738012949836687,0.28284410426857914,-0.12004200879844315
1789139609172134100,2.946134033203125,0.26613229041701103,0.2882056967269673,-0.12091550603484713
1789139609182107000,2.95610693359375,0.22945509002480546,0.281965055535521,-0.0644013624368768
1789139609192080100,2.966080078125,0.20689207798153633,0.3006492259450862,-0.06683478995856118
1789139609202053000,2.97605322265625,0.1966118067213729,0.2673703904847876,-0.035470867249710596
1789139609212026000,2.986026123046875,0.24876201146519406,0.26513732277281316,-0.010066706200586849
1789139609221999000,2.9959990234375,0.13198104293308716,0.24529322712850699,0.07873234102526691
1789139609231972000,3.00597216796875,0.17594014467919106,0.19780960045094917,0.03323429266342435
1789139609241945000,3.015945068359375,0.10750783949520316,0.18316386481589764,0.025063702445742193
1789139609251918000,3.02591796875,0.11712819458922433,0.1703596803636464,0.0252852334260483
1789139609261891000,3.03589111328125,0.10848122809986845,0.17504258681151103,0.03464596666320381
1789139609271864000,3.045864013671875,0.15958062507209617,0.23967470104523944,-0.05006725297652073
1789139609281837000,3.055837158203125,0.1324710356272601,0.24620067367651965,-0.04320079743952429
1789139609291809000,3.06580908203125,0.12252172048312035,0.2295053094066334,-0.0397621440758327
1789139609301782000,3.075781982421875,0.12158198901986729,0.22340533021888334,-0.06390120096685814
1789139609311755300,3.08575537109375,0.15393381235873194,0.274164853494739,-0.04997886919495331
1789139609321728000,3.09572802734375,0.11748220996389735,0.333393505797536,-0.06062633332651872
1789139609331701000,3.105700927734375,0.12874146266406308,0.3368565717657964,-0.03857342969057578
1789139609341674000,3.115674072265625,0.1741997311261346,0.3745228389788012,-0.0228344801320118
1789139609351647200,3.125647216796875,0.21620350495154955,0.4324598564911804,-0.04701750566031705
1789139609361620200,3.1356201171875,0.21086649451324696,0.46843393368716035,-0.04703855553878846
1789139609371593000,3.145593017578125,0.22024067816523138,0.496617470918155,-0.04234112213902419
1789139609381566000,3.15556591796875,0.23353030707899858,0.5299656488836901,-0.07556708037280578
1789139609391539200,3.165539306640625,0.18756561911557615,0.5321830581102417,-0.01222614209427252
1789139609401512200,3.17551220703125,0.1978308808443663,0.5111334127490268,0.010426427016040818
1789139609411484000,3.18548388671875,0.18584623008023315,0.502137697996921,0.002728952495912091
1789139609421457200,3.19545703125,0.18006963991478303,0.5090862254658385,0.03444383268887199
1789139609431430100,3.20543017578125,0.15418268052652306,0.4617493704582133,0.04101610853264054
1789139609441403100,3.215403076171875,0.17664826139705522,0.4435083124870377,0.02012695159821283
1789139609451376000,3.225376220703125,0.14931541827313038,0.4378145706839473,0.05379946587635293
1789139609461349000,3.23534912109375,0.10890661251892857,0.41147549403513917,0.010233983607634209
1789139609471322000,3.245322021484375,0.08056756321497349,0.35026141480713735,0.005839406192197537
1789139609481295000,3.255295166015625,0.06631937764720143,0.28801299292548077,0.04849085304896925
1789139609491268000,3.26526806640625,0.030474516132668834,0.2551440550736824,-0.0020376283614600018
1789139609501241000,3.275240966796875,0.02137401624294678,0.24145498998835963,-0.012795806242100145
1789139609511214000,3.285214111328125,0.015233994902684131,0.21909830591647614,0.02028509046633718
1789139609521187000,3.29518701171875,0.004769509589986227,0.2037792241257114,0.015698152058432984
1789139609531159000,3.305158935546875,-0.029199679065578184,0.16908988846117556,0.023774935475073762
1789139609541132000,3.315132080078125,-0.02800435068656575,0.15715132166755036,0.005346365341979261
1789139609551105000,3.32510498046875,-0.011658146966295881,0.14955700353964405,-0.008249732620711683
1789139609561078000,3.335078125,0.01643302721817087,0.16543482249083163,-0.01238303133046676
1789139609571051000,3.345051025390625,-0.017393944105658,0.15192741650675518,0.018411666376438988
1789139609581024300,3.355024169921875,-0.049493720951914816,0.1132289190245505,0.017547553565448373
1789139609590997000,3.3649970703125,-0.08258209453901652,0.10562929666503375,0.006968765426723367
1789139609600970000,3.374969970703125,-0.07775459098961193,0.11438577263978286,0.037480237303003525
1789139609610943000,3.38494287109375,-0.08281698892593264,0.12323141888354468,0.03899799967597131
1789139609620916200,3.394916259765625,-0.06277863353271222,0.10410556437058284,0.0862240646936075
1789139609630889200,3.40488916015625,-0.04099623893957614,0.13679268123766916,0.04140499628119291
1789139609640862000,3.414862060546875,-0.05551014073791673,0.12638129729627218,-0.010398220659073793
1789139609650834200,3.424834228515625,-0.044145696994614084,0.16764736728739216,0.021936871582542334
1789139609660807200,3.43480712890625,-0.07918857653767808,0.17242379108659217,0.02905598417816347
1789139609670780200,3.4447802734375,-0.0472977686763302,0.19337230683716014,-0.020352296685712343
1789139609680753000,3.4547529296875,-0.052805170370494106,0.21941912233030827,0.009896263694595649
1789139609690726100,3.46472607421875,-0.05093920962983736,0.24613637233098393,0.03308650975093831
1789139609700699100,3.47469921875,-0.059866877114482284,0.24497910901788467,0.04062131930659376
1789139609710672100,3.484672119140625,-0.05569274324148091,0.280950015593758,0.0266614711028475
1789139609720645000,3.49464501953125,-0.04484377763634177,0.3136450254666135,0.06212775883154241
1789139609730618000,3.5046181640625,-0.02941357894227976,0.32889990887591053,0.04943805247168929
1789139609740591000,3.514591064453125,-0.03478176802942892,0.3197628771219535,0.0239239854450256
1789139609750564000,3.524564208984375,-0.008932425867190733,0.33791446187856206,0.04782472423298777
1789139609760537000,3.534537109375,-0.01929119443624995,0.35092637687836054,0.022159720358934005
1789139609770509000,3.544509033203125,-0.03437210494670517,0.31201952840468816,-0.016763526053687076
1789139609780482000,3.55448193359375,-0.05162078805675336,0.26119298253056134,-0.01821158630580035
1789139609790455000,3.564455078125,-0.07187581628061708,0.2383354366289174,-0.029491598856752885
1789139609800428000,3.574427978515625,-0.11219156161352697,0.2010580508784034,0.005318067007207035
1789139609810401300,3.5844013671875,-0.1031131049952486,0.15671063283906997,-0.02934804525605355
1789139609820374000,3.5943740234375,-0.09271024407112448,0.128485869306466,-0.006383240603392921
1789139609830347000,3.604346923828125,-0.11059352998153696,0.11537424875046942,0.021562692703195104
1789139609840320000,3.614320068359375,-0.1773821654144316,0.0271381317898187,0.02750289599239265
1789139609850293200,3.624293212890625,-0.17186144350731425,-0.03545790693896713,0.049118803070839746
1789139609860266000,3.634265869140625,-0.19471524059011844,-0.03965565615456446,0.020192395860386493
1789139609870239000,3.644239013671875,-0.19556652597966617,-0.07311711306028917,0.029574317148343902
1789139609880212000,3.6542119140625,-0.2266845939880161,-0.13256766244243856,0.038612285354650826
1789139609890184200,3.66418408203125,-0.21817927912391186,-0.14935774354221584,0.016397187606801186
1789139609900157000,3.674156982421875,-0.21456975252589056,-0.15732071602451486,0.00438469152571573
1789139609910130000,3.6841298828125,-0.20069666901559974,-0.1701353827981391,0.034159807456858295
1789139609920103200,3.694103271484375,-0.18943641758818747,-0.18479976119333485,0.06298175733742606
1789139609930076200,3.704076171875,-0.19765638839682945,-0.1843043795862978,0.005917930760602771
1789139609940049200,3.714049072265625,-0.2378198324881286,-0.19284389918864633,0.03144237783513587
1789139609950022000,3.72402197265625,-0.2617171701415552,-0.20761665009317457,0.04542944732275288
1789139609959995100,3.7339951171875,-0.2532954133984842,-0.21129907385698704,0.011539958912023113
1789139609969968000,3.743968017578125,-0.26594080018181016,-0.19508513054039064,0.01504975615985431
1789139609979941000,3.753941162109375,-0.24816177325949246,-0.19095322015109298,0.004986243260081805
1789139609989914000,3.7639140625,-0.22662319747384363,-0.1627259674341542,-0.001988192351579636
1789139609999887000,3.77388720703125,-0.21798758832833476,-0.13439368301832078,0.014238274975706358
1789139610009860000,3.783860107421875,-0.2068543524203772,-0.12501890762189583,-0.005025993365137551
1789139610019832000,3.79383203125,-0.17453616693543636,-0.11995264530659261,0.012782352434475229
1789139610029805000,3.80380517578125,-0.1985713584476398,-0.10260565029461258,0.03871599247891494
1789139610039778000,3.813778076171875,-0.17553227754391035,-0.09616579679943366,0.006989238061568015
1789139610049751000,3.8237509765625,-0.15889721690257377,-0.09142678639870905,0.02024406498282488
1789139610059724000,3.83372412109375,-0.1424166510323503,-0.06878542738530266,0.048901234331448454
1789139610069697000,3.843697021484375,-0.13761237240293078,-0.054772481078095264,0.025494343803072955
1789139610079670300,3.853670166015625,-0.12439140269146377,-0.0536833343610646,0.035389552338731464
1789139610089643000,3.86364306640625,-0.12441772151464263,-0.05139991289805457,-0.007770069942665643
1789139610099616000,3.873615966796875,-0.14438596118182218,-0.06439397302951844,-0.011903974662867151
1789139610109589000,3.883589111328125,-0.14803908913970987,-0.09529842102525045,0.03543824518652357
1789139610119562200,3.893562255859375,-0.14806195338550066,-0.11934935594177708,0.02879689527297512
1789139610129535200,3.90353515625,-0.16537916499943864,-0.1035011817102322,-0.0384548612635625
1789139610139507000,3.9135068359375,-0.14385715631930937,-0.1068093887389347,0.0036810099073262023
1789139610149480200,3.923480224609375,-0.10740853307743001,-0.1240891182438052,0.017612148905833142
1789139610159453200,3.933453125,-0.14182932843709561,-0.1306536951776579,0.005691515260087312
1789139610169426200,3.94342626953125,-0.14436031196293744,-0.14354805874942408,-0.03580861647316479
1789139610179399000,3.95339892578125,-0.15886642572558834,-0.19342768673483146,-0.025943952298707405
1789139610189372200,3.9633720703125,-0.20515433977849504,-0.21427032268405496,0.02906442805542665
1789139610199345200,3.97334521484375,-0.16816341889264677,-0.2383000813310195,0.08950677584642101
1789139610209318100,3.983318115234375,-0.13180596129196012,-0.2582846908281356,0.035827491790125725
1789139610219291000,3.993290771484375,-0.11442840273225728,-0.2570580323879254,0.0057386944793667355
1789139610229264100,4.00326416015625,-0.16488514134933624,-0.30230423515498084,0.08335226357382428
1789139610239237000,4.013237060546875,-0.16977783691529377,-0.32781996633018357,-0.011863286799947827
1789139610249210000,4.023210205078125,-0.2056627396736179,-0.34128116871585507,-0.07218599977728077
1789139610259183000,4.03318310546875,-0.19674455611958833,-0.36175814543528295,0.011171045819841671
1789139610269156000,4.043156005859375,-0.18241411948773256,-0.36539158473757455,-0.016104352365712726
1789139610279128000,4.053128173828125,-0.17362863739882586,-0.36180035590869186,-0.06956977777895325
1789139610289101000,4.06310107421875,-0.17269794794982804,-0.3658074722725577,0.027270810306074936
1789139610299074000,4.073073974609375,-0.15091278572410347,-0.3836397700947957,0.040438689231591496
1789139610309047000,4.083047119140625,-0.1289192878359049,-0.36019166497060595,-0.028582079759784412
1789139610319020000,4.09302001953125,-0.13829241820471916,-0.3797556109756171,0.005792476018728994
1789139610328993000,4.102992919921875,-0.15522371754216668,-0.37472679942070547,0.06120290648772958
1789139610338966000,4.112966064453125,-0.14748166827984083,-0.3319288107021173,0.019344635227628568
1789139610348939300,4.122939208984375,-0.12542751408155028,-0.32798021748716655,0.042694644984699534
1789139610358912000,4.132912109375,-0.12368523320302767,-0.3351742368049717,0.0667100238783615
1789139610368885000,4.142885009765625,-0.1307571031512176,-0.3136972413432548,0.047344723482554855
1789139610378858000,4.15285791015625,-0.12148824951101984,-0.32399356364068477,0.032876340743504186
1789139610388831200,4.162831298828125,-0.10706997970749088,-0.2993463940165206,0.03402027310874768
1789139610398804200,4.17280419921875,-0.057551008692906344,-0.2672648965215099,0.02460897518145864
1789139610408776000,4.18277587890625,-0.06332387900065228,-0.26264079135149293,-0.013392090526261894
1789139610418749200,4.192749267578125,-0.051408399567919164,-0.26227269972089656,-0.04101454567421112
1789139610428722200,4.20272216796875,-0.051729141632610574,-0.24171669800537005,0.006214014029223084
1789139610438695200,4.212695068359375,-0.04022815364351332,-0.19939354573860735,-0.013760609733710096
1789139610448668000,4.22266796875,-0.06850748786156456,-0.1694756860073336,-0.010231344727674539
1789139610458641200,4.23264111328125,0.01413087639383106,-0.1726690623596644,0.01920031880449403
1789139610468614100,4.2426142578125,0.016314095723303525,-0.1518048664464856,0.03485939369752688
1789139610478587100,4.252587158203125,0.014225240749712195,-0.14281083115043292,0.03601376443881449
1789139610488560000,4.26256005859375,0.006971876009512633,-0.156002572249136,0.036319982126930585
1789139610498533000,4.272533203125,0.047790312991009117,-0.1603459589067009,0.038581005920744385
1789139610508506000,4.282506103515625,0.03736036261080524,-0.1505455331252661,0.043836807055525055
1789139610518479000,4.29247900390625,0.029257962279847033,-0.1638519826693025,0.01999552816938712
1789139610528452000,4.3024521484375,0.040473813318168586,-0.15392401896569782,0.0030511928545714643
1789139610538424000,4.312424072265625,0.050225090814643006,-0.14362419386230185,-0.001476013194937435
1789139610548397000,4.32239697265625,0.04778263914058886,-0.1385478393441433,0.02891778603194197
1789139610558370000,4.3323701171875,0.0662048487987879,-0.1306536505285386,0.05427028305363503
1789139610568343000,4.342343017578125,0.11090791951213269,-0.09617675146433743,0.032557508655491715
1789139610578316000,4.35231591796875,0.11416462210795388,-0.09209433765146019,0.011186759423803273
1789139610588289000,4.3622890625,0.11497347032529685,-0.07749018948517418,0.0024400492564179673
1789139610598262000,4.372261962890625,0.12323117014478235,-0.05703822112590484,-0.003690544856590736
1789139610608235000,4.382235107421875,0.13234643325251252,-0.027048981754254794,-0.01239332695327428
1789139610618208300,4.392208251953125,0.14931921511761387,0.007929850912863882,-0.04021335611604507
1789139610628181000,4.402180908203125,0.18334091590116802,0.0382470029005168,-0.060234623914159124
1789139610638154000,4.412154052734375,0.16208921108469249,0.07409054823874239,-0.04362023549861355
1789139610648127000,4.422126953125,0.15369746312402174,0.10448747281228327,-0.017820376814461435
1789139610658100200,4.432100341796875,0.1705567939433718,0.1093083447208522,-0.023175566691182523
1789139610668072000,4.442072021484375,0.17646916854736378,0.15083695802195232,-0.046538843703488306
1789139610678045000,4.452044921875,0.19753320520514933,0.18147950702768006,-0.012339406079103922
1789139610688018200,4.46201806640625,0.21138999176157564,0.216414240163679,0.01640714376595711
1789139610697991200,4.4719912109375,0.2052083226559457,0.24944823152309256,0.010717237064461515
1789139610707964200,4.481964111328125,0.19822772837043592,0.27696051755239176,-0.002704882391573484
1789139610717937000,4.49193701171875,0.19381355867272573,0.2963880364131588,-0.023000905564646845
1789139610727910100,4.50191015625,0.20660880318490832,0.32902800514771874,-0.002900509327653849
1789139610737883100,4.511883056640625,0.19842573427791624,0.35624724765020027,-0.0069122210741935485
1789139610747856100,4.521856201171875,0.22219143564839935,0.37051138507577314,-0.030336242799698425
1789139610757829000,4.5318291015625,0.23993628698742595,0.3932083044348391,-0.02395364213609734
1789139610767802000,4.541802001953125,0.21564155945418473,0.39772351945248346,-0.0261047587225991
1789139610777775000,4.551775146484375,0.17421842666669307,0.3786801957292302,-0.01915111452039634
1789139610787748000,4.561748046875,0.15483882488031478,0.3888527960584842,-0.07141683781933134
1789139610797720300,4.57172021484375,0.11552821228171155,0.38885971438723316,-0.029523071522666117
1789139610807693000,4.581693115234375,0.11348877735891481,0.3610405996221093,0.02326258919570322
1789139610817666000,4.591666015625,0.1209290693083361,0.3568031375817521,-0.010313266249638508
1789139610827639000,4.60163916015625,0.12115567815477678,0.3545078936790855,-0.06346717037948206
1789139610837612000,4.611612060546875,0.11402499066791878,0.30918247956840905,-0.018293341398699148
1789139610847585300,4.621585205078125,0.06643664596231809,0.26346263274167453,-0.00034629441802488416
1789139610857558000,4.63155810546875,0.010691170231266965,0.23503201431646517,-0.024932439320649022
1789139610867531000,4.641531005859375,1.4248681425531061e-05,0.2249730538154776,-0.07196335128005298
1789139610877504000,4.65150390625,-0.014629875552238042,0.200092352673372,-0.019466578998384096
1789139610887477200,4.661477294921875,0.01491666889906703,0.18513836624890223,-0.04392555971199673
1789139610897450000,4.671449951171875,0.016345455744443908,0.1478830247503561,-0.060537416393294984
1789139610907423000,4.681423095703125,-0.0016084804620388896,0.10076371787856508,-0.04561869021506733
1789139610917396000,4.69139599609375,-0.034609783172400536,0.04334813054497559,0.009536362662269685
1789139610927369200,4.701369140625,-0.05347171861432427,0.017895984547925625,0.036418299864612876
1789139610937341000,4.7113408203125,-0.07168525452820278,-0.03864254931759128,0.04795191376603565
1789139610947314000,4.72131396484375,-0.06669908322415034,-0.06470889268823424,0.034088677030538785
1789139610957287200,4.731287109375,-0.07144616624585018,-0.0740573803360289,0.02722825286668184
1789139610967260200,4.74126025390625,-0.09851555012365361,-0.11505786100427735,0.04483480746276887
1789139610977233200,4.751233154296875,-0.1114736648723051,-0.13364145636065133,0.033568059506240526
1789139610987206000,4.761205810546875,-0.12436129883100112,-0.13098008791488763,0.03163177867466283
1789139610997179100,4.77117919921875,-0.16214002584921672,-0.14904614452180454,0.030124237356152533
1789139611007152000,4.781152099609375,-0.16794908473562203,-0.18263201525562153,0.07026506729340577
1789139611017125000,4.791125,-0.1785749916301609,-0.1862285154908835,0.09166500872724231
1789139611027098000,4.80109814453125,-0.17064846238313358,-0.2102267279711998,0.050706258583436296
1789139611037071000,4.811071044921875,-0.16691771257004576,-0.2146086300642536,0.06665923439251914
1789139611047044000,4.821044189453125,-0.1692158849225289,-0.23114381384312543,0.12088461938352779
1789139611057017000,4.83101708984375,-0.170812792735584,-0.2509254299099434,0.08738840618615765
1789139611066990000,4.840989990234375,-0.18432278868954607,-0.25236490688040725,0.036316292064992636
1789139611076963000,4.850963134765625,-0.1910817139680076,-0.2358629915237864,0.020875313894804175
1789139611086935000,4.86093505859375,-0.21361644773267963,-0.25819959044625773,0.0023945063532284016
1789139611096908000,4.870907958984375,-0.20668326947231744,-0.27300826374251136,0.023126895800609087
1789139611106881000,4.880881103515625,-0.1987345456181525,-0.24785817384592543,-0.022611694200208688
1789139611116854300,4.890854248046875,-0.15836733975722475,-0.23016382889483616,-0.02626265759387717
1789139611126827000,4.900826904296875,-0.15325463310309934,-0.22980673297102103,-0.01630003937782598
1789139611136800000,4.910800048828125,-0.14521060325361315,-0.23609221544954234,0.004834729010438684
1789139611146773000,4.92077294921875,-0.1581178105501122,-0.2510841465692953,0.09790883037155675
1789139611156746200,4.930746337890625,-0.15453717759862315,-0.24982930550018786,0.10739261632556174
1789139611166719500,4.940719482421875,-0.12140148980457668,-0.23739247104542044,0.04595157856796661
1789139611176692500,4.9506923828125,-0.1038963676850269,-0.23810876246218188,0.04756946881065828
1789139611186665500,4.96066552734375,-0.0992601517147714,-0.23103160276018828,0.056966909375217145
1789139611196638500,4.970638427734375,-0.044126598669364366,-0.222935460455985,0.02511413165931895
1789139611206611500,4.980611572265625,-0.059450973683739465,-0.2047892490367088,-0.009851306509113391
1789139611216584400,4.99058447265625,-0.05634989416807759,-0.2192142425742007,-0.008680931871165797
1789139611226556400,5.000556396484375,-0.05168288163896703,-0.21368250704799666,-0.040056977283393844
1789139611236529400,5.010529296875,-0.024632082581415943,-0.21372909107147078,-0.028565265852485627
1789139611246502400,5.02050244140625,-0.05679054777172803,-0.2045498284117493,-0.022506145811306628
1789139611256475400,5.030475341796875,-0.0629195223257374,-0.22568178916566436,-0.013136662214796082
1789139611266448400,5.040448486328125,-0.024425502248831492,-0.23475032403751572,0.010105506273243015
1789139611276421600,5.050421630859375,-0.010182827004554366,-0.20271286726590923,0.006697317142005141
1789139611286394400,5.060394287109375,0.005998205706537066,-0.19563206245039128,-0.006302906916938902
1789139611296367400,5.070367431640625,0.0487379324629671,-0.21116675764298407,0.03894526693462745
1789139611306340400,5.08034033203125,0.04672296143533783,-0.19124493087141894,0.017474182579709743
1789139611316313600,5.090313720703125,0.05926724091129536,-0.1905061795067759,-0.03392556271179861
1789139611326286600,5.10028662109375,0.05500560490210326,-0.20095722835746116,0.021925122359249045
1789139611336259300,5.11025927734375,0.04184621055273461,-0.1867823713680721,0.019166858686356668
1789139611346232300,5.120232421875,0.0342068282849776,-0.17336092804620326,-0.01517759636933468
1789139611356205600,5.13020556640625,0.07865002502312148,-0.14554450540874458,-0.04622023418004179
1789139611366177500,5.140177490234375,0.0910115329354339,-0.14651975958133978,-0.0020618374827515097
1789139611376150300,5.150150390625,0.097512463227528,-0.10974120583395931,-0.024355033799540054
1789139611386123500,5.16012353515625,0.11079357115238586,-0.09776596300172946,0.004685576134577501
1789139611396096500,5.170096435546875,0.14216655964661248,-0.04688320597280194,0.0038992562733664573
1789139611406069500,5.180069580078125,0.14363646266569127,0.0002219555169512853,-0.037910525526106166
1789139611416042500,5.19004248046875,0.1712475936316192,0.03289028251242391,-0.043620754621458334
1789139611426015500,5.200015380859375,0.17905610490547208,0.0689968064268305,0.08460525795234006
1789139611435988500,5.209988525390625,0.1810149558589851,0.11656193231307473,0.0627263093986316
1789139611445961500,5.21996142578125,0.17710986461452874,0.1298152293064131,0.0011247663333639102
1789139611455934500,5.2299345703125,0.19813620024482118,0.16139360931378974,0.019306872968682182
1789139611465907500,5.239907470703125,0.2003726397787775,0.1940474908242607,0.004569824699461027
1789139611475880400,5.24988037109375,0.19621106158245255,0.1946102158096858,-0.013878297948785206
1789139611485853400,5.259853515625,0.21379306391716338,0.21614350300596422,-0.07425039033940006
1789139611495826400,5.269826416015625,0.21970654484495433,0.22580705663619094,-0.05881361641493055
1789139611505799400,5.27979931640625,0.21462941698023327,0.23205697381100154,-0.016436447481134455
1789139611515771400,5.289771484375,0.21601562003946329,0.2334028684844053,-0.020118110864730726
1789139611525744400,5.299744384765625,0.16998363204649466,0.23552612963711467,-0.05368650148431907
1789139611535717400,5.30971728515625,0.17420593775117543,0.21350864858958812,-0.04238359490395389
1789139611545690600,5.319690673828125,0.1874518554503721,0.20699221539950446,-0.019557045199965633
1789139611555663400,5.329663330078125,0.17031802355327516,0.21614411437701928,-0.04136137066318076
1789139611565636400,5.33963623046875,0.16080247586796503,0.2061209330071215,-0.04986265719973529
1789139611575609300,5.349609375,0.191868357503411,0.18548553444909402,-0.058592593142947284
1789139611585582600,5.35958251953125,0.1500113056140152,0.1747499522546206,-0.017140652869840657
1789139611595555600,5.3695556640625,0.11085363585358962,0.14574317719018332,0.01743477086885356
1789139611605528300,5.3795283203125,0.11939634025386074,0.12041712793523594,-0.04022839235112708
1789139611615501300,5.389501220703125,0.12636258738937814,0.11943156192307407,-0.009482428548874522
1789139611625474600,5.399474609375,0.11854976683982735,0.10803517167481475,0.04399314884281393
1789139611635447600,5.409447509765625,0.10917327460203324,0.120706427190188,0.019009928806724776
1789139611645420500,5.419420654296875,0.07723341408248571,0.09235227761705185,-0.026782535024937302
1789139611655393300,5.429393310546875,0.04947147495927573,0.08051365002334081,0.028718064569695327
1789139611665365500,5.439365478515625,0.06445254872960711,0.09890100374973848,-0.0014406066301276214
1789139611675338500,5.44933837890625,0.05266670524304214,0.1146421131954178,-0.048610992073336065
1789139611685311500,5.4593115234375,0.0978200785699239,0.13307059975251131,-0.050226619509205955
1789139611695284500,5.469284423828125,0.08526774087617599,0.13729242009792675,-0.020954472073466235
1789139611705257500,5.479257568359375,0.06557681672107606,0.14247699133678876,-0.04015460195140712
1789139611715230500,5.48923046875,0.06077527469091991,0.14060323864424218,-0.028764512728918994
1789139611725203500,5.499203369140625,0.04867205770123443,0.14726762432974375,-0.018055893257691247
1789139611735176400,5.509176513671875,-0.007462382104372874,0.12268897010968642,-0.011003848050243178
1789139611745149400,5.5191494140625,0.009027874540919145,0.12192545846932565,-0.03980763871741496
1789139611755122400,5.529122314453125,0.016595305530270336,0.13166354559263752,0.004529869651654129
1789139611765095400,5.539095458984375,0.015118050987029565,0.0965180089122103,0.06516778091074434
1789139611775068400,5.549068359375,-0.006752630236267261,0.09125846776323114,-0.0010187169740511763
1789139611785041700,5.559041748046875,-0.008048876289832658,0.07837327583985558,0.01855660538858057
1789139611795014400,5.569014404296875,-0.02606815150862921,0.06608181419687681,0.0003922394855485914
1789139611804987400,5.5789873046875,-0.05458404116618821,0.043134797702572704,0.022243552649718577
1789139611814959600,5.588959716796875,0.0041199190462761276,0.05772866076038985,-0.0526711128049953
1789139611824932600,5.5989326171875,0.0008228430822583815,0.03464724255760361,-0.04036905110001915
1789139611834905300,5.6089052734375,0.01924113410530158,0.004013029568114847,0.002685042857117865
1789139611844878300,5.61887841796875,-0.029292587240556174,-0.03673240914710806,-0.01555495552529432
1789139611854851600,5.6288515625,-0.029865297254170375,-0.08039406495978617,-0.029823591279426825
1789139611864824600,5.638824462890625,-0.0812369550832285,-0.11711359050939413,0.04028146518897084
1789139611874797300,5.64879736328125,-0.08691501581782836,-0.15398661937478797,0.049865969663382734
1789139611884770300,5.658770263671875,-0.09833025180097422,-0.15224572118336485,-0.07652857525317651
1789139611894743600,5.66874365234375,-0.1104626767856825,-0.17115830003179966,-0.03794477291180394
1789139611904716500,5.678716552734375,-0.09818413291055073,-0.18114562334314227,0.08403242652583313
1789139611914689500,5.688689453125,-0.08217605102858166,-0.1881765569781187,0.029561761908837792
1789139611924662300,5.698662353515625,-0.08524943709370322,-0.16942177751526097,-0.09927678556484705
1789139611934635500,5.708635498046875,-0.05522523816243326,-0.1883085440910854,0.006728645792083725
1789139611944608500,5.7186083984375,-0.04435237340686668,-0.17185183556248382,0.09091342304853404
1789139611954581500,5.72858154296875,-0.054332778311584756,-0.16228620254102868,0.03652640668507332
1789139611964553500,5.738553466796875,-0.029385953046821067,-0.14506078232224084,0.008497083536908501
1789139611974526500,5.7485263671875,-0.042992369945307876,-0.11596396433965821,0.03490968145793459
1789139611984499500,5.75849951171875,-0.06608011849929563,-0.11056691573416039,0.06321150016623779
1789139611994472400,5.768472412109375,-0.04585880175088964,-0.07808315629798053,0.015711417187958134
1789139612004445400,5.778445556640625,-0.04323659598155709,-0.05234261301865674,-0.0342613199946387
1789139612014418400,5.78841845703125,-0.04150162998007731,-0.02249485829512323,0.03212398943194005
1789139612024391400,5.798391357421875,-0.017875645062915786,0.00039137521599673294,0.07376243984071464
1789139612034364400,5.808364501953125,0.04990371335021776,0.08073794943081482,-0.06057173956295265
1789139612044337400,5.81833740234375,0.02659318976527777,0.10606153545712156,-0.0004895849771809018
1789139612054310700,5.828310546875,0.03749057552324022,0.11682687368786916,0.036230254343248544
1789139612064283400,5.838283447265625,0.010989941645521467,0.13568481550790584,0.005442005348200794
1789139612074256400,5.84825634765625,0.01407094277388992,0.12920904101141778,0.02135010671385758
1789139612084229400,5.8582294921875,0.02910725893346038,0.14802587631589365,0.017079792599279362
1789139612094202600,5.86820263671875,0.021925820213898484,0.17288426267204296,0.020721666292387628
1789139612104175600,5.878175537109375,0.032703824448664306,0.1752072215013201,0.06179719817844252
1789139612114148400,5.8881484375,0.03720023868403358,0.15325392309355515,0.06628982048033628
1789139612124120600,5.89812060546875,0.028896194814924264,0.16779976161528645,0.022482912248453307
1789139612134093600,5.908093505859375,0.012201770217134266,0.13532652416139182,0.029525199803255582
1789139612144066600,5.918066650390625,0.03653447018543566,0.11192085211890565,0.052984320297939216
1789139612154039300,5.928039306640625,0.03854071026545799,0.12886848758489167,-0.009974895869820572
1789139612164012300,5.93801220703125,0.023654495471002283,0.10347839698845737,0.020228746707178794
1789139612173985000,5.947985107421875,0.017062093994161472,0.08527028163739193,-0.016959964786164492
1789139612183958000,5.9579580078125,0.038985151789783255,0.0890509522951785,-0.0567424321895196
1789139612193931000,5.967930908203125,0.02786052431569567,0.10153222612702106,0.0473465987837123
1789139612203904300,5.977904296875,0.02784578761208903,0.09397887897922273,0.02953701142142724
1789139612213877200,5.987877197265625,0.0007491875090333489,0.07648153141806743,-0.0363983370910898
1789139612223850000,5.99785009765625,-0.0032139257135245266,0.07708698515158653,0.05471383147296767
1789139612233823000,6.007822998046875,0.01677380934653916,0.08382738172262698,0.13772196985096954
1789139612243796200,6.017796142578125,-0.0019852283615091216,0.06307997549222694,0.07954446049201629
1789139612253769200,6.027769287109375,0.01524596557210812,0.03770584834047278,0.027040603492446028
1789139612263742000,6.037741943359375,0.050342713171334035,0.04363875268398229,0.06575760358477707
1789139612273714200,6.047714111328125,0.035964466769164365,0.061059939528888295,0.06412418431339457
1789139612283687200,6.057687255859375,0.019855524826920875,0.06303719214622244,0.004855347044893248
1789139612293660200,6.06766015625,0.011157955397013305,0.011642181513633918,0.004583290485071464
1789139612303633000,6.0776328125,0.03607525815103148,-0.02318904007646297,0.012631293250640751
1789139612313606100,6.087606201171875,0.0010284296613066169,-0.025515286379654167,0.029732760294978164
1789139612323579100,6.0975791015625,-0.05155636683528044,-0.0024816220784338277,-0.021689141471742314
1789139612333552000,6.10755224609375,-0.040451556224281864,-0.00874256053506859,-0.02410308100114955
1789139612343525000,6.117525146484375,-0.046052052473504156,0.012742407896517398,-0.03019882889503712
1789139612353497900,6.127497802734375,-0.04622380902859806,0.055337935282964754,-0.014952857495806996
1789139612363471000,6.13747119140625,-0.06845122240435253,0.05325187107291299,0.0263359593292272
1789139612373444000,6.147444091796875,-0.051305207728497434,0.09384512922081552,-6.616296582343708e-05
1789139612383417000,6.1574169921875,-0.021945611971395974,0.1484684055550107,0.019596118756211853
1789139612393390000,6.16739013671875,0.0011728073457267954,0.15765694764944957,0.03292086040204836
1789139612403363000,6.177363037109375,-0.0003058876588154835,0.1519146562302485,0.00022251316625327035
1789139612413336000,6.187336181640625,0.035595334425166006,0.13300488968635138,-0.004365907350546906
1789139612423309000,6.19730908203125,-0.025911890251286568,0.1850988230337886,-0.03876094390981688
1789139612433281300,6.20728125,-0.062122562060957995,0.1573392594973062,-0.007862083648377071
1789139612443254000,6.21725390625,-0.021134314923957256,0.14903435700231893,-0.10917217503972491
1789139612453227000,6.22722705078125,-0.029957476872733445,0.1180273810794922,-0.11795006257703755
1789139612463200000,6.237199951171875,-0.05398728297134058,0.12376294986145395,-0.14598275109864797
1789139612473173200,6.24717333984375,-0.06201803673726447,0.092353443294253,-0.11624711479339232
1789139612483146200,6.257146240234375,-0.06057131353123811,0.08644682962208416,-0.049618612445607155
1789139612493119000,6.267118896484375,-0.04673683334404076,0.06371503395720093,0.0051138430731504265
1789139612503092000,6.277092041015625,-0.025826719967802787,0.026650149902796762,0.024564454125008444
1789139612513065200,6.287065185546875,-0.04235540883787442,-0.006282821761923422,0.04314929420586057
1789139612523038200,6.2970380859375,-0.05585528852404245,-0.0322645636627646,0.04849106074938429
1789139612533011200,6.30701123046875,-0.07566565189523454,-0.06275623281544261,0.09843711431062457
1789139612542984000,6.31698388671875,-0.1028905199617132,-0.084887225945356,0.052670948856202354
1789139612552957200,6.326957275390625,-0.08705290786198473,-0.10449956548094526,-0.019623977822804943
1789139612562930200,6.33693017578125,-0.08026477597813679,-0.10867397658159139,0.014116509594725973
1789139612572903200,6.346903076171875,-0.10312757239796466,-0.1271560573213513,0.0026687689896839097
1789139612582875100,6.356875244140625,-0.14958868118523955,-0.14763269043739485,-0.015315584168028798
1789139612592848100,6.36684814453125,-0.11676875331515206,-0.11326439050634399,-0.04812448505428236
1789139612602821000,6.376821044921875,-0.08858971983928347,-0.09317325103012679,-0.049383832559212644
1789139612612794000,6.386794189453125,-0.06993594174812617,-0.08389053611262015,-0.037906545400176433
1789139612622766800,6.396766845703125,-0.06277797606870439,-0.06827939702395927,-0.06364816071189963
1789139612632740000,6.406739990234375,-0.08994778466318147,-0.07354706506471434,-0.0006609640568906899
1789139612642713000,6.416713134765625,-0.07164382622987182,-0.05175507009813522,0.03348926562952649
1789139612652686000,6.42668603515625,-0.04542959843058062,-0.0125326961327624,0.008852047011104406
1789139612662659000,6.4366591796875,-0.02050251267437897,0.016374859865099758,0.04655781843099206
1789139612672632000,6.446632080078125,0.002988626935404629,0.013405332135256092,0.052776286180786024
1789139612682605000,6.45660498046875,-0.00731747322712984,0.01164083287353824,0.031677218748507006
1789139612692578000,6.466578125,-0.019240230355409674,0.021445172988188436,-0.04999648722955739
1789139612702551000,6.476551025390625,0.0066642903880119115,0.02094751942426351,-0.015006218432227414
1789139612712524300,6.486524169921875,-0.011480946164827725,0.009585599749517625,0.00044446898474625806
1789139612722497000,6.4964970703125,-0.027926677266053784,-0.025629238860923196,-0.04561948300395722
1789139612732470000,6.506469970703125,0.005757064798815903,-0.04602528554478746,-0.01394378319303196
1789139612742442200,6.516442138671875,0.019917062155886938,-0.030857651319888633,0.047361385048803634
1789139612752415200,6.526415283203125,-0.035461760930757126,-0.07587066400373119,0.025285085301041257
1789139612762388000,6.536387939453125,-0.06510367542732495,-0.11790063707910398,0.01258126133253681
1789139612772361000,6.54636083984375,-0.09061674718842415,-0.12026494368531895,0.01735068320725091
1789139612782334200,6.556334228515625,-0.09129706870898198,-0.15453591446176848,0.07103342499339943
1789139612792307200,6.56630712890625,-0.0422122236795583,-0.15555784283869528,0.06173193360670713
1789139612802280200,6.5762802734375,-0.032034367194756656,-0.13001868915788542,0.0313863720857711
1789139612812253000,6.5862529296875,-0.05187908965652215,-0.13743236540420645,0.05497608200604162
1789139612822226000,6.596225830078125,-0.0970002357362669,-0.17543367239892846,0.0351085514503533
1789139612832199200,6.60619921875,-0.10909807278536816,-0.1691083913190354,0.07818183293446246
1789139612842172200,6.616172119140625,-0.08456797303348164,-0.14712841203022145,0.03413972961825268
1789139612852145200,6.626145263671875,-0.06829412521118484,-0.139994299114107,0.024359737431600092
1789139612862118000,6.636117919921875,-0.05288806690709653,-0.10213322075662137,-0.012646939829114853
1789139612872091100,6.646091064453125,-0.022792958679887964,-0.10716053276319326,0.0473010051557862
1789139612882064100,6.656064208984375,0.014083527435899672,-0.07516632313086195,0.016407243535733158
1789139612892037000,6.666037109375,-0.010622646963565095,-0.05456265551898167,-0.016774408589350944
1789139612902009000,6.676009033203125,-0.003467596416559062,-0.055067923793660364,-0.03437934907742977
1789139612911982000,6.685982177734375,-0.055728432377617335,-0.06623092038058451,0.033913766223804556
1789139612921955000,6.695955078125,-0.04012381333653102,-0.07646597970421652,0.06323683712999996
1789139612931928000,6.705927978515625,0.004857229822014775,-0.05816104701519637,-0.02743613164522176
1789139612941901300,6.7159013671875,0.0226522946643476,-0.05410581983932868,0.001868987454923264
1789139612951874000,6.7258740234375,0.07344785736840888,-0.06137266061304759,0.08613901190989028
1789139612961847000,6.735846923828125,0.052627312022356355,-0.08286397581038907,0.06027791448881872
1789139612971820000,6.745820068359375,0.034427956827711666,-0.12407415560999599,0.011359796608773893
1789139612981793300,6.755793212890625,-0.018739750926136618,-0.15377864653455844,0.012156696364188053
1789139612991766000,6.76576611328125,-0.01705795199971977,-0.16976624917465558,-0.0025696192137645035
1789139613001739000,6.775739013671875,-0.03964576757035738,-0.18708223929480264,-0.049238217178506
1789139613011712000,6.7857119140625,-0.04417840317875474,-0.1880339557405142,-0.09141466598995172
1789139613021685200,6.795685302734375,-0.047875233346919774,-0.1900387530386131,-0.061820364954093904
1789139613031658200,6.805658203125,-0.03427362815791385,-0.19251873919724558,-0.009016209174880501
1789139613041631000,6.815630859375,-0.036221053997944584,-0.19084282557821305,0.01207118442588893
1789139613051604000,6.82560400390625,-0.029016983718098636,-0.16080249017023762,-0.05207347433124891
1789139613061577000,6.835576904296875,0.001968226677775407,-0.13107880026347632,-0.006048492944526892
1789139613071549200,6.845549072265625,0.003303886336539734,-0.08643122890390757,0.03045034742187808
1789139613081522000,6.85552197265625,-0.0024269551988956883,-0.08584657658792388,-0.015525665049972196
1789139613091495000,6.865494873046875,0.0483436797571018,-0.0538636028661375,-0.09656238287548123
1789139613101468200,6.87546826171875,0.038735391026798585,-0.03446484418126368,-0.016845631182364776
1789139613111441200,6.885441162109375,0.05955049725543856,-0.0004738558043872361,-0.06702118175960943
1789139613121414100,6.8954140625,0.047820936166810955,-0.002108735307610495,-0.04709043373823012
1789139613131387000,6.905386962890625,0.061211898401277505,0.024019661511790587,-0.050041056801229826
1789139613141360000,6.915360107421875,0.05873783645417034,0.03220947808037928,-0.051354172921924054
1789139613151333000,6.9253330078125,0.04414743996322135,0.05313652230164882,-0.06465742199848552
1789139613161306000,6.93530615234375,0.05856137610593019,0.05447630470481916,-0.043255658002230066
1789139613171278800,6.94527880859375,0.0861183844445472,0.0692959067415714,-0.04631210965369992
1789139613181252000,6.955252197265625,0.09626490138840076,0.06263176999960222,-0.008929751936599534
1789139613191225000,6.96522509765625,0.10866179931055138,0.07428518612755093,-0.015174230265306912
1789139613201197800,6.97519775390625,0.11464139115519596,0.07947799870987626,-0.02545241051719518
1789139613211170800,6.9851708984375,0.13168319712693288,0.07491767870048106,0.013392023818560573
1789139613221144000,6.99514404296875,0.09791226607091014,0.05818675255497924,-0.0013938275394419263
1789139613231116000,7.005115966796875,0.08234962456319946,0.04984453052759838,-0.05918706848271636
1789139613241088800,7.0150888671875,0.06515258908528158,0.013468771247253623,-0.02502070926042915
1789139613251062000,7.02506201171875,0.03940181761566577,0.011191850108615623,-0.02246371640893373
1789139613261035000,7.035034912109375,0.057383195266120526,0.006568137951122423,-0.06837809085496174
1789139613271008000,7.045008056640625,0.0766586711882604,0.020073583788719592,-0.05466123850508461
1789139613280981000,7.05498095703125,0.07649516089057237,0.029643574677727026,-0.008564288205167912
1789139613290954000,7.0649541015625,0.07589156915792662,0.028675428224139446,0.017094770875396792
1789139613300927000,7.074927001953125,0.06985476084925575,0.0368374746805772,-0.010431626525498923
1789139613310900000,7.08489990234375,0.06541937436790463,0.04155078532304642,-0.016458776103453476
1789139613320873000,7.094873046875,0.09144374405380992,0.03971765081159988,0.003255196417151286
1789139613330846000,7.104845947265625,0.0646055078789697,0.056487287409902644,-0.005619113247715311
1789139613340819000,7.11481884765625,0.05623065652753944,0.041430518925628865,-0.02134799719167032
1789139613350792000,7.1247919921875,0.06810620160186984,0.039199469943992114,0.0022732086873806434
1789139613360765000,7.134764892578125,0.028852669892590038,0.05775845666276659,-0.002849717335601229
1789139613370738000,7.144738037109375,0.01196781767647947,0.06761195190342834,-0.009485658972646055
1789139613380711200,7.154711181640625,0.06682085898454257,0.08476787365684059,0.00686989621987291
1789139613390683000,7.164682861328125,0.06036561251081263,0.1259495155022087,0.021208300100226722
1789139613400656000,7.17465576171875,0.04900255760007057,0.13004634501513712,0.004069845846488591
1789139613410629000,7.184629150390625,-0.0045663428851900195,0.09851510976178497,-0.017687855711759282
1789139613420601900,7.194601806640625,0.01982242365700417,0.1029760047025263,0.03431644321005757
1789139613430574800,7.204574951171875,-0.0036189282731752684,0.09941790974015235,0.035996651724192946
1789139613440547800,7.2145478515625,0.01524427684195285,0.09973410279092411,0.02383563101800481
1789139613450521000,7.22452099609375,0.00371088026295597,0.1023230314581211,0.012894434897911481
1789139613460494000,7.234494140625,0.04081189527126981,0.11374800312024227,0.029654820178904202
1789139613470466800,7.244466796875,-0.021672126064132262,0.10673999943139632,-0.008748156355417563
1789139613480439800,7.254439697265625,0.009395184331129293,0.09827079165978643,-0.1243214338824119
1789139613490413000,7.2644130859375,-0.015169317048269581,0.10052778120317903,-0.13222159005460082
1789139613500386000,7.274385986328125,-0.03441360352647794,0.0734479897043951,0.07634199372464014
1789139613510359000,7.284359130859375,-0.03870649051999401,0.0840375101327347,0.04255734856693366
1789139613520331800,7.294331787109375,-0.03344425263469843,0.12073760185938547,-0.16783314110323608
1789139613530305000,7.304304931640625,-0.028399487962337676,0.09978380178569642,0.06438653059344475
1789139613540278000,7.314278076171875,-0.005031791659133696,0.10876738282454633,0.19679567755731295
1789139613550251000,7.3242509765625,-0.035005886268676324,0.1253781765053919,0.025775311082594166
1789139613560224000,7.33422412109375,-0.0068232889326212,0.11247404222398037,-0.004545754542725279
1789139613570196000,7.344196044921875,-0.030040779142486446,0.10180684642874517,0.06435522515073573
1789139613580169000,7.3541689453125,-0.04079715934503828,0.08798648231503911,0.04756841987024285
1789139613590142000,7.364141845703125,-0.047010187675431594,0.05808836629171756,-0.015517126790429568
1789139613600115000,7.374114990234375,-0.04080797302529244,0.0498681157708506,-0.03123868321725818
1789139613610088000,7.384087890625,-0.02701770407256343,0.04092604610343175,-0.036687671814400385
1789139613620061000,7.39406103515625,-0.04479737647008624,0.007417821856749396,-0.03952293235879458
1789139613630034000,7.404033935546875,-0.055662927614306974,-0.018770928982362795,-0.058510513427376516
1789139613640007000,7.4140068359375,-0.056928675171950785,-0.04687761456147969,-0.08520592657722198
1789139613649980200,7.423980224609375,-0.10243889899296174,-0.0860075423896393,-0.051357018695568406
1789139613659953000,7.433952880859375,-0.11557434674316125,-0.10929280536287217,-0.03303651573402963
1789139613669926000,7.44392578125,-0.09692834255997557,-0.12480774341610466,-0.039567719081134954
1789139613679899000,7.45389892578125,-0.09846134820557359,-0.1321346416133374,-0.04274156363190744
1789139613689872100,7.4638720703125,-0.08800931740688624,-0.14709625369835352,-0.0037173202936803206
1789139613699845000,7.47384521484375,-0.08496984681045995,-0.15468027008137025,0.04229473351698892
1789139613709817900,7.48381787109375,-0.10244406105110034,-0.1477830118532891,0.0020197730221559232
1789139613719790800,7.493790771484375,-0.09693299747517721,-0.13017824528710162,-0.015567395907832775
1789139613729764000,7.50376416015625,-0.08260842945455134,-0.0927944046128129,-0.02451267174048249
1789139613739737000,7.513737060546875,-0.07555120880327384,-0.08641760732934764,-0.0517963213665922
1789139613749708800,7.523708740234375,-0.07035311701540076,-0.09188218938582825,-0.08983615515927923
1789139613759682000,7.53368212890625,-0.07417962745306066,-0.07980428618013334,-0.10565024207126358
1789139613769655000,7.543655029296875,-0.06286601489860179,-0.06897761080600291,-0.07105431950458359
1789139613779628000,7.5536279296875,-0.047020603875542764,-0.03915491802153338,-0.06859985512369907
1789139613789600800,7.563600830078125,-0.044852351423481394,-0.02720556210218905,-0.0395515727112892
1789139613799574000,7.573573974609375,-0.04133383844226129,-0.009328034496152118,0.002916864847772932
1789139613809547000,7.583547119140625,-0.052497692605460076,-0.01710657695219866,-0.02719154939164108
1789139613819520000,7.59352001953125,-0.026873304177498294,-0.021541054680092674,-0.026623864117202082
1789139613829493000,7.603492919921875,-0.03952151467739794,-0.05619115935533558,-0.000859178958469873
1789139613839466000,7.613466064453125,-0.0422861352551827,-0.07077766407578358,0.007908440382929937
1789139613849439000,7.62343896484375,-0.050048520678507145,-0.048168480097692784,-0.08345275940097348
1789139613859412000,7.633411865234375,-0.09143622931836248,-0.07111937529513163,-0.051167673319945456
1789139613869385000,7.643385009765625,-0.08057573146089031,-0.1169629411948116,-0.010621942390146261
1789139613879358000,7.65335791015625,-0.08820572727815813,-0.11261171952275234,-0.04828178093873562
1789139613889331000,7.6633310546875,-0.07725663693599512,-0.1274006360226882,-0.020697928189744922
1789139613899304000,7.673303955078125,-0.027068965022336924,-0.1480738912355515,0.0025875784517105545
1789139613909277000,7.68327685546875,-0.03278721897299262,-0.14141394323874737,-0.01045672949563374
1789139613919249200,7.693249267578125,-0.06752922857779238,-0.1390658205817545,-0.026138796981809594
1789139613929222000,7.703221923828125,-0.07823249680301848,-0.14002918940206344,-0.015289570435246676
1789139613939195000,7.71319482421875,-0.058012097672139204,-0.1283494865434893,-0.0011467512460418775
1789139613949167900,7.72316796875,-0.06529890159509456,-0.12956822752920016,-0.009777873305258934
1789139613959141000,7.73314111328125,-0.020177988081740778,-0.12103133118910607,0.024198250063444532
1789139613969114000,7.743114013671875,-0.005113437242652814,-0.09388705351099118,0.060000517035414036
1789139613979086800,7.7530869140625,-0.016751082654143146,-0.09806098533581468,0.041580386373423615
1789139613989059800,7.763059814453125,-0.006305999131121575,-0.12008472078708672,0.10893513681721885
1789139613999033000,7.773033203125,0.0164289624406273,-0.09091341604168778,0.10236532981673292
1789139614009006000,7.783006103515625,0.033248710358599366,-0.06682303632385879,0.03154596279991634
1789139614018979000,7.79297900390625,0.07211267694491674,-0.06569556634521678,0.0420812674970377
1789139614028951800,7.802951904296875,0.0529363049753855,-0.10013142807116807,0.05161679927967513
1789139614038925000,7.812925048828125,0.05351045216569448,-0.12241004502841947,0.03526448325190737
1789139614048898000,7.82289794921875,0.011390027734630413,-0.10232264916698029,-0.0084110466293997
1789139614058871000,7.83287109375,0.03966770636662963,-0.08417896259560481,0.007515448134242448
1789139614068844000,7.842843994140625,0.027592578798441285,-0.09532417363115449,0.016135469477878486
1789139614078816800,7.852816650390625,0.03787427632525052,-0.08646782218191869,0.033335864175162454
1789139614088789000,7.8627890625,0.03722760288262871,-0.08118592094409052,0.02330460112575015
1789139614098762000,7.872761962890625,0.028584712375114445,-0.06498378541732584,0.013513419954286381
1789139614108734700,7.882734619140625,-0.004657451880636623,-0.0626983346173643,0.061232471998675445
1789139614118708000,7.8927080078125,0.001970706740461212,-0.04386613438360923,0.09039087576720085
1789139614128681000,7.902680908203125,0.06105725198252602,-0.006867551434379275,0.06659215096248079
1789139614138654000,7.912654052734375,0.06880017912768112,0.008768601019603004,0.0909824889853472
1789139614148627000,7.922626953125,0.09913073093640602,0.044428110989637636,0.07118304496280099
1789139614158600000,7.932599853515625,0.09294192087097124,0.052500056147869664,0.026105372108148908
1789139614168573000,7.942572998046875,0.06821152308831376,0.05829115819836181,0.05553834479649638
1789139614178546000,7.9525458984375,0.059772437541411975,0.05337946246644193,0.04050550998144649
1789139614188519000,7.962518798828125,0.045527813724155354,0.0664689360618124,-0.02333469177221247
1789139614198492200,7.9724921875,0.027660003914841916,0.06273439707759101,-0.014912206485601254
1789139614208465200,7.982465087890625,0.07298954244979838,0.06760618605769328,-0.03092307616271408
1789139614218438000,7.99243798828125,0.05163821385578981,0.0639861019590682,-0.06303151468951318
1789139614228411000,8.002410888671875,0.05762296811785641,0.03970587732805784,-0.0037191739857280505
1789139614238384000,8.012384033203125,0.06686034027685299,-0.0015741479654977195,0.02698987304764831
1789139614248357000,8.022357177734374,0.05579797986515542,0.011086206077081329,0.019273868978555115
1789139614258330000,8.032330078125,0.07465897265818282,-0.0004679339506971723,0.01170682414248276
1789139614268302800,8.042302734375,0.0777306077260441,-0.02174624019699461,0.06053302683708082
1789139614278275000,8.052275146484375,0.04059732726955782,-0.01705932337191247,0.055492237731929774
1789139614288248000,8.062248046875,0.026967902387124747,-0.034178449730860386,0.024299267230706245
1789139614298221000,8.072220947265626,0.03254024304264496,-0.04431614229579168,0.01620222044133196
1789139614308194000,8.082194091796875,0.0036272814346249636,-0.03585427692348608,0.03909748031299498
1789139614318167000,8.0921669921875,0.03562437970614627,-0.04537991504812763,0.035724667398195374
1789139614328140000,8.10214013671875,0.03331071122749152,-0.06276001224212217,0.002943494883557002
1789139614338113000,8.112113037109374,0.03724761235416599,-0.047046182622744306,-0.015803699780190316
1789139614348086000,8.1220859375,0.010327943717341751,-0.04574328385259275,-0.010299523212098932
1789139614358059000,8.13205908203125,0.017486897597545063,-0.07858182816519978,0.007533616123085002
1789139614368032000,8.142031982421875,0.04020936576717438,-0.060018131452553684,0.018101401178789597
1789139614378005000,8.1520048828125,0.041909083493859835,-0.054565103086288896,0.0018765774962877547
1789139614387978000,8.16197802734375,0.042826243231986874,-0.056653308426932655,0.0057762469742653885
1789139614397951000,8.171950927734375,0.058965787396858205,-0.06867179520759012,0.03132949303672189
1789139614407924000,8.181924072265625,0.02520480425426315,-0.07221534281618142,-0.032698850257066446
1789139614417897000,8.19189697265625,0.0004373340425886924,-0.06835833712035322,-0.0329561982130013
1789139614427870000,8.201869873046874,0.007638756833338176,-0.06793539324040197,0.028641359807448287
1789139614437843200,8.21184326171875,0.02747797339822637,-0.057044275241203264,0.006614686159987516
1789139614447816000,8.22181591796875,0.03338023803937271,-0.046267340563214666,-0.019838272879246565
1789139614457788000,8.231787841796875,0.06949966083265992,-0.05175890295258932,-0.023267501304803748
1789139614467761200,8.24176123046875,0.03855382467074089,-0.05010297072287694,-0.009595851098868138
1789139614477734100,8.251734130859376,-0.003630363354394607,-0.05829853037591205,0.005221231839203677
1789139614487707000,8.261706787109375,0.03983339847026767,-0.08442246501546682,-0.054560000825231006
1789139614497680000,8.271679931640625,0.039094854535004754,-0.07158736365889617,-0.052673285008829396
1789139614507653000,8.281653076171875,0.024160717110995843,-0.0489993000962113,0.00903013649507157
1789139614517626000,8.291626220703124,0.047868740219990026,-0.0680780352813089,0.021667177978608804
1789139614527599000,8.30159912109375,0.06715711486693067,-0.054642712859277444,-0.007406312397049014
1789139614537571800,8.31157177734375,0.05078261630734532,-0.021874280896329444,-0.010597974335221312
1789139614547544800,8.321544921875,0.02695545292453747,-0.04716841498495387,0.02168503649928281
1789139614557518000,8.33151806640625,0.03809548873632718,-0.04895236185684943,0.033765024884714445
1789139614567491000,8.341490966796876,0.06086949272056512,0.0017518590184430344,0.002476232554758841
1789139614577464000,8.351464111328125,0.05895733119738195,0.0011431104833937852,-0.008193635395204447
1789139614587436800,8.361436767578125,0.11232666218864282,0.013031951551890287,-0.02613983052798483
1789139614597410000,8.37141015625,0.08788360198396675,0.027053490292655972,-0.023255068843972295
1789139614607383000,8.381383056640624,0.11080823572189707,0.08111834528757142,0.004749316519828149
1789139614617356000,8.39135595703125,0.11380225783775161,0.12754779369564564,-0.010113347407463462
1789139614627329000,8.4013291015625,0.1595276211897381,0.13457212067882457,-0.042346020775365936
1789139614637302000,8.411302001953125,0.12470877512163571,0.14744418344376645,-0.052467801409550374
1789139614647274000,8.42127392578125,0.09113584733757102,0.1307676853007329,-0.028709645342612482
1789139614657247000,8.4312470703125,0.08129818374294566,0.09650405327747272,-0.004115702333931989
1789139614667220200,8.44122021484375,0.07456708408790216,0.10464719730838931,-0.026702278863767376
1789139614677193000,8.45119287109375,0.08839608292591984,0.10278162628669374,-0.022533978127768375
1789139614687166000,8.461166015625,0.10598763499618225,0.09769211489995383,-0.02471345720613263
1789139614697139000,8.471138916015626,0.0884288262119689,0.09955130635422134,0.005215247766112618
1789139614707112200,8.4811123046875,0.06974549046376673,0.09919318219895662,0.02477042577577476
1789139614717085200,8.491085205078125,0.04743376370473061,0.07044636841419173,-0.005967433620563908
1789139614727058000,8.501057861328125,0.03579821530294356,0.07068752596565608,-0.02157071064238804
1789139614737031000,8.511031005859374,0.07326042130288399,0.09165230275343697,-0.004878106506167479
1789139614747004200,8.521004150390626,0.08950718358674271,0.0997645430566746,-0.00988958059046967
1789139614756977200,8.53097705078125,0.09572715199089496,0.10121196010856624,-0.03735036193738435
1789139614766950000,8.540949951171875,0.05270056117183315,0.11503494399885297,-0.03493252289548829
1789139614776923000,8.5509228515625,0.0782866917600182,0.10583284120280129,-0.02425860800795838
1789139614786896000,8.560895751953124,0.06448098464750332,0.12281155391766548,-0.024107502244542334
1789139614796869000,8.570869140625,0.07406617044752584,0.1374768455716338,-0.000577914573584082
1789139614806842000,8.580842041015625,0.10469507599339448,0.14498284550080315,-0.022580414608142873
1789139614816814800,8.59081494140625,0.11012328252532988,0.14421797908887338,-0.01608502599191843
1789139614826787800,8.600787841796874,0.11786405782940722,0.16189987716025447,-0.04502671293943592
1789139614836760000,8.610760009765626,0.08350736863657378,0.1259844255882602,0.03331409252330663
1789139614846733000,8.620733154296875,0.0351605448157538,0.13161566628899846,0.032096428296727604
1789139614856705800,8.630705810546875,0.05345292801503268,0.14279629637532212,0.0547726086350997
1789139614866679000,8.640678955078124,0.05198769319413171,0.1579610409498878,0.003959389950512414
1789139614876652000,8.650652099609376,0.06294626617813287,0.1351877475437814,0.03850987788697773
1789139614886625000,8.660625,0.06076144219946887,0.11722827611658275,0.007382112191438683
1789139614896598000,8.670597900390625,0.0702372357911782,0.11784951726569716,0.0038471362106075407
1789139614906571000,8.680571044921875,0.027760064843733834,0.12363432544742325,-0.015294985993074032
1789139614916544000,8.6905439453125,0.04600238824430422,0.11281999641563,0.012527731926220873
1789139614926517000,8.70051708984375,0.055744094577068325,0.13974464871987452,0.0036787413662141364
1789139614936490000,8.710489990234375,0.057464221397354284,0.12815471160747577,0.04509542619812548
1789139614946463200,8.720463134765625,0.062036363043727595,0.10524644560790779,0.029092229380830024
1789139614956436000,8.73043603515625,0.04675606592914014,0.09146354552914927,0.027576911887813582
1789139614966409000,8.740408935546874,0.06349575572906334,0.08679971378663492,0.02828512551062664
1789139614976382000,8.7503818359375,0.08259445222777186,0.09471831116458089,0.014419581392471523
1789139614986355000,8.76035498046875,0.06141415418902276,0.1278593821181353,-0.02304819156919229
1789139614996328200,8.770328125,0.05251899837636197,0.11398167868819978,0.004468550906907235
1789139615006301000,8.780301025390624,0.0360578408094159,0.09183892441992654,-0.01589220947659803
1789139615016274000,8.79027392578125,0.001797322625497929,0.09257631727696652,-0.05596533376770101
1789139615026247000,8.800246826171875,0.04650185201045037,0.10658852454504575,-0.058188129184879485
1789139615036219100,8.81021923828125,0.05249645700392327,0.10969211503528714,0.00095723335705763
1789139615046191900,8.82019189453125,0.07767460886159977,0.12562493391744908,-0.019031795116121828
1789139615056164900,8.830164794921876,0.07080612090946707,0.15234719515456338,-0.02873382828121513
1789139615066138000,8.84013818359375,0.042553153779586905,0.163975051894315,-0.021110745309619417
1789139615076111000,8.850111083984375,-0.0014735170373345182,0.14899680924705083,0.057010777113792
1789139615086083800,8.860083740234375,0.06259817569124962,0.1857024149970977,0.029935303630945754
1789139615096056800,8.870056884765624,0.07081849304784663,0.21865196881584179,-0.022216847159577252
1789139615106030000,8.880030029296876,0.0771604119297893,0.20924323723741978,0.013563194622413108
1789139615116003000,8.890003173828125,0.04583216392063188,0.18308412720424844,0.04742316597153237
1789139615125976000,8.89997607421875,0.06070797321528526,0.1849618541131343,0.0077996060474974345
1789139615135948800,8.90994873046875,0.022273774571212004,0.18100483284937338,-0.041763912320231286
1789139615145922000,8.919922119140624,0.07884356184508713,0.19432253386445728,-0.03754512882820951
1789139615155895000,8.92989501953125,0.06216678885276301,0.17990681905026373,-0.04361681278215292
1789139615165868000,8.939867919921875,0.08787239666529444,0.1844929458684323,-0.04473326821018974
1789139615175841300,8.94984130859375,0.056592938265270565,0.16767219296966537,-0.06422784445953404
1789139615185814000,8.95981396484375,0.03864752910681858,0.13178138503032927,-0.01592752857418165
1789139615195787300,8.969787353515626,0.007557907569040252,0.14044628108702778,-0.01479874824930684
1789139615205760300,8.97976025390625,0.03878959451946567,0.13650720729317248,0.012810560082520546
1789139615215733200,8.989733154296875,0.04637406835756008,0.11471081432539278,-0.024177230079819808
1789139615225705200,8.999705322265624,0.05219384188218342,0.1334359613879544,0.020710517032803754
1789139615235678200,9.00967822265625,0.01675889619660569,0.11659331878017291,0.055622696729826164
1789139615245651200,9.019651123046875,0.011066595703377665,0.09930671411292932,-0.004364159196707215
1789139615255624200,9.029624267578123,0.006636064405100263,0.09605535246360875,0.04917618756849825
1789139615265597200,9.03959716796875,0.02536780617553191,0.12436547395338952,0.05236369525550606
1789139615275570200,9.049570068359374,0.035059264708901736,0.1381246222741638,-0.025611285520160745
1789139615285543200,9.059543212890626,0.0562805285373944,0.13101790656277243,-0.0440098744093506
1789139615295516200,9.06951611328125,0.04434539929821985,0.12138601054512228,0.009360171743917067
1789139615305489400,9.079489501953123,0.025656713081168604,0.11084296634104399,-0.014781020150447863
1789139615315462100,9.089462158203125,0.014596259303430777,0.11612567431742095,-0.04637651785629444
1789139615325435100,9.09943505859375,0.020083280524773744,0.13703722570780932,-0.05304401452163416
1789139615335408000,9.109408203125,0.04703515329581105,0.141919951249636,-0.04668321648342856
1789139615345381400,9.11938134765625,0.056701627764068174,0.15083368481593565,-0.025621149804816737
1789139615355354400,9.129354248046877,0.03498747905773863,0.15720243154997945,-0.022810853070227923
1789139615365327000,9.1393271484375,0.03955313009670821,0.147738599464971,-0.010840793302006935
1789139615375300000,9.149300048828126,-0.00559857614718058,0.15671545803930417,-0.017247823219810297
1789139615385273300,9.1592734375,0.000117758161877577,0.1839897219303949,-0.020869941048637645
1789139615395246300,9.169246337890623,0.013110529091768196,0.1866559278738765,0.019672650406301066
1789139615405219300,9.17921923828125,0.04485154308901147,0.22609302699132242,0.03449617838172534
1789139615415192000,9.189192138671874,0.029514641492596184,0.23702460865573793,0.0011342021047829204
1789139615425164300,9.199164306640624,-0.0024525360278042636,0.22571532010307852,-0.00426425643302393
1789139615435137300,9.20913720703125,-0.016271455648034373,0.1945348505119041,0.030071291181171796
1789139615445110300,9.2191103515625,-0.0012842863681281195,0.20334220788716778,0.08633159259610493
1789139615455083000,9.2290830078125,0.010649700975950633,0.20078492422562516,-0.01391167758906557
1789139615465056300,9.23905615234375,-0.006343673465464141,0.1785502278601841,-0.039559668729302215
1789139615475029200,9.249029296875,-0.004985035495135047,0.1355322512174884,0.06069230546851132
1789139615485002200,9.259002197265623,-0.011095673881145202,0.142771731884344,0.02078758400898752
1789139615494975200,9.268975341796876,-0.06008152847020393,0.10200368969651079,0.024616863562576082
1789139615504948200,9.2789482421875,-0.037324138322641906,0.07737481432879748,-0.006692579946832395
1789139615514921200,9.288921142578126,-0.09325507005289697,0.027811226051259116,0.024168096296514573
1789139615524894200,9.298894287109375,-0.06732056419492134,0.0008608215690006818,0.06783931834481775
1789139615534867200,9.3088671875,-0.08453164029802199,-0.004975045308179022,0.03827460540236593
1789139615544840200,9.318840087890624,-0.08855991005326198,-0.023990700976348058,0.02618643526199247
1789139615554813200,9.328813232421876,-0.12682313128930026,-0.03974581933288413,0.0600782483941365
1789139615564786200,9.3387861328125,-0.14524531262011567,-0.05309486633327766,0.07520695996482367
1789139615574759200,9.34875927734375,-0.17151442004843667,-0.044980112348368094,0.027754817471015776
1789139615584732400,9.358732421875,-0.10484540457760709,-0.07987858415577566,0.09884686059013659
1789139615594705200,9.368705078125,-0.09321723676828736,-0.03882901546148602,0.05784619121015027
1789139615604678100,9.37867822265625,-0.09435352764213474,-0.03949664196206631,-0.06359876042830963
1789139615614651100,9.388651123046875,-0.11420471444387803,-0.08030069159310449,-0.023348981336908603
1789139615624624000,9.3986240234375,-0.1614761186796549,-0.08744828465156856,-0.01351893751565762
1789139615634596000,9.40859619140625,-0.20470625838809936,-0.059156379635617824,-0.07686378437745109
1789139615644569000,9.418569091796876,-0.16090551366865657,-0.06236759426877733,-0.014098614462481897
1789139615654542000,9.4285419921875,-0.11221842502485169,-0.034044812104774246,0.07895086060035277
1789139615664515300,9.438515380859377,-0.10630081408945585,-0.010536253017790756,0.04778815204697617
1789139615674488300,9.44848828125,-0.10463473766344175,-0.038219505682400956,0.07542912536312175
1789139615684461000,9.4584609375,-0.132896221260463,-0.07662601220571384,0.08892737473859462
1789139615694434000,9.46843408203125,-0.17569919555505456,-0.09945241858385234,0.0950764340129796
1789139615704407300,9.4784072265625,-0.15866047808320893,-0.1169141155060264,0.0782841080634501
1789139615714380300,9.48838037109375,-0.10326500912699131,-0.09628134159810067,0.01990205368396842
1789139615724353300,9.498353271484374,-0.11617838202271827,-0.1160639059643592,0.032827713555547124
1789139615734326000,9.508325927734376,-0.15478087303442647,-0.1522630681351356,-0.006347795444681186
1789139615744299300,9.51829931640625,-0.15940770996717843,-0.19432121396322483,-0.01627649164574395
1789139615754272300,9.528272216796877,-0.1567586789486597,-0.17542296406198613,0.0007518174592978068
1789139615764245200,9.538245361328125,-0.18499906819544476,-0.19599443772505978,-0.03846865121471587
1789139615774218200,9.54821826171875,-0.1307176249475216,-0.1987131363558028,-0.09173605565539514
1789139615784191200,9.558191162109376,-0.16991120161156356,-0.19764389358657386,-0.022475680224409232
1789139615794164200,9.568164306640623,-0.17579897332518649,-0.21137903305236033,0.04656978635265852
1789139615804137200,9.57813720703125,-0.1641894561486325,-0.23321691748763118,0.04775185827576202
1789139615814110200,9.588110107421874,-0.13459472726075222,-0.21487635107398595,-0.029177103295825207
1789139615824083500,9.59808349609375,-0.15184384170605034,-0.2248737466421642,-0.008745125305608196
1789139615834056200,9.60805615234375,-0.15199177335413555,-0.2520467466264209,0.03206299765532674
1789139615844028200,9.618028076171877,-0.12966423580034622,-0.22519983942565194,0.010339522383867768
1789139615854001400,9.62800146484375,-0.11603326906141735,-0.18040351848407224,-0.04798148576183572
1789139615863974100,9.63797412109375,-0.13037542193459442,-0.1898427512940096,-0.03469879800533391
1789139615873947100,9.647947021484375,-0.1449244015154252,-0.20237185892294587,-0.036436587380988435
1789139615883920100,9.657920166015623,-0.16932180018993476,-0.1816961903276674,-0.053434902099557466
1789139615893893000,9.66789306640625,-0.1078342263212064,-0.19656627050804895,-0.03112651272823873
1789139615903866400,9.677866455078124,-0.07242238922847301,-0.1546563847222648,-0.04713049679833682
1789139615913839000,9.687839111328126,-0.06838425221659118,-0.13183464985567817,-0.06792516084644165
1789139615923812000,9.69781201171875,-0.04526197346689062,-0.14048655879050714,-0.07938527865860287
1789139615933785000,9.70778515625,-0.10158151712696717,-0.16297816143216146,-0.0659953332534365
1789139615943758300,9.71775830078125,-0.1015989525319564,-0.15184271856676038,-0.05992907504140509
1789139615953731300,9.7277314453125,-0.09970944006251205,-0.15197984053722666,0.015976256983819048
1789139615963704000,9.7377041015625,-0.04572031261567136,-0.100540918297555,0.018132680271831514
1789139615973677000,9.747677001953123,-0.01830678469838108,-0.05749494463095353,-0.016588767092050306
1789139615983650300,9.757650390625,-0.012640839317495026,-0.050964805306365275,0.013750698132699194
1789139615993623300,9.767623291015624,-0.019746982437958676,-0.04675386214033136,0.0026211455374472404
1789139616003596300,9.77759619140625,-0.024994408750064763,-0.06133827241045165,0.036945476664701944
1789139616013569000,9.787569091796875,0.01774748146986226,-0.0395778203669119,-0.04035915305711092
1789139616023542300,9.797542236328123,0.03426297183769703,0.003080655948471311,-0.06996361391734393
1789139616033515300,9.807515380859376,0.06019445947673279,0.005862289104922638,-0.04273562218983166
1789139616043488300,9.81748828125,0.04162900613127979,0.009125692481850514,-0.022338598729359328
1789139616053460200,9.827460205078124,0.03437025545579815,0.013173714733683738,-0.0002847046028119857
1789139616063433200,9.83743310546875,0.04057684941242011,0.03383860131072419,-0.03995914020668919
1789139616073406200,9.84740625,0.0496372225331787,0.012066995576278838,0.013105427660636246
1789139616083379200,9.857379150390624,0.056012008723141715,0.01344723938116046,0.015390467830252582
1789139616093352200,9.867352294921876,0.06844363200800327,0.042403221319943125,-0.016102722986330066
1789139616103325200,9.8773251953125,0.045959247224799625,0.054038221636406605,-0.016925522702617556
1789139616113298200,9.887298095703123,0.04927676360292699,0.025397378622715787,0.03228328934369636
1789139616123271200,9.897271240234376,0.03489160981795565,0.02726759908567227,0.001520800762400438
1789139616133244200,9.907244140625,0.04644867924355822,0.04483218761419249,-0.05353692815492717
1789139616143217400,9.917217529296876,0.08307042485504826,0.04673578366339667,-0.051227319465610335
1789139616153190100,9.927190185546875,0.09283332109274976,0.07060586394791057,-0.03607149090981927
1789139616163163100,9.9371630859375,0.0937724104830518,0.0979474710638842,-0.06591242303858262
1789139616173136000,9.947135986328124,0.08069617177049775,0.08555863096736051,-0.02449028454767809
1789139616183109000,9.957109130859376,0.08890269736309601,0.10243676334657642,-0.011918613313110126
1789139616193081900,9.967081787109375,0.048840589003572236,0.12119344706177629,-0.027591074416704036
1789139616203054800,9.977054931640623,0.10606065981761492,0.14368352670538215,-0.01730353268461675
1789139616213027800,9.98702783203125,0.11088169391242113,0.1590014978920947,0.016668352044491335
1789139616223001000,9.9970009765625,0.1196785418847885,0.1508255841317297,0.027005093319460476
1789139616232974000,10.00697412109375,0.09475125560272603,0.13854313642716196,0.027951443662040054
1789139616242946800,10.01694677734375,0.10332098440067225,0.13930228677126852,0.026188949113220086
1789139616252919800,10.026919921875,0.07189211102798158,0.15223593396135537,-0.030696420902214215
1789139616262892000,10.03689208984375,0.11868612251160252,0.17136074997701928,-0.0764505026767521
1789139616272865000,10.046864990234376,0.09198161431754152,0.1431357999505897,0.06907371207737481
1789139616282837800,10.056837646484375,0.09642690562240294,0.15673932824940195,0.03738870700562111
1789139616292811000,10.06681103515625,0.05725231291567563,0.1325448027435216,-0.016533960247811688
1789139616302784000,10.076783935546874,0.0992547088125695,0.11047210550088538,-0.0016394492068737975
1789139616312757000,10.086757080078126,0.07115658286536965,0.08954842661249397,0.059292967618384006
1789139616322730000,10.09672998046875,0.06040668364921014,0.08765250628528223,-0.03713436240669334
1789139616332703000,10.106702880859377,0.06131616448907793,0.03881022957913802,-0.0638466036071573
1789139616342676000,10.116676025390625,0.03754684703533078,0.02159820700512681,-0.026862722673083293
1789139616352649000,10.12664892578125,-0.0034087327495980774,0.026179523555100694,-0.02343613014254645
1789139616362622000,10.1366220703125,-0.013336325601251704,0.008434373574403662,-0.015154696309755234
1789139616372595000,10.146594970703124,-0.018067507609437518,0.007512600877215013,0.0374355397525328
1789139616382568000,10.15656787109375,-0.0017460474731329635,0.012604825574446617,0.09831812623813083
1789139616392541000,10.166541015625,0.011833159339421292,0.05047742239429534,0.041078864715976444
1789139616402514000,10.176513916015624,0.03292440349788063,0.030009252831895428,0.06397301838930519
1789139616412487000,10.18648681640625,0.04352793152572986,0.03496897108046377,0.028728752367227585
1789139616422460200,10.196460205078123,0.06043821581216118,0.023037347850626014,0.06619104992383872
1789139616432433000,10.206432861328125,0.029864163624222277,0.019588007333982464,0.07659989305156195
1789139616442406000,10.216406005859374,0.023196720503348398,0.042882595797524646,0.025312438017319697
1789139616452379000,10.22637890625,0.06070316893782037,0.047242674540573744,0.036062140362595654
1789139616462352100,10.23635205078125,0.08416806334285458,0.07409164492243989,0.03888937460345109
1789139616472324900,10.246324951171877,0.06160140191742566,0.08219658391404286,0.01687111131427978
1789139616482296800,10.256296875,0.06436338420598747,0.05952754646546236,0.03254185401839519
1789139616492270000,10.26627001953125,0.04419108150146769,0.05456427298293963,0.015319447329294864
1789139616502243000,10.2762431640625,0.07446146497298826,0.04457055155242512,0.04372785360590189
1789139616512215800,10.2862158203125,0.04188265717180658,0.02819545742612091,0.07076344457141313
1789139616522188800,10.296188720703125,0.033664908817004124,0.05345139685401083,0.030828348935051604
1789139616532162000,10.306162109375,0.03663858257397902,0.023167498957692833,0.1302247850955408
1789139616542135000,10.316135009765626,0.06734243370867465,0.060991902298668604,0.0610046324220081
1789139616552108000,10.32610791015625,0.05806164818437427,0.04059631540743901,0.11266392352994574
1789139616562080800,10.336080810546877,0.05603769886631731,0.03390811519796155,0.07384514784179846
1789139616572054000,10.346053955078125,0.0570156765771767,0.04518358664120933,0.09560344437301542
1789139616582027000,10.356027099609374,0.04428966299379139,0.07995582850816757,0.0360099817808991
1789139616592000000,10.366,0.04619539022143166,0.1033210197546698,0.020935556283601803
1789139616601973000,10.375972900390623,0.05473621093999954,0.12376884832641848,0.09363073124039456
1789139616611946000,10.385946044921877,0.060352293721523814,0.12404879035649644,0.08433693953361615
1789139616621919000,10.3959189453125,0.05140010424534203,0.14524780406075674,0.040933853397554745
1789139616631892000,10.40589208984375,0.06623731129245305,0.14343394906735688,0.0548567305015507
1789139616641865000,10.415864990234375,0.0763210058397238,0.14613276598808497,0.05446658865855137
1789139616651838000,10.425837890625,0.06179691512562782,0.15925128616448933,0.025757690232084948
1789139616661811000,10.43581103515625,0.0514590588097484,0.13153576676777545,0.10308742505735989
1789139616671784000,10.445783935546874,0.036505584730143245,0.14224531629351855,0.036543359882957704
1789139616681757000,10.4557568359375,0.03424488381716794,0.1199996351241376,0.06215974258459576
1789139616691730000,10.46572998046875,0.05925205377110649,0.11322076857322974,0.05511017397353459
1789139616701702000,10.475701904296876,0.07381623203129599,0.14610829561668529,0.021712347347450374
1789139616711675000,10.4856748046875,0.06399811086965036,0.14131637185114612,-0.021436112271116744
1789139616721647900,10.49564794921875,0.05985340705376378,0.1153049192158943,0.023966402117517493
1789139616731621000,10.50562109375,0.03967604441664299,0.1290609447913116,-0.01641798260465098
1789139616741594000,10.515593994140623,0.02071650451964208,0.08606159532638397,0.049161820246602816
1789139616751566800,10.52556689453125,-0.012200496130628695,0.06926610904783638,0.04058936719099744
1789139616761539800,10.535539794921876,0.003657728822546751,0.07359651378896148,0.08246244981443712
1789139616771513000,10.54551318359375,0.06054450842053855,0.07216309458217879,0.07154606094534857
1789139616781486000,10.555486083984375,0.0905264928200114,0.06647186818382149,0.13861571505019635
1789139616791458800,10.565458740234376,0.09664530117493149,0.06004226945445734,0.10345279718767736
1789139616801431800,10.575431884765624,0.05779456841679525,0.037097794241004484,0.07963384042273015
1789139616811405000,10.585405029296876,0.007438065747138233,0.03634510496838744,0.06536804097205859
1789139616821378000,10.5953779296875,0.0008573417310023582,0.005480780265998908,0.1284971103968916
1789139616831351000,10.60535107421875,-0.010130823024767536,0.03241954504157817,-0.0017520595041579418
1789139616841323800,10.61532373046875,0.00043851270602330254,0.05764629741109801,-0.039678448394627044
1789139616851297000,10.625297119140624,0.05203454888948422,0.059842874965215044,-0.006436795154962261
1789139616861270000,10.63527001953125,0.030296210488196137,0.10460147172481161,0.005194411463828198
1789139616871243000,10.645242919921875,0.026085089983158664,0.12864669472734075,-0.023755290133231514
1789139616881216000,10.655216064453125,0.015590116282048844,0.13819049081359214,-0.06392985467695787
1789139616891188700,10.665188720703124,-0.011633983150549008,0.1621115992041987,-0.06230607480717484
1789139616901162000,10.675161865234376,0.0015411572174154286,0.14099852996458184,0.10713125333823655
1789139616911135000,10.685135009765624,-0.006466992969515945,0.18925419161479237,0.05470658067737599
1789139616921107000,10.69510693359375,0.04546214110359205,0.21595335649170744,0.027132266578782597
1789139616931080000,10.705079833984374,0.04564905392734019,0.21582586372503906,0.08709512628815946
1789139616941053000,10.715052978515626,0.038917588499481306,0.21656653752911917,0.06673130704181411
1789139616951026000,10.72502587890625,0.028432931913144735,0.19688299548020394,0.03565993892471999
1789139616960999000,10.7349990234375,-0.006118157180761421,0.1742055978929656,0.026018022191332223
1789139616970972200,10.74497216796875,-0.02306753762368477,0.1813523492858462,0.014368575420808516
1789139616980945000,10.75494482421875,-0.046202609641683025,0.1767593707462036,-0.05015345481817585
1789139616990918000,10.76491796875,-0.054276908091834185,0.13383972109664888,-0.016271549469808144
1789139617000891000,10.774890869140624,-0.025445877505556158,0.14423944713425732,0.015448874565475583
1789139617010864000,10.784864013671877,-0.02540815571530735,0.14261724203729453,0.022249298327410363
1789139617020837000,10.794837158203125,-0.026593334747106533,0.1074094495654839,0.0156377977644993
1789139617030809900,10.804809814453124,-0.017783828882645392,0.07251637241089318,0.026081261081954896
1789139617040782800,10.814782958984376,-0.06606310437379974,0.05478455218213566,0.031409807028378305
1789139617050756000,10.824756103515623,-0.0851547755897273,-0.00029195997469662165,0.031291912983020434
1789139617060729000,10.83472900390625,-0.14055375800858383,-0.028311984041140426,0.01304050998695267
1789139617070702000,10.8447021484375,-0.15611861760925455,-0.046144673247290754,-0.03878661622541544
1789139617080674800,10.8546748046875,-0.1712752425112347,-0.07663350378930865,-0.05378806981331508
1789139617090647800,10.864647705078124,-0.13651662816738067,-0.0950467031364273,-0.054801196847157
1789139617100621000,10.87462109375,-0.13988838979692034,-0.0648958740991727,-0.04613869393635781
1789139617110594000,10.884593994140625,-0.15075418719450037,-0.07390430262408094,-0.013972267320418653
1789139617120566800,10.89456689453125,-0.159837647335285,-0.081718536239934,-0.02268946551112475
1789139617130539800,10.904539794921876,-0.13885356886470057,-0.09590910066713704,-0.025991752216396585
1789139617140513000,10.914512939453124,-0.16485102058618317,-0.09414615744859019,-0.0674402598554003
1789139617150485000,10.924485107421877,-0.20045280793437067,-0.1296508140506204,-0.05404795722715041
1789139617160457700,10.934457763671874,-0.22823153045484978,-0.13072561461930157,-0.02413927210069647
1789139617170431500,10.944431396484376,-0.210997182093812,-0.12836232066200318,-0.017364903252778043
1789139617180404500,10.954404541015624,-0.13955195978129822,-0.09055640426478927,-0.06514300648492267
1789139617190377500,10.96437744140625,-0.1467743593362861,-0.10819188623018068,-0.03155902862489541
1789139617200350500,10.9743505859375,-0.15306137064714934,-0.11662219016489238,-0.005712703429186312
1789139617210323500,10.984323486328124,-0.21348887987297865,-0.13918272890861574,-0.03984435946504607
1789139617220296700,10.994296630859376,-0.20364154297444012,-0.15344571449375302,-0.08128808880941789
1789139617230269400,11.00426953125,-0.21295754436920636,-0.15066658047197964,-0.1174000248773977
1789139617240242400,11.014242431640625,-0.20982302812710002,-0.16537728576461386,-0.1572156015413015
1789139617250215400,11.02421533203125,-0.18963211167499386,-0.16970630368632286,-0.15163296484643868
1789139617260188700,11.034188720703124,-0.18431901709055226,-0.1695425745329977,-0.1462162371895303
1789139617270161400,11.044161376953124,-0.16223097889618612,-0.15497794316704586,-0.18671096822928002
1789139617280134400,11.054134521484375,-0.138857278267402,-0.17881899632988027,-0.1840390805488135
1789139617290107400,11.064107421875,-0.1282866376063839,-0.15128720414032806,-0.17981172863360279
1789139617300080600,11.07408056640625,-0.15264942418112204,-0.1672247705909316,-0.06581815124722318
1789139617310053600,11.0840537109375,-0.15240921657308265,-0.16123793089799607,-0.042645259398121034
1789139617320026400,11.0940263671875,-0.13657288240533136,-0.14047676322765673,-0.10301490689115458
1789139617329999400,11.103999267578123,-0.12524013970696224,-0.12791474945428227,-0.08557723689241584
1789139617339972600,11.11397265625,-0.13749743826273275,-0.13610286877155534,-0.029114877964909826
1789139617349945600,11.123945556640624,-0.16112530536993447,-0.15523269667736903,-0.025284223486966205
1789139617359918600,11.133918701171876,-0.14264657122649482,-0.17644916541133635,-0.039792533747010264
1789139617369891300,11.143891357421875,-0.12356010465649478,-0.18646034707385178,-0.06467532072419457
1789139617379864600,11.153864501953125,-0.08773017690199238,-0.20110438402182818,-0.04362971067771942
1789139617389836500,11.16383642578125,-0.10471550350499456,-0.20763627845316524,-0.05574320176846326
1789139617399809500,11.1738095703125,-0.10619778293399179,-0.2118086842631276,-0.10901535718962763
1789139617409782500,11.183782470703123,-0.1491835084923384,-0.21350474808863099,-0.11137686975208752
1789139617419755500,11.193755615234377,-0.14139447668283467,-0.23917158982771952,-0.05709966878928143
1789139617429728500,11.203728515625,-0.12351672667060674,-0.20960322345750132,-0.07662485088304499
1789139617439701500,11.213701416015626,-0.10735028324034666,-0.19729546170834797,-0.07589284179661752
1789139617449674500,11.223674560546876,-0.07859438288444112,-0.20874433220270813,-0.059755507298809116
1789139617459647500,11.2336474609375,-0.08293617640305848,-0.1783324345892198,-0.03645916269215652
1789139617469620500,11.243620361328125,-0.10123840755134635,-0.1843453574328432,-0.007097317376577256
1789139617479593500,11.253593505859374,-0.08929194732362433,-0.18171827985171013,-0.07130152004107707
1789139617489566500,11.26356640625,-0.08098625817678631,-0.16270433056128858,-0.0475919514721595
1789139617499539700,11.273539794921875,-0.06737349089796302,-0.12588746221170635,-0.031656769981761805
1789139617509512400,11.283512451171877,-0.032671236186912526,-0.08866813129552094,-0.05581860632398215
1789139617519485400,11.2934853515625,-0.003213759881576774,-0.05489737389152356,-0.023877299395841677
1789139617529458400,11.30345849609375,0.0015692080887040399,-0.03253228226536182,0.017413392216646086
1789139617539431700,11.313431640625,0.009089128436865573,-0.0021748080063304343,-0.02987977301215126
1789139617549404700,11.32340478515625,0.04575872318738702,0.02845983870124949,-0.034577581021754615
1789139617559377400,11.33337744140625,0.0403477602511357,0.04989354939022595,-0.02990323902500243
1789139617569350400,11.343350341796874,0.019796446834081455,0.07471616993446684,-0.04714629723499425
1789139617579323600,11.35332373046875,0.022120331710359202,0.059612790948390226,-0.037148357526321556
1789139617589296600,11.363296630859375,0.03588310394532097,0.08374543855370925,-0.028863462477257188
1789139617599269400,11.373269287109377,0.042060534520721234,0.08488493685874612,-0.03503026928505227
1789139617609242400,11.383242431640625,0.04242557327954127,0.08006118507957312,-0.016744409139516272
1789139617619215600,11.393215576171874,0.03518530945085482,0.07176787655880536,-0.014209350975072923
1789139617629187600,11.4031875,0.03469911808457208,0.0561022319058691,-0.018266645854847326
1789139617639160300,11.413160400390623,0.023051178940162807,0.02579955410927451,0.02649182017925406
1789139617649133600,11.423133544921876,0.030309676321998116,0.02609889251109469,-0.004854721632662089
1789139617659106600,11.4331064453125,0.03882074803853184,0.0011555593663374897,-0.014831469942597642
1789139617669079600,11.44307958984375,0.014386586128395442,-0.017103630952848177,-0.011378309768978506
1789139617679052500,11.453052490234375,-0.00875386845740802,-0.026494326968040553,-0.008414601212953765
1789139617689025300,11.463025390625,-0.0007722422162917055,-0.043839311138175754,-0.0002765078082758771
1789139617698998500,11.47299853515625,-0.003434494652556429,-0.05624914712768094,0.0085204408764312
1789139617708971500,11.482971435546874,-0.0133072890347562,-0.04303314936796652,-0.04238249812004166
1789139617718944500,11.492944580078126,-0.0035656001408863355,-0.03865683118733807,-0.04191029370834303
1789139617728917500,11.50291748046875,-0.026952218834275378,-0.04342239033353556,0.011893730230575978
1789139617738890500,11.512890380859377,-0.014885382458376839,-0.031399699500808426,0.04128433473139021
1789139617748863500,11.522863525390624,-0.0007780145758770825,-0.022440998956005605,0.021370001132610724
1789139617758836500,11.53283642578125,0.013473472199618357,-0.0020354341238805144,-0.0010324529471287737
1789139617768809500,11.5428095703125,-0.0013643678872291651,-0.00030774938197631056,0.025690001937955096
1789139617778782700,11.55278271484375,-0.02840180096750296,-0.0016092702917619045,0.021916755158732263
1789139617788755500,11.56275537109375,-0.05817658082995801,0.03283474001053782,-0.028748797072083727
1789139617798728400,11.572728515625,-0.07767886321616167,0.017619790222565126,0.01390457918412936
1789139617808701400,11.582701416015626,-0.05530263238092557,0.03985283769692198,0.0012021165474152174
1789139617818674700,11.5926748046875,-0.037653694982638694,0.071280681828922,-0.03199966502275954
1789139617828647700,11.602647705078123,-0.007248160270416382,0.0667753601995661,0.010411581236575025
1789139617838620400,11.612620361328124,-0.006158701903509691,0.08768584652948606,-0.04163420404079483
1789139617848593400,11.622593505859374,-0.041669596354961945,0.06528407250511867,-0.0384119868940965
1789139617858566400,11.63256640625,-0.06729879305204141,0.010008341194989006,-0.0019723653041002196
1789139617868538600,11.64253857421875,-0.08135346277284908,-0.010586040870555001,-0.0431779527378661
1789139617878511400,11.652511474609376,-0.09593638929327196,-0.04510211098558918,-0.03167595547802327
1789139617888484400,11.662484375,-0.09284901625765772,-0.08811392847370779,-0.00556115561784359
1789139617898457600,11.67245751953125,-0.12372528092244377,-0.12678786990989227,0.02283490891320168
1789139617908430600,11.6824306640625,-0.17247822916037292,-0.17876605523820033,0.04618790526260408
1789139617918403300,11.6924033203125,-0.18435995649879247,-0.23139621209318928,0.07494568914159522
1789139617928376300,11.702376220703124,-0.18951720873981293,-0.21981325070105662,0.060462443113040484
1789139617938349600,11.712349609375,-0.1697272022098067,-0.26227984154665485,0.04887485691917076
1789139617948322600,11.722322509765624,-0.1575669048444506,-0.3022190874431127,0.0865091990787824
1789139617958295600,11.732295654296877,-0.1690095712262957,-0.3003051541583845,0.08576145564138953
1789139617968268300,11.742268310546876,-0.1750925893898945,-0.3036426510753935,0.060110020130690923
1789139617978241500,11.752241455078124,-0.1919923081965238,-0.3314012262567671,0.03170015252117482
1789139617988214500,11.762214599609376,-0.2064508709310532,-0.3382350347760769,0.054787614093432246
1789139617998187500,11.7721875,-0.2014297487378415,-0.36037240364206763,0.01494388625491144
1789139618008160500,11.782160400390625,-0.18069770013344638,-0.35066459446004156,-0.003833348187235668
1789139618018133500,11.792133544921874,-0.18600716151127883,-0.3614197864086213,0.02994796109440061
1789139618028106500,11.8021064453125,-0.18412752830043874,-0.3573397158906216,0.05259348102894886
1789139618038079500,11.81207958984375,-0.1875366753233443,-0.36852225809957817,0.04431204214566579
1789139618048052500,11.822052490234377,-0.18944064931214274,-0.3589652708633764,0.06859407757269029
1789139618058025500,11.832025390625,-0.16454088773665243,-0.3459995679805158,0.07436228575835085
1789139618067998500,11.84199853515625,-0.11931146622024444,-0.3428518771046633,0.06728035574815273
1789139618077971500,11.851971435546876,-0.15546451390503196,-0.32938487896505975,0.06662654480945024
1789139618087944400,11.8619443359375,-0.13442657335600533,-0.3245235509257719,0.07771863131608761
1789139618097916700,11.871916748046877,-0.11746123142826835,-0.30046266999631427,0.0657677122402473
1789139618107889400,11.881889404296874,-0.12878208276492395,-0.2880037865823857,0.08286232448413998
1789139618117862400,11.8918623046875,-0.05878043109861094,-0.2522100740531202,0.08473344031060331
1789139618127835400,11.90183544921875,-0.06038854917609318,-0.2253495285345712,0.061878278350391926
1789139618137808600,11.91180859375,-0.07103664434056571,-0.21062912747593254,0.06745413763251369
1789139618147781600,11.92178173828125,-0.08722365040881738,-0.24412230406985064,0.0773016056545958
1789139618157754400,11.93175439453125,-0.06312765509984272,-0.24810129869273248,0.07168413479212274
1789139618167727400,11.941727294921876,-0.02919553224284816,-0.258420019985316,0.06649527956780314
1789139618177700600,11.95170068359375,0.003906784621072637,-0.2573056320109608,0.05183345120227584
1789139618187673600,11.961673583984377,0.015616658815299939,-0.2619450035267614,0.0639658488388301
1789139618197646600,11.971646484375,-0.026808268538545676,-0.28460846655354843,0.11125201596300255
1789139618207619300,11.981619384765626,-0.05534146199589245,-0.2969378286548076,0.08743938979836144
1789139618217592600,11.991592529296875,-0.06599586452724658,-0.3173358764035419,0.06349174368917063
1789139618227565600,12.001565673828123,-0.05197760962130547,-0.3328514070173531,0.09468892198214365
1789139618237538600,12.01153857421875,-0.022301869107331666,-0.3018231587845963,0.042248537155356584
1789139618247511300,12.02151123046875,0.020458665517919014,-0.284099756545474,0.03762192762072961
1789139618257484500,12.031484619140626,0.04728562269213312,-0.2810344067851601,0.028412401842791493
1789139618267457500,12.04145751953125,0.02193267541279093,-0.27032357338158547,0.030330552093535055
1789139618277430500,12.051430419921877,-0.008023366442054373,-0.25728622495484404,-0.003239142021975045
1789139618287403500,12.061403564453125,0.01284015769146693,-0.24947240063324783,0.01925937957947729
1789139618297376500,12.07137646484375,-0.0044540492214277605,-0.22722326562990608,0.05487428502612066
1789139618307349500,12.081349609375,0.0777995417613972,-0.19611394699433343,0.05065240098992998
1789139618317322500,12.091322509765623,0.11194861853089443,-0.16163130131077424,0.03848435665526526
1789139618327295500,12.10129541015625,0.09489350803952205,-0.15039733042734776,0.08963694012095197
1789139618337268500,12.1112685546875,0.0990614924859994,-0.13255809743567254,0.07381506050023072
1789139618347241500,12.121241455078126,0.08610782096916385,-0.10519636731843536,0.03165201583437591
1789139618357213400,12.13121337890625,0.12903318453117504,-0.0828544672976442,-0.001817419861496559
1789139618367186400,12.1411865234375,0.12485110953802313,-0.07527881087896816,0.008655217610902068
1789139618377159700,12.15115966796875,0.1335255127787628,-0.05775414686169725,0.0016511832214342295
1789139618387132400,12.16113232421875,0.14922480673946514,-0.04568027256996505,-0.008277208002403216
1789139618397105400,12.17110546875,0.15973757159246996,-0.05381427001817655,-0.019727899681140464
1789139618407078400,12.181078369140623,0.16334110008314237,-0.06387314792482383,-0.0143782896604982
1789139618417051600,12.1910517578125,0.184187536901127,-0.039238706321344595,-0.01634643662872479
1789139618427024600,12.201024658203124,0.1886571608083749,-0.04008391444629372,-0.0031332935068207187
1789139618436997400,12.210997314453126,0.17760466240390055,-0.03428107875531669,0.031420991248025686
1789139618446970400,12.220970458984375,0.15484514857817286,-0.043180541511244216,0.055778808794632075
1789139618456943600,12.230943603515623,0.16723403366735792,-0.02735911768078657,0.04474064404434874
1789139618466916600,12.24091650390625,0.16027754774942068,-0.02208720910202537,0.05364364812529714
1789139618476889600,12.2508896484375,0.16045940494472005,-0.00327188632219264,0.05986898192225529
1789139618486862300,12.2608623046875,0.1738525282489487,4.294270254948393e-05,0.09071245087810596
1789139618496835600,12.270835693359375,0.18846649406463875,0.04200549106273117,0.05666947691954497
1789139618506808600,12.28080859375,0.20112755499415588,0.04530355344518259,0.06533027468759205
1789139618516781600,12.290781494140624,0.20279100922658105,0.06579115936355731,0.030258533499775312
1789139618526754600,12.300754638671876,0.2070508246988455,0.08520416256663285,0.023653635369091854
1789139618536727600,12.3107275390625,0.19639562724875897,0.12133256153568568,0.008330550002581007
1789139618546700500,12.320700439453123,0.1608204961110979,0.12754529949413188,-0.019213082595990524
1789139618556673500,12.330673583984376,0.19513229002152194,0.13447915356831527,-0.0377748762445577
1789139618566646500,12.340646484375,0.14855210632553442,0.15590224608414857,-0.04317874189493118
1789139618576619300,12.350619384765626,0.1683471689689817,0.17429479783022195,-0.04375126418397531
1789139618586592500,12.360592529296875,0.20707758656919226,0.18842700527641576,-0.0555857647540195
1789139618596565500,12.3705654296875,0.18251107831735977,0.22016213251899192,-0.029344605136518282
1789139618606538500,12.38053857421875,0.1765981177660377,0.21354826869179797,0.007018809028056021
1789139618616510500,12.390510498046876,0.14979324415994455,0.197121020517207,0.01535813258757337
1789139618626483500,12.4004833984375,0.14687311080941937,0.20810902907569476,0.004558612386482293
1789139618636456400,12.41045654296875,0.13350992385217125,0.1999918804954571,0.013729870560591467
1789139618646429400,12.420429443359374,0.1506972383869294,0.17708891096628773,0.0053776957308343505
1789139618656402700,12.430402587890624,0.14004658633741843,0.1617989230561834,-0.004667466223795148
1789139618666375400,12.44037548828125,0.10168403772042289,0.12185958379189878,0.02064646138069675
1789139618676348400,12.450348388671877,0.11351803508323688,0.06831158935119061,0.041197977295584505
1789139618686321400,12.4603212890625,0.06021103729213854,0.0471744784184078,0.017245655504256763
1789139618696294700,12.470294677734374,0.027465384510804533,0.0165501738680186,-3.852196742478792e-05
1789139618706267600,12.480267578125,0.05808767980371999,-0.014531049936584625,0.0023732432060361865
1789139618716240400,12.490240478515624,0.051044531368804026,-0.020281049857556112,0.007166249675318214
1789139618726213400,12.50021337890625,0.005838109885478553,-0.03785113683838264,0.022426191100951252
1789139618736186600,12.5101865234375,0.03252833733474672,-0.0836146207086727,0.0029556048686874537
1789139618746159600,12.52015966796875,-0.0075603897455563274,-0.08570090137209571,0.018739620157891504
1789139618756132600,12.530132568359376,-0.016732476464193596,-0.09765197009472247,0.024150961692200563
1789139618766105300,12.540105224609375,-0.027349236304794338,-0.10957754623368636,0.030383585892761918
1789139618776078300,12.550078369140625,-0.031610259786210584,-0.10149709820786226,0.04630183896397596
1789139618786051600,12.560051513671874,-0.03571583537317854,-0.08070969404755945,-0.01380419264273392
1789139618796024600,12.570024658203126,-0.01726825923778021,-0.06973347000632947,0.011569566080132822
1789139618805997600,12.57999755859375,0.022549029420121804,-0.03152035740661578,0.020915942610975517
1789139618815970300,12.58997021484375,0.017104349365338008,-0.004165778599545061,-0.04501324128057396
1789139618825943600,12.599943603515625,0.025856416890062024,-0.0008753648425375447,-0.033397409193647254
1789139618835916500,12.60991650390625,0.01255878815756962,0.018816012989795003,-0.05638145799086755
1789139618845889500,12.6198896484375,0.0007440990250528904,0.043438188108911695,-0.044699674195945824
1789139618855862500,12.629862548828124,-0.005671795571993084,0.041788558113522375,0.011880129184366154
1789139618865834500,12.63983447265625,0.024951513631245145,0.06702097011190909,0.017956870656836967
1789139618875807500,12.649807373046874,0.058583297916615144,0.08041544229335004,-0.04048028713970432
1789139618885780500,12.659780517578126,0.06688573956548532,0.06848033451186172,-0.06980754877413854
1789139618895753700,12.669753662109375,0.0729270194237337,0.044996276607518225,0.030750931453171162
1789139618905726500,12.6797265625,0.027863844494093876,0.024760788737465678,0.03481492872482758
1789139618915699500,12.689699462890625,-0.018135743554756754,0.026600667040476762,-0.031630503970403984
1789139618925672400,12.69967236328125,0.006791459323052478,-0.0031730530869866786,0.011514751980321081
1789139618935645700,12.709645751953126,0.018868186429355165,-0.021389630931514823,0.05702178908407892
1789139618945618400,12.719618408203123,0.012311653554053803,-0.029894242572078747,-0.006499566529552412
1789139618955591400,12.72959130859375,0.02867927986351195,-0.06743961356919513,-0.038905352620974276
1789139618965564400,12.739564453125,0.006214571140412029,-0.08549080421360572,-0.024132193716664984
1789139618975537700,12.74953759765625,-0.03379803416807262,-0.08037322778871073,-0.006368364162778812
1789139618985510700,12.7595107421875,0.0062137254839675395,-0.11838276538951685,-0.03434107918384571
1789139618995483400,12.7694833984375,0.025843498228689647,-0.12200589247570005,-0.039120584630037133
1789139619005456400,12.779456298828125,-0.009469895038933541,-0.11268879262980734,0.006650730013009075
1789139619015429400,12.789429443359374,-0.005838203153301882,-0.12565961026607714,-0.005290824826646111
1789139619025402600,12.799402587890626,0.008121858376913229,-0.1100934845541403,-0.010400496994885227
1789139619035375600,12.809375732421875,0.01479227989671187,-0.05617176991084464,0.008729422716608662
1789139619045348400,12.819348388671877,0.021360363487146223,-0.059412292926557385,0.05720046095100306
1789139619055321300,12.8293212890625,0.022937399601879828,-0.020433810170447854,0.030807606094977163
1789139619065294600,12.839294677734374,0.05494383711544719,-0.003607896131768692,-0.001799973677863887
1789139619075267600,12.849267578125,0.06670514701322403,0.009606077347747998,0.03831268124767316
1789139619085240600,12.859240478515623,0.10997312892039163,0.06330104021873151,-0.023735824462094827
1789139619095213300,12.86921337890625,0.08775990137124319,0.07862703850713644,-0.021921188319411408
1789139619105186600,12.8791865234375,0.08353949662059629,0.10332872504928398,-0.004914940726844207
1789139619115159600,12.88915966796875,0.09800632716160779,0.1423696609590406,0.013372064029083613
1789139619125132500,12.899132568359375,0.11489431545072964,0.13040566375207346,-0.0680545860364527
1789139619135105500,12.90910546875,0.10331605255615041,0.14825706800314145,-0.059653255712420354
1789139619145077500,12.919077392578124,0.10088571820348564,0.12976673020118334,-0.017132209541855608
1789139619155050500,12.929050537109376,0.10306108790970672,0.13519477249285536,-0.08448816497593005
1789139619165023500,12.9390234375,0.0806523317889074,0.13324227462585103,0.011345555702471284
1789139619174996000,12.948995849609377,0.06982253595306505,0.10343101833403752,0.06669776161121072
1789139619184969000,12.958968994140625,0.0712967732141615,0.10322268207485122,-0.0043471824461020865
1789139619194942000,12.96894189453125,0.0713362925380507,0.10562542841357765,0.0418616475291099
1789139619204915000,12.9789150390625,0.04351027190174797,0.09389117778450827,0.06739703852944819
1789139619214888000,12.988887939453123,0.04282983321201618,0.07958856296774142,0.004034289653022416
1789139619224861000,12.99886083984375,0.04793095609981139,0.07501537085012198,-0.01687603405999644
1789139619234834000,13.008833984375,0.06142916936406476,0.06885652637050851,-0.028931992390437027
1789139619244807000,13.018806884765626,0.06777563713215856,0.06449590890295574,-0.025023582981971073
1789139619254780200,13.0287802734375,0.059517745169421175,0.07469230449015066,-0.0523734792311586
1789139619264753000,13.0387529296875,0.020201984839239927,0.06753673103267684,-0.023309303172062482
1789139619274726000,13.048725830078125,0.029902558841698793,0.04403277907775286,-0.05425228366309716
1789139619284699000,13.058698974609374,0.030258323170167543,0.03756207270226271,-0.00808374842428447
1789139619294672100,13.068672119140626,-0.0022795862756102557,0.027245665556181266,-0.0020317600184450823
1789139619304645000,13.07864501953125,0.007265875084614974,-0.0055310075048117064,0.019355103275418856
1789139619314617900,13.088617919921877,-0.006454785560235257,-0.024567486168381145,0.03256131150867315
1789139619324590800,13.0985908203125,0.02007856965383029,-0.030564282815034267,0.016113093148495277
1789139619334564000,13.108564208984374,-0.006864744450292702,-0.045784565571862834,0.027362099055949368
1789139619344537000,13.118537109375,-0.04338269566362816,-0.07467689633995996,0.022465329126441978
1789139619354510000,13.128510009765623,-0.051340703792327025,-0.10236045469404478,0.006672473621702963
1789139619364482800,13.13848291015625,-0.07381897929222121,-0.09586655288128838,0.014692375055049762
1789139619374455800,13.148455810546874,-0.06351342772021613,-0.085870851585776,0.003715356295041529
1789139619384429000,13.158428955078126,-0.08528788710077628,-0.10853881074459439,0.008341388528889085
1789139619394402000,13.168402099609375,-0.076960861892076,-0.0981845051927234,-0.04333693947249002
1789139619404375000,13.178375,-0.07260203165817854,-0.09876436731458245,-0.04498689419359079
1789139619414347000,13.188346923828124,-0.06970801396695027,-0.08682551766396106,0.0011344517436587497
1789139619424320000,13.198320068359376,-0.06165014822702638,-0.08674019983792373,0.026053889752900964
1789139619434293000,13.20829296875,-0.05304930270903786,-0.06697399956078323,-0.05016054865794692
1789139619444266000,13.218265869140623,-0.047082195692735605,-0.07333797038886644,-0.03734306324712888
1789139619454239000,13.228239013671876,-0.05885902967128039,-0.09254367058248092,0.02498422238327302
1789139619464212000,13.2382119140625,-0.06920637310598689,-0.09131676717344593,0.018276325583411666
1789139619474185000,13.24818505859375,-0.062326917591896513,-0.0818825782812806,-0.02092779945507805
1789139619484158000,13.258157958984375,-0.08095106546851802,-0.08827163168197956,-0.02350919852668201
1789139619494131000,13.268130859375,-0.0698077238832427,-0.1146573258954351,0.027562531086180952
1789139619504104000,13.27810400390625,-0.03795818356505616,-0.12364550934701096,0.02217094153922352
1789139619514077000,13.288076904296876,-0.040161646810611566,-0.12907589654628032,-0.03508202753968394
1789139619524050000,13.2980498046875,-0.04495089849565948,-0.14085389619197428,0.0012240164458860465
1789139619534023200,13.308023193359375,-0.06268123432676287,-0.1634638314453047,0.01412208814535339
1789139619543996000,13.317995849609376,-0.07930556650808045,-0.14028604324881247,-0.00989099173170154
1789139619553969000,13.327968994140624,-0.05305027381459431,-0.14619605107893097,-0.047495673238197395
1789139619563942000,13.33794189453125,-0.05668997155805255,-0.14778390317784607,0.0025875210822677414
1789139619573915000,13.347914794921875,-0.05192806385455604,-0.13958099773325253,0.038509106904425265
1789139619583888100,13.35788818359375,-0.041577699866398636,-0.11776953993216688,0.0055299922713928865
1789139619593860900,13.36786083984375,-0.016224891751449807,-0.10567595945804471,0.04354900688082117
1789139619603833900,13.377833740234376,-0.03337261180703975,-0.06249559645953809,0.018515021754980432
1789139619613806800,13.387806884765626,0.012146588077957063,-0.08577941300947461,0.16440940148090205
1789139619623780000,13.397780029296875,0.02301645780689488,-0.06455359960838994,0.059068754034275806
1789139619633753000,13.407753173828125,0.010751481781863697,-0.06830067516639339,-0.03846292187351108
1789139619643725800,13.417725830078124,0.021535137328077453,-0.06903910309358412,0.043097319216275215
1789139619653698800,13.42769873046875,0.0020455496045765115,-0.08179146032085323,0.054232576538646646
1789139619663672000,13.437672119140624,0.021356889698628506,-0.10090200927798797,0.013596763651507275
1789139619673645000,13.44764501953125,0.04256951874068716,-0.06576253944462053,-0.05314476718519323
1789139619683618000,13.4576181640625,0.03852136271092677,-0.06444621513802488,-0.04459088247892998
1789139619693590000,13.467590087890626,0.04640493923675662,-0.09386972850451596,0.0022094073817721404
1789139619703563000,13.47756298828125,-0.015044841820981075,-0.09917055822289207,-0.03291253665772079
1789139619713536000,13.487535888671877,-0.0065752191924557,-0.13127012842806007,-0.048498234486862524
1789139619723509000,13.497509033203125,-0.012567519961458003,-0.11991502643285348,-0.07410081217161493
1789139619733482000,13.50748193359375,0.006996696829272802,-0.10157752129925832,0.07316885437752316
1789139619743455000,13.517455078125,0.027540825935026016,-0.09435809269188616,0.025993501840006067
1789139619753428000,13.527427978515624,0.04023888097804483,-0.07988269069292253,-0.0736517442255961
1789139619763401000,13.53740087890625,0.04312151619797205,-0.06901925968639736,0.03313069466271636
1789139619773374200,13.547374267578125,0.02047621225706627,-0.06063300799173164,0.07206174057932377
1789139619783347000,13.557346923828124,0.047845854926354466,-0.02696226778603586,-0.026624543087897357
1789139619793320000,13.56731982421875,0.08423696352596584,0.0036306578554814806,-0.06863952265688196
1789139619803293000,13.57729296875,0.07290611468774977,0.043674364050151265,-0.020548785748584708
1789139619813266000,13.587265869140625,0.09293170363207472,0.0522653091681527,0.01640284716956257
