time,seconds_elapsed,z,y,x
1789139607785900800,1.55990087890625,0.03305352195780113,-9.806248588884088,-0.08233166436332315
1789139607795872800,1.569872802734375,0.034994310913264395,-9.806226543371832,-0.0841067627369039
1789139607805845800,1.579845703125,0.035538055833109074,-9.806236260695627,-0.08275494184415219
1789139607815818800,1.58981884765625,0.035322569131436624,-9.806256483001931,-0.0804628558801181
1789139607825791500,1.59979150390625,0.03241023422909187,-9.8062691897114,-0.0801214143350427
1789139607835764700,1.6097646484375,0.02836795748168877,-9.806293543684674,-0.07870911603906627
1789139607845737700,1.61973779296875,0.02406497800079144,-9.806324788783224,-0.0761469518046022
1789139607855710700,1.629710693359375,0.021939247206789952,-9.806356596970412,-0.0726475491698534
1789139607865683700,1.63968359375,0.018787293252672706,-9.8064090564236,-0.06621772917117892
1789139607875656700,1.64965673828125,0.016725738476734583,-9.806463801719067,-0.05807688659581387
1789139607885629700,1.659629638671875,0.019087747664909883,-9.80650497467875,-0.04987211790823133
1789139607895601700,1.6696015625,0.022712903285387942,-9.806539647443751,-0.040454793878135366
1789139607905575000,1.679574951171875,0.024712195641203888,-9.80656896777147,-0.031067983684198597
1789139607915547600,1.689547607421875,0.029541969302346968,-9.806583204652034,-0.020823691331789868
1789139607925520600,1.699520751953125,0.03387000393693729,-9.806586388684275,-0.00979215026561921
1789139607935493600,1.70949365234375,0.03563248262893459,-9.806585511688962,0.0012310572843426514
1789139607945467000,1.719466796875,0.035661666497219593,-9.806578189770974,0.011661419884429518
1789139607955439900,1.72943994140625,0.033954445266864,-9.806564073622326,0.02294548973344892
1789139607965412600,1.73941259765625,0.03187393410988991,-9.806538337411606,0.03430521613361071
1789139607975385600,1.749385498046875,0.027139990673075126,-9.80650878237422,0.045079239268095414
1789139607985358600,1.759358642578125,0.021512973193759326,-9.80646646912481,0.05597311477673071
1789139607995330800,1.769330810546875,0.018774336820830104,-9.806405917648618,0.06662752103261792
1789139608005303600,1.779303466796875,0.017662539704745198,-9.806317671439071,0.07878400959764412
1789139608015276500,1.789276611328125,0.016797395359950673,-9.806206710085965,0.09177505189585006
1789139608025249800,1.799249755859375,0.01677638429733505,-9.80608585663294,0.103887114371093
1789139608035222800,1.809222900390625,0.015087701240189206,-9.805966328069863,0.11481779261162611
1789139608045195800,1.81919580078125,0.01574459168235586,-9.80581206918091,0.12725321566683315
1789139608055168500,1.82916845703125,0.015719060787615848,-9.805636218315465,0.1401224560769326
1789139608065141800,1.839141845703125,0.015084994048158865,-9.805476459677958,0.1509388162086457
1789139608075114800,1.84911474609375,0.012113520656929515,-9.80526273823108,0.16448870949744807
1789139608085087700,1.859087646484375,0.011121308294695497,-9.805029750220658,0.1778937194500965
1789139608095059700,1.869059814453125,0.011154886620450928,-9.804759297893767,0.19225940192127017
1789139608105032700,1.87903271484375,0.013728040759829573,-9.804438942581688,0.20778827742106037
1789139608115005700,1.889005615234375,0.01298594548441845,-9.804064604970428,0.22481144705188402
1789139608124978700,1.898978759765625,0.015299990482552856,-9.803671375924967,0.24117942753137403
1789139608134952000,1.908951904296875,0.016613213193434714,-9.803249672079302,0.257681075975013
1789139608144924700,1.918924560546875,0.019455236252630074,-9.80280132897542,0.27404238462521213
1789139608154897700,1.928897705078125,0.020283904143348404,-9.802335163038293,0.290171465941421
1789139608164871000,1.938870849609375,0.021209205564871953,-9.801877092044455,0.30519797553509986
1789139608174844000,1.948843994140625,0.02191586592017157,-9.801381114558,0.3206813933359093
1789139608184817200,1.958817138671875,0.021538714523320842,-9.80091140849945,0.3347448618893338
1789139608194788900,1.968788818359375,0.019662801360173454,-9.80042476331296,0.3488137456248543
1789139608204761900,1.978761962890625,0.01873579800785205,-9.799903286059871,0.3632291516190067
1789139608214735000,1.988735107421875,0.01786650660267163,-9.799342947959481,0.37808950322839135
1789139608224708000,1.9987080078125,0.01749093986164978,-9.798824854416122,0.3912803131328963
1789139608234680800,2.008680908203125,0.015624867235952076,-9.798414909169663,0.40152495661520454
1789139608244653800,2.01865380859375,0.014656602122938607,-9.79801327946258,0.4112464259906534
1789139608254627000,2.028626953125,0.015454913692491698,-9.79765302248409,0.41970110801009636
1789139608264600000,2.03860009765625,0.014686946146763554,-9.797368659950891,0.42631293878182075
1789139608274572800,2.04857275390625,0.012478635033576569,-9.797058861321805,0.43343247657014716
1789139608284545800,2.0585458984375,0.014665288067897795,-9.796736550376057,0.4405921858967504
1789139608294519000,2.06851904296875,0.015618321932723066,-9.79646757025452,0.44650174431964107
1789139608304491000,2.078490966796875,0.01418057936262378,-9.796251397817883,0.4512659517983544
1789139608314463700,2.088463623046875,0.012208040300437945,-9.796140436729537,0.4537297582615496
1789139608324437000,2.09843701171875,0.012606753991766643,-9.796148529257584,0.4535318892493121
1789139608334410000,2.108409912109375,0.013580298640897296,-9.796155632414573,0.4533596825596422
1789139608344383000,2.118383056640625,0.0120248303948178,-9.796177963834422,0.45293043584735687
1789139608354356000,2.12835595703125,0.012640208278992843,-9.796173575160429,0.45299769196820217
1789139608364329000,2.138328857421875,0.013263145068187012,-9.796172790850846,0.45299025752147903
1789139608374302000,2.148302001953125,0.01157840001544065,-9.796105411514826,0.45449033037989833
1789139608384275000,2.15827490234375,0.012516521867557634,-9.79601380353916,0.4564485143115224
1789139608394248000,2.168248046875,0.011223144357589589,-9.795897546521402,0.45895446153759856
1789139608404221200,2.17822119140625,0.010036943772443348,-9.79564228560167,0.4644031316496699
1789139608414193000,2.18819287109375,0.010592504732280492,-9.795399370699608,0.4694980065933866
1789139608424166000,2.198165771484375,0.013072391798997614,-9.795233645115436,0.4728894905493263
1789139608434139100,2.20813916015625,0.015978210282330242,-9.795064896356996,0.47628083914686953
1789139608444112100,2.218112060546875,0.01802906558751684,-9.794985902918866,0.4778263406107009
1789139608454084900,2.2280849609375,0.021050980388080082,-9.794991503758919,0.4775967061849203
1789139608464057900,2.238057861328125,0.025440827442424513,-9.795068960857394,0.4757712533957037
1789139608474030800,2.24803076171875,0.02746218752023463,-9.795201390291957,0.47292934121769
1789139608484004000,2.258004150390625,0.028198938734906396,-9.795495262633073,0.4667709044774024
1789139608493977000,2.26797705078125,0.028228034627412663,-9.795832093851248,0.4596390933814998
1789139608503949800,2.27794970703125,0.028575167776231293,-9.79609732468401,0.453940326198117
1789139608513922000,2.287922119140625,0.02685237684806447,-9.79646520432237,0.4460235414962275
1789139608523895000,2.29789501953125,0.025825863091622357,-9.796873263096412,0.4370407741680716
1789139608533868000,2.307867919921875,0.02781015528630468,-9.797193239965713,0.4296807172500858
1789139608543840800,2.3178408203125,0.02873706043960564,-9.797565728886392,0.42102538328073347
1789139608553814000,2.32781396484375,0.028747328574084817,-9.79803287741553,0.4100019593357673
1789139608563787000,2.337787109375,0.03392382995682324,-9.7984444197599,0.39965338437878967
1789139608573760000,2.347760009765625,0.04451538714186983,-9.798809062308788,0.38953666519997027
1789139608583733000,2.35773291015625,0.053280078499578575,-9.799205012908796,0.3783238583372982
1789139608593706000,2.3677060546875,0.05546399194133075,-9.799662564468324,0.3659572458119548
1789139608603679000,2.377678955078125,0.06286148812827778,-9.800066682776713,0.3537253514388603
1789139608613652000,2.38765185546875,0.07488488551501538,-9.800421443638509,0.34134077460697726
1789139608623624000,2.3976240234375,0.0769231541721824,-9.800857263456562,0.3281286416990002
1789139608633597000,2.407596923828125,0.07350314917028125,-9.801297075807199,0.31552221927100327
1789139608643570000,2.41756982421875,0.07421546374953958,-9.80163435010659,0.30471179501110607
1789139608653543000,2.42754296875,0.07336030278557722,-9.801924316711935,0.2954487981608685
1789139608663516200,2.43751611328125,0.06833915323926848,-9.802275270444543,0.28480395439202805
1789139608673489000,2.447489013671875,0.06314917416264805,-9.802554482626084,0.2762663462151309
1789139608683462000,2.4574619140625,0.062360572351940056,-9.802674316660266,0.27217658451493937
1789139608693435000,2.467434814453125,0.05994697200866513,-9.802811285665626,0.26773378577722357
1789139608703408000,2.477408203125,0.06058092057688344,-9.80292834873707,0.2632561950713927
1789139608713381000,2.487381103515625,0.061972034274289635,-9.80301375721365,0.2597414845359822
1789139608723353900,2.497353759765625,0.061684111668806704,-9.803129981373642,0.2553605271859007
1789139608733326000,2.507326171875,0.06489984968385826,-9.803292295000178,0.24826076710180395
1789139608743299000,2.517299072265625,0.06914671892364059,-9.803428749079105,0.2416116585614901
1789139608753272000,2.52727197265625,0.06804792618392626,-9.803647483801514,0.2329126671657491
1789139608763244800,2.537244873046875,0.06596409240235353,-9.80386715511715,0.2240796557423936
1789139608773217800,2.5472177734375,0.06699869541884354,-9.804047710228497,0.21574730019409696
1789139608783191000,2.55719091796875,0.06774982067408955,-9.804215091073772,0.20774602863572383
1789139608793164000,2.5671640625,0.06664696252006111,-9.804387571828451,0.19982120807422052
1789139608803137000,2.577136962890625,0.06680690631966689,-9.804559140593662,0.1911703668429894
1789139608813109800,2.58710986328125,0.06687387480150891,-9.804730826876076,0.18212921587995226
1789139608823083000,2.5970830078125,0.06868481739486182,-9.804911913470479,0.17133393333702301
1789139608833056000,2.607055908203125,0.07035587674274611,-9.805064229578889,0.16172946147571698
1789139608843028000,2.617028076171875,0.07283810916128762,-9.80519952045733,0.15212711226361778
1789139608853001000,2.6270009765625,0.0725689948950167,-9.80528969569327,0.14630176574119302
1789139608862974000,2.636973876953125,0.07152397574193395,-9.805392105309489,0.13985979653092045
1789139608872947000,2.646947021484375,0.07107549272216679,-9.805460435951579,0.13520541554120652
1789139608882920000,2.656919921875,0.07175410391751107,-9.805512078640135,0.13103580816027788
1789139608892893200,2.66689306640625,0.06928727190594874,-9.805574761488671,0.12762729328742622
1789139608902866000,2.676865966796875,0.06417482063248063,-9.805671004506893,0.12279939802305466
1789139608912839000,2.6868388671875,0.06028572548700353,-9.805740914964451,0.11914675224428567
1789139608922812000,2.69681201171875,0.05832152067152236,-9.805805781208303,0.11471869932718275
1789139608932785200,2.70678515625,0.05418692537357359,-9.805854471093234,0.11256712533362974
1789139608942758000,2.7167578125,0.05090582876060598,-9.805903478944575,0.10978343925316904
1789139608952729900,2.726729736328125,0.05192833236524366,-9.805933258151459,0.10658482922992513
1789139608962703000,2.736703125,0.055461880128378584,-9.805957831798274,0.1024343795580606
1789139608972676000,2.746676025390625,0.05692693894062245,-9.805992914260589,0.09820039696952348
1789139608982648800,2.75664892578125,0.05730918227816875,-9.806063778081862,0.09065231233984433
1789139608992621800,2.766621826171875,0.060072097411711205,-9.806133358496767,0.08081587262689388
1789139609002595000,2.776594970703125,0.06262646455148232,-9.806186397620106,0.07187427057757512
1789139609012568000,2.786568115234375,0.06193401780116486,-9.806254920073133,0.06247672303937782
1789139609022541000,2.796541015625,0.058701857961205355,-9.806342773894146,0.05081400146356877
1789139609032513800,2.806513671875,0.0574330130367135,-9.806406018491302,0.03850742605921625
1789139609042486800,2.81648681640625,0.057094242851600974,-9.806443228252784,0.028099214508646074
1789139609052460000,2.8264599609375,0.05552466381618116,-9.80647800188293,0.017218431466633963
1789139609062432000,2.836431884765625,0.05088535871265241,-9.806517512097418,0.0023655280761352847
1789139609072404700,2.84640478515625,0.05025752281610502,-9.806514404128965,-0.011701776726233978
1789139609082378000,2.8563779296875,0.05103711073373408,-9.806477002138024,-0.02806535591252456
1789139609092351000,2.86635107421875,0.05316024705799222,-9.806394945217736,-0.04654455461753764
1789139609102324000,2.876323974609375,0.05535213797814623,-9.806268383600774,-0.06648574338372305
1789139609112297000,2.886296875,0.05660013391572739,-9.806116917410385,-0.08515059369019595
1789139609122270000,2.89627001953125,0.05754187826766498,-9.80592208745353,-0.10473811628927221
1789139609132243000,2.906242919921875,0.058762001005490325,-9.805683601977616,-0.1245128701001996
1789139609142216000,2.9162158203125,0.05341620820692032,-9.805369778351848,-0.14915494538457696
1789139609152189000,2.92618896484375,0.047868241490579985,-9.804952234662773,-0.17607953548617475
1789139609162162200,2.936162109375,0.040354067375204104,-9.804477239894824,-0.20244527093333547
1789139609172134100,2.946134033203125,0.030393290408359735,-9.803945706244736,-0.2282624008111266
1789139609182107000,2.95610693359375,0.021604266181443687,-9.803316869738456,-0.2547639870076661
1789139609192080100,2.966080078125,0.01497668040480528,-9.802751288800177,-0.2761127124865427
1789139609202053000,2.97605322265625,0.00826835583753386,-9.80221832324819,-0.2946900091580487
1789139609212026000,2.986026123046875,0.005871870471302312,-9.801561336658192,-0.31582625403747067
1789139609221999000,2.9959990234375,0.008991483678182583,-9.800919373609448,-0.3350927994542052
1789139609231972000,3.00597216796875,0.015697431018435,-9.800430319849665,-0.34886577907949756
1789139609241945000,3.015945068359375,0.018784973238700008,-9.799883739634367,-0.36374893781898293
1789139609251918000,3.02591796875,0.02290738420914003,-9.799405693918665,-0.37616819082566755
1789139609261891000,3.03589111328125,0.026257470812744613,-9.798968236765653,-0.3872043754306839
1789139609271864000,3.045864013671875,0.027596996126691014,-9.798403499768595,-0.4011320637779422
1789139609281837000,3.055837158203125,0.023414797542986605,-9.797818819683341,-0.41543405995896227
1789139609291809000,3.06580908203125,0.01871185380900462,-9.797338975618196,-0.4268251499299574
1789139609301782000,3.075781982421875,0.014164372996868034,-9.796829946326818,-0.4385260653678806
1789139609311755300,3.08575537109375,0.0076601431971223015,-9.796181662705767,-0.45294203597305294
1789139609321728000,3.09572802734375,0.0017542316740593274,-9.79554029912023,-0.46666908527946627
1789139609331701000,3.105700927734375,-0.004412786387016588,-9.794905255459183,-0.4798019516174947
1789139609341674000,3.115674072265625,-0.01013983015126426,-9.794275914556469,-0.4923919694249097
1789139609351647200,3.125647216796875,-0.01533569297294014,-9.793312467509578,-0.511057148325204
1789139609361620200,3.1356201171875,-0.02077699694618146,-9.792215486844912,-0.5314828112099508
1789139609371593000,3.145593017578125,-0.027091829661436417,-9.79103416277941,-0.5525497267425428
1789139609381566000,3.15556591796875,-0.03275250431035024,-9.789709903465667,-0.5752368008730087
1789139609391539200,3.165539306640625,-0.03872988876019289,-9.788412543554701,-0.5965506969002069
1789139609401512200,3.17551220703125,-0.040843637109554985,-9.787295820608762,-0.614453162265981
1789139609411484000,3.18548388671875,-0.04380376557628225,-9.78608759113801,-0.633209335891511
1789139609421457200,3.19545703125,-0.045022549625962985,-9.78491238184114,-0.6510293106402165
1789139609431430100,3.20543017578125,-0.04482165992790243,-9.783825515074929,-0.6671947393555798
1789139609441403100,3.215403076171875,-0.04557096324874021,-9.782734199714605,-0.6829571390481451
1789139609451376000,3.225376220703125,-0.047426837057185506,-9.78163493730134,-0.6983965888479126
1789139609461349000,3.23534912109375,-0.047908909667097044,-9.780779871191301,-0.7102378006975189
1789139609471322000,3.245322021484375,-0.04934536819041306,-9.780122004567945,-0.719137969606813
1789139609481295000,3.255295166015625,-0.05082422920516645,-9.779513516356037,-0.72726692331598
1789139609491268000,3.26526806640625,-0.05171892117590379,-9.779133940302648,-0.7322869603392108
1789139609501241000,3.275240966796875,-0.05321589526172081,-9.778954479210965,-0.7345775051066552
1789139609511214000,3.285214111328125,-0.05370698445159898,-9.778876471994387,-0.7355847205185921
1789139609521187000,3.29518701171875,-0.05330220704975703,-9.778899217417393,-0.7353138690175799
1789139609531159000,3.305158935546875,-0.052282458542732405,-9.778980791368888,-0.7342945493407382
1789139609541132000,3.315132080078125,-0.05248061551661784,-9.779107546474108,-0.7325908113626789
1789139609551105000,3.32510498046875,-0.05441885463963642,-9.7791767398345,-0.7315238423448038
1789139609561078000,3.335078125,-0.05668658072343577,-9.779190966083824,-0.7311579726610823
1789139609571051000,3.345051025390625,-0.0583174011884596,-9.77927682181881,-0.7298751735774746
1789139609581024300,3.355024169921875,-0.05802261218952413,-9.779604707802525,-0.725501975410458
1789139609590997000,3.3649970703125,-0.05788288813081409,-9.78011017882057,-0.7186693212610279
1789139609600970000,3.374969970703125,-0.056941582099159165,-9.780597208516202,-0.7120815663148583
1789139609610943000,3.38494287109375,-0.054635964105601835,-9.781176287922532,-0.7042725643579976
1789139609620916200,3.394916259765625,-0.05022039366014142,-9.78162124601418,-0.698384779389574
1789139609630889200,3.40488916015625,-0.04597618475037682,-9.782107327741421,-0.6918441723217649
1789139609640862000,3.414862060546875,-0.04526457871003731,-9.78247296463125,-0.6867126391154467
1789139609650834200,3.424834228515625,-0.04556390730904442,-9.782956822714413,-0.679749760278371
1789139609660807200,3.43480712890625,-0.04541958256941037,-9.78332400251471,-0.674452500401241
1789139609670780200,3.4447802734375,-0.04769557782469058,-9.783732576656572,-0.6683511034216729
1789139609680753000,3.4547529296875,-0.04924154973383096,-9.78411869416756,-0.6625658600559036
1789139609690726100,3.46472607421875,-0.04931101601029217,-9.784529759106025,-0.6564592520977116
1789139609700699100,3.47469921875,-0.04944357693817365,-9.784935617878974,-0.6503787107204663
1789139609710672100,3.484672119140625,-0.04988544678036089,-9.785420360788478,-0.6430011369883505
1789139609720645000,3.49464501953125,-0.046459157705637,-9.785754948888693,-0.6381462077601898
1789139609730618000,3.5046181640625,-0.042199474408877044,-9.78594901972724,-0.6354597967315951
1789139609740591000,3.514591064453125,-0.04150645934227372,-9.786101031288625,-0.6331655108620129
1789139609750564000,3.524564208984375,-0.041675988045313576,-9.786235879854718,-0.6310650189590085
1789139609760537000,3.534537109375,-0.03963932832065919,-9.786370712329333,-0.6290891145124055
1789139609770509000,3.544509033203125,-0.04144060054268323,-9.78663567707706,-0.6248467712238083
1789139609780482000,3.55448193359375,-0.04622852103434137,-9.787011757531772,-0.6185980188237881
1789139609790455000,3.564455078125,-0.049624334026618325,-9.787425035768372,-0.6117492730362735
1789139609800428000,3.574427978515625,-0.0519596368739374,-9.787889452682945,-0.604072218497843
1789139609810401300,3.5844013671875,-0.05508574415060198,-9.788440210488693,-0.5948157755701532
1789139609820374000,3.5943740234375,-0.05677355225991744,-9.788999336352969,-0.585368745704587
1789139609830347000,3.604346923828125,-0.054228224576080494,-9.789624860623602,-0.5750644151263328
1789139609840320000,3.614320068359375,-0.05141373241291187,-9.790505570850296,-0.5601266365726241
1789139609850293200,3.624293212890625,-0.04841720023105161,-9.791477722076129,-0.5431426435462514
1789139609860266000,3.634265869140625,-0.046276528146530355,-9.792430013706973,-0.5258941135211992
1789139609870239000,3.644239013671875,-0.043462099635781924,-9.793516187862418,-0.5055143063508383
1789139609880212000,3.6542119140625,-0.03936681283904427,-9.794630029316524,-0.48380056209607747
1789139609890184200,3.66418408203125,-0.03631250914521174,-9.795639347536643,-0.46316432624182863
1789139609900157000,3.674156982421875,-0.03326502619459068,-9.79661167779928,-0.44236946276921085
1789139609910130000,3.6841298828125,-0.03048274739118175,-9.797518713949385,-0.4219892629275237
1789139609920103200,3.694103271484375,-0.026582399940255314,-9.79832642695185,-0.40306017570700037
1789139609930076200,3.704076171875,-0.023474827090157347,-9.799092133884445,-0.3842326283044808
1789139609940049200,3.714049072265625,-0.022070801641934555,-9.799966380884655,-0.3613369900921693
1789139609950022000,3.72402197265625,-0.019829301557934418,-9.80088814716567,-0.3355307509910663
1789139609959995100,3.7339951171875,-0.016881385821646503,-9.801711534197795,-0.31072669042905793
1789139609969968000,3.743968017578125,-0.015909412578962355,-9.802479900692662,-0.28550519776574723
1789139609979941000,3.753941162109375,-0.015412046423429188,-9.803161172096734,-0.2611093033820563
1789139609989914000,3.7639140625,-0.013494559889957628,-9.803738014816565,-0.23860866685054755
1789139609999887000,3.77388720703125,-0.012993654223477941,-9.80423089003332,-0.2174350218203885
1789139610009860000,3.783860107421875,-0.013503714286861226,-9.804686004971312,-0.19578553267243362
1789139610019832000,3.79383203125,-0.012163887100703145,-9.805055294783099,-0.17643056033025117
1789139610029805000,3.80380517578125,-0.012079709678348932,-9.805367770763269,-0.1581683575973755
1789139610039778000,3.813778076171875,-0.01256769703118759,-9.80565463012346,-0.13917893778882884
1789139610049751000,3.8237509765625,-0.01122223270262809,-9.805880006773913,-0.12238201214809272
1789139610059724000,3.83372412109375,-0.010031791384492233,-9.806048108949668,-0.10818951280996608
1789139610069697000,3.843697021484375,-0.007408530444621022,-9.806196576482419,-0.09408223473988385
1789139610079670300,3.853670166015625,-0.00528413302961574,-9.806314769335515,-0.08095221469833139
1789139610089643000,3.86364306640625,-0.003581201889578174,-9.806413949247595,-0.06798428001895178
1789139610099616000,3.873615966796875,-0.002355212829136602,-9.80650373760042,-0.053470065243969155
1789139610109589000,3.883589111328125,-0.0005913678198943217,-9.806570611099177,-0.03941640365866954
1789139610119562200,3.893562255859375,0.0018404808561117004,-9.80661438014423,-0.026250627400529056
1789139610129535200,3.90353515625,0.003607970389881138,-9.806640842846475,-0.012799188411173714
1789139610139507000,3.9135068359375,0.001503096905190857,-9.806649500475707,0.0008822819033160965
1789139610149480200,3.923480224609375,0.0004860983828738353,-9.806639659444262,0.014228099068502517
1789139610159453200,3.933453125,6.918425383921693e-05,-9.80660885927092,0.028384801062783065
1789139610169426200,3.94342626953125,-0.0010362061304360212,-9.806552965055449,0.04367404069181637
1789139610179399000,3.95339892578125,-0.005863899121612001,-9.806466740378795,0.0597199481937057
1789139610189372200,3.9633720703125,-0.00586021470090177,-9.806356517919797,0.0756592355860286
1789139610199345200,3.97334521484375,-0.0005723066780854594,-9.80621076800561,0.09280837223094235
1789139610209318100,3.983318115234375,0.0049627319328816024,-9.806070318532985,0.10652501652018974
1789139610219291000,3.993290771484375,0.00459705718748247,-9.805916570758873,0.11985859323706527
1789139610229264100,4.00326416015625,0.009996556061327036,-9.805703878425259,0.13583910743232042
1789139610239237000,4.013237060546875,0.013224022787495,-9.805438259760642,0.15361604594756428
1789139610249210000,4.023210205078125,0.006372432836068209,-9.805144123848219,0.1717581857848789
1789139610259183000,4.03318310546875,0.004171834535557641,-9.80482599631979,0.18911193805825477
1789139610269156000,4.043156005859375,0.004783777357583844,-9.804470445841925,0.2066929869736489
1789139610279128000,4.053128173828125,-0.00221735496093723,-9.80411159936978,0.2231159875686542
1789139610289101000,4.06310107421875,-0.007668619333041345,-9.803681996341403,0.2411104478032887
1789139610299074000,4.073073974609375,-0.005591121785058142,-9.803258946544862,0.2578451136631703
1789139610309047000,4.083047119140625,-0.00665187595735881,-9.802841920892849,0.27319766054100075
1789139610319020000,4.09302001953125,-0.011256701009422016,-9.802481631349568,0.2856670763610973
1789139610328993000,4.102992919921875,-0.009600555358771697,-9.8020549191215,0.30000081478267926
1789139610338966000,4.112966064453125,-0.006470813036220959,-9.801606511049712,0.3143902713984974
1789139610348939300,4.122939208984375,-0.004999279477609131,-9.801154587599422,0.3282227126127065
1789139610358912000,4.132912109375,-0.0008037652288105806,-9.80072324542055,0.3408998593024687
1789139610368885000,4.142885009765625,0.005561652205082665,-9.80025169833337,0.3541356624869092
1789139610378858000,4.15285791015625,0.008066928457492623,-9.799813049722566,0.3660187106143709
1789139610388831200,4.162831298828125,0.010118319576380048,-9.799391549217534,0.3771080690924289
1789139610398804200,4.17280419921875,0.012065113188976215,-9.799069160336897,0.38532614123932474
1789139610408776000,4.18277587890625,0.011201971597313636,-9.798759528330134,0.3931582070571315
1789139610418749200,4.192749267578125,0.00642317769527312,-9.798477177496782,0.400240701553773
1789139610428722200,4.20272216796875,0.0029418972020214067,-9.798222764063151,0.4064519703574794
1789139610438695200,4.212695068359375,0.0013588551658579376,-9.798064329682244,0.4102707829146776
1789139610448668000,4.22266796875,-0.002768032073100374,-9.797901155137628,0.4141496552542751
1789139610458641200,4.23264111328125,-0.004703183198235478,-9.797845106234707,0.41546182744886395
1789139610468614100,4.2426142578125,-0.0037042802957884388,-9.797848589188678,0.41538304385001557
1789139610478587100,4.252587158203125,-0.0018725272381195797,-9.797851534048695,0.41533287371899535
1789139610488560000,4.26256005859375,0.0005896101876962342,-9.79784701567626,0.4154250224042326
1789139610498533000,4.272533203125,0.0015890200141726357,-9.797989939312455,0.41203501947301924
1789139610508506000,4.282506103515625,0.002268543143303831,-9.798110714910218,0.40916414365215875
1789139610518479000,4.29247900390625,0.004324904505390856,-9.798254177250879,0.4056879594928948
1789139610528452000,4.3024521484375,0.006529376165879325,-9.798361091471547,0.403076689205223
1789139610538424000,4.312424072265625,0.006498718432650298,-9.79855669378844,0.3982905563306673
1789139610548397000,4.32239697265625,0.00881670338245594,-9.798790762802884,0.3924528940121836
1789139610558370000,4.3323701171875,0.011349238903610243,-9.799075178569751,0.3852135059900275
1789139610568343000,4.342343017578125,0.015537663160557328,-9.799368941154583,0.3775110325981598
1789139610578316000,4.35231591796875,0.018058644956507382,-9.799754473035533,0.3672620198882516
1789139610588289000,4.3622890625,0.0174955980661528,-9.800147799129924,0.3566247813080662
1789139610598262000,4.372261962890625,0.017422280309734115,-9.800570629845089,0.34480128770774343
1789139610608235000,4.382235107421875,0.015669238580380995,-9.801028366407154,0.3316329202596762
1789139610618208300,4.392208251953125,0.013156827756085178,-9.801485275096637,0.31798298727481655
1789139610628181000,4.402180908203125,0.009519917556709584,-9.801966592589343,0.3029105381651967
1789139610638154000,4.412154052734375,0.00506850169391261,-9.802456170875843,0.286732437103707
1789139610648127000,4.422126953125,0.0038173496689044126,-9.802883657601086,0.27173666844054767
1789139610658100200,4.432100341796875,0.004366582583350806,-9.803361862366783,0.25390086592197353
1789139610668072000,4.442072021484375,0.002894687915014383,-9.80383555179484,0.23490527693786928
1789139610678045000,4.452044921875,0.000939792065248009,-9.804276090057765,0.2157636781101085
1789139610688018200,4.46201806640625,0.0037357335600165216,-9.80467793571539,0.1966349549095338
1789139610697991200,4.4719912109375,0.006564244811024418,-9.805049909264957,0.17701011558515067
1789139610707964200,4.481964111328125,0.008317939289380747,-9.805358607377164,0.15892075109952017
1789139610717937000,4.49193701171875,0.009090719299821805,-9.805650789952738,0.13969206524877267
1789139610727910100,4.50191015625,0.00899776306401305,-9.805933444595828,0.11823783314009363
1789139610737883100,4.511883056640625,0.010507802937373271,-9.806153664652937,0.09808453988740003
1789139610747856100,4.521856201171875,0.008913536365134415,-9.806343881834078,0.07698298303515178
1789139610757829000,4.5318291015625,0.003948082822824126,-9.806495160416178,0.05502687293589779
1789139610767802000,4.541802001953125,0.0017498612897648782,-9.806592515456261,0.03368064192845955
1789139610777775000,4.551775146484375,0.0016935963804909592,-9.806637473532255,0.01558896019697265
1789139610787748000,4.561748046875,-0.004759750410311519,-9.806648463410127,-0.0005908828145238444
1789139610797720300,4.57172021484375,-0.00947689690413876,-9.806634567802083,-0.014665528070905709
1789139610807693000,4.581693115234375,-0.008042849181565573,-9.806606544555144,-0.0280025448493284
1789139610817666000,4.591666015625,-0.007144134496538859,-9.806566526858068,-0.03966404401857889
1789139610827639000,4.60163916015625,-0.011823917002948962,-9.806514352094155,-0.05023550316938939
1789139610837612000,4.611612060546875,-0.014585256871216269,-9.806457125778477,-0.05981580256278522
1789139610847585300,4.621585205078125,-0.010674912908827702,-9.806406134395242,-0.06826316573625948
1789139610857558000,4.63155810546875,-0.011509213258607034,-9.806365130455886,-0.07377477352489854
1789139610867531000,4.641531005859375,-0.017326721843173278,-9.806335868570889,-0.07657654587983373
1789139610877504000,4.65150390625,-0.019999577339594735,-9.80632381371777,-0.07741517957288961
1789139610887477200,4.661477294921875,-0.021825444485420942,-9.806318056368895,-0.07769265670050288
1789139610897450000,4.671449951171875,-0.026826487382358637,-9.806303557860465,-0.07791032295520606
1789139610907423000,4.681423095703125,-0.030629494600076766,-9.80629677790444,-0.07736329903019591
1789139610917396000,4.69139599609375,-0.031605543315935986,-9.806301321342291,-0.07638943197915166
1789139610927369200,4.701369140625,-0.02973209265532584,-9.806333884601186,-0.0729564001130624
1789139610937341000,4.7113408203125,-0.025779194396387525,-9.806386629291792,-0.06718671421903413
1789139610947314000,4.72131396484375,-0.021043812275410485,-9.806444546525881,-0.05993418434399746
1789139610957287200,4.731287109375,-0.016426946004461967,-9.806493792664423,-0.05293359328602697
1789139610967260200,4.74126025390625,-0.014010182538827881,-9.806538499743429,-0.04463464623914261
1789139610977233200,4.751233154296875,-0.011756932387068226,-9.806584803086553,-0.033938076602630964
1789139610987206000,4.761205810546875,-0.00855724488609542,-9.806619104057225,-0.023076042588513587
1789139610997179100,4.77117919921875,-0.006451491901991451,-9.80664308053677,-0.009935116358164653
1789139611007152000,4.781152099609375,-0.002168956872957673,-9.806646708395123,0.006861029241457466
1789139611017125000,4.791125,0.006790507739041044,-9.806615443768724,0.025101648344447874
1789139611027098000,4.80109814453125,0.014203418167285866,-9.80654722666941,0.04260425510568896
1789139611037071000,4.811071044921875,0.020989011475320726,-9.806443220258474,0.06010881367792569
1789139611047044000,4.821044189453125,0.029958750246314742,-9.806307004348211,0.07629980918730472
1789139611057017000,4.83101708984375,0.03925288454530243,-9.806125396010705,0.09347572173865412
1789139611066990000,4.840989990234375,0.044692036381484675,-9.805914115306056,0.11145597698286236
1789139611076963000,4.850963134765625,0.048316743581590986,-9.80566868136884,0.1300321415945779
1789139611086935000,4.86093505859375,0.049844750457247275,-9.805386761843558,0.14929749324381694
1789139611096908000,4.870907958984375,0.049361393360548234,-9.805063509017854,0.16933599133047655
1789139611106881000,4.880881103515625,0.04539245686810766,-9.804744045428887,0.18790647641727173
1789139611116854300,4.890854248046875,0.04223356014111188,-9.804385701873105,0.20645439858639647
1789139611126827000,4.900826904296875,0.03985184176971323,-9.804002749183756,0.22433324873854688
1789139611136800000,4.910800048828125,0.03920619692878672,-9.803623083962679,0.2404743010400218
1789139611146773000,4.92077294921875,0.04276358566945985,-9.803227745467753,0.25551505940548236
1789139611156746200,4.930746337890625,0.05004474447725084,-9.802820259657143,0.2694398953733381
1789139611166719500,4.940719482421875,0.05758487328075719,-9.802403431680887,0.2827656258234544
1789139611176692500,4.9506923828125,0.0624553239433842,-9.802035747915657,0.29425048765207146
1789139611186665500,4.96066552734375,0.06616885599020125,-9.801676991822518,0.3051588721122206
1789139611196638500,4.970638427734375,0.06790723188020849,-9.801427353064023,0.3127259610241132
1789139611206611500,4.980611572265625,0.06773161052693422,-9.801246771204758,0.31838424806809545
1789139611216584400,4.99058447265625,0.06491188514649185,-9.801095817400363,0.3235728926474037
1789139611226556400,5.000556396484375,0.06149337697020106,-9.800927160664664,0.3292829350802405
1789139611236529400,5.010529296875,0.057111168523715596,-9.80086050874194,0.33204708802825217
1789139611246502400,5.02050244140625,0.055122674084319256,-9.800707738968903,0.3368599273854554
1789139611256475400,5.030475341796875,0.05357395060321666,-9.800491528805706,0.3433330702311745
1789139611266448400,5.040448486328125,0.05215567291396893,-9.800368708146024,0.3470393586476075
1789139611276421600,5.050421630859375,0.05059288697541673,-9.800361449298912,0.3474842711002102
1789139611286394400,5.060394287109375,0.05122173156605723,-9.800325480868397,0.34839221029657574
1789139611296367400,5.070367431640625,0.05201875855282768,-9.800417043129666,0.345700012926324
1789139611306340400,5.08034033203125,0.053654462885134695,-9.800550737894286,0.34163560229793116
1789139611316313600,5.090313720703125,0.05127466273598424,-9.800729443402307,0.33681873554069236
1789139611326286600,5.10028662109375,0.0506409077331005,-9.80092554170554,0.33116784030160445
1789139611336259300,5.11025927734375,0.05255433498724296,-9.801082496701179,0.326176875836817
1789139611346232300,5.120232421875,0.05250653465849703,-9.801207271266023,0.32242262585135073
1789139611356205600,5.13020556640625,0.048713726009785366,-9.801428572290227,0.3162307176280955
1789139611366177500,5.140177490234375,0.045831195743564326,-9.801696081117422,0.30827988157345637
1789139611376150300,5.150150390625,0.04381311017486143,-9.80194800155387,0.3004566227626352
1789139611386123500,5.16012353515625,0.04209113937047563,-9.802288689025033,0.2893978235924476
1789139611396096500,5.170096435546875,0.04176099366923012,-9.802659086747237,0.27665152304075946
1789139611406069500,5.180069580078125,0.04260846562151369,-9.803020471722519,0.2633443358557055
1789139611416042500,5.19004248046875,0.039281317181211056,-9.803426583392596,0.24832060282240123
1789139611426015500,5.200015380859375,0.03919776512476133,-9.803849113337156,0.23103715607616188
1789139611435988500,5.209988525390625,0.0459348495691334,-9.804201005843192,0.21427545034980147
1789139611445961500,5.21996142578125,0.05213831995915733,-9.804518020954852,0.19773353514939887
1789139611455934500,5.2299345703125,0.05061851668012888,-9.80486824940243,0.1799523895390859
1789139611465907500,5.239907470703125,0.052607111428752136,-9.80517203565511,0.16195326380945227
1789139611475880400,5.24988037109375,0.05641184606043684,-9.805468832159887,0.14140576569930918
1789139611485853400,5.259853515625,0.053771254564738115,-9.805776825761772,0.11931778080917163
1789139611495826400,5.269826416015625,0.049156578427781844,-9.80604862814528,0.0968470308044205
1789139611505799400,5.27979931640625,0.04650834204552881,-9.806250625064253,0.07535254422121236
1789139611515771400,5.289771484375,0.04439158110045191,-9.806398404805913,0.05450349486390638
1789139611525744400,5.299744384765625,0.04127781773698515,-9.806494760862906,0.036746181878665636
1789139611535717400,5.30971728515625,0.03656524627431215,-9.806561255277039,0.020483086831554073
1789139611545690600,5.319690673828125,0.0333137918321934,-9.806592451108903,0.002820371975710186
1789139611555663400,5.329663330078125,0.03064616044530761,-9.806591836332798,-0.01424489923962256
1789139611565636400,5.33963623046875,0.026717321524213352,-9.806568061819398,-0.029791801472270164
1789139611575609300,5.349609375,0.023282526945879147,-9.806511040479391,-0.046774059708401365
1789139611585582600,5.35958251953125,0.022505794532041233,-9.806412745521778,-0.0643688312464765
1789139611595555600,5.3695556640625,0.023093276965556114,-9.806314218019427,-0.0778100893163521
1789139611605528300,5.3795283203125,0.021131487772195846,-9.806208337322872,-0.09068436995977068
1789139611615501300,5.389501220703125,0.020332768171084557,-9.806097166898647,-0.10215457748545706
1789139611625474600,5.399474609375,0.021723297103372247,-9.80597315648552,-0.11313140923579221
1789139611635447600,5.409447509765625,0.02422974104523201,-9.805852084937866,-0.12273304990262218
1789139611645420500,5.419420654296875,0.024971949642896507,-9.805724342611446,-0.1324435506864316
1789139611655393300,5.429393310546875,0.025785028480425375,-9.80562394378424,-0.13953890655116696
1789139611665365500,5.439365478515625,0.02729403816065578,-9.805519693205447,-0.14637441201206544
1789139611675338500,5.44933837890625,0.02593619038019998,-9.805422611252498,-0.15298310960728762
1789139611685311500,5.4593115234375,0.022689437352296154,-9.805314645777546,-0.16023220779399816
1789139611695284500,5.469284423828125,0.019863002016774087,-9.805195716247201,-0.1677343937920696
1789139611705257500,5.479257568359375,0.015513498063666831,-9.805092294740671,-0.17410455768909133
1789139611715230500,5.48923046875,0.011177232188732155,-9.804985322343443,-0.18036106635383953
1789139611725203500,5.499203369140625,0.008455152089670353,-9.804884397896815,-0.1858834141151136
1789139611735176400,5.509176513671875,0.005762223479236141,-9.804843948664926,-0.18812690664467852
1789139611745149400,5.5191494140625,0.0014446014191562917,-9.804832204350946,-0.1887909326510189
1789139611755122400,5.529122314453125,0.0004950305888080633,-9.804813447155409,-0.18978548514116664
1789139611765095400,5.539095458984375,0.003858507805029516,-9.80478781313973,-0.19104852926703542
1789139611775068400,5.549068359375,0.005640464482899437,-9.804804362874762,-0.1901769032012162
1789139611785041700,5.559041748046875,0.007555759216458638,-9.804822198151918,-0.1891983603935046
1789139611795014400,5.569014404296875,0.010133945807824467,-9.804855264227955,-0.18734612592728275
1789139611804987400,5.5789873046875,0.011828566233126149,-9.804886996275185,-0.18557589430028898
1789139611814959600,5.588959716796875,0.010357623186260706,-9.804923584190657,-0.18373436741421983
1789139611824932600,5.5989326171875,0.007478908515325412,-9.804921068293991,-0.18397781605870078
1789139611834905300,5.6089052734375,0.007619810355842737,-9.80492900284662,-0.1835616747097819
1789139611844878300,5.61887841796875,0.008117720208931442,-9.80495691593086,-0.18203288021906228
1789139611854851600,5.6288515625,0.005471344368429326,-9.804988393302853,-0.18040525644207442
1789139611864824600,5.638824462890625,0.005048912608017406,-9.805075348235679,-0.1756865536698946
1789139611874797300,5.64879736328125,0.008249269369678087,-9.805217929506693,-0.16737710721911112
1789139611884770300,5.658770263671875,0.007467960942616196,-9.80538858362544,-0.157097127458226
1789139611894743600,5.66874365234375,0.0020916929998974704,-9.805554143312216,-0.14658334996683975
1789139611904716500,5.678716552734375,0.0050881508558362895,-9.805711061595792,-0.13561195453873767
1789139611914689500,5.688689453125,0.011387633319986526,-9.80581860021008,-0.12719225345006213
1789139611924662300,5.698662353515625,0.00988524713340673,-9.805920069063596,-0.11925438676232149
1789139611934635500,5.708635498046875,0.008174769545263567,-9.805984378293436,-0.11395502997577732
1789139611944608500,5.7186083984375,0.016702767282281046,-9.806023237674154,-0.10962629874932922
1789139611954581500,5.72858154296875,0.021084863511644177,-9.80605631568331,-0.10584961116569906
1789139611964553500,5.738553466796875,0.018876168026350934,-9.806110502546096,-0.10104682188082402
1789139611974526500,5.7485263671875,0.01985659615714926,-9.80617898435408,-0.09401462092386768
1789139611984499500,5.75849951171875,0.02564661675248457,-9.806230118032492,-0.08709486863905015
1789139611994472400,5.768472412109375,0.027921080816751574,-9.806279089778013,-0.08060906234207126
1789139612004445400,5.778445556640625,0.025593336537977133,-9.806307650373293,-0.07794984980644444
1789139612014418400,5.78841845703125,0.026112429446499687,-9.8063199617509,-0.0761505790321375
1789139612024391400,5.798391357421875,0.0296641541542324,-9.806322656241436,-0.07455495309818327
1789139612034364400,5.808364501953125,0.027892857485362396,-9.806328273666283,-0.07437213189640973
1789139612044337400,5.81833740234375,0.025264133584103943,-9.806325990844481,-0.07569671065694307
1789139612054310700,5.828310546875,0.028781751924067484,-9.806299679289719,-0.07776514771750884
1789139612064283400,5.838283447265625,0.029143526855614513,-9.80628083470539,-0.07992799674223379
1789139612074256400,5.84825634765625,0.028386199389315307,-9.806253529961474,-0.08355299208373995
1789139612084229400,5.8582294921875,0.031195888856832527,-9.806207010304151,-0.08789306808645425
1789139612094202600,5.86820263671875,0.03323593284008128,-9.806177528926554,-0.09036334867031505
1789139612104175600,5.878175537109375,0.03549147224519641,-9.806156189849249,-0.09181549860298154
1789139612114148400,5.8881484375,0.03949524098423909,-9.806108754473259,-0.09515580886003179
1789139612124120600,5.89812060546875,0.040871550790288674,-9.806065888539127,-0.09892644167892248
1789139612134093600,5.908093505859375,0.04227665466246873,-9.806037426077964,-0.10120725957791124
1789139612144066600,5.918066650390625,0.04634806716619353,-9.805993531156545,-0.10360134383938426
1789139612154039300,5.928039306640625,0.0470887979973099,-9.805964956571128,-0.10589592256664711
1789139612164012300,5.93801220703125,0.0474828753349043,-9.805938138483844,-0.10819941219479916
1789139612173985000,5.947985107421875,0.048188667857642274,-9.80590064523699,-0.1112452656787003
1789139612183958000,5.9579580078125,0.04099167625623633,-9.805891534167634,-0.11487036522529892
1789139612193931000,5.967930908203125,0.03954021320440389,-9.805862520003346,-0.11775553411986199
1789139612203904300,5.977904296875,0.04346249238346141,-9.805838537365538,-0.11847799272314322
1789139612213877200,5.987877197265625,0.04427940525825146,-9.805813430064754,-0.12020701718059575
1789139612223850000,5.99785009765625,0.04388765157310115,-9.805808094730098,-0.12078538374900767
1789139612233823000,6.007822998046875,0.05354255880795722,-9.805745960632596,-0.12191699376811829
1789139612243796200,6.017796142578125,0.06524073578766719,-9.805667008800386,-0.12256080202759143
1789139612253769200,6.027769287109375,0.07062737012943521,-9.805620408736077,-0.12328911055186391
1789139612263742000,6.037741943359375,0.07319048149605993,-9.805560256926702,-0.12659593225487012
1789139612273714200,6.047714111328125,0.07855341112231203,-9.805454810881702,-0.1314574637441367
1789139612283687200,6.057687255859375,0.08262602876472677,-9.805374142603833,-0.134879873596948
1789139612293660200,6.06766015625,0.08382183001427412,-9.805336172041512,-0.13693753499235875
1789139612303633000,6.0776328125,0.0823978676030871,-9.80532479464367,-0.1385844841016665
1789139612313606100,6.087606201171875,0.08279327150836664,-9.80531909209111,-0.13875761119909466
1789139612323579100,6.0975791015625,0.08240566413364324,-9.805346961600986,-0.1369528469531321
1789139612333552000,6.10755224609375,0.07977381801047145,-9.805434432291635,-0.13216326662553593
1789139612343525000,6.117525146484375,0.07778283770719134,-9.805514077547228,-0.12737286201984035
1789139612353497900,6.127497802734375,0.07626199328272278,-9.805581335692413,-0.12305731802170441
1789139612363471000,6.13747119140625,0.07611369498327837,-9.805650020471914,-0.1175414622816345
1789139612373444000,6.147444091796875,0.07452272772823386,-9.805718332054374,-0.11281489027122205
1789139612383417000,6.1574169921875,0.07544407162506031,-9.80574880254121,-0.10950301046457789
1789139612393390000,6.16739013671875,0.07815113581814187,-9.8057333036458,-0.10895938707351002
1789139612403363000,6.177363037109375,0.08034336732759129,-9.805743922260387,-0.10635630681672693
1789139612413336000,6.187336181640625,0.08060283492826259,-9.805739334305219,-0.10659195960951558
1789139612423309000,6.19730908203125,0.0814738638406022,-9.805752298642252,-0.10470917502020836
1789139612433281300,6.20728125,0.0806614622599565,-9.805776699316263,-0.10309053736648328
1789139612443254000,6.21725390625,0.07741736868931644,-9.805825395520365,-0.1008891619320198
1789139612453227000,6.22722705078125,0.0698838616401979,-9.805891111404476,-0.09997894939877618
1789139612463200000,6.237199951171875,0.06059808114790981,-9.805989353975024,-0.09636621626359923
1789139612473173200,6.24717333984375,0.04948084021664984,-9.806102279487789,-0.09100236041972154
1789139612483146200,6.257146240234375,0.03892383202098466,-9.80619862865237,-0.08576231987292546
1789139612493119000,6.267118896484375,0.034898914003916356,-9.806252600284639,-0.08120993346977223
1789139612503092000,6.277092041015625,0.034238672572521826,-9.806294785440103,-0.07608843881029295
1789139612513065200,6.287065185546875,0.03526971100090649,-9.806326511751696,-0.07143187924098163
1789139612523038200,6.2970380859375,0.03597570642134518,-9.806360186192,-0.06618101514502263
1789139612533011200,6.30701123046875,0.041008137243828444,-9.806380606337973,-0.05997237933241264
1789139612542984000,6.31698388671875,0.04759212287039613,-9.806404549328269,-0.05052166601230151
1789139612552957200,6.326957275390625,0.047983744755903064,-9.80644615114649,-0.04112578942194008
1789139612562930200,6.33693017578125,0.0470173975522709,-9.806481631715984,-0.03286460139304618
1789139612572903200,6.346903076171875,0.04801683460125609,-9.806502071543733,-0.02453132116867102
1789139612582875100,6.356875244140625,0.04533096120542432,-9.806537420023014,-0.012880297915777383
1789139612592848100,6.36684814453125,0.04355265244891335,-9.806553370137365,-0.000602748952261257
1789139612602821000,6.376821044921875,0.040267949124005206,-9.80656183578302,0.010454321014689356
1789139612612794000,6.386794189453125,0.036083801518611174,-9.806562708346421,0.02029629092278502
1789139612622766800,6.396766845703125,0.031630478701298294,-9.806558487309593,0.028210197365579257
1789139612632740000,6.406739990234375,0.0296760948342764,-9.806540037966347,0.0355684685935757
1789139612642713000,6.416713134765625,0.030602992612280024,-9.806514572072647,0.041590034683218
1789139612652686000,6.42668603515625,0.03154744252909759,-9.806494695476502,0.045311532656448314
1789139612662659000,6.4366591796875,0.03412368433175066,-9.806478431824296,0.04685377963738886
1789139612672632000,6.446632080078125,0.03737666349432496,-9.80645445568798,0.04942909438899706
1789139612682605000,6.45660498046875,0.041037093459615114,-9.80642561661309,0.05216675829823367
1789139612692578000,6.466578125,0.040645352141196085,-9.80641118554165,0.055121088600686076
1789139612702551000,6.476551025390625,0.03673619468453764,-9.806427402373464,0.05502864796786014
1789139612712524300,6.486524169921875,0.03866124592940759,-9.806427648687151,0.05364244446989929
1789139612722497000,6.4964970703125,0.03870894643908599,-9.806427280401698,0.053632181459322775
1789139612732470000,6.506469970703125,0.034779609657521256,-9.80643824198021,0.05434089613411835
1789139612742442200,6.516442138671875,0.03535872996933789,-9.806435219456338,0.0545137426918973
1789139612752415200,6.526415283203125,0.03973012059644194,-9.806407587729066,0.056391160679423014
1789139612762388000,6.536387939453125,0.041005518684538805,-9.806368801611764,0.06198086270727119
1789139612772361000,6.54636083984375,0.04373975460704338,-9.806310731935852,0.06889872058576207
1789139612782334200,6.556334228515625,0.04617116450251419,-9.806243508962377,0.07638652254656231
1789139612792307200,6.56630712890625,0.04959739286320486,-9.806164878081164,0.08395803431828186
1789139612802280200,6.5762802734375,0.05351888042215875,-9.806096234670576,0.08941293346878983
1789139612812253000,6.5862529296875,0.061851566061099324,-9.805989438722454,0.0955273403760798
1789139612822226000,6.596225830078125,0.06744354989195059,-9.805884987414478,0.10226525397868262
1789139612832199200,6.60619921875,0.07151483995191939,-9.805769026030726,0.11030144645937892
1789139612842172200,6.616172119140625,0.07662210242598416,-9.805630002868517,0.11891212698151635
1789139612852145200,6.626145263671875,0.08262065800466543,-9.805487042560872,0.12638166258661107
1789139612862118000,6.636117919921875,0.08359833545910639,-9.805386582682548,0.1333918843251875
1789139612872091100,6.646091064453125,0.08381720544572976,-9.805333680692863,0.13708582552585802
1789139612882064100,6.656064208984375,0.08562940306119311,-9.805313013770107,0.13739361617277732
1789139612892037000,6.666037109375,0.08678007140681168,-9.805280056075366,0.13903856593406647
1789139612902009000,6.676009033203125,0.0861447913799241,-9.80526844319115,0.14027731162999418
1789139612911982000,6.685982177734375,0.08540822314721268,-9.805255314658062,0.14162892855212503
1789139612921955000,6.695955078125,0.08937308779859199,-9.805186262768505,0.1439334020319215
1789139612931928000,6.705927978515625,0.09101138109031394,-9.805149455786607,0.14540986733236153
1789139612941901300,6.7159013671875,0.08905371930550092,-9.805172948403738,0.14505380298914053
1789139612951874000,6.7258740234375,0.09315911235241783,-9.805160919286113,0.14323954573815448
1789139612961847000,6.735846923828125,0.1002716463137081,-9.805135617802943,0.14012308813691152
1789139612971820000,6.745820068359375,0.10189986813055703,-9.805182784607682,0.1356290017663444
1789139612981793300,6.755793212890625,0.10342032061808587,-9.805189903052135,0.1339832884674585
1789139612991766000,6.76576611328125,0.10641469248374155,-9.805147429864773,0.13473952223387
1789139613001739000,6.775739013671875,0.1057963891427035,-9.805113252582059,0.13762592511534327
1789139613011712000,6.7857119140625,0.09862580703908941,-9.805120234805448,0.14240384952117666
1789139613021685200,6.795685302734375,0.09062121601491659,-9.8051149776015,0.1479668276931054
1789139613031658200,6.805658203125,0.08817271737492807,-9.805084109307398,0.15149445222138552
1789139613041631000,6.815630859375,0.08865998543123156,-9.805023050639631,0.1550754276736726
1789139613051604000,6.82560400390625,0.08430123511329661,-9.804999707171698,0.15896522135892893
1789139613061577000,6.835576904296875,0.08062373084598745,-9.80501958254751,0.15960766235742935
1789139613071549200,6.845549072265625,0.0817407996889967,-9.805008964848648,0.15965975841970803
1789139613081522000,6.85552197265625,0.08166112751590034,-9.805007648677066,0.15980438512017214
1789139613091495000,6.865494873046875,0.07715515864144337,-9.805070718634564,0.15817064568009956
1789139613101468200,6.87546826171875,0.07154738054695849,-9.805173079824533,0.15442125367397672
1789139613111441200,6.885441162109375,0.0682591877946906,-9.805262678904004,0.15019114067949899
1789139613121414100,6.8954140625,0.06481074325880637,-9.805368613649202,0.14468968836383805
1789139613131387000,6.905386962890625,0.06129140225778268,-9.80549172136773,0.1377232485461482
1789139613141360000,6.915360107421875,0.05403753288180878,-9.805630997302881,0.13065141954086398
1789139613151333000,6.9253330078125,0.048466469360059355,-9.805733651372714,0.12503413229728044
1789139613161306000,6.93530615234375,0.043513540558369944,-9.80581657740327,0.12026000864717547
1789139613171278800,6.94527880859375,0.039483597712560284,-9.805915082812538,0.11334227147171828
1789139613181252000,6.955252197265625,0.0357104784647563,-9.80603158730777,0.1041688612764195
1789139613191225000,6.96522509765625,0.0318817822702411,-9.806150482046583,0.09367689421598815
1789139613201197800,6.97519775390625,0.029273398885453956,-9.806256965765881,0.08275765013353481
1789139613211170800,6.9851708984375,0.029538023571681234,-9.80634067924452,0.07199488424273694
1789139613221144000,6.99514404296875,0.02928040359769565,-9.80641268594783,0.06167008632746999
1789139613231116000,7.005115966796875,0.027672328065129998,-9.806466922865622,0.05306604906157649
1789139613241088800,7.0150888671875,0.023832844314721924,-9.806516891291682,0.045242131301120384
1789139613251062000,7.02506201171875,0.021026941400249972,-9.806548515586716,0.03944809506657932
1789139613261035000,7.035034912109375,0.0170220368032785,-9.806579155520541,0.03319342938901239
1789139613271008000,7.045008056640625,0.012233943021869552,-9.806604637779776,0.027324736200665476
1789139613280981000,7.05498095703125,0.009260443385167363,-9.806622968932604,0.021362631736904728
1789139613290954000,7.0649541015625,0.010367834456441197,-9.806634101902597,0.014538917799090237
1789139613300927000,7.074927001953125,0.009950493654670793,-9.806643201425242,0.006162341345086476
1789139613310900000,7.08489990234375,0.009399443800822391,-9.806645427708029,-0.001934461036005022
1789139613320873000,7.094873046875,0.010155376236133632,-9.80663734393688,-0.011924253699642057
1789139613330846000,7.104845947265625,0.01103159060767246,-9.806628278501096,-0.01755057303074962
1789139613340819000,7.11481884765625,0.010275709222100169,-9.806619220605436,-0.0222884597454603
1789139613350792000,7.1247919921875,0.008978753147455934,-9.806606247717225,-0.027940423735901006
1789139613360765000,7.134764892578125,0.007959103679678028,-9.806590631634526,-0.03333001456906172
1789139613370738000,7.144738037109375,0.008659912062474413,-9.806578490679568,-0.03656435358474978
1789139613380711200,7.154711181640625,0.00936556053605198,-9.806563070453018,-0.040357167714267686
1789139613390683000,7.164682861328125,0.010049519814935388,-9.806539246609091,-0.0455422868532158
1789139613400656000,7.17465576171875,0.013383248648797166,-9.806518110817027,-0.04902630246266075
1789139613410629000,7.184629150390625,0.016787355507898352,-9.806502358059474,-0.0512159772950678
1789139613420601900,7.194601806640625,0.019971002187861308,-9.806490679156624,-0.052117855211700356
1789139613430574800,7.204574951171875,0.023751027583159334,-9.806472038294743,-0.05405743349444163
1789139613440547800,7.2145478515625,0.027421658176056324,-9.806453578170442,-0.05567976289759519
1789139613450521000,7.22452099609375,0.028249870550305145,-9.806450530038225,-0.055707858922003056
1789139613460494000,7.234494140625,0.029583353232464606,-9.80643821539242,-0.05728155680039638
1789139613470466800,7.244466796875,0.030932802167386808,-9.806436334800456,-0.05686442561655852
1789139613480439800,7.254439697265625,0.028427593756787703,-9.806448782723606,-0.055961345385716794
1789139613490413000,7.2644130859375,0.014773006534874907,-9.806486167185591,-0.05473552612714472
1789139613500386000,7.274385986328125,0.009379023453178708,-9.806500095321459,-0.05348785446412373
1789139613510359000,7.284359130859375,0.015109296320217583,-9.806509241390936,-0.050244221525583596
1789139613520331800,7.294331787109375,0.009707530403856473,-9.806536462282313,-0.04611731685996174
1789139613530305000,7.304304931640625,0.002557522537542766,-9.806553308705947,-0.04335326362036746
1789139613540278000,7.314278076171875,0.014665034696226249,-9.806551140803064,-0.04151028876476864
1789139613550251000,7.3242509765625,0.02498719740401825,-9.806541800061353,-0.038522927421673354
1789139613560224000,7.33422412109375,0.025012221599373295,-9.806551883453125,-0.03589953007223999
1789139613570196000,7.344196044921875,0.028195374602790216,-9.806551657194703,-0.03364087772478495
1789139613580169000,7.3541689453125,0.03246249411751977,-9.806546642626202,-0.03107684448462621
1789139613590142000,7.364141845703125,0.03279977374464538,-9.806558966036551,-0.02674984445284251
1789139613600115000,7.374114990234375,0.030585801561557113,-9.806576323905617,-0.022557891277977898
1789139613610088000,7.384087890625,0.025684610702069545,-9.80659776243774,-0.01902837045042723
1789139613620061000,7.39406103515625,0.021792032478346362,-9.80661414202077,-0.014796779921527661
1789139613630034000,7.404033935546875,0.017225371802133915,-9.806630851188949,-0.009179576974253286
1789139613640007000,7.4140068359375,0.013215557665590877,-9.806640370208765,-0.004169940863287411
1789139613649980200,7.423980224609375,0.008731220459337984,-9.806645944636623,0.0025933394560741264
1789139613659953000,7.433952880859375,0.006118420096332398,-9.80664087189233,0.012240055121184298
1789139613669926000,7.44392578125,0.004209609927516914,-9.80662512127394,0.021865030529172564
1789139613679899000,7.45389892578125,0.0009140510836538474,-9.806597979646932,0.03196695911080598
1789139613689872100,7.4638720703125,-0.0015649974988793656,-9.806562375082272,0.04144128794682418
1789139613699845000,7.47384521484375,-0.001068646192501595,-9.806522265754682,0.0501207295140402
1789139613709817900,7.48381787109375,-7.201652142866143e-05,-9.80646987889583,0.05948356068262009
1789139613719790800,7.493790771484375,-0.002067050830304619,-9.806409116277356,0.06869814541097317
1789139613729764000,7.50376416015625,-0.004900160454529437,-9.8063455508387,0.0771613280941484
1789139613739737000,7.513737060546875,-0.009185218319668221,-9.806271523953974,0.08567209425988143
1789139613749708800,7.523708740234375,-0.014094550246204724,-9.806181201026556,0.09483374809514565
1789139613759682000,7.53368212890625,-0.021584004561046106,-9.806102665058667,0.10130370113995824
1789139613769655000,7.543655029296875,-0.030016802706836977,-9.806027343837993,0.10631688371611962
1789139613779628000,7.5536279296875,-0.03737052199800692,-9.805953484037953,0.11073636283374343
1789139613789600800,7.563600830078125,-0.04267805558025964,-9.805883132571669,0.11499252870868527
1789139613799574000,7.573573974609375,-0.044724840333234664,-9.80579777037157,0.12135886628709504
1789139613809547000,7.583547119140625,-0.04631782827220177,-9.805711336431505,0.12752407146656103
1789139613819520000,7.59352001953125,-0.05058203615255236,-9.805641488318278,0.1312402713316038
1789139613829493000,7.603492919921875,-0.054206247470423234,-9.805579799042963,0.13435453514152465
1789139613839466000,7.613466064453125,-0.05622432916568665,-9.805519849972434,0.1378596325778542
1789139613849439000,7.62343896484375,-0.05937018432401354,-9.80541993606495,0.14351202917024164
1789139613859412000,7.633411865234375,-0.0656168412436888,-9.805264599391094,0.15118673276846775
1789139613869385000,7.643385009765625,-0.06892972509279734,-9.80513903229442,0.1577326850315221
1789139613879358000,7.65335791015625,-0.07228610604614605,-9.805008641008648,0.16420385701718768
1789139613889331000,7.6633310546875,-0.07634229844254259,-9.804861423463022,0.1710051560495907
1789139613899304000,7.673303955078125,-0.07689104261380686,-9.804765653131593,0.17620043192308982
1789139613909277000,7.68327685546875,-0.07799343094351484,-9.804668439315158,0.1810524778603892
1789139613919249200,7.693249267578125,-0.08025095751056778,-9.804533055126141,0.1872764798682747
1789139613929222000,7.703221923828125,-0.08227629134524977,-9.804389941717016,0.1938163117969086
1789139613939195000,7.71319482421875,-0.08440072673104713,-9.804257519016689,0.19948239871465004
1789139613949167900,7.72316796875,-0.08601512726936576,-9.804121556890497,0.20537645155064868
1789139613959141000,7.73314111328125,-0.08549771955793659,-9.804029213782796,0.20995650267030375
1789139613969114000,7.743114013671875,-0.08104694010939145,-9.804000472250403,0.21302235518667795
1789139613979086800,7.7530869140625,-0.07536644926280196,-9.804024256088006,0.21407073568826557
1789139613989059800,7.763059814453125,-0.06896618190266048,-9.804060705135566,0.214511477243147
1789139613999033000,7.773033203125,-0.059041907560409626,-9.804139621954205,0.21389756867361834
1789139614009006000,7.783006103515625,-0.05148709483060888,-9.804223528545918,0.21202116113051014
1789139614018979000,7.79297900390625,-0.04570841837642796,-9.804333546397864,0.20819382439069362
1789139614028951800,7.802951904296875,-0.040834425750201846,-9.8044396979697,0.2041795785872862
1789139614038925000,7.812925048828125,-0.036754311749383095,-9.804580250522688,0.19809056171296507
1789139614048898000,7.82289794921875,-0.034717233843114065,-9.804676183871349,0.19363705188235336
1789139614058871000,7.83287109375,-0.03298640420153056,-9.804751034935922,0.19013183609264417
1789139614068844000,7.842843994140625,-0.03236124837927754,-9.804822245071037,0.1865505020820444
1789139614078816800,7.852816650390625,-0.030685914664807627,-9.804860110321455,0.18483157099584246
1789139614088789000,7.8627890625,-0.028563431121682928,-9.804900664908175,0.18301367707283744
1789139614098762000,7.872761962890625,-0.02739736170803323,-9.804948222465136,0.1806073847353894
1789139614108734700,7.882734619140625,-0.023222435112171487,-9.80500113669739,0.1783513443452021
1789139614118708000,7.8927080078125,-0.0152599643672711,-9.805065284745488,0.175612689413314
1789139614128681000,7.902680908203125,-0.00840131131118759,-9.805138543260655,0.17197960674488688
1789139614138654000,7.912654052734375,0.00036803939617312156,-9.805230222328328,0.16687336194220503
1789139614148627000,7.922626953125,0.00918262036199242,-9.805316013659935,0.16145058592842657
1789139614158600000,7.932599853515625,0.014925612957337603,-9.805432259531687,0.15376276410588677
1789139614168573000,7.942572998046875,0.017573800833969807,-9.805554219958822,0.145540323470194
1789139614178546000,7.9525458984375,0.02097933620056146,-9.80566706053384,0.137262670694768
1789139614188519000,7.962518798828125,0.02136463095090143,-9.805743253305415,0.13165413243445248
1789139614198492200,7.9724921875,0.019686542826641132,-9.805780473138416,0.12911778121917628
1789139614208465200,7.982465087890625,0.015913343244566835,-9.805818895250448,0.12666330712177384
1789139614218438000,7.99243798828125,0.012951188180552952,-9.805896814831659,0.12087167613245178
1789139614228411000,8.002410888671875,0.012263602162341437,-9.805962087211233,0.11550024512597362
1789139614238384000,8.012384033203125,0.012114241141273928,-9.806057620991695,0.10717292229750078
1789139614248357000,8.022357177734374,0.012532002220775697,-9.806140248273126,0.09922963364402265
1789139614258330000,8.032330078125,0.014703427140271825,-9.80620244146209,0.09256747832262621
1789139614268302800,8.042302734375,0.018637450186484838,-9.806247725303878,0.08689577754363267
1789139614278275000,8.052275146484375,0.023701320216437075,-9.8062771773715,0.08218805361019065
1789139614288248000,8.062248046875,0.026965754143862514,-9.806293706494293,0.07916656883637187
1789139614298221000,8.072220947265626,0.029473845504350445,-9.806311663750712,0.07599118440696168
1789139614308194000,8.082194091796875,0.03275220090934207,-9.806316495453784,0.07393086819750085
1789139614318167000,8.0921669921875,0.034703477495090555,-9.806316373263483,0.07303530872018481
1789139614328140000,8.10214013671875,0.034816153762489706,-9.80632589722053,0.07178433174170878
1789139614338113000,8.112113037109374,0.03290341906869983,-9.806354211649134,0.0687505732864375
1789139614348086000,8.1220859375,0.032286995690168276,-9.806366234651527,0.06727209922146668
1789139614358059000,8.13205908203125,0.03282380075273804,-9.806383349094759,0.06443548885132128
1789139614368032000,8.142031982421875,0.0320330382434844,-9.806403931510856,0.06161920258807058
1789139614378005000,8.1520048828125,0.033717290757746037,-9.80642606055821,0.05712305099086348
1789139614387978000,8.16197802734375,0.03499856669594334,-9.806442167672387,0.05348404770488633
1789139614397951000,8.171950927734375,0.03484446911979732,-9.806459108109607,0.05042083862034564
1789139614407924000,8.181924072265625,0.037029348337691614,-9.806465402043276,0.04756229298783604
1789139614417897000,8.19189697265625,0.03739509791178783,-9.806475469146571,0.04504117328218198
1789139614427870000,8.201869873046874,0.03555714007359249,-9.806490074437287,0.043146437124966346
1789139614437843200,8.21184326171875,0.03622523603781716,-9.806502540882082,0.03978309645731336
1789139614447816000,8.22181591796875,0.03415549312725413,-9.806518363979588,0.03748443288505381
1789139614457788000,8.231787841796875,0.031514141011795505,-9.806540746352683,0.03401794999327343
1789139614467761200,8.24176123046875,0.02806757514688233,-9.806562256591075,0.030692556620073762
1789139614477734100,8.251734130859376,0.02694350104810901,-9.806569040507723,0.029449444255532052
1789139614487707000,8.261706787109375,0.025038714581596906,-9.806581258393198,0.027055503090977515
1789139614497680000,8.271679931640625,0.01977546616968664,-9.80660595301206,0.021563705056518143
1789139614507653000,8.281653076171875,0.01759200771263796,-9.806617870110468,0.017717874436816747
1789139614517626000,8.291626220703124,0.018077565406747455,-9.80662223498896,0.014968335785026302
1789139614527599000,8.30159912109375,0.016323540594881274,-9.80663102007711,0.01073460235897622
1789139614537571800,8.31157177734375,0.014631415555878545,-9.806637245631226,0.006805380525828182
1789139614547544800,8.321544921875,0.016081319695430318,-9.806636714949269,0.003531967051090089
1789139614557518000,8.33151806640625,0.019636487440866626,-9.806630103645396,-0.001088850480139901
1789139614567491000,8.341490966796876,0.021057102261345304,-9.806625607323888,-0.005602437617565019
1789139614577464000,8.351464111328125,0.022288916749422388,-9.806618327585532,-0.011603628296468502
1789139614587436800,8.361436767578125,0.023057449185184035,-9.806604777751142,-0.019285133931941718
1789139614597410000,8.37141015625,0.02102702224369983,-9.806584070282971,-0.029024369678030126
1789139614607383000,8.381383056640624,0.018543215219357506,-9.80655084790515,-0.039987214318419194
1789139614617356000,8.39135595703125,0.015424052123970494,-9.806508942818393,-0.050368391872731906
1789139614627329000,8.4013291015625,0.012176343562454374,-9.806443166683822,-0.06253674640632362
1789139614637302000,8.411302001953125,0.007862894877812476,-9.806367457711238,-0.07397809013190465
1789139614647274000,8.42127392578125,0.004567949792873475,-9.806289542638233,-0.0840225202942704
1789139614657247000,8.4312470703125,0.003950502490854356,-9.806197846558428,-0.09411102969158482
1789139614667220200,8.44122021484375,0.002113101374290005,-9.806102868015989,-0.10364016427646121
1789139614677193000,8.45119287109375,0.0013927959344911189,-9.805991234245573,-0.11372154398409863
1789139614687166000,8.461166015625,0.002134301180183628,-9.805876673129921,-0.12307966705614318
1789139614697139000,8.471138916015626,0.0028041547329046316,-9.805769103451631,-0.1314037311434784
1789139614707112200,8.4811123046875,0.005351235835430634,-9.805683238324466,-0.13758456309422293
1789139614717085200,8.491085205078125,0.005350656850807432,-9.805605463157644,-0.14299907219352348
1789139614727058000,8.501057861328125,0.005870384474185893,-9.805519439419601,-0.1488180464977592
1789139614737031000,8.511031005859374,0.0049092661849276025,-9.805422580343198,-0.15506819811350245
1789139614747004200,8.521004150390626,0.0042061152401248695,-9.805321036289783,-0.16140679796274615
1789139614756977200,8.53097705078125,0.0034508187914122647,-9.805188258337024,-0.16926794575550885
1789139614766950000,8.540949951171875,0.0016543133669147797,-9.805085310931766,-0.17516303316491097
1789139614776923000,8.5509228515625,-0.0029685123177259688,-9.804947641009061,-0.18268514050255044
1789139614786896000,8.560895751953124,-0.005844319216869967,-9.80479228822032,-0.1907850503046579
1789139614796869000,8.570869140625,-0.007546247545991503,-9.804631746802512,-0.19878626007474057
1789139614806842000,8.580842041015625,-0.010021901363037437,-9.80446930874972,-0.20657186506558928
1789139614816814800,8.59081494140625,-0.011285097384818577,-9.804283348384184,-0.21514039745687139
1789139614826787800,8.600787841796874,-0.013388113396251452,-9.804065790164094,-0.2246973811805618
1789139614836760000,8.610760009765626,-0.012082425042930682,-9.803845058064585,-0.23421607752295537
1789139614846733000,8.620733154296875,-0.010104949767160216,-9.80367644120483,-0.24126924041087425
1789139614856705800,8.630705810546875,-0.007698390109194607,-9.80354267636834,-0.2467430356310053
1789139614866679000,8.640678955078124,-0.005249170146913404,-9.803405463959606,-0.2522038964200128
1789139614876652000,8.650652099609376,-0.0027358274384363516,-9.803279974911192,-0.25707510160334146
1789139614886625000,8.660625,0.00043159021640385223,-9.803127879866596,-0.2628157330521698
1789139614896598000,8.670597900390625,0.0002679326490316364,-9.802924730690235,-0.270279446037674
1789139614906571000,8.680571044921875,-0.0007630528690312744,-9.802769544325715,-0.2758655836695687
1789139614916544000,8.6905439453125,-0.0013067569327651527,-9.80261204795076,-0.2813759925570896
1789139614926517000,8.70051708984375,-0.0022288698448428494,-9.802494420259585,-0.2854298709704359
1789139614936490000,8.710489990234375,-0.00024298845464989027,-9.80240756234783,-0.28842011151298125
1789139614946463200,8.720463134765625,0.0019442553648115447,-9.80226328879256,-0.2932690334932797
1789139614956436000,8.73043603515625,0.002817747881523996,-9.802066083398548,-0.2997907646454219
1789139614966409000,8.740408935546874,0.003902481916214061,-9.801850751332074,-0.30672443033463165
1789139614976382000,8.7503818359375,0.0071928441517808885,-9.801579931325834,-0.31520544122935096
1789139614986355000,8.76035498046875,0.00723299223051065,-9.801403829042801,-0.32062842533205294
1789139614996328200,8.770328125,0.005345951289687336,-9.801303437789318,-0.32371284995185556
1789139615006301000,8.780301025390624,0.0038882639319529114,-9.801220052896392,-0.32627073986372573
1789139615016274000,8.79027392578125,0.001691507581269571,-9.801141266229154,-0.32864269032695176
1789139615026247000,8.800246826171875,-0.0011848629374730563,-9.80098207843019,-0.3333652907680673
1789139615036219100,8.81021923828125,-0.004705488755217216,-9.800786430822322,-0.3390314753356153
1789139615046191900,8.82019189453125,-0.00740608251102905,-9.80056806299066,-0.34522253334059483
1789139615056164900,8.830164794921876,-0.00943556009932925,-9.800396811259347,-0.3500291785078058
1789139615066138000,8.84013818359375,-0.010003594734080842,-9.800202872967041,-0.355377574477135
1789139615076111000,8.850111083984375,-0.01078585328622886,-9.800098786185025,-0.3582352474146498
1789139615086083800,8.860083740234375,-0.00841959595755407,-9.799969779226851,-0.36180901510823005
1789139615096056800,8.870056884765624,-0.00750881431892271,-9.799792918481328,-0.3665954907887061
1789139615106030000,8.880030029296876,-0.004302242246342691,-9.79958786305099,-0.3720847472333693
1789139615116003000,8.890003173828125,-0.0040920516511473255,-9.799365733573273,-0.3778954116421385
1789139615125976000,8.89997607421875,-0.004395479423783106,-9.799122835419327,-0.38413136281566457
1789139615135948800,8.90994873046875,-0.005693623255036587,-9.798867188085175,-0.3905829128276911
1789139615145922000,8.919922119140624,-0.010185266282531245,-9.798603207312148,-0.3970570152953365
1789139615155895000,8.92989501953125,-0.015294161160481637,-9.798323750519176,-0.4037447676617861
1789139615165868000,8.939867919921875,-0.020785217392765627,-9.798077841729855,-0.40942239664458546
1789139615175841300,8.94984130859375,-0.026010360353876688,-9.797831399788619,-0.4149785153230646
1789139615185814000,8.95981396484375,-0.03146179789039772,-9.797615206428029,-0.4196732025926507
1789139615195787300,8.969787353515626,-0.03529226582646848,-9.797412631899759,-0.4240709340661119
1789139615205760300,8.97976025390625,-0.03914315038639643,-9.797330026506836,-0.42564006080934763
1789139615215733200,8.989733154296875,-0.04132428838417447,-9.797226754014252,-0.42780690837226715
1789139615225705200,8.999705322265624,-0.043596273517651773,-9.797074967816762,-0.4310595767263405
1789139615235678200,9.00967822265625,-0.041127771346017035,-9.796957942946507,-0.4339500053623268
1789139615245651200,9.019651123046875,-0.03877672761172386,-9.796913736650248,-0.4351676445650887
1789139615255624200,9.029624267578123,-0.037787915466965284,-9.796811813444238,-0.43751974873313093
1789139615265597200,9.03959716796875,-0.035036169654078964,-9.79668434230029,-0.4405975902450346
1789139615275570200,9.049570068359374,-0.03380243427850891,-9.796637251341867,-0.4417456659744632
1789139615285543200,9.059543212890626,-0.036157915459057714,-9.796515192840827,-0.4442570701546654
1789139615295516200,9.06951611328125,-0.040180193257097034,-9.79630355261011,-0.44855900748905725
1789139615305489400,9.079489501953123,-0.04283563117708175,-9.79610754403948,-0.4525687898930411
1789139615315462100,9.089462158203125,-0.046570745336575736,-9.795902140950885,-0.4566445333971666
1789139615325435100,9.09943505859375,-0.05185407472842414,-9.795756668706911,-0.4591961592429989
1789139615335408000,9.109408203125,-0.05737881361489489,-9.795637278147348,-0.461081477657857
1789139615345381400,9.11938134765625,-0.05981839157214617,-9.795394235575671,-0.46590526651060404
1789139615355354400,9.129354248046877,-0.06313825946380325,-9.79517980788949,-0.4699392039464944
1789139615365327000,9.1393271484375,-0.06782664149230141,-9.795080028351402,-0.4713781489047366
1789139615375300000,9.149300048828126,-0.0708847926178782,-9.794966464955484,-0.47328404627671244
1789139615385273300,9.1592734375,-0.07390858615702162,-9.794936942346354,-0.4734246770449619
1789139615395246300,9.169246337890623,-0.07428156708595927,-9.794839689980744,-0.4753921394022912
1789139615405219300,9.17921923828125,-0.07227621095735465,-9.794815820356217,-0.4761888938756714
1789139615415192000,9.189192138671874,-0.06954432507571709,-9.794715948352515,-0.4786231069205389
1789139615425164300,9.199164306640624,-0.06785712161089835,-9.794700735834338,-0.4791763808259872
1789139615435137300,9.20913720703125,-0.06654064639562195,-9.7946562626651,-0.4802750524146265
1789139615445110300,9.2191103515625,-0.06447534233374404,-9.794671626105645,-0.48024070357094883
1789139615455083000,9.2290830078125,-0.061000045230017313,-9.794668480792472,-0.4807707914974989
1789139615465056300,9.23905615234375,-0.06281725333121262,-9.79467092175142,-0.4804836186356675
1789139615475029200,9.249029296875,-0.06223999002364124,-9.794691599515545,-0.480140581793868
1789139615485002200,9.259002197265623,-0.06073943756025877,-9.794797141065596,-0.47816859609365053
1789139615494975200,9.268975341796876,-0.056788379622304756,-9.794962716782361,-0.47525049454817836
1789139615504948200,9.2789482421875,-0.053601935060316026,-9.795255732211087,-0.4695460437249014
1789139615514921200,9.288921142578126,-0.05243371249237635,-9.795565556275362,-0.4631770022327295
1789139615524894200,9.298894287109375,-0.049280507918797505,-9.795916860589312,-0.4560473215659728
1789139615534867200,9.3088671875,-0.04441186262054278,-9.796352637624501,-0.44707543937493077
1789139615544840200,9.318840087890624,-0.0419299933223942,-9.796814478554797,-0.43709710553565506
1789139615554813200,9.328813232421876,-0.03885485787249327,-9.79737127567417,-0.4247129566366756
1789139615564786200,9.3387861328125,-0.03253346783190497,-9.79791382347038,-0.41257395425528937
1789139615574759200,9.34875927734375,-0.02836960227731144,-9.798540413545386,-0.39773851066494614
1789139615584732400,9.358732421875,-0.024562623605024758,-9.799057076713305,-0.38506474444250005
1789139615594705200,9.368705078125,-0.017658666251226116,-9.799488068847927,-0.37431897246865176
1789139615604678100,9.37867822265625,-0.016969969738542506,-9.799896230119545,-0.3634929863679614
1789139615614651100,9.388651123046875,-0.019740757665360625,-9.800353193839184,-0.35082376323484793
1789139615624624000,9.3986240234375,-0.022682052215070487,-9.800752244978158,-0.33932255058466754
1789139615634596000,9.40859619140625,-0.02786378216661712,-9.801256780558347,-0.32401254598104856
1789139615644569000,9.418569091796876,-0.031734160385573994,-9.801743010735354,-0.30856132846475315
1789139615654542000,9.4285419921875,-0.028539956240649096,-9.802201927376807,-0.2939626344251636
1789139615664515300,9.438515380859377,-0.025753306365438672,-9.802603793149267,-0.2804954047476558
1789139615674488300,9.44848828125,-0.01998674725359169,-9.802978167993995,-0.2675904905904375
1789139615684461000,9.4584609375,-0.011026478404151554,-9.803306494717718,-0.2558235112543742
1789139615694434000,9.46843408203125,-0.005357341555076014,-9.803630143094036,-0.24330057734039723
1789139615704407300,9.4784072265625,0.0013791558354818438,-9.803989305833396,-0.22844233967008656
1789139615714380300,9.48838037109375,0.007002337281430333,-9.804300602314898,-0.21454511518390051
1789139615724353300,9.498353271484374,0.01205390747026403,-9.804585039991938,-0.20089063775073157
1789139615734326000,9.508325927734376,0.014174922617690336,-9.804878687905997,-0.18584629393426252
1789139615744299300,9.51829931640625,0.009851912796835519,-9.80512360602032,-0.17272698876807657
1789139615754272300,9.528272216796877,0.007972422148435621,-9.805365009043681,-0.15850905445919314
1789139615764245200,9.538245361328125,0.005410534741893158,-9.805618270035474,-0.1421475309576558
1789139615774218200,9.54821826171875,0.0012869553756505823,-9.805849618367525,-0.1252602104888795
1789139615784191200,9.558191162109376,-0.0022421215232071696,-9.806050086494576,-0.10845967757750928
1789139615794164200,9.568164306640623,-0.0011093866913634155,-9.806219591740687,-0.0918543625740806
1789139615804137200,9.57813720703125,0.0012909740004584448,-9.80635248023611,-0.07636812908156237
1789139615814110200,9.588110107421874,0.004214042363546155,-9.806446088820802,-0.06315864296256735
1789139615824083500,9.59808349609375,0.006059555329115152,-9.806524189689737,-0.049319337566842744
1789139615834056200,9.60805615234375,0.007454091036601385,-9.806585073910473,-0.03489547526686525
1789139615844028200,9.618028076171877,0.007707697501409105,-9.806623836735923,-0.021223125275441974
1789139615854001400,9.62800146484375,0.004768339443702521,-9.806644896632791,-0.008455204520396343
1789139615863974100,9.63797412109375,0.0014233413415475817,-9.806648066344215,0.00510662792537638
1789139615873947100,9.647947021484375,0.0009680037872292679,-9.80663379507879,0.017947853910738377
1789139615883920100,9.657920166015623,-0.0024765583041135818,-9.80659839746432,0.03157891721170758
1789139615893893000,9.66789306640625,-0.0077514312188435045,-9.80655095670677,0.043319354902205794
1789139615903866400,9.677866455078124,-0.012269432267875417,-9.8065038491151,0.05211434821142248
1789139615913839000,9.687839111328126,-0.018061235004958966,-9.806449181930917,0.06016145082239686
1789139615923812000,9.69781201171875,-0.02404491585864744,-9.80638737765709,0.0675714717089709
1789139615933785000,9.70778515625,-0.030506949920373526,-9.806319248621033,0.07455748988011551
1789139615943758300,9.71775830078125,-0.039942861759208,-9.806219299365061,0.08278887487711423
1789139615953731300,9.7277314453125,-0.041690585704295145,-9.806146877610272,0.09015955506437406
1789139615963704000,9.7377041015625,-0.036016137046962965,-9.806100347033949,0.097355905782886
1789139615973677000,9.747677001953123,-0.03570806841163155,-9.806054136221737,0.10199177107084151
1789139615983650300,9.757650390625,-0.03281740271513761,-9.806038117075685,0.10452089950374839
1789139615993623300,9.767623291015624,-0.02994558551087658,-9.806043027149698,0.1049532879392495
1789139616003596300,9.77759619140625,-0.02960896940073951,-9.806033147779965,0.10598482250035052
1789139616013569000,9.787569091796875,-0.03295735315999196,-9.806038616385543,0.10444985809414575
1789139616023542300,9.797542236328123,-0.04030311203768299,-9.806040822162604,0.10161513782621076
1789139616033515300,9.807515380859376,-0.04558891461188407,-9.806044751233737,0.09896656203090531
1789139616043488300,9.81748828125,-0.049886042941919256,-9.806038706914148,0.09744475589268804
1789139616053460200,9.827460205078124,-0.05115354240965858,-9.80607448987157,0.09313633999914642
1789139616063433200,9.83743310546875,-0.05448027239237615,-9.806107551035197,0.08754677111773738
1789139616073406200,9.84740625,-0.05846904947826074,-9.806137714738105,0.0814191532147038
1789139616083379200,9.857379150390624,-0.058267789915710154,-9.806184449440458,0.0757545724301544
1789139616093352200,9.867352294921876,-0.05693462860669994,-9.80622939732104,0.0707570343646389
1789139616103325200,9.8773251953125,-0.057005997622130766,-9.80625298991727,0.06733182041836863
1789139616113298200,9.887298095703123,-0.05764804762521202,-9.806277366728864,0.0630896411641953
1789139616123271200,9.897271240234376,-0.05566466210090436,-9.806319626422797,0.05816174828473677
1789139616133244200,9.907244140625,-0.05732951124943118,-9.806339120499008,0.053108979198346125
1789139616143217400,9.917217529296876,-0.062232719948793196,-9.806340490821121,0.04682516202350697
1789139616153190100,9.927190185546875,-0.06613954180156138,-9.806349885664986,0.038963880868271544
1789139616163163100,9.9371630859375,-0.07012844865887043,-9.806351513528544,0.030485599322662305
1789139616173136000,9.947135986328124,-0.07428786176295582,-9.806344845818542,0.021460061322944476
1789139616183109000,9.957109130859376,-0.07705125667944986,-9.806339391919655,0.0123721218469711
1789139616193081900,9.967081787109375,-0.08017581160621502,-9.806320237263531,0.005344955009107652
1789139616203054800,9.977054931640623,-0.0797835117149063,-9.806325332651772,-0.000819978691243109
1789139616213027800,9.98702783203125,-0.07720643842750778,-9.806342647770425,-0.008901786625450159
1789139616223001000,9.9970009765625,-0.07505601684954062,-9.806345765876763,-0.01828551852328331
1789139616232974000,10.00697412109375,-0.07321915423370053,-9.80633163650395,-0.029814374889772958
1789139616242946800,10.01694677734375,-0.07084405925053597,-9.806307275712541,-0.04134692047804876
1789139616252919800,10.026919921875,-0.06735486368355056,-9.806281262032453,-0.05199578057931342
1789139616262892000,10.03689208984375,-0.073595908602532,-9.806179429952264,-0.06176858582759966
1789139616272865000,10.046864990234376,-0.07311494254331798,-9.806114519714155,-0.07174582608357326
1789139616282837800,10.056837646484375,-0.06589373830165754,-9.806107251663729,-0.07939066000446407
1789139616292811000,10.06681103515625,-0.06549816634878294,-9.806050145185203,-0.08645987108152732
1789139616302784000,10.076783935546874,-0.06545924803604089,-9.805972548870686,-0.09488910474986866
1789139616312757000,10.086757080078126,-0.05943338510720685,-9.80590568161603,-0.10521562211494875
1789139616322730000,10.09672998046875,-0.05766342083428312,-9.805843500072772,-0.11176131228293254
1789139616332703000,10.106702880859377,-0.0650550975468474,-9.805741262214841,-0.11651995464412722
1789139616342676000,10.116676025390625,-0.06749065103589455,-9.805687189629124,-0.11969442858936725
1789139616352649000,10.12664892578125,-0.0696701739852331,-9.805656069797262,-0.1209617447967332
1789139616362622000,10.1366220703125,-0.07272669636239476,-9.805637967807185,-0.12069305843898752
1789139616372595000,10.146594970703124,-0.07041831292837665,-9.805666064605306,-0.11971586690588028
1789139616382568000,10.15656787109375,-0.06338041521843868,-9.805705300207638,-0.12045691217504602
1789139616392541000,10.166541015625,-0.059121934386665825,-9.80573059421658,-0.12056887403987535
1789139616402514000,10.176513916015624,-0.054527592726534804,-9.805745953054755,-0.12150030186770452
1789139616412487000,10.18648681640625,-0.04863285063047349,-9.805738653749778,-0.12450561905570795
1789139616422460200,10.196460205078123,-0.04436340323018542,-9.805702504328401,-0.12889727645454868
1789139616432433000,10.206432861328125,-0.037265969326938306,-9.805659893416218,-0.13427080947834077
1789139616442406000,10.216406005859374,-0.03199973327955035,-9.80562727397699,-0.1379555432084833
1789139616452379000,10.22637890625,-0.029160358354918793,-9.805565028692929,-0.14297640076538762
1789139616462352100,10.23635205078125,-0.02697803480328296,-9.805478600375677,-0.14915865329252231
1789139616472324900,10.246324951171877,-0.023432295732513143,-9.805404984961466,-0.1545252937699603
1789139616482296800,10.256296875,-0.01995635938269699,-9.805324775145893,-0.1599784537813215
1789139616492270000,10.26627001953125,-0.016064950932198695,-9.805251048900939,-0.16488855482906886
1789139616502243000,10.2762431640625,-0.014430164664812674,-9.805147513617012,-0.17105839577639062
1789139616512215800,10.2862158203125,-0.006668279652700921,-9.805023106188687,-0.17851097305299554
1789139616522188800,10.296188720703125,-0.00031189143686117426,-9.804962045750962,-0.18194858152594431
1789139616532162000,10.306162109375,0.0085526547862827,-9.804889671992166,-0.18564281616305173
1789139616542135000,10.316135009765626,0.013359514033940183,-9.804804664985939,-0.18977687153086492
1789139616552108000,10.32610791015625,0.021255286666331686,-9.804709660175451,-0.19389221560959302
1789139616562080800,10.336080810546877,0.034112589176432596,-9.804591487280176,-0.19800176301897984
1789139616572054000,10.346053955078125,0.038319733446770345,-9.804428729022233,-0.20516730289513022
1789139616582027000,10.356027099609374,0.04515723039153828,-9.804277645631428,-0.210913132184038
1789139616592000000,10.366,0.048438062667122264,-9.804161433508055,-0.2155367093736063
1789139616601973000,10.375972900390623,0.054082797931419936,-9.804044519646252,-0.2194584108965369
1789139616611946000,10.385946044921877,0.062398970523899276,-9.80388095002791,-0.2245259114358916
1789139616621919000,10.3959189453125,0.06740741672383004,-9.803714543029711,-0.2302531732355958
1789139616631892000,10.40589208984375,0.07167477033547716,-9.80352658241907,-0.2368771720754616
1789139616641865000,10.415864990234375,0.07822992029673646,-9.803307219758388,-0.24380162740269734
1789139616651838000,10.425837890625,0.08038251078696391,-9.803143292265935,-0.2496113207771041
1789139616661811000,10.43581103515625,0.08637734559938925,-9.802969754228565,-0.2543954118633202
1789139616671784000,10.445783935546874,0.09313143485300013,-9.802801944786177,-0.2584530480849538
1789139616681757000,10.4557568359375,0.09726719350083501,-9.802681994674325,-0.261428780308436
1789139616691730000,10.46572998046875,0.10237326764173404,-9.80244408277019,-0.26832398291316295
1789139616701702000,10.475701904296876,0.10577591591487355,-9.802186285046764,-0.27631684987814764
1789139616711675000,10.4856748046875,0.10565241092486513,-9.80197917874195,-0.28360209818637394
1789139616721647900,10.49564794921875,0.10674877928583235,-9.801816756906286,-0.28875115544384494
1789139616731621000,10.50562109375,0.10685617113972569,-9.801696283491978,-0.2927860387082724
1789139616741594000,10.515593994140623,0.10759793602493614,-9.801626643218274,-0.2948438144797852
1789139616751566800,10.52556689453125,0.11328096409818707,-9.801527443443728,-0.29598988359844963
1789139616761539800,10.535539794921876,0.11902238688624572,-9.801387310885993,-0.2983606661056529
1789139616771513000,10.54551318359375,0.1259224945698346,-9.801177969113539,-0.30239613078690125
1789139616781486000,10.555486083984375,0.13522122630826988,-9.80090970661038,-0.3070375035291322
1789139616791458800,10.565458740234376,0.1481377027954481,-9.80056842605221,-0.3119227427169064
1789139616801431800,10.575431884765624,0.15655346368056636,-9.800270306765976,-0.3171237190439259
1789139616811405000,10.585405029296876,0.16065869501770227,-9.800057557839619,-0.32161887128672134
1789139616821378000,10.5953779296875,0.16861528878555343,-9.79985012153071,-0.323865403905717
1789139616831351000,10.60535107421875,0.17355213906132694,-9.79973027552136,-0.3248887782235561
1789139616841323800,10.61532373046875,0.17183288634487398,-9.799805461278819,-0.32353530292677846
1789139616851297000,10.625297119140624,0.17134830839235954,-9.799775142601272,-0.3246982437481164
1789139616861270000,10.63527001953125,0.1688602708293176,-9.799711633977376,-0.3279027436587682
1789139616871243000,10.645242919921875,0.16701558183203952,-9.79966507608467,-0.33022754508728946
1789139616881216000,10.655216064453125,0.16406581673010762,-9.799634961799823,-0.3325895542695334
1789139616891188700,10.665188720703124,0.15998600199061083,-9.799617354882255,-0.33510260508502004
1789139616901162000,10.675161865234376,0.16488988607074717,-9.799485304372418,-0.33657277300569516
1789139616911135000,10.685135009765624,0.17030931010139855,-9.799361551992462,-0.33747859485888854
1789139616921107000,10.69510693359375,0.1718128107396414,-9.79927077281418,-0.33936722530907554
1789139616931080000,10.705079833984374,0.1811485680904263,-9.799035645767248,-0.34128455573764943
1789139616941053000,10.715052978515626,0.1863489365160291,-9.798786318533052,-0.3456224050394105
1789139616951026000,10.72502587890625,0.18845053024236322,-9.798619109198112,-0.3491912668852889
1789139616960999000,10.7349990234375,0.1901185537766715,-9.798534237344699,-0.3506668042846215
1789139616970972200,10.74497216796875,0.19097275544753672,-9.79856288940857,-0.34940735042436993
1789139616980945000,10.75494482421875,0.18795650568907799,-9.798757692454753,-0.345546798156663
1789139616990918000,10.76491796875,0.18309157121761327,-9.798994455521953,-0.3414207882519139
1789139617000891000,10.774890869140624,0.18174717767420293,-9.799148286307442,-0.3377137795889819
1789139617010864000,10.784864013671877,0.18285546745252065,-9.799203218948689,-0.3355093196266387
1789139617020837000,10.794837158203125,0.18377340359890432,-9.799254183537814,-0.3334985271147294
1789139617030809900,10.804809814453124,0.1870858960575673,-9.799227309825431,-0.3324554285536433
1789139617040782800,10.814782958984376,0.19363964461652594,-9.799251009446209,-0.3279746843640514
1789139617050756000,10.824756103515623,0.19745302586155558,-9.799433464358177,-0.32017153451999314
1789139617060729000,10.83472900390625,0.20103853354356474,-9.799712789813805,-0.30918731991449283
1789139617070702000,10.8447021484375,0.20065167509941859,-9.8001427008468,-0.2955235740631646
1789139617080674800,10.8546748046875,0.1960025844877478,-9.800707062150398,-0.2794676177527682
1789139617090647800,10.864647705078124,0.189761319326573,-9.801247907540741,-0.2643911028729326
1789139617100621000,10.87462109375,0.1858384288965161,-9.801705422836935,-0.2498421423929632
1789139617110594000,10.884593994140625,0.18139647124526764,-9.802142562442487,-0.23556980559730295
1789139617120566800,10.89456689453125,0.17550100607989177,-9.802605513018225,-0.22024979826024327
1789139617130539800,10.904539794921876,0.1709128087086497,-9.803006915763136,-0.2055082882055474
1789139617140513000,10.914512939453124,0.16778130564930377,-9.803399166389044,-0.18866013947399946
1789139617150485000,10.924485107421877,0.16032499491917998,-9.803847477057879,-0.17101431083849605
1789139617160457700,10.934457763671874,0.15705920681520297,-9.80423305225607,-0.15076334529092575
1789139617170431500,10.944431396484376,0.15582680082084818,-9.804533143806445,-0.131250575807782
1789139617180404500,10.954404541015624,0.15037909587392614,-9.804849785137689,-0.1126525533008491
1789139617190377500,10.96437744140625,0.1462387204001834,-9.805078638776843,-0.09709356878184458
1789139617200350500,10.9743505859375,0.1462740807635019,-9.805221815163502,-0.08123270510467248
1789139617210323500,10.984323486328124,0.1426065200979849,-9.80540966856993,-0.06303332763346996
1789139617220296700,10.994296630859376,0.1336413210373687,-9.805636350350687,-0.04479678740560329
1789139617230269400,11.00426953125,0.12457461686208122,-9.805828807058683,-0.024492280756794806
1789139617240242400,11.014242431640625,0.11316529689477155,-9.805996385300016,-0.004392133116408378
1789139617250215400,11.02421533203125,0.09808937531589598,-9.806146607026152,0.016036976461349
1789139617260188700,11.034188720703124,0.08341929488529908,-9.806239059824417,0.033366385292075154
1789139617270161400,11.044161376953124,0.06523703923095253,-9.806299705952325,0.05118275186796829
1789139617280134400,11.054134521484375,0.04951504518661138,-9.806301538639403,0.06630911649030796
1789139617290107400,11.064107421875,0.03227395017049216,-9.806272850137528,0.07972636193230541
1789139617300080600,11.07408056640625,0.019452832376918545,-9.806193113086604,0.09265552966459822
1789139617310053600,11.0840537109375,0.013028134073573895,-9.806057300110762,0.10701535122775487
1789139617320026400,11.0940263671875,0.00543463797201439,-9.805914623717092,0.1199965151739642
1789139617329999400,11.103999267578123,-0.0023170970915082326,-9.8057597402067,0.13216168982690898
1789139617339972600,11.11397265625,-0.007645452478892986,-9.805569815582267,0.14539489652662937
1789139617349945600,11.123945556640624,-0.010828214540638367,-9.80532555021439,0.16078372313170097
1789139617359918600,11.133918701171876,-0.014525994278444547,-9.8050737254988,0.17522581347881117
1789139617369891300,11.143891357421875,-0.021379432218024606,-9.804816466182677,0.18842923749756021
1789139617379864600,11.153864501953125,-0.027849474102432593,-9.804591198017024,0.1989766099443909
1789139617389836500,11.16383642578125,-0.03443554499973514,-9.804356726181265,0.20927414180783033
1789139617399809500,11.1738095703125,-0.043519918653385156,-9.80411713095617,0.21858694621770108
1789139617409782500,11.183782470703123,-0.05526323359496397,-9.803789980564982,0.23028508204937767
1789139617419755500,11.193755615234377,-0.06759705828258876,-9.803431515338586,0.2419390491366685
1789139617429728500,11.203728515625,-0.07679772635095294,-9.803033491594627,0.254987307207764
1789139617439701500,11.213701416015626,-0.08390980785489832,-9.802652375488544,0.2671267266021677
1789139617449674500,11.223674560546876,-0.09150000107971101,-9.802336156894032,0.27609684456353956
1789139617459647500,11.2336474609375,-0.09643291814658424,-9.802063622233616,0.2839722962603561
1789139617469620500,11.243620361328125,-0.09790648519679819,-9.80183018953542,0.29140961654162434
1789139617479593500,11.253593505859374,-0.10254937392077419,-9.801565919116047,0.29862109606133863
1789139617489566500,11.26356640625,-0.10930781136041344,-9.80127090375471,0.3058258607461302
1789139617499539700,11.273539794921875,-0.11395972556812434,-9.800998929263018,0.312763164990229
1789139617509512400,11.283512451171877,-0.11878216750644967,-9.80072976720021,0.3193285838869816
1789139617519485400,11.2934853515625,-0.12512405096364732,-9.800530860340702,0.322978105025933
1789139617529458400,11.30345849609375,-0.1288645518160889,-9.800449473063681,0.3239704340424043
1789139617539431700,11.313431640625,-0.12922196185663998,-9.800460315859123,0.3235254209309997
1789139617549404700,11.32340478515625,-0.1302079339829857,-9.800537904135396,0.32075747713411773
1789139617559377400,11.33337744140625,-0.13251837393735466,-9.800664860946307,0.3159033328400169
1789139617569350400,11.343350341796874,-0.13540512358827383,-9.800728947933118,0.31269017426822204
1789139617579323600,11.35332373046875,-0.13766519116565354,-9.800796535912857,0.3095577629944389
1789139617589296600,11.363296630859375,-0.14287274879509976,-9.800807862921884,0.3068283881562173
1789139617599269400,11.373269287109377,-0.1467861248463861,-9.80083228848579,0.3042057789177554
1789139617609242400,11.383242431640625,-0.1476656322833582,-9.800914664469728,0.30108463808889074
1789139617619215600,11.393215576171874,-0.14769584270117497,-9.801011666585504,0.2978971181528614
1789139617629187600,11.4031875,-0.14797237217281783,-9.801107553957165,0.2946024321893259
1789139617639160300,11.413160400390623,-0.14466320182951728,-9.801307862031242,0.28952479044058205
1789139617649133600,11.423133544921876,-0.14279520429268552,-9.801449158415274,0.2856587716443941
1789139617659106600,11.4331064453125,-0.14371166654323503,-9.801491411023365,0.2837177140182892
1789139617669079600,11.44307958984375,-0.14322424902906472,-9.801556123830247,0.2817048356937163
1789139617679052500,11.453052490234375,-0.1428490322547899,-9.801573507253751,0.2813012228160336
1789139617689025300,11.463025390625,-0.14389044276729734,-9.801566599797471,0.28103439040901995
1789139617698998500,11.47299853515625,-0.14487362559061842,-9.801550925888245,0.2810738985737472
1789139617708971500,11.482971435546874,-0.14540618067566283,-9.801520584199913,0.28184105490934613
1789139617718944500,11.492944580078126,-0.14554023285426398,-9.801492973968719,0.2827365191223056
1789139617728917500,11.50291748046875,-0.1462522968396452,-9.801485143011586,0.2826276811137454
1789139617738890500,11.512890380859377,-0.14462604876146534,-9.80148192655586,0.283554857615097
1789139617748863500,11.522863525390624,-0.14119115691074716,-9.801507695477461,0.284421078133614
1789139617758836500,11.53283642578125,-0.13973785114174847,-9.801545391739959,0.2838431826816824
1789139617768809500,11.5428095703125,-0.1378239954731489,-9.801555115904234,0.28443399361641175
1789139617778782700,11.55278271484375,-0.1348948670917669,-9.801526673709347,0.2868162803065905
1789139617788755500,11.56275537109375,-0.13414892800762826,-9.801390032198537,0.29178728209184684
1789139617798728400,11.572728515625,-0.13320644991719446,-9.801236743394792,0.29732057049076227
1789139617808701400,11.582701416015626,-0.1315677989444787,-9.801130574272202,0.3015339102372358
1789139617818674700,11.5926748046875,-0.1323497256870089,-9.800993541673657,0.30562907658695926
1789139617828647700,11.602647705078123,-0.13285674262777772,-9.800886928405747,0.30878912849979206
1789139617838620400,11.612620361328124,-0.13482229852096375,-9.800762555977727,0.3118728359548515
1789139617848593400,11.622593505859374,-0.13934256588973276,-9.80060085864489,0.3149670572005254
1789139617858566400,11.63256640625,-0.14289872675572196,-9.800411649556521,0.31922089677690135
1789139617868538600,11.64253857421875,-0.14785275299933706,-9.80015785885105,0.32470156470961176
1789139617878511400,11.652511474609376,-0.1507772427468322,-9.799824283086108,0.33331382105742136
1789139617888484400,11.662484375,-0.15215394230687898,-9.799426124905716,0.34420777982244677
1789139617898457600,11.67245751953125,-0.15108184980658898,-9.79901672166933,0.35613303793286577
1789139617908430600,11.6824306640625,-0.14920889477844987,-9.798523054229152,0.37021555370249887
1789139617918403300,11.6924033203125,-0.14592504439572876,-9.797990890196123,0.3853044020337588
1789139617928376300,11.702376220703124,-0.13877979934551787,-9.79744683984391,0.4014497021142524
1789139617938349600,11.712349609375,-0.13097061547104277,-9.796875960286332,0.4176797338569421
1789139617948322600,11.722322509765624,-0.12580274247945838,-9.796254615586365,0.4335384184921862
1789139617958295600,11.732295654296877,-0.11968512282909917,-9.795554056430634,0.4507432561293081
1789139617968268300,11.742268310546876,-0.1153668519014857,-9.794734376914949,0.4693113178968095
1789139617978241500,11.752241455078124,-0.1129412008148284,-9.793956276531336,0.4858507095769505
1789139617988214500,11.762214599609376,-0.11253702579766278,-9.792961538404107,0.5055845047091604
1789139617998187500,11.7721875,-0.11198274366906139,-9.791979655476013,0.5243781348876596
1789139618008160500,11.782160400390625,-0.11365298634177513,-9.790933372880177,0.5432087436725312
1789139618018133500,11.792133544921874,-0.11364044308473366,-9.789912207683464,0.5613303679759057
1789139618028106500,11.8021064453125,-0.11343772438895806,-9.78884615458213,0.5796613490177323
1789139618038079500,11.81207958984375,-0.11331328345852969,-9.787810122618186,0.5969228319951825
1789139618048052500,11.822052490234377,-0.11028240374546924,-9.786808735563563,0.6136705874881514
1789139618058025500,11.832025390625,-0.10691964914178297,-9.785726969846895,0.6312700598160698
1789139618067998500,11.84199853515625,-0.10484534176932227,-9.784735399708689,0.6467954969415901
1789139618077971500,11.851971435546876,-0.0998042076388605,-9.78375149965127,0.662293698510676
1789139618087944400,11.8619443359375,-0.09503236266917231,-9.782888917448002,0.6755932437361262
1789139618097916700,11.871916748046877,-0.09206064800326262,-9.782206845894844,0.6858180880176679
1789139618107889400,11.881889404296874,-0.0883274188504186,-9.781550913758464,0.6955864061258937
1789139618117862400,11.8918623046875,-0.08227480774925422,-9.780892057612443,0.7055274963526963
1789139618127835400,11.90183544921875,-0.07641748330373253,-9.780307312230994,0.7142332708404499
1789139618137808600,11.91180859375,-0.07050011791343261,-9.779680924993924,0.723366705062123
1789139618147781600,11.92178173828125,-0.06557581407656045,-9.77923753194794,0.7297980622221556
1789139618157754400,11.93175439453125,-0.06098843131889721,-9.778906870152994,0.734605837738699
1789139618167727400,11.941727294921876,-0.05565762362280669,-9.778709407371451,0.7376554773738495
1789139618177700600,11.95170068359375,-0.05187679068645703,-9.778622040717423,0.7390860446281391
1789139618187673600,11.961673583984377,-0.049859166364181556,-9.778534518549051,0.7403786012801246
1789139618197646600,11.971646484375,-0.04521064955202993,-9.778329824458705,0.7433826833382746
1789139618207619300,11.981619384765626,-0.03687847663938861,-9.778000547968617,0.748149157221849
1789139618217592600,11.991592529296875,-0.032064849555228266,-9.777620327472183,0.7533234219969281
1789139618227565600,12.001565673828123,-0.027824114002400268,-9.77732180850474,0.7573630244423203
1789139618237538600,12.01153857421875,-0.023921854681549132,-9.777047751554925,0.7610247631935131
1789139618247511300,12.02151123046875,-0.023165430265638103,-9.77691176591111,0.7627945771599508
1789139618257484500,12.031484619140626,-0.021525560185664917,-9.777059453973816,0.7609399578011199
1789139618267457500,12.04145751953125,-0.02123135452412572,-9.77726095473956,0.7583609013087402
1789139618277430500,12.051430419921877,-0.022850449405089922,-9.777360359130018,0.7570340583703906
1789139618287403500,12.061403564453125,-0.02383038682672971,-9.777445471203286,0.7558986198638139
1789139618297376500,12.07137646484375,-0.020463817821841333,-9.777562934284353,0.7544764914071471
1789139618307349500,12.081349609375,-0.015981594477114225,-9.777848018224288,0.7508798875940019
1789139618317322500,12.091322509765623,-0.014015896369494926,-9.77841610235366,0.7434831598026551
1789139618327295500,12.10129541015625,-0.010140345710022255,-9.77912798424251,0.7341295633074768
1789139618337268500,12.1112685546875,-0.002239404474851563,-9.77978656295585,0.7253628400945761
1789139618347241500,12.121241455078126,0.0025808131239651927,-9.780430271343345,0.7166314166385516
1789139618357213400,12.13121337890625,0.004099169301642981,-9.781195885462488,0.7061086108544773
1789139618367186400,12.1411865234375,0.006066090633660295,-9.782045172291388,0.6942217102208066
1789139618377159700,12.15115966796875,0.0072217464488183,-9.782946793920022,0.6813894710870158
1789139618387132400,12.16113232421875,0.005690732355367689,-9.78393832928437,0.6670089018524986
1789139618397105400,12.17110546875,0.004236684839448308,-9.78494760524859,0.6520537383702831
1789139618407078400,12.181078369140623,0.0033823345549916783,-9.78602448155092,0.635688942445768
1789139618417051600,12.1910517578125,0.0025525969906633954,-9.78711389693703,0.6186979307521849
1789139618427024600,12.201024658203124,0.0014627322494071469,-9.788351766376888,0.5987883768319553
1789139618436997400,12.210997314453126,0.0016956347335058887,-9.789424452612517,0.5809930258190146
1789139618446970400,12.220970458984375,0.005902163049893219,-9.79037364971338,0.5647320415046454
1789139618456943600,12.230943603515623,0.010669779039465595,-9.791173819107778,0.5506152492776432
1789139618466916600,12.24091650390625,0.015513882622519607,-9.791991051556225,0.5357839893602803
1789139618476889600,12.2508896484375,0.02168440558021522,-9.792773826999445,0.5210486429680228
1789139618486862300,12.2608623046875,0.030267217889714544,-9.79360105616065,0.5048191146609288
1789139618496835600,12.270835693359375,0.03738722477901273,-9.794414616850469,0.4882883035756677
1789139618506808600,12.28080859375,0.04418669532678664,-9.795336746095224,0.46884602379342677
1789139618516781600,12.290781494140624,0.04938260777299177,-9.796217231686233,0.44952016252534566
1789139618526754600,12.300754638671876,0.053387415769701456,-9.79706841326558,0.4301025886150367
1789139618536727600,12.3107275390625,0.055824707115300055,-9.797819574783368,0.4123212225686299
1789139618546700500,12.320700439453123,0.0557119153693682,-9.798556159764688,0.39444161685695683
1789139618556673500,12.330673583984376,0.05382700598308853,-9.799251634716907,0.37704383044759104
1789139618566646500,12.340646484375,0.05165569627473371,-9.799971317127207,0.35817618747467184
1789139618576619300,12.350619384765626,0.04783478436400788,-9.800609538831502,0.3408015863994323
1789139618586592500,12.360592529296875,0.04493242519028199,-9.80122669148089,0.32299303363404874
1789139618596565500,12.3705654296875,0.04177811840012793,-9.801825654285341,0.30471532192133577
1789139618606538500,12.38053857421875,0.04203627741289846,-9.802334619062103,0.2878341351807702
1789139618616510500,12.390510498046876,0.04348308929873671,-9.802778287677395,0.2720953853387358
1789139618626483500,12.4004833984375,0.04570880078532088,-9.80320484484823,0.2558651577187572
1789139618636456400,12.41045654296875,0.04770953567310967,-9.803566307152712,0.24123516552907728
1789139618646429400,12.420429443359374,0.05097906582944126,-9.803873567849442,0.22770955955107056
1789139618656402700,12.430402587890624,0.05285086293350607,-9.804157949935687,0.21467380142744968
1789139618666375400,12.44037548828125,0.05436426977092999,-9.804406222090172,0.2026095064663825
1789139618676348400,12.450348388671877,0.056983355687183004,-9.804594350003123,0.19252677265313461
1789139618686321400,12.4603212890625,0.059459563942447065,-9.804758584916385,0.18317889240191348
1789139618696294700,12.470294677734374,0.059860966136351806,-9.804856549855296,0.17773342243974716
1789139618706267600,12.480267578125,0.06030536615428857,-9.80491711690152,0.17421443104102605
1789139618716240400,12.490240478515624,0.05969906976883598,-9.8050011821435,0.16963448626008368
1789139618726213400,12.50021337890625,0.05922280250322079,-9.805030210642439,0.16813011013776796
1789139618736186600,12.5101865234375,0.05967701756596756,-9.805055045063396,0.16651861456451178
1789139618746159600,12.52015966796875,0.06038346571080189,-9.805076196349377,0.16499899491565823
1789139618756132600,12.530132568359376,0.061838148290123636,-9.805063185957414,0.16525842395199541
1789139618766105300,12.540105224609375,0.06391990494353093,-9.805027903952663,0.16653058198666892
1789139618776078300,12.550078369140625,0.06814162087435599,-9.804949550615445,0.1694145495879194
1789139618786051600,12.560051513671874,0.07019028540280398,-9.8048694833812,0.1732000819453162
1789139618796024600,12.570024658203126,0.06961561414588914,-9.804850447034319,0.17452224853146817
1789139618805997600,12.57999755859375,0.0696602629718794,-9.804851837483236,0.1743802552340211
1789139618815970300,12.58997021484375,0.06760654920179023,-9.804886284241242,0.1732692256183346
1789139618825943600,12.599943603515625,0.06405257091216052,-9.804930018426518,0.1721633558654902
1789139618835916500,12.60991650390625,0.058681236134094414,-9.804984084318887,0.17099585323709665
1789139618845889500,12.6198896484375,0.05459689884301824,-9.805016784578978,0.17045685955002443
1789139618855862500,12.629862548828124,0.053775610344383,-9.80503671493191,0.169568523085681
1789139618865834500,12.63983447265625,0.053971240502924456,-9.805067385924355,0.16772412742641718
1789139618875807500,12.649807373046874,0.054443688108282116,-9.805120036310145,0.16447949547262555
1789139618885780500,12.659780517578126,0.04761946162475932,-9.80524938815743,0.1587498654713738
1789139618895753700,12.669753662109375,0.04419689657682469,-9.805352440010902,0.1532665648196312
1789139618905726500,12.6797265625,0.04799101065290746,-9.80538613085704,0.14999341762320192
1789139618915699500,12.689699462890625,0.04761682835447258,-9.805393500114882,0.14960085701333845
1789139618925672400,12.69967236328125,0.04543221593589324,-9.805404797460698,0.14957587280813803
1789139618935645700,12.709645751953126,0.04838459507932006,-9.805423420715266,0.14738446370713545
1789139618945618400,12.719618408203123,0.05091960361618512,-9.805445025845438,0.1450691472719716
1789139618955591400,12.72959130859375,0.04854356376552327,-9.805480201050115,0.14348846720458786
1789139618965564400,12.739564453125,0.046318413053439075,-9.805517186695196,0.1416789994035544
1789139618975537700,12.74953759765625,0.04435020909376616,-9.805502477536486,0.14333380538269752
1789139618985510700,12.7595107421875,0.041457991295797574,-9.805506175349612,0.1439019447785742
1789139618995483400,12.7694833984375,0.038166492584817385,-9.80554553184197,0.14215150266339283
1789139619005456400,12.779456298828125,0.03609732063687364,-9.805567225498999,0.14115453347754575
1789139619015429400,12.789429443359374,0.035920037522335475,-9.805545293397726,0.14275449914143581
1789139619025402600,12.799402587890626,0.03507374782884725,-9.805562260962063,0.14176426917582388
1789139619035375600,12.809375732421875,0.03549663824366014,-9.805565061956695,0.14149191916259207
1789139619045348400,12.819348388671877,0.037837503089357884,-9.805578350396015,0.139974107843866
1789139619055321300,12.8293212890625,0.04122655540583433,-9.805591931324876,0.13805565483470125
1789139619065294600,12.839294677734374,0.04363030446951149,-9.80563240504628,0.1344114178325588
1789139619075267600,12.849267578125,0.045667138761775763,-9.805707742168815,0.12812186610125922
1789139619085240600,12.859240478515623,0.04543239486420609,-9.805809070431756,0.1200657279135808
1789139619095213300,12.86921337890625,0.04440974026886538,-9.805907675444036,0.11217600792689313
1789139619105186600,12.8791865234375,0.04343835493807259,-9.806018048412993,0.1025590701024225
1789139619115159600,12.88915966796875,0.04145946508088349,-9.806112771019956,0.09398082026702227
1789139619125132500,12.899132568359375,0.03848154066780157,-9.806227113808708,0.08255296023308363
1789139619135105500,12.90910546875,0.03356001333140926,-9.806334207089662,0.07116157854285464
1789139619145077500,12.919077392578124,0.032451979819217436,-9.80640013410283,0.062104407261837156
1789139619155050500,12.929050537109376,0.025012031622829653,-9.806484784368054,0.0511203419626369
1789139619165023500,12.9390234375,0.02140895801886334,-9.806541089956688,0.04112165984161118
1789139619174996000,12.948995849609377,0.027565090708424844,-9.806554199646499,0.03347638127613506
1789139619184969000,12.958968994140625,0.0291852670872131,-9.806566696428877,0.0278909541081763
1789139619194942000,12.96894189453125,0.027762913121084698,-9.806586959106005,0.021668725401736706
1789139619204915000,12.9789150390625,0.03428109524432792,-9.806574524440002,0.017445887908391803
1789139619214888000,12.988887939453123,0.036182783460578696,-9.806573112648373,0.013876468032502734
1789139619224861000,12.99886083984375,0.03157806347613147,-9.806594714811938,0.009142707274397106
1789139619234834000,13.008833984375,0.028693998059475045,-9.806607919395669,0.003974133521194179
1789139619244807000,13.018806884765626,0.02769743674346334,-9.80661078647095,-0.00129018052951833
1789139619254780200,13.0287802734375,0.02475228094829484,-9.806615544542199,-0.007937897654150353
1789139619264753000,13.0387529296875,0.019880848245338,-9.806622372865501,-0.012349673981386344
1789139619274726000,13.048725830078125,0.01719853787990005,-9.806622258176544,-0.015983017725067588
1789139619284699000,13.058698974609374,0.014802259804897898,-9.80661969221589,-0.01937438217910778
1789139619294672100,13.068672119140626,0.014966761449215955,-9.806616456249031,-0.0208984917048565
1789139619304645000,13.07864501953125,0.0152483345178389,-9.80661478526291,-0.021332820606100613
1789139619314617900,13.088617919921877,0.017338593829053315,-9.806610769715196,-0.02160972094793638
1789139619324590800,13.0985908203125,0.017890779692681175,-9.80660913779139,-0.021639883681087213
1789139619334564000,13.108564208984374,0.01932467866274566,-9.80660621865502,-0.02204173691418524
1789139619344537000,13.118537109375,0.022982974791209334,-9.806603726018587,-0.019772442163315966
1789139619354510000,13.128510009765623,0.023720155394103538,-9.806609620129564,-0.015285865211095694
1789139619364482800,13.13848291015625,0.024336197954958855,-9.806615284902602,-0.00956696677679021
1789139619374455800,13.148455810546874,0.02515686940048419,-9.806617771064417,-0.0023124619670186796
1789139619384429000,13.158428955078126,0.025643611530603887,-9.806615710735244,0.005242025904281944
1789139619394402000,13.168402099609375,0.026022445010007018,-9.806607832727225,0.012912998073208453
1789139619404375000,13.178375,0.02363205680597093,-9.806601447296957,0.020023778220704388
1789139619414347000,13.188346923828124,0.019576185652674282,-9.806593407779008,0.02713151890231547
1789139619424320000,13.198320068359376,0.018011869031300632,-9.806575883058928,0.03370265327733096
1789139619434293000,13.20829296875,0.017437397533911755,-9.806550041213569,0.04075452237589958
1789139619444266000,13.218265869140623,0.01549247795109461,-9.80652877825451,0.04635307179806402
1789139619454239000,13.228239013671876,0.013625079114300966,-9.806513888819643,0.04992210766689006
1789139619464212000,13.2382119140625,0.013469898695347463,-9.80649081944127,0.05424901155894185
1789139619474185000,13.24818505859375,0.0141438139977192,-9.806452787912717,0.060481231568487864
1789139619484158000,13.258157958984375,0.0135104619958032,-9.80640036132361,0.06867555366276125
1789139619494131000,13.268130859375,0.012320151541123366,-9.80634585334633,0.07621348045191052
1789139619504104000,13.27810400390625,0.01254300208622453,-9.806281368167681,0.08405115196595672
1789139619514077000,13.288076904296876,0.01113032788330573,-9.806234316842414,0.08959996532882944
1789139619524050000,13.2980498046875,0.008351236608358467,-9.806186408072122,0.0949924171407203
1789139619534023200,13.308023193359375,0.009144335133034759,-9.806142802952223,0.0993352954939677
1789139619543996000,13.317995849609376,0.009902004630949037,-9.806074396309436,0.10578073187462955
1789139619553969000,13.327968994140624,0.006989510699741669,-9.806013972224067,0.11149262185625836
1789139619563942000,13.33794189453125,0.0046097015385026235,-9.805945595189838,0.11742427489902443
1789139619573915000,13.347914794921875,0.008813218670037492,-9.805863775566298,0.12389155146350762
1789139619583888100,13.35788818359375,0.011578762064022417,-9.805801387910572,0.12851116172822383
1789139619593860900,13.36786083984375,0.013474652418596104,-9.805778611211995,0.1299942178952313
1789139619603833900,13.377833740234376,0.015817716123532964,-9.805736280337575,0.13294197806041266
1789139619613806800,13.387806884765626,0.022240129526790126,-9.80570279790877,0.13445803754691665
1789139619623780000,13.397780029296875,0.029760730828469924,-9.80566743012228,0.13561501102969784
1789139619633753000,13.407753173828125,0.03173158034171958,-9.805664617339316,0.13538707424417806
1789139619643725800,13.417725830078124,0.03435813938257129,-9.805667888187143,0.1345173759980646
1789139619653698800,13.42769873046875,0.037104396571640136,-9.805680489966669,0.13287061100320863
1789139619663672000,13.437672119140624,0.04080646923110017,-9.80570245582318,0.13013250786172992
1789139619673645000,13.44764501953125,0.036464244775335296,-9.805769319330986,0.12628160715394285
1789139619683618000,13.4576181640625,0.03064510370971323,-9.8058207798757,0.12378134760439764
1789139619693590000,13.467590087890626,0.029279489362716772,-9.805858523425162,0.12108584021938375
1789139619703563000,13.47756298828125,0.02854318484108444,-9.805879183101082,0.1195785828177799
1789139619713536000,13.487535888671877,0.0261776057977093,-9.805895740440347,0.11875225547180315
1789139619723509000,13.497509033203125,0.017191140770802235,-9.805943491070593,0.11647083190729712
1789139619733482000,13.50748193359375,0.015788386488359098,-9.80595502551622,0.11567536816615423
1789139619743455000,13.517455078125,0.022448200248269344,-9.805922192881772,0.11735876806702071
1789139619753428000,13.527427978515624,0.022035236477028357,-9.805932421017594,0.11653906256850301
1789139619763401000,13.53740087890625,0.018554923701893183,-9.805982138223497,0.11291331168874513
1789139619773374200,13.547374267578125,0.023142005877121,-9.80601861818829,0.10885905617510404
1789139619783347000,13.557346923828124,0.026466300219816625,-9.806051979793033,0.10504944704064396
1789139619793320000,13.56731982421875,0.020301244941299593,-9.806138645179612,0.09808167849782935
1789139619803293000,13.57729296875,0.01609619174152691,-9.806213229055626,0.09120436424741449
1789139619813266000,13.587265869140625,0.017280706059327956,-9.806284852648472,0.0827942474217019
1789139619823239000,13.597239013671874,0.014703034625101044,-9.80636896211606,0.0727028988451362
1789139619833212000,13.6072119140625,0.010301101448290273,-9.806443509667618,0.06283911820388983
1789139619843185000,13.617184814453124,0.006811676523594293,-9.80651071473635,0.051811767007241424
1789139619853158000,13.627157958984377,0.0013561111465506957,-9.806565116994937,0.040806000772563675
1789139619863131100,13.637131103515625,-0.0005091533051561517,-9.806592737413574,0.03341748864947988
1789139619873104000,13.647103759765624,-0.0004029468548611748,-9.806612348546585,0.02741239398478241
1789139619883076900,13.657076904296876,-0.002234558215398436,-9.806623780259663,0.02266931281511203
1789139619893049900,13.6670498046875,-0.0021455830845630484,-9.806636230747172,0.016478030303853832
1789139619903023000,13.677023193359377,0.003919055973177077,-9.806644465801867,0.010352813777318153
1789139619912996000,13.68699609375,0.009696056166106297,-9.806644778903062,0.003885802787012578
1789139619922968800,13.69696875,0.010247477830018727,-9.806645103725623,-0.0009077329779908929
1789139619932941800,13.70694189453125,0.011592301768766156,-9.806641743761226,-0.005635459838349939
1789139619942915000,13.7169150390625,0.014933912879936485,-9.806634795570364,-0.009330239693762428
1789139619952888000,13.72688818359375,0.017145516795567896,-9.806627251228443,-0.012946080904800634
1789139619962861000,13.736861083984374,0.016188867097632034,-9.806620757421232,-0.01761941542474913
1789139619972833800,13.746833740234376,0.015478313888299722,-9.80661303836675,-0.022203602655200633
1789139619982806000,13.756805908203123,0.014679620802159456,-9.80660518872385,-0.025859825107661737
1789139619992779000,13.766779052734377,0.01393725830496618,-9.806601077805935,-0.027670962865854038
1789139620002752000,13.776751953125,0.015568417665191858,-9.806597720525433,-0.028105281725960246
1789139620012725000,13.78672509765625,0.01783431998572013,-9.806593065449318,-0.02819641219579002
1789139620022698000,13.796697998046875,0.017750410206910202,-9.806584742400881,-0.031123278795980223
1789139620032671000,13.8066708984375,0.01639010412741646,-9.806572277624271,-0.03569936431954009
1789139620042644000,13.81664404296875,0.01733441611381042,-9.806544105269962,-0.0422214322753056
1789139620052617000,13.826616943359374,0.018988899908647806,-9.80652108729811,-0.046680748266779655
1789139620062590000,13.83658984375,0.02007559368463499,-9.806501930373978,-0.05007966309068374
1789139620072563000,13.84656298828125,0.0213116705424446,-9.806485491244393,-0.05275594354768144
1789139620082536000,13.856535888671877,0.021644585728020964,-9.806457213185446,-0.057564541456125794
1789139620092509000,13.866509033203124,0.021501492878366897,-9.806433015791109,-0.061638712774945086
1789139620102482200,13.876482177734376,0.021778948641901233,-9.806385017435279,-0.0687752269053971
