time,seconds_elapsed,z,y,x
1789147778243934700,1.541934814453125,0.08921224092283933,-9.716958012140624,-1.3202847165907843
1789147778253906700,1.55190673828125,0.07453196317489619,-9.71178829002205,-1.3586810085542553
1789147778263879700,1.561879638671875,0.04499693906831341,-9.70642405934665,-1.3977426370809585
1789147778273851600,1.5718515625,0.012540578197448651,-9.700455526541187,-1.4392252961575915
1789147778283824600,1.58182470703125,-0.011556789632846828,-9.694322777267727,-1.479982127515232
1789147778293796900,1.591796875,-0.022907695231290878,-9.688076858121049,-1.5202028763327928
1789147778303768600,1.6017685546875,-0.03803607693576325,-9.68056756437112,-1.567016532668501
1789147778313741600,1.611741455078125,-0.03839502437705002,-9.6727417724655,-1.6146103749658591
1789147778323713800,1.6217138671875,-0.0351406689563773,-9.665421257777218,-1.6579468196413705
1789147778333685800,1.631685791015625,-0.039742788364316585,-9.658717329813316,-1.6964634310800115
1789147778343658800,1.64165869140625,-0.04412710609076953,-9.652032502884063,-1.7339843193538653
1789147778353630700,1.651630615234375,-0.054852484737602875,-9.644889149973169,-1.7729908195879782
1789147778363602700,1.661602783203125,-0.06844440302272287,-9.638335046418085,-1.8078183530413727
1789147778373575700,1.67157568359375,-0.07800743747655729,-9.631177441287006,-1.845190587984533
1789147778383548000,1.6815478515625,-0.08921604923266123,-9.623020457403111,-1.8867716381342854
1789147778393521000,1.69152099609375,-0.09825932596834813,-9.614381926431045,-1.9298701820724824
1789147778403492600,1.70149267578125,-0.11217028765378531,-9.6053111647615,-1.9737789739980345
1789147778413464800,1.71146484375,-0.12901553063408402,-9.596310333056488,-2.016079152176504
1789147778423437800,1.721437744140625,-0.1476179104916972,-9.587938427059306,-2.054272585954353
1789147778433409800,1.731409912109375,-0.16353630412907993,-9.580009144279288,-2.089756363361859
1789147778443381800,1.7413818359375,-0.18217287805264473,-9.572669324972281,-2.1216033059267767
1789147778453354800,1.751354736328125,-0.19794931459157247,-9.565013680863677,-2.154461630671608
1789147778463326700,1.76132666015625,-0.21589194881451165,-9.556699165780321,-2.1893573425006165
1789147778473298700,1.771298583984375,-0.2374367944849296,-9.547765361247674,-2.2257991711768215
1789147778483272000,1.78127197265625,-0.26455452132562435,-9.53927120228432,-2.2589132818098854
1789147778493243600,1.79124365234375,-0.28859815520614057,-9.531951160885724,-2.2867028173449797
1789147778503216600,1.801216552734375,-0.32487472641879017,-9.524394167247024,-2.313169007918906
1789147778513188900,1.81118896484375,-0.3529819163859488,-9.517057589009479,-2.339103328758678
1789147778523160600,1.82116064453125,-0.37958733568429925,-9.509186251787087,-2.3667894156522573
1789147778533133800,1.8311337890625,-0.40547649503075894,-9.50067161030596,-2.396498929656695
1789147778543105800,1.841105712890625,-0.4209133711116171,-9.49185832064528,-2.4285469925085166
1789147778553077800,1.851077880859375,-0.4358302972623037,-9.48444027981821,-2.454757633771716
1789147778563050800,1.86105078125,-0.45482818690180066,-9.478242548266147,-2.475163483774192
1789147778573022700,1.871022705078125,-0.46984691086700336,-9.47355684106539,-2.4902510958291275
1789147778582994700,1.88099462890625,-0.48206913455032496,-9.467547365182538,-2.5106867232901386
1789147778592967700,1.8909677734375,-0.49821059129769535,-9.46088964494167,-2.5325362965387
1789147778602940000,1.90093994140625,-0.5096001269678848,-9.453679518865288,-2.5570774327658374
1789147778612912600,1.91091259765625,-0.5149585734855152,-9.447264257811597,-2.5796136250319
1789147778622884900,1.920884765625,-0.5177562995314731,-9.44168287373477,-2.599410173542252
1789147778632856800,1.93085693359375,-0.5243962803705681,-9.436896150070195,-2.61541481341082
1789147778642829600,1.94082958984375,-0.5286596032354721,-9.433321069730045,-2.6274235632624188
1789147778652801800,1.9508017578125,-0.5328368571815875,-9.429427163590557,-2.6405239515327947
1789147778662773800,1.960773681640625,-0.5383746216686629,-9.426152925852403,-2.651072302586315
1789147778672746800,1.970746826171875,-0.5404336022350834,-9.423846947434424,-2.65883757225302
1789147778682718700,1.98071875,-0.5424587233808136,-9.422124729856494,-2.6645212032870877
1789147778692691000,1.99069091796875,-0.5398957403324044,-9.421113565856654,-2.668617626887845
1789147778702663700,2.00066357421875,-0.5403545972548708,-9.420333351938423,-2.671276150019478
1789147778712635600,2.0106357421875,-0.541356373397658,-9.419550717062164,-2.673832946077075
1789147778722609000,2.02060888671875,-0.543478124529442,-9.41975047561226,-2.6726981151040725
1789147778732580600,2.03058056640625,-0.5464518681991287,-9.420162300618731,-2.6706395479248997
1789147778742552800,2.040552734375,-0.5455087947556846,-9.421128851581264,-2.667423310785802
1789147778752525800,2.05052587890625,-0.5422728682484907,-9.422970076622835,-2.661570107405819
1789147778762497500,2.06049755859375,-0.5307924072563465,-9.42630714138527,-2.652051463989519
1789147778772469800,2.0704697265625,-0.5122705110069976,-9.429703239565143,-2.6436066962172955
1789147778782442800,2.08044287109375,-0.4896437816721755,-9.433956522512112,-2.6326961047084207
1789147778792414700,2.090414794921875,-0.4693364122531299,-9.439034783107022,-2.618153527057955
1789147778802387700,2.1003876953125,-0.4487849389462732,-9.444481419052453,-2.6020655605435774
1789147778812360000,2.11035986328125,-0.4336092972565391,-9.450122619622482,-2.5840971806079924
1789147778822331600,2.12033154296875,-0.4212270049956499,-9.456476742522819,-2.5628132163708695
1789147778832304600,2.1303046875,-0.4140013419124543,-9.464661583254733,-2.5336078408812663
1789147778842276900,2.14027685546875,-0.3997664692962249,-9.471896068979987,-2.508735861062564
1789147778852248600,2.15024853515625,-0.3898280283559726,-9.477986010518503,-2.4872044429143396
1789147778862221800,2.160221923828125,-0.3714214535820395,-9.484505358135225,-2.4650724214390993
1789147778872193800,2.17019384765625,-0.3466256877467972,-9.492121216864128,-2.439235459656831
1789147778882165800,2.180165771484375,-0.3246232416154949,-9.499264899733257,-2.414326804032861
1789147778892138800,2.190138671875,-0.30683987597955753,-9.507515116655716,-2.3839851189084533
1789147778902110700,2.20011083984375,-0.2921775080404337,-9.516059663550692,-2.3515134950752246
1789147778912083700,2.210083740234375,-0.28352482930365974,-9.523913874603789,-2.3205727105667457
1789147778922056000,2.220055908203125,-0.2752013826311417,-9.53236112713473,-2.2866469303669676
1789147778932028200,2.230028076171875,-0.2727485452182271,-9.540225631868871,-2.253903965678927
1789147778942001200,2.240001220703125,-0.26954397126461704,-9.54826659330176,-2.2199854877867504
1789147778951972900,2.249972900390625,-0.2761703181548275,-9.555461163269372,-2.1879837837247007
1789147778961945000,2.259945068359375,-0.28140278668568713,-9.561744502195367,-2.1596872177923183
1789147778971918000,2.26991796875,-0.2755514711556377,-9.567913457804437,-2.1329551473987935
1789147778981890000,2.27989013671875,-0.25585999718964203,-9.575766933291048,-2.0999084515963573
1789147778991862000,2.289862060546875,-0.23932624020365434,-9.584458709998938,-2.061860801259833
1789147779001835000,2.2998349609375,-0.2198459695101082,-9.593741651422778,-2.0204391319287294
1789147779011807000,2.309806884765625,-0.19674009072524276,-9.603145105871814,-1.9776967695763448
1789147779021780000,2.319780029296875,-0.1751353084382314,-9.612639997767614,-1.9330971395565058
1789147779031752200,2.329752197265625,-0.16396218676343277,-9.62066581354655,-1.8937481161992282
1789147779041724000,2.339723876953125,-0.16121755334538207,-9.627108448076482,-1.8609638022778103
1789147779051697000,2.34969677734375,-0.1547250410410976,-9.633737872293029,-1.8268942831735027
1789147779061669000,2.359669189453125,-0.14944683402228398,-9.640892463912628,-1.7891988855837597
1789147779071641000,2.36964111328125,-0.14575894193540223,-9.647632144161419,-1.752806082983942
1789147779081614000,2.379614013671875,-0.146286592413765,-9.653896896429963,-1.7179250953688523
1789147779091585800,2.389585693359375,-0.1493224053660313,-9.660093256553102,-1.6824648145125867
1789147779101558000,2.39955810546875,-0.1513624141086712,-9.665417336672833,-1.651416484285842
1789147779111531000,2.409531005859375,-0.14715953678546098,-9.671227715384523,-1.617431756200648
1789147779121503000,2.4195029296875,-0.14192333131747503,-9.675555430589196,-1.5918103951112137
1789147779131476000,2.42947607421875,-0.13295259936692144,-9.679436158182547,-1.5688335078642572
1789147779141448000,2.439447998046875,-0.12048629045099164,-9.683065833610105,-1.5472945615960902
1789147779151420000,2.449419921875,-0.09092548465468735,-9.686673023145705,-1.526595984717799
1789147779161393000,2.459392822265625,-0.05151637288321167,-9.690452171980738,-1.504285940552722
1789147779171365000,2.469365234375,-0.03073254326365064,-9.692557377150642,-1.49122987514403
1789147779181336800,2.4793369140625,-0.02179806794033901,-9.694936744461272,-1.4758419685720054
1789147779191309800,2.489309814453125,-0.017281107026773292,-9.69571447498656,-1.4707844940320625
1789147779201282000,2.499281982421875,-0.010254291163983973,-9.697487570869558,-1.4591208308815664
1789147779211253800,2.509253662109375,0.003634122753253574,-9.700026720961807,-1.4421749073077488
1789147779221227000,2.51922705078125,0.00013011391708560172,-9.702988769545911,-1.4221096568873908
1789147779231199000,2.529198974609375,-0.021807477195609104,-9.70356463387123,-1.418011445324187
1789147779241172000,2.539171875,-0.01923896315884944,-9.704071553462812,-1.4145727971848008
1789147779251144000,2.54914404296875,-0.03354937453208701,-9.703408448624177,-1.4188468361160376
1789147779261116000,2.559115966796875,-0.05052831921526084,-9.702253874234872,-1.4262188881874076
1789147779271089200,2.569089111328125,-0.05259102970577391,-9.702054524453962,-1.4275002812578503
1789147779281060900,2.579060791015625,-0.045188422058034666,-9.702405263292112,-1.425372936594545
1789147779291033000,2.589033203125,-0.06695782549112263,-9.70120793430059,-1.4326468697634307
1789147779301006000,2.599006103515625,-0.07576504634192865,-9.699881475259453,-1.44115826916752
1789147779310978000,2.60897802734375,-0.060950279687894446,-9.699760248373158,-1.442674156323995
1789147779320950000,2.618949951171875,-0.07278730348557076,-9.698368506749397,-1.4514577443500647
1789147779330923000,2.628923095703125,-0.09317857263540201,-9.696552957924789,-1.4623850355479562
1789147779340895000,2.63889501953125,-0.08983959041814282,-9.69569798439211,-1.4682506379254354
1789147779350868000,2.648867919921875,-0.0899758253618461,-9.69366813259232,-1.4815837770875089
1789147779360840200,2.658840087890625,-0.09633202235605871,-9.689100545337215,-1.510774843505165
1789147779370812000,2.66881201171875,-0.09441279552390586,-9.685223559322518,-1.5355529572174031
1789147779380785000,2.678784912109375,-0.08416652674846982,-9.682902081089043,-1.5507138843112973
1789147779390757000,2.688757080078125,-0.08341755685991752,-9.67986866055631,-1.5695734454119337
1789147779400728800,2.698728759765625,-0.08673517246228343,-9.676271040236742,-1.591429707812831
1789147779410702000,2.7087021484375,-0.09192212898288035,-9.673259033487907,-1.609349870530245
1789147779420674000,2.718674072265625,-0.10467465240179734,-9.670396203894994,-1.6256869198553787
1789147779430646000,2.72864599609375,-0.11856514571117725,-9.66624866641646,-1.6492279646216297
1789147779440619000,2.738618896484375,-0.1265344736110453,-9.661404334819917,-1.6767955440841074
1789147779450591000,2.748591064453125,-0.13140178797631102,-9.655982535664128,-1.7073703904465143
1789147779460563000,2.75856298828125,-0.1453330026787351,-9.649935904495369,-1.7401152516864469
1789147779470536000,2.768535888671875,-0.15162166563875065,-9.64391238006645,-1.7726643505451862
1789147779480508200,2.778508056640625,-0.17137015179808757,-9.638389101525549,-1.8006853013237547
1789147779490481000,2.78848095703125,-0.1860024351559636,-9.633470802471404,-1.825381964783477
1789147779500453000,2.798453125,-0.2080614947392329,-9.62755406632424,-1.853997600164407
1789147779510425000,2.808425048828125,-0.22597119402240523,-9.620688104811075,-1.8872448666849087
1789147779520397800,2.818397705078125,-0.24217330656510647,-9.612945149205693,-1.9243214539996392
1789147779530370000,2.8283701171875,-0.25324390126484814,-9.60490406812809,-1.9626690336060644
1789147779540342000,2.838342041015625,-0.27281620192052736,-9.597005972032624,-1.998358933188082
1789147779550315000,2.84831494140625,-0.27586639641202976,-9.589615084359279,-2.0331174721207215
1789147779560287000,2.858286865234375,-0.2782833398970966,-9.582437688589994,-2.066356220312219
1789147779570260000,2.868260009765625,-0.273376813049167,-9.574943640337883,-2.101453504040775
1789147779580232000,2.87823193359375,-0.2737325791592976,-9.566557975567363,-2.1392585706311418
1789147779590204000,2.888203857421875,-0.2684114283930696,-9.557153592617219,-2.1815494989448907
1789147779600177200,2.89817724609375,-0.2605603367485208,-9.548071569687265,-2.2218965820122625
1789147779610148900,2.90814892578125,-0.2602612621455786,-9.541171087387518,-2.251379413924486
1789147779620121000,2.91812109375,-0.26095198134824976,-9.535766562135766,-2.274082423001856
1789147779630094000,2.928093994140625,-0.2676516395657383,-9.531873546524132,-2.2895723927643212
1789147779640065800,2.938065673828125,-0.28126012162983033,-9.52867740492534,-2.3012158443088873
1789147779650038000,2.9480380859375,-0.29381244059605494,-9.52538560549095,-2.313242286895821
1789147779660011000,2.958010986328125,-0.32152640350859213,-9.522329344203293,-2.3221239840213506
1789147779669983000,2.96798291015625,-0.346216794135536,-9.51898621909713,-2.332257773366176
1789147779679955000,2.977954833984375,-0.3600957178235885,-9.515235879668039,-2.3454193702186767
1789147779689928000,2.987927978515625,-0.36188086682330345,-9.513077392710988,-2.3538848584509715
1789147779699900000,2.99789990234375,-0.36440726218640224,-9.511309296453504,-2.3606305656657476
1789147779709873000,3.007872802734375,-0.3619274468027584,-9.510295903816269,-2.365091196218085
1789147779719845000,3.01784521484375,-0.37185373035270286,-9.510278338557251,-2.363622794421783
1789147779729816800,3.02781689453125,-0.3691840081228991,-9.512391996622608,-2.355523141292945
1789147779739790000,3.0377900390625,-0.37705897976375247,-9.513380865366184,-2.3502756524051627
1789147779749762000,3.047761962890625,-0.37877378361227576,-9.514310523552417,-2.346234146934129
1789147779759734000,3.057734130859375,-0.38442444976596,-9.514844524465564,-2.3431458731973698
1789147779769707000,3.06770703125,-0.3833690547921436,-9.515038805094953,-2.342528111546089
1789147779779679000,3.077678955078125,-0.37702286487531406,-9.514465283209653,-2.3458890807468022
1789147779789651000,3.08765087890625,-0.37467344402728714,-9.512313915211882,-2.354969681465389
1789147779799624000,3.0976240234375,-0.38828966973253776,-9.513081519416003,-2.3496590358493075
1789147779809596200,3.10759619140625,-0.3915468190807161,-9.516481886042534,-2.3353061967580633
1789147779819569200,3.117569091796875,-0.37156287012719386,-9.52079329090216,-2.3209534750255636
1789147779829540900,3.127540771484375,-0.3688476241192559,-9.52177178936207,-2.3173705809071814
1789147779839513000,3.13751318359375,-0.3538247674161343,-9.52468847409717,-2.3077053807591
1789147779849485800,3.14748583984375,-0.3497153425769533,-9.530597791524215,-2.28380920242519
1789147779859458000,3.1574580078125,-0.35044232637115047,-9.53731111283056,-2.2555002644283166
1789147779869430000,3.167429931640625,-0.3458131813270823,-9.545098065149062,-2.2230388890298594
1789147779879402800,3.17740283203125,-0.3458253025718743,-9.551355302059962,-2.195995319238203
1789147779889375000,3.187375,-0.35985660878853504,-9.555521445845645,-2.17552502106617
1789147779899347000,3.197346923828125,-0.35897593923696225,-9.559830884067557,-2.156655043755963
1789147779909320000,3.20731982421875,-0.35179266137529047,-9.56429494088065,-2.1379642185642407
1789147779919292000,3.2172919921875,-0.35767825930052427,-9.56821108089458,-2.119386014790403
1789147779929264600,3.2272646484375,-0.3630935470818294,-9.572662631173191,-2.098253705147864
1789147779939236600,3.237236572265625,-0.36121018154226364,-9.578352893663642,-2.0724526829245433
1789147779949208800,3.247208740234375,-0.371356275297026,-9.584270096851164,-2.0430987043515523
1789147779959181600,3.257181640625,-0.3750258073918296,-9.590818664700702,-2.011453438429814
1789147779969153500,3.267153564453125,-0.3768941199570317,-9.596449226150304,-1.9840621717797315
1789147779979125800,3.277125732421875,-0.3791447369204675,-9.600510012639864,-1.9638834217580905
1789147779989098500,3.287098388671875,-0.37418446905974323,-9.604115786746641,-1.9471322679757777
1789147779999070700,3.29707080078125,-0.36169035345455913,-9.609151667359056,-1.9245204269042315
1789147780009042700,3.307042724609375,-0.34373381559321764,-9.616106995574668,-1.8928081746632073
1789147780019015400,3.317015380859375,-0.3268489580924461,-9.62311251611732,-1.8599131339585324
1789147780028987600,3.326987548828125,-0.3145864829406697,-9.628858572166797,-1.832073746551708
1789147780038960600,3.336960693359375,-0.30003448680556644,-9.634969508622259,-1.8021435242074815
1789147780048932600,3.3469326171875,-0.289926736975256,-9.64088286013338,-1.7719218019385008
1789147780058904600,3.356904541015625,-0.2784417076023414,-9.646886988054712,-1.7408130849653642
1789147780068877800,3.3668779296875,-0.262880990474419,-9.65422176785676,-1.7021419300100642
1789147780078849500,3.376849609375,-0.24503185652655018,-9.661857188557045,-1.6609838643307084
1789147780088821800,3.38682177734375,-0.2331942435872532,-9.6690159856371,-1.6205333341148167
1789147780098794800,3.396794677734375,-0.22646357977842327,-9.67684353361331,-1.5741001339031002
1789147780108766500,3.406766357421875,-0.2194105254658041,-9.68445413210007,-1.527607585810002
1789147780118738700,3.41673876953125,-0.21367353781906104,-9.691313974134658,-1.4843002001375543
1789147780128711700,3.426711669921875,-0.20484652308977358,-9.698139142474178,-1.4403212160829226
1789147780138683600,3.43668359375,-0.19099380236498997,-9.704734846324072,-1.3971483169068168
1789147780148655600,3.446655517578125,-0.1714648163213504,-9.711981059206042,-1.348489468568053
1789147780158628600,3.456628662109375,-0.141096829680886,-9.719996532589011,-1.2931132438431172
1789147780168600600,3.4666005859375,-0.1155630676709749,-9.728161378497772,-1.2328446656793566
1789147780178573600,3.476573486328125,-0.09787075457493345,-9.735653261086272,-1.1738254692805208
1789147780188545800,3.4865458984375,-0.07415342985761783,-9.742508340164761,-1.1173287388410504
1789147780198517500,3.496517578125,-0.05155650704009002,-9.748969763472404,-1.0608140030051907
1789147780208490500,3.506490478515625,-0.04404440769947641,-9.755116121532923,-1.00307853294799
1789147780218462700,3.516462646484375,-0.042226094407071334,-9.760599873875375,-0.9483143747117522
1789147780228434700,3.5264345703125,-0.030784256142552077,-9.765548949493388,-0.8963816116927857
1789147780238407700,3.53640771484375,-0.0076615581694340655,-9.770907309870887,-0.836480795109497
1789147780248379600,3.546379638671875,-0.00219911653462994,-9.776205423739727,-0.7721370159985935
1789147780258351600,3.5563515625,-0.004710133339324737,-9.781236334837004,-0.7055262925915583
1789147780268324600,3.56632470703125,-0.00901961463902554,-9.785979045928515,-0.636345380005656
1789147780278296800,3.576296875,-0.005174566015574707,-9.789726938348702,-0.5758438267106106
1789147780288269800,3.586269775390625,0.0031495330010257046,-9.793274268525217,-0.5120048635780855
1789147780298241500,3.596241455078125,0.024720562740706473,-9.796383471389063,-0.44792857675610365
1789147780308213800,3.6062138671875,0.045691122409215294,-9.799121251520328,-0.38147264639914547
1789147780318186800,3.616186767578125,0.06583167357136777,-9.801462170141992,-0.31207563926968857
1789147780328158700,3.62615869140625,0.08326131464836133,-9.803138131787886,-0.24884704997959742
1789147780338130700,3.636130615234375,0.08843924272833395,-9.804519099062723,-0.18431701992934849
1789147780348103700,3.646103759765625,0.09371973056804579,-9.805454468815999,-0.1210733807403564
1789147780358075600,3.65607568359375,0.09911409368531211,-9.805991155358491,-0.05569502860798269
1789147780368047600,3.666047607421875,0.10584023764477558,-9.806066314688392,0.015633201098042754
1789147780378020900,3.676020751953125,0.11987148853883597,-9.805556347127919,0.08414693275109834
1789147780387992600,3.68599267578125,0.1348372661517482,-9.804547187591206,0.15185091721279498
1789147780397965600,3.695965576171875,0.13409686893172362,-9.803439752387215,0.21206106500216002
1789147780407937800,3.705937744140625,0.12868362227375105,-9.802105213106836,0.26935511598131007
1789147780417909500,3.715909423828125,0.1142698851561203,-9.800437508284663,0.3297842962968946
1789147780427882800,3.7258828125,0.10244006187441733,-9.798484283547813,0.38676608760707804
1789147780437854700,3.735854736328125,0.08364746208091439,-9.796737526180356,0.4328032764260646
1789147780447826700,3.74582666015625,0.0826243547288825,-9.794335527767771,0.48431981836767174
1789147780457799700,3.755799560546875,0.07972328341750722,-9.791662973261383,0.5360499107736181
1789147780467771600,3.765771728515625,0.06998736703182012,-9.789385417038307,0.577437628925923
1789147780477743600,3.77574365234375,0.06118006695157651,-9.787074719543304,0.6162906121122553
1789147780487716600,3.785716552734375,0.049274755698626264,-9.784833771388161,0.6519158152412169
1789147780497688800,3.795688720703125,0.029978325950721727,-9.781854371191502,0.6962832489053006
1789147780507660500,3.80566064453125,0.01663347284427031,-9.77904860823571,0.7350667451553979
1789147780517633800,3.8156337890625,0.009010936035305502,-9.776529286278807,0.7679609423962275
1789147780527605800,3.825605712890625,0.009881812611623391,-9.773643652014922,0.8038438150818719
1789147780537578500,3.83557861328125,0.01828895351600657,-9.770695311049025,0.8387830554765558
1789147780547550700,3.84555078125,0.024440365892980414,-9.767490996955772,0.8751593262159435
1789147780557522700,3.855522705078125,0.01909072213606983,-9.764817735918811,0.9046275592048275
1789147780567495700,3.86549560546875,0.011633257733880426,-9.762182956093104,0.9327488957570687
1789147780577467600,3.875467529296875,0.003565872463872887,-9.759955518458108,0.9558493327661817
1789147780587439900,3.88543994140625,-0.008920587866424022,-9.757780511858796,0.977762759797453
1789147780597412600,3.89541259765625,-0.01676388771480968,-9.75602815475215,0.9949896760759603
1789147780607384600,3.905384521484375,-0.017463918963497638,-9.755091113002738,1.0041255630428552
1789147780617356800,3.915356689453125,-0.00897617279932439,-9.754411138479034,1.01082733444288
1789147780627329500,3.92532958984375,-0.0053004585040148525,-9.754257183116387,1.0123309154563394
1789147780637301800,3.9353017578125,-0.0006640944112298017,-9.754660361384499,1.0084542104870913
1789147780647274800,3.945274658203125,0.006282158657283365,-9.755070024559394,1.004466053763158
1789147780657246500,3.95524658203125,0.00569943522004922,-9.75590599032749,0.9963158098743651
1789147780667218700,3.96521875,-0.004317933925737859,-9.757575584411924,0.9798380975470369
1789147780677191700,3.975191650390625,-0.01456986153402609,-9.759335356301492,0.9620513409010962
1789147780687163600,3.98516357421875,-0.021516544642875567,-9.760926488067495,0.9456451003533051
1789147780697135600,3.995135498046875,-0.023875248342909113,-9.762137107042118,0.9330073570731258
1789147780707108900,4.00510888671875,-0.0240669469354723,-9.763307756277237,0.9206703201165638
1789147780717080600,4.01508056640625,-0.025166634098487666,-9.764689307623529,0.9058628970461421
1789147780727052800,4.025052734375,-0.020470093160338484,-9.766810567930499,0.8828165715185778
1789147780737025800,4.03502587890625,-0.020329898457804217,-9.768954519498859,0.8587796270057229
1789147780746997500,4.04499755859375,-0.018594550542188122,-9.770687014600261,0.8388751990931785
1789147780756970800,4.054970703125,-0.017917917576562505,-9.772119149068049,0.8220433179650003
1789147780766942700,4.064942626953125,-0.017036265026882588,-9.773884300424527,0.8008037213038718
1789147780776914700,4.074914794921875,-0.015913504469207918,-9.775769343791367,0.7774763092971173
1789147780786887700,4.0848876953125,-0.021182900152544072,-9.778221658436653,0.7458630827424876
1789147780796859600,4.094859619140625,-0.020831284617424783,-9.780227337823595,0.7190993372350283
1789147780806831600,4.10483154296875,-0.02040730072010748,-9.782344286206655,0.6897157568747856
1789147780816804600,4.1148046875,-0.014450680953356837,-9.784289203211676,0.6617027684058835
1789147780826776800,4.12477685546875,-0.0052635399228891525,-9.785660286226252,0.641251711634633
1789147780836748500,4.13474853515625,0.007999842829330438,-9.786978717513689,0.6207847901422542
1789147780846721500,4.144721435546875,0.013745150634618635,-9.788954333078095,0.5887048111338117
1789147780856693800,4.15469384765625,-0.002085339354724897,-9.791414241807825,0.5464375404594224
1789147780866665700,4.164665771484375,-0.01624490895623179,-9.793508094838892,0.5072660490232812
1789147780876638700,4.174638671875,-0.019658563876728197,-9.795233907815462,0.4726436001856416
1789147780886610700,4.184610595703125,-0.02058578384520659,-9.796348541834755,0.4489131645343373
1789147780896583700,4.194583740234375,-0.025388294464447316,-9.797799727475546,0.41577347101730866
1789147780906555600,4.2045556640625,-0.01361739527934884,-9.798642860150794,0.395978893658619
1789147780916527900,4.21452783203125,-0.007978658244726405,-9.799262671365653,0.38049503747962193
1789147780926501000,4.224501220703125,-0.02171349423230031,-9.799907676735174,0.3629441455075172
1789147780936473000,4.23447314453125,-0.027881006308951448,-9.800525930380857,0.3454034221503621
1789147780946445300,4.2444453125,-0.025850166216185598,-9.800797564474902,0.3377759420282707
1789147780956418000,4.25441796875,-0.027301297845541177,-9.801277431167941,0.3234178178659549
1789147780966390000,4.26439013671875,-0.030999902862818972,-9.801736391268271,0.30886045410182117
1789147780976362200,4.2743623046875,-0.03138318995604512,-9.802064963459028,0.29818083529464035
1789147780986335000,4.2843349609375,-0.021950107651936505,-9.802153788515579,0.29612499594184816
1789147780996307200,4.29430712890625,-0.025853321399122022,-9.802420310372124,0.2868203916290062
1789147781006279200,4.304279052734375,-0.023365324463878265,-9.802894825103028,0.27033441540481457
1789147781016252200,4.314252197265625,-0.014847960626539612,-9.803350243142724,0.25395311002712145
1789147781026224000,4.32422412109375,0.0017982648745151725,-9.803712010307935,0.24003714536289897
1789147781036197000,4.334197021484375,0.01657174352405955,-9.803986532661124,0.22793633790146275
1789147781046169000,4.344169189453125,0.030067213691758365,-9.804272884066762,0.21381092635413396
1789147781056141000,4.35414111328125,0.04454084475622176,-9.804547353633408,0.19811456484465642
1789147781066114300,4.3641142578125,0.061048537427078005,-9.804792738155848,0.18081587518806821
1789147781076086000,4.3740859375,0.06191662416706084,-9.805125428944502,0.16142151615271713
1789147781086058200,4.384058349609375,0.05434420389546599,-9.805470774529022,0.14202829385261337
1789147781096031200,4.39403125,0.04257504011294529,-9.805806231826786,0.12142366707286951
1789147781106003000,4.4040029296875,0.03646072971533229,-9.806046452020627,0.10256666002795689
1789147781115975200,4.41397509765625,0.03636842254500004,-9.806233787985885,0.08269984273647933
1789147781125948200,4.4239482421875,0.04294052667186019,-9.80635560558519,0.06274052948895226
1789147781135920000,4.433920166015625,0.055047858391968435,-9.80637992724364,0.04761001375641618
1789147781145893000,4.44389306640625,0.05892910428854126,-9.806394988449984,0.038993928489624186
1789147781155865000,4.453864990234375,0.06154132117280611,-9.806402062573158,0.032858071855203556
1789147781165837000,4.463837158203125,0.07005515639026828,-9.80636547732532,0.026165319196480238
1789147781175810000,4.47381005859375,0.07670256838627798,-9.806331398918367,0.019520465173433504
1789147781185782300,4.4837822265625,0.07395774854492095,-9.8063654563661,0.010507779850537228
1789147781195754000,4.49375390625,0.07098158737131956,-9.80639308041092,0.0003824831023144986
1789147781205727000,4.50372705078125,0.07253715425912811,-9.806376051335072,-0.010698558339308464
1789147781215699200,4.51369921875,0.0720003759762385,-9.806358178255184,-0.023519751767008466
1789147781225671200,4.523671142578125,0.056050141466780924,-9.806426681688576,-0.03526874705515695
1789147781235644200,4.53364404296875,0.04497938302019755,-9.806436535748693,-0.04671315736950121
1789147781245616000,4.5436162109375,0.03968926215867519,-9.80640559039287,-0.05685222036838123
1789147781255588000,4.553588134765625,0.03321816235259034,-9.806374573469277,-0.0656012225534687
1789147781265561000,4.56356103515625,0.03266519141828436,-9.806305084598186,-0.07552484824018117
1789147781275533300,4.573533203125,0.040355059317340035,-9.80621787412364,-0.08280950062760134
1789147781285506000,4.583506103515625,0.04852989617366577,-9.806115179747009,-0.09018417245979449
1789147781295478000,4.59347802734375,0.04812999870626487,-9.806035681313146,-0.09870809672723833
1789147781305450200,4.6034501953125,0.04646980531874631,-9.805924616130762,-0.10989182343689216
1789147781315423000,4.613423095703125,0.04226243363045969,-9.805786236831805,-0.1231449983015926
1789147781325395200,4.623395263671875,0.03173999116193622,-9.805624936397189,-0.13815984815147067
1789147781335367200,4.6333671875,0.021600807125209072,-9.805457172361505,-0.15142680941621733
1789147781345340000,4.64333984375,0.01352260220144717,-9.805330924062943,-0.16027820311912194
1789147781355312000,4.65331201171875,0.011263466459829632,-9.805186500335122,-0.16906502375588922
1789147781365284000,4.6632841796875,0.010203734437015102,-9.805038892394839,-0.1774516115810083
1789147781375257000,4.673257080078125,0.0018109779233463858,-9.804891299851889,-0.1856755178188125
1789147781385229000,4.68322900390625,0.00026215012517621944,-9.804721944126083,-0.19449563877203344
1789147781395202000,4.6932021484375,0.006305293756213558,-9.804559392759064,-0.20237811730466737
1789147781405174000,4.703174072265625,0.01273484994956194,-9.804344049767447,-0.21228752243719562
1789147781415146200,4.713146240234375,0.02042966353526063,-9.804061095932099,-0.2244150070133141
1789147781425119200,4.723119140625,0.028649598553454524,-9.803680511391255,-0.2396096760308004
1789147781435091000,4.733091064453125,0.03986882888907756,-9.803193824396084,-0.25726143600560575
1789147781445063200,4.743063232421875,0.046891437163747565,-9.802714566650476,-0.27379878703781035
1789147781455036200,4.7530361328125,0.049912320003500585,-9.80227394730376,-0.28864719257159516
1789147781465008000,4.763008056640625,0.051380516059864885,-9.801785147182983,-0.30455658856569917
1789147781474980000,4.77297998046875,0.04890932153003518,-9.801327175888984,-0.3193495140666761
1789147781484953000,4.782953125,0.047617276768060116,-9.800857537924259,-0.33361830224153705
1789147781494925000,4.792925048828125,0.0477780239689702,-9.80046057317525,-0.3450699824223635
1789147781504897000,4.80289697265625,0.04908150774965404,-9.800072475281018,-0.35572646417117504
1789147781514870300,4.812870361328125,0.042936292259410376,-9.799825292310665,-0.3632553378060018
1789147781524842000,4.822842041015625,0.031934781681483275,-9.79969775737709,-0.3678004717862895
1789147781534815000,4.83281494140625,0.021723577298765163,-9.799497455345271,-0.37384250080062004
1789147781544787200,4.842787109375,0.017197613833588258,-9.7991293128023,-0.38359754622408304
1789147781554759000,4.852759033203125,0.01386375223283782,-9.798643306140118,-0.39595531803463
1789147781564732200,4.862732177734375,0.014212259684795527,-9.798025795022069,-0.4109449125592378
1789147781574704000,4.8727041015625,0.019156101497992004,-9.797385818437169,-0.42575218632799927
1789147781584676000,4.882676025390625,0.021687215965031325,-9.796905446053994,-0.4365428578376601
1789147781594649000,4.892649169921875,0.032352929629839294,-9.796498799780741,-0.4449076633005623
1789147781604621000,4.90262109375,0.041026271077857564,-9.796317290569474,-0.448169782027626
1789147781614593000,4.912593017578125,0.045400686045283745,-9.79593886769055,-0.4559759028248695
1789147781624566000,4.92256591796875,0.04177356708310026,-9.79564223519467,-0.4626302238423067
1789147781634538200,4.932538330078125,0.03754926051199949,-9.795391097032526,-0.46826868387418574
1789147781644510000,4.942510009765625,0.03494092271230082,-9.795050013621141,-0.47555676428048915
1789147781654483200,4.952483154296875,0.036178457289573446,-9.794707541838974,-0.48247640405547854
1789147781664455200,4.962455078125,0.031007225088091266,-9.794317545442782,-0.490693861256019
1789147781674428200,4.97242822265625,0.011685821618526384,-9.794124798702692,-0.4953602656408595
1789147781684400000,4.982400146484375,-0.0021853087524002354,-9.793964541187181,-0.49863652148934284
1789147781694372000,4.9923720703125,-0.007262333354390419,-9.793743842747757,-0.5028985923824579
1789147781704345300,5.002345458984375,-0.00960212879921731,-9.79348399524663,-0.5079013472847592
1789147781714317000,5.012317138671875,-0.006215495141758311,-9.793061965232376,-0.5160305133587335
1789147781724289300,5.022289306640625,-0.0002491317108733355,-9.7926262598655,-0.5242765633841975
1789147781734262300,5.03226220703125,0.007050928640139038,-9.792268156045088,-0.5308630078694268
1789147781744234000,5.04223388671875,0.005681010854698889,-9.7920228232282,-0.5353776649208554
1789147781754206200,5.052206298828125,0.0030518492231193543,-9.791960714880828,-0.5365504429934664
1789147781764179200,5.06217919921875,-0.001891714034153079,-9.791922541254221,-0.5372508673473407
1789147781774151200,5.072151123046875,-0.010040380090794538,-9.79159113753445,-0.5431627373373188
1789147781784123100,5.082123046875,-0.016524453130380944,-9.791067562057933,-0.5523610083951871
1789147781794096000,5.09209619140625,-0.021575413800657917,-9.790296779543082,-0.5656916539445151
1789147781804068000,5.102068115234375,-0.019602409285556847,-9.789296614262682,-0.5828195816391876
1789147781814041000,5.112041015625,-0.025479938095850446,-9.78851545237147,-0.5955684037915882
1789147781824013300,5.122013427734375,-0.02936807323319516,-9.787954351985224,-0.6045377675560006
1789147781833985000,5.131985107421875,-0.030165470591941686,-9.787501836852472,-0.6117861402418727
1789147781843958000,5.1419580078125,-0.026461856313311004,-9.787088620547935,-0.6185312707672912
1789147781853930200,5.15193017578125,-0.022971624956846123,-9.78656704211651,-0.6268586218491742
1789147781863902200,5.161902099609375,-0.01859857323155218,-9.785802767511523,-0.6388353048005236
1789147781873875200,5.171875244140625,-0.014000799880261037,-9.784905681009105,-0.6525404220926904
1789147781883847200,5.18184716796875,-0.015107365756956589,-9.783949266001239,-0.6667007037068673
1789147781893819100,5.191819091796875,-0.014516186821178785,-9.78299761782777,-0.6805393608914904
1789147781903792000,5.201792236328125,-0.012018154330340414,-9.782274396027683,-0.6909039280703055
1789147781913764000,5.21176416015625,-0.007889116343052477,-9.781594166558992,-0.7005327244281202
1789147781923736000,5.221736083984375,-0.0028009476343387792,-9.78071051135461,-0.7127951807238329
1789147781933708800,5.231708740234375,0.00614142519715591,-9.779720513999159,-0.726232466696833
1789147781943681000,5.241680908203125,0.015503175841907616,-9.77863391268911,-0.7405842218798999
1789147781953654000,5.251654052734375,0.028990326588575345,-9.777455045173289,-0.7555938099964948
1789147781963626000,5.2616259765625,0.03488408555253896,-9.776721688695245,-0.7647805659113027
1789147781973598000,5.271597900390625,0.04218759563534369,-9.776102356077534,-0.7722931246908878
1789147781983571000,5.281571044921875,0.047983335794351524,-9.77563819422967,-0.7778025108013229
1789147781993543000,5.29154296875,0.04696213053727392,-9.775311779485495,-0.7819667199849976
1789147782003515000,5.301514892578125,0.04812622577525516,-9.774973300665561,-0.7861108157351484
1789147782013488000,5.311488037109375,0.048564367817837316,-9.774822067346964,-0.7879645275552769
1789147782023459800,5.3214599609375,0.04897460912961546,-9.775073194142022,-0.7848175247468911
1789147782033432000,5.33143212890625,0.06781622682163606,-9.775050935683328,-0.7836863680285682
1789147782043405000,5.341405029296875,0.07589755610115327,-9.775165959494057,-0.7815081949748897
1789147782053377000,5.351376953125,0.09618447727263567,-9.775036611500273,-0.7808975746258019
1789147782063349000,5.361348876953125,0.1005826695139763,-9.775170461100958,-0.7786600051160403
1789147782073322000,5.371322021484375,0.10275066412297601,-9.775851197934932,-0.7697848083450418
1789147782083294000,5.3812939453125,0.09953521206145595,-9.776965637810425,-0.7559205759473085
1789147782093267000,5.391266845703125,0.0996503020113995,-9.778014926862214,-0.7422127049991951
1789147782103239200,5.4012392578125,0.11156413655105336,-9.778998368846272,-0.7274160508499774
1789147782113211000,5.4112109375,0.10318655523246946,-9.779954738398086,-0.71570205611191
1789147782123183900,5.421183837890625,0.08840225525706415,-9.78087974129491,-0.7049595241522063
1789147782133156000,5.431156005859375,0.07540518970699374,-9.781826593849278,-0.6932293947741401
1789147782143127800,5.4411279296875,0.059942939296914896,-9.783238670742923,-0.6745639494371465
1789147782153101000,5.45110107421875,0.03660786465168784,-9.785045089917332,-0.6495750886313965
1789147782163073000,5.461072998046875,0.02454220506520528,-9.786720190363818,-0.6244119795514111
1789147782173045000,5.471044921875,0.010068318763860792,-9.788498823745055,-0.5963034836653506
1789147782183018000,5.48101806640625,-0.005161278806459133,-9.790004571834597,-0.5711099376251675
1789147782192990000,5.490989990234375,-0.016420154271088196,-9.791259667775561,-0.5489550633965142
1789147782202962000,5.5009619140625,-0.028714066336093615,-9.792638638876275,-0.5232451802988202
1789147782212935000,5.510934814453125,-0.0407338060669785,-9.794096400766602,-0.4943644978201001
1789147782222907100,5.5209072265625,-0.04607741645261936,-9.795585895494671,-0.4634117643328457
1789147782232879900,5.5308798828125,-0.05181786026414146,-9.797169846902202,-0.42797883322938185
1789147782242852000,5.54085205078125,-0.05216350067202117,-9.798630198106167,-0.39308114710450426
1789147782252824000,5.550823974609375,-0.05627831040328444,-9.799996167743897,-0.35677915226914086
1789147782262796800,5.560796875,-0.07321532270940116,-9.801211554622633,-0.3182491086228409
1789147782272769000,5.57076904296875,-0.0900139574900671,-9.802228062280067,-0.28034227084147845
1789147782282741000,5.580740966796875,-0.09994685694729076,-9.803063456621592,-0.2456786052237107
1789147782292714000,5.5907138671875,-0.11172817110568728,-9.803754088492008,-0.21046599617551215
1789147782302686000,5.60068603515625,-0.11773563300757844,-9.804412126957073,-0.17330077210099862
1789147782312658200,5.610658203125,-0.1242170170870068,-9.8049825204485,-0.13139449623062943
1789147782322631000,5.620630859375,-0.13257860550741554,-9.80539889634533,-0.08344804922562161
1789147782332603000,5.630602783203125,-0.13758968848064254,-9.805613148573057,-0.03733113852116034
1789147782342575000,5.6405751953125,-0.14496775182101487,-9.805576500900356,0.006649802014003679
1789147782352547800,5.6505478515625,-0.15414021844336215,-9.80530701094781,0.05083672035983675
1789147782362520000,5.66052001953125,-0.15945388735883487,-9.804913762871449,0.09287881772303326
1789147782372492000,5.670491943359375,-0.16282916842997155,-9.804428683272814,0.13056245705249034
1789147782382464800,5.68046484375,-0.1673516842918976,-9.8037386094629,0.1705493218069345
1789147782392437000,5.69043701171875,-0.17248974300711595,-9.802858186522753,0.21121094405622204
1789147782402410000,5.700409912109375,-0.17186915185764556,-9.801878006549032,0.2530630187005833
1789147782412382000,5.7103818359375,-0.17028015478137423,-9.8006907181413,0.2963971547547015
1789147782422354000,5.72035400390625,-0.17112666322376846,-9.79927368310104,0.3396158257621164
1789147782432327000,5.730326904296875,-0.16885051811237708,-9.797849830719995,0.3794932686861336
1789147782442299000,5.740298828125,-0.1598600351512332,-9.796632745171316,0.41330611816676427
1789147782452271000,5.75027099609375,-0.1485236899744869,-9.795265913026327,0.4484189892717872
1789147782462244000,5.760244140625,-0.13248851701936132,-9.793829791869298,0.4834481821362591
1789147782472215800,5.7702158203125,-0.11580974554597667,-9.792165887304359,0.5200572707162298
1789147782482188000,5.78018798828125,-0.09372387091643342,-9.79051023419752,0.5545349551980411
1789147782492161000,5.7901611328125,-0.08680896727845262,-9.788823546992473,0.584623049348614
1789147782502133000,5.800133056640625,-0.094506504009287,-9.786997589695275,0.6132863961314479
1789147782512105000,5.81010498046875,-0.11008542727809667,-9.785072509358612,0.6407966425609761
1789147782522078000,5.820077880859375,-0.1161644905995856,-9.783497082031912,0.6633871724884641
1789147782532050000,5.8300498046875,-0.12538772677531795,-9.781820660658191,0.6860461618334047
1789147782542023000,5.84002294921875,-0.12672383737431292,-9.77994004222035,0.7121077748726021
1789147782551995100,5.8499951171875,-0.12532351988307427,-9.77799759736768,0.7385380466580544
1789147782561966800,5.859966796875,-0.13331594496110782,-9.77575346603784,0.7663271995033212
1789147782571939800,5.86993994140625,-0.16046391868604362,-9.773455407870312,0.7900694265662533
1789147782581912000,5.879912109375,-0.1674938817901866,-9.7716776602711,0.8103439096724816
1789147782591883800,5.8898837890625,-0.15158365826571318,-9.770462556097105,0.8279344043212163
1789147782601857000,5.89985693359375,-0.13442830373177164,-9.769597875519334,0.8409927926352778
1789147782611829000,5.9098291015625,-0.11727188150511292,-9.768478277098394,0.8564325743849369
1789147782621801000,5.919801025390625,-0.09286530423663314,-9.766872857084197,0.8774762640031395
1789147782631774000,5.92977392578125,-0.06099616501126728,-9.764810392520033,0.9028477288165121
1789147782641746000,5.939745849609375,-0.04417704708406903,-9.763137362178503,0.921727851603756
1789147782651718000,5.9497177734375,-0.03859191811541486,-9.761912736096791,0.9348585181085042
1789147782661691000,5.95969091796875,-0.01899831145366298,-9.761641710180909,0.9382840753742947
1789147782671663000,5.9696630859375,0.005209088472762688,-9.761834731775318,0.9364497682879639
1789147782681634800,5.979634765625,0.02229081665691776,-9.761575705941702,0.9388911208314248
1789147782691608000,5.989608154296875,0.0455384334553721,-9.761105449731318,0.9429434910198332
1789147782701580000,5.999580078125,0.07006868184360589,-9.760540908337493,0.9472702942717782
1789147782711553000,6.009552978515625,0.09268349490563897,-9.759403399222734,0.9570001364907106
1789147782721525000,6.01952490234375,0.11348602305413506,-9.758919429450417,0.9596897797856058
1789147782731497000,6.0294970703125,0.11766809363519387,-9.758500119993208,0.9634448419373833
1789147782741470200,6.03947021484375,0.11561467339533385,-9.758485893164623,0.9638354435315777
1789147782751442000,6.04944189453125,0.10880987905656403,-9.758399482644647,0.9654993799884077
1789147782761414100,6.0594140625,0.11048417510580905,-9.758497328642845,0.9643234726654065
1789147782771387100,6.06938720703125,0.12709662503283903,-9.758563744185277,0.9615934229667483
1789147782781358800,6.07935888671875,0.15449437856673992,-9.759306326287286,0.949971783317006
1789147782791331000,6.0893310546875,0.18805328751326272,-9.760063119871338,0.9360481110531287
1789147782801304000,6.099303955078125,0.20294152856318975,-9.761479702688808,0.9180021210607233
1789147782811276000,6.109276123046875,0.219232098795737,-9.762290519912437,0.9055446495380252
1789147782821248000,6.119248046875,0.22972384066607462,-9.76282262773073,0.8971715309059017
1789147782831221000,6.129220947265625,0.23687900564404124,-9.76333835978117,0.8896545993309876
1789147782841193000,6.13919287109375,0.2583109627964416,-9.76383854627043,0.8781297795821752
1789147782851165200,6.149165283203125,0.2678495373940203,-9.764772025426876,0.8647906173985431
1789147782861138200,6.15913818359375,0.24516585297605004,-9.766920090970666,0.8470906637961376
1789147782871110000,6.16910986328125,0.2176723816146997,-9.769507931349413,0.8244462885474906
1789147782881083100,6.179083251953125,0.19896705725171743,-9.771837235006576,0.8012501333455544
1789147782891055000,6.18905517578125,0.18263184796919918,-9.773811351899882,0.7807947537398743
1789147782901027000,6.199027099609375,0.18608303604520945,-9.77511501645625,0.7634602591193853
1789147782911000000,6.209,0.18787499818469677,-9.775965288905837,0.7520522956519353
1789147782920972000,6.218971923828125,0.1871118326172535,-9.77691469039218,0.7397977059530141
1789147782930944300,6.2289443359375,0.18626579211779082,-9.777920455125518,0.7266181998876247
1789147782940917200,6.238917236328125,0.20069869340530183,-9.77899180819836,0.708115349275819
1789147782950889500,6.248889404296875,0.19899825749150438,-9.78038856827885,0.68904670067603
1789147782960861200,6.258861083984375,0.1832339768565484,-9.782143882053498,0.66819934801835
1789147782970834200,6.268834228515625,0.16410426144121754,-9.783438660610727,0.654052663366448
1789147782980806400,6.278806396484375,0.1347919283545904,-9.784845953793477,0.6395329743149922
1789147782990778000,6.288778076171875,0.10949270240652981,-9.786303074255532,0.6218155321312461
1789147783000751400,6.29875146484375,0.09603388621462984,-9.787697969716548,0.6017729736991649
1789147783010723300,6.308723388671875,0.0805773383941136,-9.789280904668576,0.5778138326724608
1789147783020695300,6.3186953125,0.07184081558574655,-9.790913964344906,0.5506562532856055
1789147783030668300,6.328668212890625,0.08242917364419781,-9.791880559365039,0.5316496708045326
1789147783040640300,6.33864013671875,0.0985617487209891,-9.792493830398808,0.5174422379132886
1789147783050613200,6.34861328125,0.09981765322548689,-9.793379921448846,0.5001495362668439
1789147783060585200,6.358585205078125,0.08345191196521354,-9.794365996044364,0.4835297203806511
1789147783070557400,6.368557373046875,0.06842114626593049,-9.79497547943614,0.47344376871905647
1789147783080530200,6.3785302734375,0.04988714697388923,-9.79557606598139,0.4632423824176226
1789147783090502100,6.388502197265625,0.04201668680162549,-9.796405458155165,0.44617261390541174
1789147783100474400,6.398474365234375,0.0473799959014293,-9.797418894512669,0.4227653508501286
1789147783110447000,6.408447021484375,0.0605920592367633,-9.798437248956137,0.39665019724849393
1789147783120419300,6.41841943359375,0.0709938745057068,-9.799382757011683,0.3707396489898197
1789147783130391300,6.428391357421875,0.08077349457295029,-9.800086566747545,0.34952878951181576
1789147783140364300,6.4383642578125,0.10095968111481968,-9.800483347233081,0.3327464024509578
1789147783150336300,6.448336181640625,0.12161130119195952,-9.800643463552227,0.3208920965605759
1789147783160308500,6.45830859375,0.13069871420268914,-9.800800624398297,0.3124195380968345
1789147783170281200,6.46828125,0.13407430477984986,-9.801155561564228,0.2996001407249487
1789147783180253200,6.478253173828125,0.1383252748135649,-9.801392702798617,0.2897483732519526
1789147783190225200,6.48822509765625,0.14352994548292375,-9.801726136573405,0.2756048148923269
1789147783200198100,6.4981982421875,0.14859727939304682,-9.80213195425723,0.25793325738897604
1789147783210170400,6.50817041015625,0.13791734188703558,-9.802688340809848,0.24221922572686314
1789147783220143400,6.518143310546875,0.1230050574037236,-9.803215079538328,0.22850179295445974
1789147783230115000,6.528114990234375,0.11977709067246574,-9.803467949488777,0.21918398367358574
1789147783240087300,6.53808740234375,0.11942089475968622,-9.803578023297778,0.21444328121109862
1789147783250060300,6.548060302734375,0.12392214928406145,-9.803674114613392,0.2073429840633521
1789147783260032300,6.5580322265625,0.1329769810953458,-9.803779879052788,0.19647278844242577
1789147783270004200,6.568004150390625,0.13591970932220745,-9.803877487730734,0.18946131251055912
1789147783279977200,6.577977294921875,0.1499975918910714,-9.803744534204656,0.18566122702427207
1789147783289949200,6.58794921875,0.15957951527081252,-9.803596377803235,0.18548310671935483
1789147783299921200,6.597921142578125,0.1652714698353442,-9.803555024398701,0.18266703904025083
1789147783309894400,6.607894287109375,0.1727305404151451,-9.80353951498972,0.17656098538588152
1789147783319866000,6.6178662109375,0.18004796884770424,-9.803549823152094,0.16845811910414857
1789147783329838300,6.62783837890625,0.18301448599054002,-9.803567320110592,0.1641680983325775
1789147783339811300,6.637811279296875,0.1866231083043977,-9.803571942987343,0.15980905216048724
1789147783349783300,6.647783203125,0.18209102266098434,-9.803695325595491,0.15746448997103885
1789147783359755300,6.65775537109375,0.16725397584897786,-9.804035836173226,0.1526232342405028
1789147783369728300,6.667728271484375,0.1465624314609265,-9.804468560590589,0.14595434073002106
1789147783379700200,6.6777001953125,0.12208570712989274,-9.80485797282677,0.14226989656404976
1789147783389673200,6.687673095703125,0.10813226454118766,-9.80510881036672,0.1361473650048582
1789147783399645400,6.6976455078125,0.10266444011657451,-9.80528222990063,0.12761541967482917
1789147783409617200,6.7076171875,0.10524184555045565,-9.805345304879262,0.12045976319864019
1789147783419590100,6.717590087890625,0.10073180148044086,-9.80547374362955,0.11371766575026392
1789147783429562400,6.727562255859375,0.1084474058131478,-9.805438226100941,0.10956660666334385
1789147783439534000,6.7375341796875,0.1146800260956258,-9.805396482178077,0.10687698873966635
1789147783449507300,6.74750732421875,0.12176345120215877,-9.80536182593293,0.10215141213785683
1789147783459479300,6.757479248046875,0.12545175544773424,-9.80539984333392,0.09368084263291071
1789147783469451300,6.767451171875,0.13070818183743096,-9.805418393446278,0.08403200780714544
1789147783479424300,6.77742431640625,0.13225823736849868,-9.805489276662705,0.0726194034753014
1789147783489396200,6.787396240234375,0.13698038943561597,-9.805518495148155,0.05861616951581119
1789147783499368200,6.7973681640625,0.13974193806444374,-9.805545568973843,0.04600253264081322
1789147783509341200,6.807341064453125,0.13050943371823392,-9.8057207454024,0.03463294637804426
1789147783519313400,6.8173134765625,0.12191847527817307,-9.80586470002637,0.023015386222303848
1789147783529285000,6.82728515625,0.11743726993320738,-9.805935678501084,0.014808206013182907
1789147783539258400,6.83725830078125,0.1144671769074165,-9.805975228889208,0.011821984188411837
1789147783549230300,6.847230224609375,0.11182009441997036,-9.806007790618713,0.00909155051269986
1789147783559203000,6.857203125,0.11281493300893992,-9.806000534912805,0.002872337589830965
1789147783569175300,6.86717529296875,0.10976189498679356,-9.806035238734975,-0.0032472482276192207
1789147783579147300,6.877147216796875,0.10347282122103285,-9.806094380910139,-0.013869661765357238
1789147783589120300,6.887120361328125,0.08989502806997768,-9.806214024905195,-0.021868258179891256
1789147783599092200,6.89709228515625,0.08070261624221373,-9.806273696035536,-0.029671932656450035
1789147783609064400,6.907064453125,0.07264949035496719,-9.80630285378345,-0.03919694475126475
1789147783619037200,6.917037109375,0.06414363322825223,-9.806315741439503,-0.04946594061971607
1789147783629009200,6.927009033203125,0.059628894081238115,-9.80628230434014,-0.060430068076727975
1789147783638981400,6.9369814453125,0.06327676239329086,-9.806182029516659,-0.07197667542934275
1789147783648954000,6.9469541015625,0.07278266272226744,-9.806035627092667,-0.08216438381969746
1789147783658926300,6.95692626953125,0.07501940193589146,-9.805937164926561,-0.09138120711432242
1789147783668898300,6.966898193359375,0.06932479127303401,-9.805868108955144,-0.10260602888911728
1789147783678871000,6.97687109375,0.07132524659733007,-9.805704846211992,-0.11593536582410967
1789147783688843300,6.98684326171875,0.07425338941079969,-9.805543231566865,-0.12724592628142353
1789147783698815200,6.996815185546875,0.07081823367342102,-9.805434925805358,-0.13715611725608295
1789147783708788200,7.006788330078125,0.07082868184907933,-9.80526833589782,-0.14862094451210772
1789147783718760200,7.01676025390625,0.08025871223204728,-9.805044741772143,-0.15827983791884573
1789147783728732400,7.026732421875,0.08284227756961338,-9.804913682872098,-0.16488555909428862
1789147783738705200,7.036705078125,0.08146660196423366,-9.804802922157704,-0.17201588674766602
1789147783748677400,7.046677490234375,0.08195905895921306,-9.80465721037691,-0.17990524179507852
1789147783758650400,7.056650390625,0.08333917665600576,-9.804477770189903,-0.1888365730663199
1789147783768622000,7.0666220703125,0.0849890416578296,-9.804308369395295,-0.1967317722068154
1789147783778594300,7.07659423828125,0.09093685697754392,-9.804106898760416,-0.20395857969623635
1789147783788567300,7.0865673828125,0.09343761199907136,-9.804016890204423,-0.20712218424675696
1789147783798539300,7.096539306640625,0.09248625533237313,-9.8039848397164,-0.209111903026057
1789147783808511200,7.10651123046875,0.08637882863405914,-9.804048014456402,-0.208719859082063
1789147783818484200,7.116484130859375,0.08279523615769238,-9.80412879785482,-0.2063859635418221
1789147783828456200,7.126456298828125,0.08134349860962883,-9.804271154904585,-0.2000960832153744
1789147783838428200,7.13642822265625,0.0849152541098245,-9.804402780800554,-0.19198315115549308
1789147783848401400,7.1464013671875,0.09335939733874549,-9.804471161132318,-0.18442586370622166
1789147783858373000,7.156373046875,0.10440009129771308,-9.804525596620136,-0.17537509782266014
1789147783868345300,7.166345458984375,0.11964462455284676,-9.804532726641465,-0.1648986307411923
1789147783878318300,7.176318359375,0.13381876142657514,-9.804576803847885,-0.15080564516704953
1789147783888290000,7.1862900390625,0.13044219076510086,-9.804892603359875,-0.13212786364321466
1789147783898262300,7.19626220703125,0.12033706865163532,-9.805211047341054,-0.11717376077528141
1789147783908235300,7.2062353515625,0.11558208848924909,-9.80540685642648,-0.10496074309975335
1789147783918207200,7.216207275390625,0.1064314189878907,-9.805653663361259,-0.09056135184975776
1789147783928179500,7.226179443359375,0.0995920249266534,-9.80585745815755,-0.07502665970570074
1789147783938151700,7.236151611328125,0.09647399862946945,-9.806000546839078,-0.058663421602234596
1789147783948123600,7.24612353515625,0.08764825761729896,-9.806150660574986,-0.045997720375942845
1789147783958096400,7.256096435546875,0.07732275917575769,-9.806282870194158,-0.03506987451261609
1789147783968068600,7.266068603515625,0.07522122046798556,-9.806325242846473,-0.026512768571277514
1789147783978040600,7.27604052734375,0.07883194483434006,-9.806322901481112,-0.01388258003081686
1789147783988013600,7.286013671875,0.07861301289435015,-9.806335332145414,-0.0012700209262912852
1789147783997985500,7.295985595703125,0.08355351078828979,-9.806285250417732,0.013166666773098933
1789147784007957800,7.305957763671875,0.09000784125943788,-9.806202734156306,0.025891730788456448
1789147784017930500,7.315930419921875,0.0991529171123784,-9.806068531492231,0.039673120921860476
1789147784027902700,7.32590283203125,0.11231589095750186,-9.805856539853835,0.05437421770104238
1789147784037874700,7.335874755859375,0.12309362790309746,-9.805622859865192,0.07073081426837205
1789147784047847400,7.345847412109375,0.12833557053929293,-9.805445519412729,0.08459690505147466
1789147784057819600,7.355819580078125,0.12502869285690912,-9.805360116134397,0.09830752009571672
1789147784067791600,7.36579150390625,0.1183446960642682,-9.80528665176176,0.11285391966214171
1789147784077764600,7.3757646484375,0.11936250514103036,-9.805122441774756,0.1253025446762521
1789147784087736600,7.385736572265625,0.10649375305013062,-9.805093103568316,0.13852852445478211
1789147784097708800,7.395708740234375,0.09318518376339496,-9.80501347223335,0.15297044739927496
1789147784107681500,7.405681640625,0.09615282835236529,-9.804818329435511,0.16331740815823262
1789147784117653500,7.415653564453125,0.09668682788645307,-9.804744467676553,0.16737403408966933
1789147784127626800,7.425626708984375,0.09518402477239231,-9.804750665084617,0.1678916124514568
1789147784137598500,7.435598388671875,0.10156704480258312,-9.804770062650434,0.16298749722093805
1789147784147570700,7.44557080078125,0.10559375843446707,-9.80485149057477,0.1552699838065106
1789147784157543700,7.455543701171875,0.10276096472681202,-9.804961434205318,0.15019414094757003
1789147784167515400,7.465515380859375,0.10992669841732798,-9.804941847870909,0.14633702441967286
1789147784177487600,7.475487548828125,0.11019365259449272,-9.804939694145073,0.14628169500709953
1789147784187460600,7.485460693359375,0.09129517302812516,-9.805070411589053,0.15043758601592064
1789147784197432600,7.4954326171875,0.07303755038181962,-9.805213396046923,0.15113194044547326
1789147784207404500,7.505404541015625,0.07380783130721422,-9.805138212001816,0.15554749579352753
1789147784217377500,7.51537744140625,0.08005235746128046,-9.805065670494562,0.157002946067515
1789147784227349500,7.525349609375,0.09629323082895538,-9.804937681326445,0.15588361028779563
1789147784237321700,7.53532177734375,0.10883299543160911,-9.804751713397916,0.15932159545905863
1789147784247294700,7.545294677734375,0.11499256419801877,-9.804605194412988,0.1639314267877679
1789147784257266400,7.555266357421875,0.11895454455864919,-9.804394935245218,0.17344130053694037
1789147784267238700,7.56523876953125,0.1269933289288696,-9.804057723931509,0.18630637173980893
1789147784277211600,7.575211669921875,0.1322485176992257,-9.803722515334162,0.1998157354689105
1789147784287183600,7.58518359375,0.12884507683888027,-9.803506432715238,0.21224583919277143
1789147784297155600,7.595155517578125,0.12533674907534453,-9.803309259582168,0.22319015037386974
1789147784307128600,7.605128662109375,0.1121646389916596,-9.80327776667552,0.23138858126143727
1789147784317100500,7.6151005859375,0.09247033569415561,-9.8032597943972,0.24069806607444652
1789147784327073500,7.625073486328125,0.08415806019001154,-9.803086199331915,0.2506222861308247
1789147784337045800,7.635045654296875,0.07773743031441671,-9.802836822454593,0.2621510733693862
1789147784347017500,7.645017578125,0.07363764623367303,-9.802612494491898,0.2715956751287712
1789147784356990500,7.654990478515625,0.07435453843334279,-9.802410189047823,0.27859954861137065
1789147784366962700,7.664962646484375,0.08198631209780638,-9.802057953163754,0.2886717274828037
1789147784376934700,7.6749345703125,0.08769876753936566,-9.801796812373617,0.29577974997151024
1789147784386907600,7.68490771484375,0.09116770993695493,-9.801590102986143,0.3015000061573504
1789147784396879600,7.694879638671875,0.0843058633666854,-9.801393888157694,0.3097798775390251
1789147784406851600,7.7048515625,0.0781108257948989,-9.801191261276934,0.31770018319086074
1789147784416824600,7.714824462890625,0.0752446421245315,-9.801042994828698,0.32292755055837535
1789147784426796800,7.724796875,0.06848973870192442,-9.800975768230042,0.32644688232722874
1789147784436768500,7.7347685546875,0.06612063511068014,-9.80086648281608,0.3302078172745791
1789147784446741500,7.744741455078125,0.06745782200137238,-9.800696881065914,0.3349481529285098
1789147784456713700,7.754713623046875,0.07237221443674756,-9.800377263122387,0.34314962911909264
1789147784466685400,7.764685546875,0.07554467825916883,-9.79986428703276,0.35684392149572314
1789147784476658700,7.77465869140625,0.08370118986059136,-9.799172529518167,0.3736251287099308
1789147784486630700,7.784630615234375,0.08842189880708695,-9.798558214116417,0.3883719536381652
1789147784496603600,7.794603759765625,0.09273324663288654,-9.79791295174703,0.40333475535963925
1789147784506575600,7.80457568359375,0.10049786592211232,-9.797335273121462,0.41532924123336257
1789147784516547600,7.814547607421875,0.10834353835363374,-9.796829987593371,0.4251840393960534
1789147784526520800,7.824520751953125,0.10992005410677727,-9.796297518008117,0.4368803716979051
1789147784536492500,7.834492431640625,0.10589567443514988,-9.795759449340695,0.4497467364599026
1789147784546464800,7.84446484375,0.08786340453119304,-9.795229263713676,0.46492368336311674
1789147784556437800,7.854437744140625,0.07310514008886751,-9.794578725657367,0.48089789864561366
1789147784566409500,7.864409423828125,0.0685676254594213,-9.793933059490652,0.49451031900996434
1789147784576381700,7.874381591796875,0.06709645043252244,-9.793425385795889,0.5046730863009005
1789147784586354700,7.884354736328125,0.07334093837172409,-9.792769701746808,0.5164023283105779
1789147784596326700,7.89432666015625,0.07489635195461904,-9.792112158684379,0.5285064710800282
1789147784606298600,7.904298583984375,0.073202390650144,-9.79132976797605,0.5430323453295781
1789147784616271600,7.914271728515625,0.06395204902834398,-9.790546900387342,0.5580972046371583
1789147784626243600,7.92424365234375,0.05638163216956803,-9.78989196559174,0.5702711734348923
1789147784636215800,7.9342158203125,0.04269003712581622,-9.789444598068178,0.5790755808086792
1789147784646188800,7.944188720703125,0.030441831598785378,-9.78917453851463,0.584397569655548
1789147784656160500,7.954160400390625,0.02084560194454991,-9.788869236745287,0.589913887460984
1789147784666132700,7.9641328125,0.01605707118004918,-9.788495099099748,0.5962369276887498
1789147784676105500,7.97410546875,0.010368391630635283,-9.788111592474095,0.6026177644339109
1789147784686077700,7.98407763671875,0.0030524802598451703,-9.787733388531658,0.608815879677827
1789147784696050700,7.99405078125,-0.013813599240290887,-9.787367242206692,0.6145272786391656
1789147784706022400,8.0040224609375,-0.023374914251554614,-9.78680624228823,0.6231104230245087
1789147784715994600,8.01399462890625,-0.03131442176240023,-9.786144609465092,0.6330714505014533
1789147784725967600,8.023967529296876,-0.03558049643975191,-9.785694932476952,0.6397536724326509
1789147784735939600,8.033939697265625,-0.02747769963165726,-9.78536704160756,0.6451505855012841
1789147784745911600,8.04391162109375,-0.01882525351604095,-9.784911127875391,0.652340758194847
1789147784755884500,8.053884521484376,-0.014924333091684153,-9.784790116342576,0.6542499856942309
1789147784765856500,8.0638564453125,-0.02649535619448528,-9.784699971382247,0.6552305917446277
1789147784775828500,8.073828369140625,-0.03976830803542795,-9.78450378944068,0.6574861478504166
1789147784785801700,8.0838017578125,-0.03712707669676973,-9.784220238380096,0.6618436487104469
1789147784795773400,8.0937734375,-0.02959803777596059,-9.783997992143359,0.6654990627081098
1789147784805745700,8.10374560546875,-0.017726584972350443,-9.783904594951887,0.6672984300879339
1789147784815718700,8.11371875,-0.000253138682476264,-9.784017908076011,0.6658575080314997
1789147784825690600,8.123690673828126,0.022539102365054128,-9.783854138435315,0.6678835910273299
1789147784835662600,8.13366259765625,0.039354933364105255,-9.783559819747941,0.6714145469673167
1789147784845635600,8.143635498046875,0.046467057416709825,-9.783197190555281,0.6762214921818109
1789147784855607600,8.153607666015626,0.05071112106813802,-9.782934610472854,0.6797193314641381
1789147784865579500,8.16357958984375,0.053129803667196475,-9.78282317793169,0.6811251240774766
1789147784875552800,8.173552734375,0.055168135484190604,-9.78303298994798,0.6779451950039794
1789147784885524500,8.1835244140625,0.0573169021518853,-9.78311954084099,0.6765087488192633
1789147784895497500,8.19349755859375,0.06721991937324595,-9.78287800975912,0.6790878089538358
1789147784905469700,8.2034697265625,0.07329822228681211,-9.782800975061571,0.6795767357635
1789147784915441400,8.21344140625,0.07733135361474928,-9.782612017272868,0.68184753277218
1789147784925414700,8.22341455078125,0.08521248854747623,-9.782276622698916,0.6857020349783307
1789147784935387000,8.233386962890625,0.09400164299171732,-9.782260636095856,0.6847923803464016
1789147784945359000,8.243359130859375,0.10029012754369625,-9.782203768338054,0.6847099881064296
1789147784955331800,8.253331787109374,0.1081702591170894,-9.782282243236784,0.6823691506286358
1789147784965303800,8.2633037109375,0.12059147643496905,-9.782318426291477,0.6797705142169114
1789147784975276000,8.273276123046875,0.13417963044541817,-9.782302214856621,0.6774501317410951
1789147784985248800,8.283248779296875,0.13077828369250988,-9.782379102256286,0.6769981978411026
1789147784995221000,8.293220947265626,0.12538594619288074,-9.78287189565822,0.6708813185664508
1789147785005193000,8.30319287109375,0.12622076403250446,-9.783317596503338,0.6641886003381013
1789147785015165700,8.313165771484375,0.1304100133216899,-9.783732325779111,0.6572290634795422
1789147785025138000,8.323137939453124,0.14043083537231227,-9.784007830865898,0.6510436184060747
1789147785035110000,8.33310986328125,0.15673470577382623,-9.784054256684753,0.6466021599356798
1789147785045083000,8.343082763671875,0.16168314705817988,-9.78431610252903,0.6414058136150044
1789147785055054800,8.353054931640624,0.17072913382648522,-9.784768467391572,0.6320960286257356
1789147785065027000,8.363027099609376,0.18054825458573026,-9.785292598380256,0.621166716757441
1789147785074999800,8.372999755859375,0.18308116294830873,-9.786099981846736,0.6075428948243382
1789147785084972000,8.382971923828125,0.17946036752378575,-9.787131444149042,0.5918129502247498
1789147785094945000,8.392945068359374,0.1838406458593299,-9.787912967689307,0.5773564324144852
1789147785104916700,8.402916748046875,0.18138544034207585,-9.788850744935027,0.5620402053547844
1789147785114889000,8.412888916015625,0.16424184289998242,-9.79017615269293,0.5439372535883484
1789147785124862000,8.422862060546874,0.14703939604589392,-9.791395597799822,0.5266350734042086
1789147785134834000,8.432833984375,0.13716727871821272,-9.7921648708436,0.5148663389743142
1789147785144806000,8.442805908203125,0.12654442632231605,-9.792912016543644,0.5032424626986041
1789147785154779000,8.45277880859375,0.11949158480908428,-9.793862310602861,0.4861813590426157
1789147785164750800,8.462750732421876,0.12220280460658285,-9.794805851678838,0.4660820409110839
1789147785174722800,8.472722900390625,0.12180643428224217,-9.79573473145034,0.4462451008583133
1789147785184696000,8.482696044921875,0.13268174297641194,-9.79644358636641,0.42716493741583555
1789147785194667800,8.492667724609374,0.13630794459928294,-9.797096886635732,0.41073632205435984
1789147785204640000,8.502639892578125,0.13978141277386436,-9.797701395989687,0.39483628153346134
1789147785214613000,8.512613037109375,0.14046391323042684,-9.798479913373008,0.3747491335682155
1789147785224584700,8.522584716796874,0.13965234349809263,-9.79927783507285,0.3535922125921156
1789147785234557000,8.532556884765626,0.13815370181564687,-9.800034319460162,0.33260080616053433
1789147785244530000,8.542530029296875,0.14184074715334888,-9.800569453754786,0.31480221510689654
1789147785254502000,8.552501953125,0.14876633472193862,-9.801019768092937,0.29708879399138505
1789147785264473900,8.562473876953124,0.15468178984282463,-9.801411557271086,0.2806886102888232
1789147785274446800,8.57244677734375,0.1467798637113467,-9.801892839503722,0.26781177990237104
1789147785284418800,8.582418701171875,0.14262061222037983,-9.80223724909853,0.2572848148525244
1789147785294391000,8.59239111328125,0.14080300632139434,-9.80260542543937,0.2439263436978621
1789147785304364000,8.602364013671876,0.1375996456132838,-9.8031727976268,0.22197410033490245
1789147785314335700,8.612335693359375,0.13654601081058065,-9.803745689728666,0.1956965674723791
1789147785324309000,8.62230908203125,0.13753832431044247,-9.804161987835894,0.17284109013711993
1789147785334281000,8.632281005859374,0.1318915484814768,-9.804630000845115,0.14903185492287613
1789147785344253000,8.6422529296875,0.11996609236874778,-9.805105767739397,0.12608056479840823
1789147785354226000,8.652225830078125,0.10853651509668154,-9.805466075129772,0.10701757676302417
1789147785364198000,8.662197998046874,0.0945501589909183,-9.805782668691416,0.08991584240841367
1789147785374169900,8.672169921875,0.08053217450252506,-9.806092976337629,0.06659979585721645
1789147785384142800,8.682142822265625,0.07476155622943154,-9.806268319885458,0.04345109317465414
1789147785394115000,8.692114990234375,0.07245624262034665,-9.806360533315905,0.020454165070128847
1789147785404086800,8.702086669921876,0.07817193606296925,-9.806338004261448,-0.002250955845835892
1789147785414059800,8.712059814453125,0.08123239745816926,-9.806285872871223,-0.023546077039159785
1789147785424032000,8.722031982421875,0.07314178579186041,-9.806273468576054,-0.045207464496566326
1789147785434003700,8.732003662109374,0.06347111161348809,-9.806211022047957,-0.06768157992870513
1789147785443977000,8.74197705078125,0.05828763575901733,-9.80608580213806,-0.08763047033036538
1789147785453949000,8.751948974609375,0.05341706892265577,-9.805903565785075,-0.10855087682831994
1789147785463921000,8.7619208984375,0.05077966916709285,-9.805582195919909,-0.1355702953662113
1789147785473894000,8.771893798828126,0.054569293159694006,-9.805178466781967,-0.160874686947283
1789147785483865900,8.781865966796875,0.05221187635072845,-9.804776564769963,-0.18441921258240374
1789147785493837800,8.791837890625,0.041603949090386054,-9.804535417696655,-0.1993261706831869
1789147785503810800,8.801810791015624,0.03422810595721648,-9.804185718077749,-0.21713060305428084
1789147785513783000,8.811782958984375,0.03361547626793026,-9.803805653196925,-0.23374045414348676
1789147785523754800,8.821754638671875,0.03204488123545073,-9.80330618304966,-0.25406071691715715
1789147785533728000,8.83172802734375,0.03626778406149182,-9.80269660353976,-0.27605083816366455
1789147785543700000,8.841699951171876,0.03803136814165568,-9.802037046333549,-0.29832560287208887
1789147785553673000,8.8516728515625,0.05140093544075831,-9.80114270227221,-0.324574173780648
1789147785563645000,8.86164501953125,0.06378834948873922,-9.800243751205148,-0.34861372332704066
1789147785573617000,8.871616943359374,0.06726184286270039,-9.799280723874483,-0.3740954211306812
1789147785583590000,8.88158984375,0.05371789052804878,-9.798401305606745,-0.39852576938154277
1789147785593561900,8.891561767578125,0.037756377041302344,-9.79751092144874,-0.42158116030163534
1789147785603534000,8.9015341796875,0.028771720505628675,-9.796620843596672,-0.4424820607162205
1789147785613506800,8.9115068359375,0.02325104413374496,-9.795695614148334,-0.46281461135774465
1789147785623478800,8.921478759765625,0.018053248234198006,-9.794613379445153,-0.4853983764529282
1789147785633451000,8.931450927734375,0.0041315466575584815,-9.793631616213563,-0.5051190609596292
1789147785643423700,8.941423828125,-0.01312444264600857,-9.792658672773092,-0.5234950852959036
1789147785653396000,8.95139599609375,-0.014704822617052627,-9.791717809334864,-0.5407589656273594
1789147785663368000,8.961367919921875,-0.00688538186639268,-9.790887845976105,-0.5557509635190251
1789147785673340700,8.971340576171874,-0.010849177279176286,-9.790111496102568,-0.5691835155008473
1789147785683313000,8.98131298828125,-0.013429734692436095,-9.789372642266954,-0.5817028822805395
1789147785693284900,8.991284912109375,-0.0051634029846238175,-9.78855351890694,-0.595462024826494
1789147785703257900,9.0012578125,0.007407308784582497,-9.787746502588417,-0.6085691533706608
1789147785713229800,9.011229736328126,-0.00351873370275059,-9.787174159073798,-0.6177257116966914
1789147785723202000,9.0212021484375,-0.03259707551014065,-9.78684794888831,-0.6220423988019003
1789147785733174800,9.0311748046875,-0.059231061199802676,-9.786518156129695,-0.6252542908315218
1789147785743147000,9.04114697265625,-0.05992533524922189,-9.785574565804845,-0.6397844534523225
1789147785753119000,9.051118896484375,-0.05909770295560416,-9.784467594329751,-0.6565664531392897
1789147785763091700,9.061091796875,-0.04961285900188596,-9.783443330444308,-0.6724243586649115
1789147785773064000,9.07106396484375,-0.051304473114450244,-9.782783819111097,-0.6818269344741413
1789147785783037000,9.081036865234376,-0.06576823436823201,-9.782849053553372,-0.6796432700784961
1789147785793009000,9.0910087890625,-0.06791899462277459,-9.783173812910984,-0.6747453046419165
1789147785802980900,9.10098095703125,-0.06549879954447972,-9.783196832735468,-0.6746471987689128
1789147785812953900,9.110953857421874,-0.05887911268842911,-9.78303653869467,-0.6775702577065048
1789147785822925800,9.12092578125,-0.048428322694897954,-9.782931319205034,-0.6799243941440911
1789147785832897800,9.130897705078125,-0.03753687404335729,-9.782957368728274,-0.6802348956509082
1789147785842871000,9.14087109375,-0.02433534019025836,-9.782746576049151,-0.6838512268216212
1789147785852842800,9.1508427734375,-0.020130799925963613,-9.782703772622803,-0.6846064108288117
1789147785862815000,9.16081494140625,-0.023362481590934563,-9.782726522531576,-0.6841846747577937
1789147785872788000,9.1707880859375,-0.027033979552300795,-9.782758305888931,-0.6836016357897108
1789147785882760000,9.180760009765624,-0.021710208179331267,-9.783020524889274,-0.6800118076652559
1789147785892732000,9.19073193359375,-0.01952895969477675,-9.783294745275791,-0.6761268186577227
1789147785902705000,9.200704833984377,-0.012906378553185372,-9.783396173366665,-0.6748184009752514
1789147785912676900,9.2106767578125,-0.0024897042242668682,-9.783744375783728,-0.6698622151075361
1789147785922648800,9.22064892578125,0.009244009550685729,-9.784295906112389,-0.6616954333287652
1789147785932622300,9.230622314453123,0.012272219948769132,-9.785054694976424,-0.6503458098156287
1789147785942594600,9.240594482421876,0.008868901400210011,-9.786156452783612,-0.6335899308114096
1789147785952566300,9.250566162109376,0.006651286062796893,-9.787221309636607,-0.6169545236325409
1789147785962539500,9.26053955078125,0.007968747550516327,-9.787662302002978,-0.6099083990591618
1789147785972511500,9.270511474609377,0.010525953584007866,-9.78805591107368,-0.6035254269367789
1789147785982483500,9.2804833984375,0.01699686162872127,-9.788538590827972,-0.5954889565884397
1789147785992456400,9.29045654296875,0.028138663311851993,-9.788969493942634,-0.587933380613795
1789147786002428400,9.300428466796877,0.04070325962297113,-9.789737100192475,-0.5742637510262713
1789147786012401700,9.310401611328125,0.053722807708586916,-9.790562159267168,-0.5589243362400484
1789147786022373400,9.320373291015626,0.07000364205698845,-9.791220669713208,-0.5454278531731207
1789147786032345600,9.330345703125,0.08377506140646376,-9.791948994897709,-0.5301945340667714
1789147786042318600,9.340318603515623,0.09602018556994835,-9.792654340822446,-0.5148668891311197
1789147786052290600,9.35029052734375,0.10558690690520657,-9.793174745042911,-0.5029603665016924
1789147786062262500,9.360262451171875,0.12058841063662333,-9.793599924093854,-0.49116315222928025
1789147786072235500,9.370235595703123,0.1253251949997714,-9.794426961895706,-0.4731551110918511
1789147786082207500,9.38020751953125,0.11962856269090996,-9.79555788881244,-0.4506880340263547
1789147786092179500,9.390179443359376,0.11107327337035347,-9.796605167951098,-0.4296261964985129
1789147786102152700,9.400152587890624,0.1018962847329882,-9.7975182261162,-0.41064506771429365
1789147786112124400,9.41012451171875,0.08815127656479471,-9.798455093866293,-0.39099571103717806
1789147786122096600,9.4200966796875,0.08008394139899991,-9.79910363365273,-0.3762007317970622
1789147786132069600,9.430069580078126,0.07925713135182787,-9.799812233147367,-0.35746248461936886
1789147786142041300,9.440041259765623,0.07526624705134907,-9.80054795768419,-0.337625655015173
1789147786152013600,9.450013671875,0.06364715095999765,-9.80130810549695,-0.317303072446156
1789147786161986600,9.459986572265626,0.052826592599416494,-9.80189006127936,-0.30091922125174647
1789147786171958500,9.46995849609375,0.04623900299948253,-9.802302219186014,-0.28831561115115617
1789147786181930500,9.479930419921876,0.0369426359343069,-9.802585200265872,-0.2799255924556143
1789147786191903500,9.489903564453124,0.029884731512505366,-9.802900239218685,-0.269534118881916
1789147786201875500,9.49987548828125,0.02851692062127524,-9.803276635458493,-0.2556123936335918
1789147786211847400,9.509847412109377,0.028912807283031507,-9.803649583863226,-0.24083949330584248
1789147786221820700,9.519820556640624,0.02066412625441276,-9.803911084610581,-0.23081898401346704
1789147786231792400,9.52979248046875,0.015405588416124412,-9.804073696061408,-0.2242310011617926
1789147786241764600,9.5397646484375,0.014943223447494103,-9.804204334515145,-0.21850846449570804
1789147786251737600,9.549737548828125,0.01241547355598146,-9.804337207738932,-0.2125971671878769
1789147786261709600,9.55970947265625,0.013254471478357364,-9.804434302869865,-0.2080007120468053
1789147786271682600,9.5696826171875,0.019347766319555166,-9.80458132161807,-0.20046833325196264
1789147786281654500,9.579654541015625,0.020003022863475124,-9.804729944486322,-0.19305103383851666
1789147786291626500,9.58962646484375,0.014513438358074662,-9.804803269894517,-0.18977135468618303
1789147786301599500,9.599599609375,0.015015725660572677,-9.804796389294635,-0.19006454163937112
1789147786311571700,9.60957177734375,0.02317231556572205,-9.804731201319836,-0.19257426604675462
1789147786321543400,9.61954345703125,0.026131641809399503,-9.804598603990003,-0.1988432879095433
1789147786331516400,9.629516357421876,0.02698082670134779,-9.804459625749798,-0.20548197955911132
1789147786341488600,9.639488525390624,0.031394976823468534,-9.80431080447899,-0.21185443106725782
1789147786351460400,9.64946044921875,0.04343985196184342,-9.804177201872667,-0.2158664855141032
1789147786361433600,9.65943359375,0.05405890381296691,-9.804060481174405,-0.21874812685924216
1789147786371405600,9.669405517578124,0.05020563616311308,-9.803968367804533,-0.22374728312552897
1789147786381377500,9.67937744140625,0.051771044789760357,-9.803852899285962,-0.2284010205158899
1789147786391350500,9.6893505859375,0.06264516551439561,-9.803656667513017,-0.23404125866940198
1789147786401322500,9.699322509765626,0.07437933643993089,-9.80343012163806,-0.24003495318114834
1789147786411294500,9.70929443359375,0.08667818855881454,-9.803184266123266,-0.24589619901335777
1789147786421267500,9.719267333984376,0.09834144093666025,-9.803053340718725,-0.24672533403542893
1789147786431239700,9.72923974609375,0.11212839006516256,-9.803023790736015,-0.24194999485114185
1789147786441211400,9.73921142578125,0.11641822301127536,-9.803189462872496,-0.23302499276388497
1789147786451184400,9.749184326171877,0.11785731318904692,-9.803204437992518,-0.2316695575960416
1789147786461156600,9.759156494140624,0.12922785104946732,-9.802907579556225,-0.23805736143177683
1789147786471128600,9.769128662109376,0.14282612684469145,-9.802480344534139,-0.247749599567917
1789147786481101600,9.7791015625,0.16101919850990026,-9.801990882757465,-0.25580636860853
1789147786491073500,9.789073486328125,0.18285742274465908,-9.801475511203046,-0.26083962953540457
1789147786501045500,9.79904541015625,0.20331120701899186,-9.800999055022448,-0.2635436845537877
1789147786511018500,9.8090185546875,0.20577545392939886,-9.800919532740446,-0.2645982022243273
1789147786520990700,9.81899072265625,0.19955396284450144,-9.800988564827986,-0.26679029862982295
1789147786530963500,9.82896337890625,0.18157541610808609,-9.801366599929217,-0.2657444824615997
1789147786540935400,9.838935302734376,0.17573870503468175,-9.801273694275155,-0.27301254075504056
1789147786550907600,9.84890771484375,0.17487881501399227,-9.800932459635687,-0.2855266248338877
1789147786560880400,9.85888037109375,0.1766929613220226,-9.800471336437738,-0.2998848646345477
1789147786570852600,9.8688525390625,0.17530656313148854,-9.799872141895413,-0.31963033320555784
1789147786580824300,9.87882421875,0.15927925374087856,-9.799599482894637,-0.33597209680942347
1789147786590797300,9.88879736328125,0.14287171923797462,-9.799633934725529,-0.34228505818886157
1789147786600769500,9.89876953125,0.1333374184764084,-9.799470188178246,-0.35071980729525043
1789147786610741500,9.908741455078124,0.1277621037945024,-9.799413993921535,-0.3543456301734194
1789147786620714500,9.918714599609377,0.13417220506030528,-9.799242293248097,-0.35671823606630815
1789147786630686500,9.9286865234375,0.1498690476149173,-9.798776463895754,-0.36317364579961015
1789147786640658400,9.938658447265626,0.15172392447819558,-9.79847140533602,-0.3705626866564839
1789147786650631400,9.94863134765625,0.14319864827177226,-9.798222509396485,-0.380421232517917
1789147786660603600,9.958603759765625,0.1350020821744454,-9.798144036482071,-0.38540130302562264
1789147786670575400,9.968575439453126,0.12616546358812603,-9.798186044987466,-0.3873306076983233
1789147786680548400,9.97854833984375,0.10811896667727354,-9.798464800338271,-0.38573944145518446
1789147786690520600,9.9885205078125,0.09287630352970909,-9.798779121823953,-0.38169975370828557
1789147786700492300,9.9984921875,0.09526761804830634,-9.798768532448705,-0.3813724035040511
1789147786710465500,10.008465576171876,0.0945532191640805,-9.79869960432322,-0.3833107579641817
1789147786720437500,10.0184375,0.08673460901067663,-9.798832523686306,-0.38176327871058663
1789147786730409500,10.028409423828125,0.07304931324820466,-9.799185693848258,-0.37552203476323537
1789147786740382500,10.038382568359374,0.07058311809878202,-9.799545577465791,-0.3664861737388802
1789147786750354400,10.0483544921875,0.07137272636680721,-9.799961792948878,-0.35504162062803185
1789147786760326400,10.058326416015625,0.06786108858064771,-9.800265023628961,-0.34723611502187524
1789147786770299400,10.06829931640625,0.06259432380141275,-9.800475727960055,-0.3422557570453817
1789147786780271600,10.078271728515626,0.06120482817069442,-9.80065023900631,-0.3374698524402346
1789147786790244600,10.08824462890625,0.06253289164719344,-9.800861345559348,-0.3310379469302163
1789147786800216300,10.09821630859375,0.05964392092669348,-9.80120572197241,-0.32125563426889914
1789147786810188500,10.1081884765625,0.049057298675375935,-9.801639759995881,-0.3095533705946645
1789147786820161500,10.11816162109375,0.03885259631669888,-9.802074052146581,-0.2969904377837339
1789147786830133500,10.128133544921877,0.035396561593656735,-9.802505630483177,-0.28285506863350685
1789147786840105500,10.13810546875,0.032318138296910624,-9.802937063863542,-0.267883713532423
1789147786850078500,10.148078369140626,0.03543514173557692,-9.803306556416933,-0.25361220643236676
1789147786860050400,10.158050537109377,0.039610797988617,-9.803659232041078,-0.23889921282474752
1789147786870022700,10.168022705078124,0.047911483522357974,-9.80405336053325,-0.22051836049290172
1789147786879995600,10.17799560546875,0.04647763402399433,-9.804524301685735,-0.19881086294498623
1789147786889967400,10.18796728515625,0.03583606713055528,-9.80496602136077,-0.1781908960833284
1789147786899939600,10.197939697265625,0.015378194252025511,-9.805404572706246,-0.15552234702579562
1789147786909912600,10.20791259765625,-0.0034500296452318556,-9.805737369765698,-0.1337140381084132
1789147786919884500,10.217884521484375,-0.02133199416930619,-9.805972345248597,-0.11334743711641408
1789147786929856300,10.227856201171877,-0.03828286076051594,-9.80615498577767,-0.09075833517263282
1789147786939829200,10.237829345703124,-0.04759150369144565,-9.80630986748113,-0.06645055592805747
1789147786949801200,10.24780126953125,-0.05625504695531554,-9.806409354112965,-0.03937160030882122
1789147786959773200,10.257773193359377,-0.07992840257039178,-9.806322339378962,-0.005713614956480276
1789147786969746400,10.267746337890625,-0.09407458946349186,-9.806159249225232,0.02770209768798215
1789147786979718100,10.27771826171875,-0.0980814317543555,-9.805959803970865,0.062486580132364564
1789147786989690400,10.2876904296875,-0.09448817085970741,-9.805754168405887,0.09289213547759917
1789147786999663400,10.297663330078125,-0.08480661155250704,-9.805486150025244,0.12504640659078564
1789147787009635300,10.30763525390625,-0.07210559396831595,-9.805038885621961,0.1624379129682078
1789147787019607300,10.317607177734375,-0.0608782962872449,-9.80433302653905,0.2042714576926458
1789147787029580300,10.327580322265623,-0.06107443603141901,-9.803376119845904,0.24591783083187801
1789147787039552300,10.33755224609375,-0.06297573206975327,-9.802342368224433,0.2837430965185811
1789147787049524200,10.347524169921876,-0.058329153879096346,-9.8014132259137,0.31508793277187297
1789147787059497500,10.35749755859375,-0.053630096193424306,-9.800434108967691,0.3449748731195397
1789147787069469200,10.36746923828125,-0.04640591483619233,-9.799345715013315,0.3755812748401636
1789147787079442200,10.377442138671874,-0.03950717448368632,-9.79812564044357,0.4068815402242621
1789147787089414400,10.387414306640624,-0.024297842247545994,-9.796823446125575,0.43822546110039523
1789147787099386000,10.39738623046875,-0.012387733998067689,-9.795310455732329,0.47130318844405644
1789147787109359400,10.407359375,-0.01225754849025396,-9.793573536494373,0.5061169162969439
1789147787119331300,10.417331298828126,-0.007641882410031282,-9.791878318920588,0.5379964391442036
1789147787129303300,10.42730322265625,-0.005212603734360359,-9.79018730375393,0.5679682063064893
1789147787139276300,10.4372763671875,-0.0030314279410571824,-9.788404858894785,0.597918272619952
1789147787149248300,10.447248291015624,0.001920716508834026,-9.786414259416926,0.6296636802070679
1789147787159220200,10.45722021484375,0.018662196200760314,-9.784364068535867,0.6604925733460016
1789147787169193200,10.467193115234377,0.03514069079253673,-9.782279213144365,0.6900502837103085
1789147787179165400,10.47716552734375,0.045128594690995755,-9.780096913911718,0.7197593827872177
1789147787189137200,10.48713720703125,0.053014252206485854,-9.777965077363008,0.7476436579280694
1789147787199110100,10.497110107421875,0.0638371008943235,-9.775686764532049,0.7760479472397668
1789147787209082400,10.507082275390625,0.07366576563133008,-9.773622882506448,0.8007842062432199
1789147787219054300,10.517054443359376,0.08433538494768453,-9.771759318976585,0.8221878675771457
1789147787229027300,10.52702734375,0.09375710571119411,-9.769768352973127,0.8445292710114788
1789147787238999300,10.536999267578125,0.11116143700066376,-9.767758050516502,0.865407130853978
1789147787248971300,10.54697119140625,0.12270585543100805,-9.765386813084826,0.8902597225963601
1789147787258944300,10.5569443359375,0.12425360948713911,-9.763309622414678,0.9125346081783183
1789147787268916500,10.56691650390625,0.12357014550197673,-9.761790402246785,0.9287451048772379
1789147787278888200,10.57688818359375,0.12331325425435573,-9.760663631425146,0.9405449377639231
1789147787288861200,10.586861083984376,0.13334051925002197,-9.759166362003537,0.9546084194552192
1789147787298833400,10.59683349609375,0.14760264749423924,-9.757228099812584,0.9721650056905317
1789147787308805000,10.60680517578125,0.1563929511536408,-9.75564845744375,0.9865394457471496
1789147787318778400,10.6167783203125,0.14658270257051095,-9.75575450173346,0.9869913484026612
1789147787328750300,10.626750244140624,0.14304798602216726,-9.756379056524185,0.9813237739568289
1789147787338722300,10.636722412109377,0.142408909993432,-9.756868760401598,0.9765284143048686
1789147787348695300,10.6466953125,0.14133975780607053,-9.757131914284582,0.9740530418531771
1789147787358667300,10.656667236328126,0.13691514963129808,-9.757429874604293,0.9716995847550332
1789147787368639200,10.66663916015625,0.14123863519738453,-9.757560078522394,0.9697714567193534
1789147787378612200,10.6766123046875,0.14429931527842335,-9.757857979177189,0.9663202822178797
1789147787388584400,10.68658447265625,0.14172487203538203,-9.758447187708581,0.960737008555779
1789147787398557200,10.69655712890625,0.13777985262146974,-9.759217547574384,0.9534454131937528
1789147787408529400,10.706529296875,0.13946019307322663,-9.759955443442857,0.9456221052139789
1789147787418501400,10.71650146484375,0.13004157041619882,-9.760635920193522,0.9399245837942806
1789147787428474000,10.72647412109375,0.11731649261608082,-9.761284589544793,0.9348538909814805
1789147787438446300,10.7364462890625,0.10425795418502022,-9.762116657059575,0.9276835571550677
1789147787448418300,10.746418212890624,0.09671015974456162,-9.763096667585478,0.9181344846198769
1789147787458391300,10.756391357421874,0.09139595036738969,-9.764029469267376,0.908714201844639
1789147787468363300,10.76636328125,0.08218922730158865,-9.764685798249266,0.9025194445095177
1789147787478335500,10.77633544921875,0.07713737158365178,-9.765518451526702,0.8939147684526105
1789147787488308200,10.78630810546875,0.07959538393474737,-9.766261793991825,0.8855318964999195
1789147787498280200,10.7962802734375,0.08423212126562989,-9.767015351495589,0.8767578875587327
1789147787508252400,10.80625244140625,0.09324528327482717,-9.76775436690861,0.86756926949927
1789147787518225200,10.81622509765625,0.10370156530059077,-9.768309260249774,0.860103089319915
1789147787528197400,10.826197265625,0.11557668854189668,-9.768695219620684,0.8541862113015537
1789147787538169300,10.83616943359375,0.12133521522111583,-9.769073969923689,0.8490405918321262
1789147787548142000,10.84614208984375,0.12549202991304553,-9.769423216773962,0.8443979450628183
1789147787558114300,10.8561142578125,0.132999654832856,-9.769854115763389,0.8382427622503477
1789147787568086300,10.866086181640624,0.14455544950831775,-9.769999403358476,0.8346160393738822
1789147787578059300,10.876059326171877,0.15788178275610645,-9.77019359218881,0.8299249938654687
1789147787588031200,10.88603125,0.17019043415826188,-9.770155080740075,0.8279504625762407
1789147787598003500,10.89600341796875,0.18131573545372542,-9.769812408424896,0.8296252085194475
1789147787607976200,10.90597607421875,0.18005473699278327,-9.7697879411443,0.8301894647752421
1789147787617948400,10.915948486328125,0.17298252534332928,-9.769692741518007,0.8328142609360422
1789147787627920400,10.92592041015625,0.1691898174935524,-9.769565486658843,0.835071936709115
1789147787637893000,10.93589306640625,0.16235568317606874,-9.769772206800104,0.8340125587788568
1789147787647865300,10.945865234375,0.1494201374805951,-9.770465675548321,0.8282892811896921
1789147787657837300,10.95583740234375,0.14831371820372669,-9.770894846084271,0.8234140613883776
1789147787667810300,10.965810302734376,0.14128496721880865,-9.771674888860236,0.8153449844982694
1789147787677782300,10.9757822265625,0.13302734570153285,-9.77247581025836,0.8070961471449171
1789147787687754500,10.98575439453125,0.12105590291707655,-9.773286645197235,0.7991240320187434
1789147787697727200,10.995727294921876,0.1131716433151921,-9.773822799475823,0.7937019308509855
1789147787707699200,11.00569921875,0.10286301800316852,-9.774267142516084,0.7896289740274085
1789147787717672400,11.01567236328125,0.09946344272143937,-9.775028286820527,0.7805838385293322
1789147787727644200,11.02564404296875,0.10133124402533729,-9.775561697603312,0.773633790707227
1789147787737616400,11.035616455078124,0.10126968940995479,-9.776317963387259,0.764030346355319
1789147787747589400,11.04558935546875,0.10907619544859383,-9.776563359415666,0.7598051141962038
1789147787757561000,11.05556103515625,0.10963001038367602,-9.776407934865208,0.7617132815368971
1789147787767533300,11.065533203125,0.11523713557301157,-9.776605082666196,0.7583493560758418
1789147787777506300,11.07550634765625,0.11453900893980282,-9.777013070216718,0.753177978404192
1789147787787478300,11.085478271484376,0.11656916109944454,-9.776933047926825,0.7539033478305132
1789147787797450200,11.0954501953125,0.12181776056204695,-9.77698678742213,0.7523712602033064
1789147787807423200,11.10542333984375,0.1276687478741788,-9.77742090595412,0.7457339681188493
1789147787817395200,11.115395263671877,0.13606721787690065,-9.777674648237134,0.7409039030958741
1789147787827367400,11.125367431640624,0.13854311211084888,-9.77773074295454,0.7397031783449604
1789147787837340400,11.13534033203125,0.14055909571813874,-9.777839209211026,0.7378888616529059
1789147787847312100,11.14531201171875,0.1425329338724757,-9.777770437417615,0.738423989272796
1789147787857284400,11.155284423828125,0.14285966080927984,-9.778134553187058,0.7335292333098404
1789147787867257300,11.16525732421875,0.13809886396079193,-9.778700764076628,0.7268515058277195
1789147787877229300,11.175229248046875,0.13794164398876727,-9.779112412821505,0.7213321561385929
1789147787887201300,11.185201171875,0.1391206871187679,-9.77949771492592,0.7158550386958149
1789147787897174300,11.19517431640625,0.13931687794999753,-9.780219361934407,0.7058904583759663
1789147787907146200,11.205146240234376,0.13323841755258892,-9.781118094966835,0.6945301512916617
1789147787917118200,11.2151181640625,0.1361837556866427,-9.781725196503432,0.6853457524973505
1789147787927091500,11.225091552734376,0.1397563895693151,-9.782332653191602,0.6758937314690906
1789147787937063400,11.2350634765625,0.14140646750361882,-9.783067914475572,0.664808911803451
1789147787947035400,11.245035400390623,0.14620772078860161,-9.783602324685953,0.6558479641935203
1789147787957008400,11.25500830078125,0.15549193155117197,-9.784006183637725,0.6476386594470176
1789147787966980400,11.26498046875,0.165091967812712,-9.784634253455334,0.6356667244009402
1789147787976952300,11.274952392578124,0.15742343324766989,-9.785694283521815,0.6211241174406453
1789147787986925300,11.28492529296875,0.14874387791520527,-9.786735698097248,0.6066808732830424
1789147787996897500,11.2948974609375,0.13997189900255638,-9.787674084854658,0.5934831834043178
1789147788006869200,11.304869140625,0.1252212105796914,-9.788756510897668,0.5787551838353439
1789147788016842200,11.31484228515625,0.1135047112457265,-9.78988710318854,0.5618048747777061
1789147788026814500,11.324814453125,0.11165025564041155,-9.791025751352235,0.5419644504506497
1789147788036786400,11.334786376953126,0.1100549762777664,-9.792066303171795,0.5231681197269504
1789147788046759400,11.344759521484375,0.10121364176693785,-9.793113656257974,0.5050380259891071
1789147788056731400,11.3547314453125,0.09156214192845884,-9.794266229903654,0.4840905525220833
1789147788066703400,11.364703369140624,0.0884820327438104,-9.795203685238993,0.4653462519830878
1789147788076676400,11.37467626953125,0.08774072036137247,-9.796169362173789,0.4447037798251433
1789147788086648600,11.384648681640623,0.08547277122190547,-9.797181893905838,0.4222752408671347
1789147788096620300,11.394620361328125,0.08532494983408584,-9.798143385124442,0.3993569567986155
1789147788106593300,11.40459326171875,0.08644877862520779,-9.798916065888067,0.37967020904193205
1789147788116565500,11.4145654296875,0.08538568580783512,-9.799836708483046,0.3553737480999344
1789147788126537200,11.424537109375,0.0770728855637668,-9.800726148613585,0.3320040373634135
1789147788136510500,11.434510498046874,0.0641066438836366,-9.80155129111874,0.3096219550892096
1789147788146482400,11.444482421875,0.04799867718300695,-9.802442137146787,0.2832112990933887
1789147788156454400,11.454454345703123,0.040269780071549896,-9.803311580780214,0.2526922638775673
1789147788166427400,11.464427490234376,0.04035633939683454,-9.803999229363663,0.22442549772257164
1789147788176399400,11.4743994140625,0.04669493848345451,-9.804594073310637,0.19527541968450873
1789147788186372400,11.484372314453124,0.05396653597679966,-9.805058293122212,0.1682465514132394
1789147788196344300,11.49434423828125,0.052074276118018806,-9.805463847337087,0.14336097029888595
1789147788206316500,11.504316650390624,0.04924378737877982,-9.805852990575385,0.11485874965105433
1789147788216289300,11.514289306640626,0.04761349010011925,-9.80616618742286,0.08504997407658671
1789147788226261500,11.524261474609377,0.05212394134608914,-9.806345939598303,0.05683581557947133
1789147788236233500,11.5342333984375,0.05524311081231267,-9.806447225926629,0.03051029841521166
1789147788246206200,11.544206298828126,0.0631338595602114,-9.806443158942063,0.008039078420688668
1789147788256178400,11.554178466796875,0.069142192642746,-9.806401732966357,-0.009109275783663584
1789147788266150400,11.564150390625,0.07308163495461781,-9.806340462792726,-0.02700236495904625
1789147788276123400,11.574123291015624,0.06543948115091312,-9.806321696765158,-0.046354003624005824
1789147788286095400,11.584095458984375,0.049160376729402634,-9.806350414292707,-0.05875137663626188
1789147788296067600,11.594067626953125,0.05973523292358174,-9.806173574761123,-0.07602940992409443
1789147788306040300,11.604040283203124,0.06432617309227556,-9.806028519963432,-0.0897383873411699
1789147788316012300,11.61401220703125,0.08248197689350684,-9.805710072022439,-0.107849217777081
1789147788325984500,11.623984619140623,0.11036444499401526,-9.805321560922936,-0.11780012100939304
1789147788335957200,11.633957275390625,0.13346907710531417,-9.804989967951384,-0.12143252916874084
1789147788345929500,11.643929443359376,0.14253618490431355,-9.804719732212805,-0.13245793379812584
1789147788355901400,11.6539013671875,0.13393706291235954,-9.804677713442995,-0.14401904718429578
1789147788365874200,11.663874267578125,0.11623776475421786,-9.804758523759144,-0.15357064678693863
1789147788375846400,11.673846435546874,0.10246691446999677,-9.804766926082682,-0.16257412333843754
1789147788385818400,11.683818359375,0.08606928860429869,-9.804763262955662,-0.1720799770110044
1789147788395791400,11.693791259765623,0.076523186829246,-9.804581929431917,-0.18627734220531053
1789147788405763300,11.703763427734376,0.08582996598696138,-9.804139992643805,-0.20460722998387898
1789147788415735600,11.713735595703126,0.08841596475285524,-9.80387986374212,-0.21566327924864362
1789147788425708300,11.723708251953123,0.08498475448055694,-9.803844821459094,-0.2186123781168254
1789147788435680500,11.733680419921876,0.08103443479137225,-9.803791858380933,-0.22245364896678418
1789147788445652500,11.743652587890624,0.0721398648646789,-9.80375707767449,-0.22700444758432975
1789147788455625200,11.753625244140624,0.06021637484937293,-9.803724257643067,-0.2318459475471137
1789147788465597400,11.763597412109377,0.05915063078527505,-9.803555021471745,-0.2391713406455179
1789147788475569400,11.7735693359375,0.05281132944414478,-9.803458460417861,-0.24454686541335635
1789147788485542400,11.78354248046875,0.03933922742365593,-9.803328399543805,-0.2521626702443217
1789147788495514400,11.793514404296875,0.010090455618604352,-9.803186029303056,-0.260432235555103
1789147788505486300,11.803486328125,-0.015740193141126423,-9.80295780805951,-0.2686224631548597
1789147788515459300,11.813459228515624,-0.02643046610561672,-9.80279525178669,-0.27366866340877727
1789147788525431300,11.823431396484375,-0.03339098483172741,-9.802716183919365,-0.2757543351321871
1789147788535403300,11.8334033203125,-0.024502223211210438,-9.802513418718435,-0.28373963615617015
1789147788545376300,11.843376220703124,-0.009088960919194205,-9.802379447710962,-0.2892342227114381
1789147788555348500,11.853348388671876,-0.010283830532503703,-9.802453636768055,-0.28666084262100605
1789147788565320200,11.8633203125,-0.014081890748194542,-9.802736190250041,-0.2766845753115861
1789147788575293200,11.873293212890625,-0.015027946396647347,-9.803039248814034,-0.2657080121421474
1789147788585265400,11.883265380859376,-0.017819147257146735,-9.803114702017812,-0.26270279073192976
1789147788595237400,11.8932373046875,-0.02348930198376019,-9.80311841153334,-0.2620877634121994
1789147788605210400,11.90321044921875,-0.028820399081055204,-9.803219335782659,-0.2577783506638383
1789147788615182300,11.913182373046874,-0.04061634636516576,-9.803279034353949,-0.2538692526807005
1789147788625154300,11.923154296875,-0.04916335177816776,-9.803424494086263,-0.24664368518962052
1789147788635127300,11.933127197265623,-0.049660442231466394,-9.803534844301575,-0.2421293953808619
1789147788645099500,11.943099609375,-0.04992732400433356,-9.803712514884015,-0.23476239939273608
1789147788655071200,11.9530712890625,-0.04738541740782527,-9.803871555235505,-0.22857741122895164
1789147788665044200,11.963044189453123,-0.03555327543181718,-9.804032348661446,-0.2237849476167053
1789147788675016400,11.973016357421876,-0.030067343128911156,-9.80416651313774,-0.21863587237118717
1789147788684988200,11.98298828125,-0.017543939961590833,-9.804255413666425,-0.2159644804355903
1789147788694961400,11.99296142578125,-0.002108282835094095,-9.804363752673307,-0.21172643154272297
1789147788704933400,12.002933349609377,0.011750766906007848,-9.804480362662618,-0.2059326211076078
1789147788714905300,12.0129052734375,0.024875740976896623,-9.804525310232599,-0.20260814509809077
1789147788724878300,12.02287841796875,0.027672322571053367,-9.80457893414943,-0.19965753640899
1789147788734850300,12.032850341796877,0.03375105379712016,-9.80471418646771,-0.19192405489540607
1789147788744823600,12.042823486328125,0.04691570857898635,-9.804765202160723,-0.18649223740260584
1789147788754795300,12.052795166015626,0.07295645754313221,-9.804796624693951,-0.1761835712990947
1789147788764767500,12.062767578125,0.08289452221881634,-9.804928420800103,-0.16402325528112727
1789147788774740500,12.072740478515623,0.08681325426435788,-9.805080281040711,-0.1525184930088196
1789147788784712200,12.082712158203124,0.09229209253120949,-9.805251156015187,-0.137588636063149
1789147788794684400,12.092684326171875,0.1035145053523599,-9.80530051849156,-0.12550335874590574
1789147788804657400,12.102657470703123,0.11287489979790016,-9.805346972938736,-0.11321477945102298
1789147788814629400,12.11262939453125,0.12258487229691836,-9.80531879065587,-0.10522762083338115
1789147788824601300,12.122601318359376,0.13502557533229595,-9.805247341668604,-0.09627478150215098
1789147788834574300,12.13257421875,0.1430991235045356,-9.805226256542198,-0.0863618160184724
1789147788844546300,12.14254638671875,0.15040595426153572,-9.805210981244691,-0.07492240617655166
1789147788854518500,12.1525185546875,0.15301761394118737,-9.80523332972306,-0.0659993077914488
1789147788864491500,12.162491455078126,0.15531027881592488,-9.805234266949435,-0.06037407086956642
1789147788874463200,12.172463134765623,0.16036839516534881,-9.805154137795602,-0.06027228014583725
1789147788884435500,12.182435546875,0.16549892345201483,-9.805047177613977,-0.06359148112356174
1789147788894408400,12.192408447265626,0.16292980479241242,-9.80505228963613,-0.06913272186871669
1789147788904380400,12.20238037109375,0.15516759075494535,-9.805157519031725,-0.07201405699412505
1789147788914352400,12.212352294921876,0.1459273534715121,-9.80530207703684,-0.0717504242365701
1789147788924325400,12.222325439453124,0.14053479996811402,-9.80538170347622,-0.07161600700880846
1789147788934296600,12.232296630859375,0.13587319458341932,-9.805388901846115,-0.0791780457068455
1789147788944268800,12.242268798828125,0.14186974247728595,-9.80520356775553,-0.09073053640159619
1789147788954241800,12.25224169921875,0.15155295226767218,-9.80497172356267,-0.09976607395141225
1789147788964213500,12.262213623046875,0.15681093183506611,-9.804781110582443,-0.10977563804609246
1789147788974185700,12.272185791015623,0.1472670124329419,-9.804801211262497,-0.12068352439211637
1789147788984158700,12.28215869140625,0.13605283928399256,-9.804883664632218,-0.12707872163581158
1789147788994130700,12.292130615234376,0.12272973720661584,-9.804954796445875,-0.1348064832893286
1789147789004102700,12.3021025390625,0.10295656808771549,-9.805037298651651,-0.144990385541365
1789147789014075600,12.31207568359375,0.08552513384152668,-9.80504490384416,-0.15544623150480288
1789147789024047600,12.322047607421876,0.0759275784856444,-9.804926042198579,-0.16743672968842027
1789147789034019600,12.33201953125,0.07226063047529728,-9.80476618214627,-0.17808074078100866
1789147789043992800,12.341992919921877,0.06395163508577478,-9.804664995730747,-0.1866301974125032
1789147789053964500,12.351964599609374,0.06022722721642779,-9.8045788670378,-0.19231566919448692
1789147789063936800,12.361936767578126,0.05799827215365194,-9.804462554102955,-0.19884342842860253
1789147789073909800,12.37190966796875,0.054135134212043516,-9.80435359787802,-0.20523223439568192
1789147789083881700,12.3818818359375,0.050660462995981516,-9.804112725663217,-0.21724652541949926
1789147789093853700,12.391853759765626,0.0486225669310117,-9.803806316000767,-0.23111351137706987
1789147789103826700,12.40182666015625,0.040073771798884515,-9.803490031351885,-0.2456708574674303
1789147789113798700,12.411798583984377,0.026550466548986493,-9.803326322124178,-0.2539149842059829
1789147789123770600,12.4217705078125,0.014270943485773235,-9.803139335272261,-0.2620007284711704
1789147789133743900,12.431743896484376,0.00531492800913892,-9.802875941314966,-0.27199533983007784
1789147789143715600,12.441715576171877,-0.00036991675763357645,-9.80254073042345,-0.2838778563607125
1789147789153687800,12.451687744140624,-0.002032666542377015,-9.802242459895623,-0.2939867701715614
1789147789163660800,12.461660888671876,-0.00229923168198765,-9.801955236894118,-0.30340011814461143
1789147789173632500,12.471632568359375,-0.00459529112335095,-9.801733537977475,-0.31046419383021095
1789147789183604700,12.481604736328125,-0.014852905875771817,-9.801455310571473,-0.3187986284216274
1789147789193577700,12.49157763671875,-0.045858946287008755,-9.80129358572778,-0.3208164940924723
1789147789203549700,12.5015498046875,-0.08817862958635905,-9.800963164427687,-0.3220817804467567
1789147789213521700,12.511521728515625,-0.11107024431251715,-9.800527892764022,-0.3281793657375866
1789147789223494700,12.52149462890625,-0.1138941116990193,-9.800125031006058,-0.33907536517048464
1789147789233466600,12.531466552734376,-0.11907512762752191,-9.799652088264777,-0.35075325114101724
1789147789243438800,12.54143896484375,-0.1076918904195287,-9.799289556178111,-0.36430446604428696
1789147789253411800,12.551411865234376,-0.11867925085694138,-9.799056745569382,-0.36715598696547186
1789147789263383600,12.561383544921876,-0.11398354361730725,-9.799066507373027,-0.36837871521950244
1789147789273355800,12.571355712890623,-0.09230948628396878,-9.799307484635769,-0.3680132076417321
1789147789283328800,12.581328857421877,-0.07236786871125715,-9.799447854463402,-0.36872895938328
1789147789293300700,12.59130078125,-0.057456427652871976,-9.799464950825026,-0.3708954698516433
1789147789303272700,12.601272705078124,-0.03814590084121047,-9.799168398403934,-0.3810963843429222
1789147789313245700,12.61124560546875,-0.01668969785076397,-9.79855753913357,-0.39795321954629864
1789147789323217700,12.6212177734375,-0.014785408214998288,-9.79785872140247,-0.4148861436944792
1789147789333189600,12.631189697265626,-0.047028941580691035,-9.797360629493923,-0.4241513263748757
1789147789343163000,12.641162841796875,-0.07659930607258808,-9.797118643841818,-0.4254113209224302
1789147789353134600,12.651134521484376,-0.07356050408810992,-9.797232770586513,-0.4233317903969943
1789147789363106800,12.66110693359375,-0.06737281566692714,-9.797038890858833,-0.42881827470236794
1789147789373079800,12.671079833984376,-0.04299596761707065,-9.796624121140885,-0.4412509684282932
1789147789383051500,12.681051513671877,-0.027335333917475287,-9.796513669885126,-0.4449263758770122
1789147789393023700,12.691023681640624,-0.028784275355655586,-9.796893329728661,-0.4363854282475419
1789147789402996700,12.700996826171876,-0.05152940281953493,-9.7974825174768,-0.42078915542791295
1789147789412968700,12.71096875,-0.060514848244305454,-9.797945196289398,-0.408642787994732
1789147789422940700,12.720940673828125,-0.051223619584484875,-9.79847293736082,-0.39710287973646896
1789147789432913700,12.73091357421875,-0.043333160648941764,-9.798638987322189,-0.39394360575982096
1789147789442885600,12.7408857421875,-0.01852796297290164,-9.798661655145352,-0.3953196075243066
1789147789452857900,12.75085791015625,0.013985710774374042,-9.799100040164403,-0.38446756247019176
1789147789462830600,12.76083056640625,0.03598549011113589,-9.799816542426642,-0.3642567814774531
1789147789472802600,12.770802490234376,0.042069218854415565,-9.80040773705609,-0.347293991141543
1789147789482774800,12.78077490234375,0.03759332490371538,-9.800681485833566,-0.34003379818367035
1789147789492747500,12.79074755859375,0.05035586826068034,-9.80065032095625,-0.33926218035280414
1789147789502719700,12.8007197265625,0.06445169755408937,-9.800562995613777,-0.33940986305402504
1789147789512691700,12.810691650390623,0.09144918804201886,-9.800511643341029,-0.3346593258361139
1789147789522664400,12.82066455078125,0.09378291196013949,-9.801049834344969,-0.3178233545213474
1789147789532636700,12.83063671875,0.07689785696037366,-9.801685628293933,-0.3023880298806135
1789147789542608600,12.840608642578124,0.06942553766183766,-9.80195397226056,-0.29541758885752406
1789147789552581600,12.85058154296875,0.07571862901606558,-9.80212230212195,-0.28820403203605144
1789147789562553600,12.8605537109375,0.08649460553902612,-9.802391680845398,-0.2757336703339041
1789147789572525800,12.87052587890625,0.09898209528227422,-9.802651286814632,-0.2619458580598651
1789147789582498600,12.88049853515625,0.12513751010418456,-9.802706588834672,-0.24834631220136383
1789147789592470500,12.890470458984376,0.15463657693924096,-9.80266335197767,-0.2329549089796182
1789147789602442800,12.90044287109375,0.16514215822337394,-9.802879609100934,-0.21604324275219722
1789147789612415500,12.91041552734375,0.16255276828843973,-9.803244841233198,-0.20089597211337956
1789147789622387700,12.9203876953125,0.1624637629015765,-9.803429065202792,-0.19177584210700502
1789147789632359700,12.930359619140624,0.16130304264798326,-9.803612189168389,-0.18317427953707707
1789147789642332700,12.940332763671876,0.1534196875745802,-9.803867169701089,-0.17617346085792138
1789147789652304600,12.9503046875,0.16517211571382998,-9.803765722262026,-0.17110301755221993
1789147789662276900,12.96027685546875,0.17310587349601192,-9.803751264019672,-0.1639178000576548
1789147789672249600,12.97024951171875,0.16337358288689627,-9.804091409152216,-0.15319290747125622
1789147789682221600,12.9802216796875,0.1486032786637356,-9.80443951016781,-0.14582500639197826
1789147789692193800,12.99019384765625,0.137118780288878,-9.804706615042432,-0.13899723561438118
1789147789702166500,13.00016650390625,0.12152292355344492,-9.80499574460111,-0.13296283598001615
1789147789712138800,13.010138671875,0.11563060173428596,-9.805144754673151,-0.12710104828244417
1789147789722110700,13.02011083984375,0.12259857454007707,-9.80511284474846,-0.12297098041516293
1789147789732083500,13.03008349609375,0.12355994996586642,-9.805220612373702,-0.11299800975278106
1789147789742055700,13.0400556640625,0.12050067119532969,-9.80536920314223,-0.10297529460166002
1789147789752027600,13.050027587890623,0.11638806569661786,-9.805492314388086,-0.09576314986717363
1789147789762000600,13.060000732421877,0.11131754458993288,-9.805585962927097,-0.09200164220200409
1789147789771972600,13.06997265625,0.10972617738126252,-9.805641645418268,-0.08798102726992045
1789147789781944800,13.07994482421875,0.11451429610689871,-9.805640376317397,-0.08181412208545562
1789147789791917600,13.08991748046875,0.11525596081135077,-9.805700965020884,-0.07306950411658639
1789147789801889500,13.0998896484375,0.1018568608451995,-9.805918342475874,-0.06307296956645128
1789147789811861800,13.10986181640625,0.08664238339178752,-9.806106981138775,-0.05606295134141744
1789147789821834500,13.11983447265625,0.07370086697280182,-9.806254581520632,-0.048164573029537285
1789147789831806700,13.129806640625,0.06383870259773461,-9.806361136773834,-0.04001266519744325
1789147789841778700,13.13977880859375,0.055657361900724095,-9.806442599028342,-0.031264660611723644
1789147789851751700,13.149751708984375,0.05139446504247798,-9.806488822620295,-0.022981108370441018
1789147789861723600,13.1597236328125,0.04037202031225391,-9.806556325744772,-0.014075475711227525
1789147789871696000,13.16969580078125,0.024152145596616926,-9.806619314797219,-0.0038508321781473296
1789147789881668600,13.179668701171876,0.013417843510327786,-9.806638959024596,0.006327993734623917
1789147789891640600,13.189640625,-0.0007808706597964517,-9.806640983434402,0.013637659717616626
1789147789901612800,13.19961279296875,-0.014759035046354832,-9.806629284835891,0.013670374036627615
1789147789911585500,13.20958544921875,-0.02316212527521737,-9.806615524255058,0.01137455646954182
1789147789921557800,13.219557861328123,-0.03229387193126229,-9.806592255521222,0.009190438577696374
1789147789931530200,13.2295302734375,-0.030338883115317485,-9.806599778711144,0.007971628402732241
1789147789941503200,13.239503173828124,-0.018540685026955623,-9.806625511883322,0.011579199510691128
1789147789951475500,13.249475341796876,-0.016898717475312824,-9.806619456622968,0.01790285703219291
1789147789961447200,13.259447265625,-0.01403708553158321,-9.806610161391301,0.024406107883722886
1789147789971420400,13.26942041015625,-0.014555109462837291,-9.806603380427106,0.026690254011120358
1789147789981392400,13.279392333984376,-0.005969688709650528,-9.806613986234085,0.026004556274988995
1789147789991364400,13.2893642578125,0.011707875465594778,-9.806610237445945,0.025238484532651824
1789147790001337300,13.29933740234375,0.030443771260650662,-9.806572443799496,0.02435918509144935
1789147790011309300,13.309309326171874,0.04448810754200326,-9.80651355438396,0.026688836136378895
1789147790021281300,13.31928125,0.051022124532082415,-9.806462350305793,0.03295913266151888
1789147790031254300,13.329254150390623,0.045838916472373585,-9.806466586036025,0.038779197723471846
1789147790041226500,13.3392265625,0.04065366606628871,-9.806466772089427,0.04411003788398898
1789147790051198200,13.3491982421875,0.037177266464263996,-9.806442437729949,0.05192818997673169
1789147790061171200,13.359171142578123,0.034037862649972786,-9.806414779181761,0.05878615459932326
1789147790071143400,13.369143310546876,0.03558400152364746,-9.806385257194172,0.06263148968074306
1789147790081115100,13.379115234375,0.04508514374272818,-9.806284368650962,0.07166299359116099
1789147790091088400,13.38908837890625,0.04930899167133752,-9.80619113414337,0.0810826412459558
1789147790101060400,13.399060302734377,0.05396849686648596,-9.80606342958487,0.09267154436449543
1789147790111032300,13.4090322265625,0.060619372752373814,-9.805950776542852,0.10024930244568998
1789147790121005300,13.41900537109375,0.06942294293866681,-9.805773662167725,0.11121879571895578
1789147790130977300,13.428977294921877,0.08285178817007693,-9.8056192911389,0.1155414331591242
1789147790140949200,13.43894921875,0.10372971671640684,-9.805391908773467,0.11796530540187557
1789147790150922200,13.448922119140626,0.10314417586344032,-9.805420989399508,0.11608740744555744
1789147790160894500,13.45889453125,0.09462605407053988,-9.805478428610382,0.11843741582215482
1789147790170866200,13.4688662109375,0.08044386583604499,-9.805530563908777,0.12445583776220497
1789147790180839400,13.47883935546875,0.06978162211595218,-9.805633609361452,0.12275930663854104
1789147790190811400,13.488811279296876,0.053353706333058054,-9.805873231051214,0.11128833780790703
1789147790200783400,13.498783447265623,0.048138359850386295,-9.80602819568037,0.09938636445941174
1789147790210756400,13.50875634765625,0.05163106860928559,-9.806127898322924,0.08700150006322258
1789147790220728300,13.518728271484376,0.03524493452140207,-9.80628633182175,0.07676427582989158
1789147790230700300,13.5287001953125,0.016466390569278976,-9.806414339244087,0.06605848441431181
1789147790240673300,13.53867333984375,0.007216896532094277,-9.806466551396158,0.059566532973492715
1789147790250645500,13.5486455078125,0.002387557134021936,-9.80650544174868,0.05327693334901943
1789147790260617200,13.5586171875,0.0011526159991848276,-9.806551463651624,0.04404420014389476
1789147790270590200,13.568590087890623,0.007144210893737464,-9.806577001923937,0.037104214055415585
1789147790280562400,13.5785625,0.014456240845507376,-9.806591995603576,0.030605386465679698
1789147790290534100,13.5885341796875,0.014209352916181755,-9.806618488130159,0.02026868989171295
1789147790300507400,13.59850732421875,0.016996266916624543,-9.806631815302419,0.008043223073155907
1789147790310479400,13.608479248046876,0.02840499591633246,-9.806607967799287,-0.0032773189261990263
1789147790320451300,13.618451416015626,0.0408350371988367,-9.806552103408693,-0.015490483101545424
1789147790330424300,13.62842431640625,0.05715404257482659,-9.806445942070926,-0.026984506478003777
1789147790340396300,13.638396240234377,0.07220918836949529,-9.806316153911947,-0.036439989471934095
1789147790350368300,13.6483681640625,0.07833223348780984,-9.806229165899607,-0.04592632302468681
1789147790360341200,13.65834130859375,0.08344172112153316,-9.806135660151465,-0.05588136560295074
1789147790370313200,13.668313232421877,0.08688303081350424,-9.806033691652013,-0.06736997520637408
1789147790380285200,13.67828515625,0.0877962765624743,-9.805951364649708,-0.07743752884177646
1789147790390258400,13.688258544921876,0.08695566178551203,-9.805898450100615,-0.08468709055970822
1789147790400230100,13.698230224609375,0.0889502426993744,-9.805801235877698,-0.09346653350318157
1789147790410202400,13.708202392578125,0.08636346906047483,-9.80573861012744,-0.10211059726294475
1789147790420175400,13.71817529296875,0.08971220777434048,-9.805598642793782,-0.11206864878132872
1789147790430147000,13.72814697265625,0.08933562751296015,-9.805471472487122,-0.12304529535069011
1789147790440119300,13.738119384765625,0.07589029458520595,-9.805515340197744,-0.12848222648284066
1789147790450092300,13.74809228515625,0.05795290605189297,-9.8055884486678,-0.13212651958305568
1789147790460064300,13.758064208984376,0.05548838969790476,-9.805535065516098,-0.13706586279743302
1789147790470036200,13.7680361328125,0.049315070097968774,-9.805517664490427,-0.14064477657124305
1789147790480009200,13.77800927734375,0.057616016133597014,-9.805400228496804,-0.14555480312634445
1789147790489981200,13.787981201171876,0.06960807105670477,-9.805299787578402,-0.14710451177039208
1789147790499953200,13.797953125,0.0611914459189146,-9.805385502674643,-0.14509632817521603
1789147790509926400,13.807926513671877,0.051108484547005756,-9.805419762381316,-0.14668487758043214
1789147790519898000,13.817898193359374,0.04171949582372287,-9.805398255585636,-0.15101372998738244
1789147790529870300,13.827870361328126,0.03790895076507856,-9.805292429021396,-0.15872038696078783
1789147790539843300,13.83784326171875,0.03910595273281048,-9.805142532461698,-0.16741723929737373
1789147790549815300,13.847815185546876,0.04375680416936922,-9.804888931219054,-0.18059273143807053
1789147790559787300,13.857787353515626,0.04512370517908131,-9.804738392147321,-0.18828307250257187
1789147790569760300,13.86776025390625,0.03474552620587231,-9.804800952836858,-0.18723261556792395
1789147790579732200,13.877732177734377,0.028588386988602332,-9.804816110247518,-0.1874706724341359
1789147790589704200,13.8877041015625,0.02660956436768269,-9.80489885746443,-0.18340618834403083
1789147790599677400,13.897677490234376,0.020656404353165642,-9.805010262698111,-0.1781310182633967
1789147790609649200,13.907649169921877,0.022034496210757867,-9.805061614105293,-0.17514075128300322
1789147790619621400,13.917621337890624,0.024651399855306805,-9.805115302482776,-0.17173677821881067
1789147790629594400,13.927594482421876,0.02599088786758414,-9.805212261138232,-0.16593065763871395
1789147790639566000,13.937566162109375,0.023249699428711964,-9.805350834760203,-0.15796216086447726
1789147790649538300,13.947538330078125,0.023423756858317227,-9.805497448288673,-0.14848963429329584
