time,seconds_elapsed,z,y,x
1789141175367385900,0.0423857421875,0.33817923093140123,0.3688450028300285,-0.8460330376096069
1789141175377358800,0.05235888671875,-0.18884967020750046,-0.6468564730465411,-0.06089611152205616
1789141175387331000,0.0623310546875,1.265773968809843,-1.7398258975207805,-0.19384755156002936
1789141175397302800,0.072302734375,1.2677858931541441,-1.7417261781841515,-0.18725867468900978
1789141175407275000,0.08227490234375,0.4625169737398624,-0.3385679379880428,-0.3108156423833221
1789141175417246700,0.092246826171875,1.3892846131443977,0.4723515545338392,0.1897480072867125
1789141175427220000,0.102219970703125,2.1072949358224866,0.33391748183369635,-0.7228751522354782
1789141175437192000,0.11219189453125,0.4103858044862747,0.9471464105665683,0.09251651726439594
1789141175447164000,0.122163818359375,-1.0383417622298001,0.9778478383004665,1.2597512013889849
1789141175457135900,0.132135986328125,-2.34241009812057,1.1612690537184476,-0.34856691556349395
1789141175467108900,0.14210888671875,-2.3381354895412922,1.1583791774958372,-0.3500087118696421
1789141175477080800,0.152080810546875,-1.6816823361098765,-1.6278209820628164,1.0294440238945186
1789141175487052800,0.162052734375,-1.9666443561166524,-0.35059038421511646,0.4548952101571485
1789141175497025000,0.17202490234375,-0.566070287194848,-0.6782505592197179,-0.33049609255027024
1789141175506997000,0.1819970703125,0.9421008176147937,-1.249988370656967,1.359220752661675
1789141175516970000,0.191969970703125,1.7012357623636722,-0.30967619002461433,0.34175464173275977
1789141175526942000,0.20194189453125,1.302577805072069,0.06908230405449867,0.31586496166214345
1789141175536914000,0.211913818359375,0.44847266629636284,0.593498976868391,-0.36593222065586595
1789141175546886000,0.221885986328125,-0.7519768896877765,1.2060779172599314,-0.21716701581645756
1789141175556857900,0.23185791015625,-0.8485854985713959,0.1411105984330177,0.028754787178151307
1789141175566830800,0.241830810546875,-1.2141238610714673,0.23337504063248632,-0.17706410147622226
1789141175576803000,0.251802978515625,-2.2136042699873446,0.5622931067436934,-0.1293343089867383
1789141175586774800,0.26177490234375,-2.0820845067203044,-0.12841653655469418,0.39642077282406385
1789141175596747000,0.2717470703125,-1.8809306507349013,-0.39699849964678285,0.40800449884030965
1789141175606720000,0.281719970703125,-1.5253075330495833,0.12555822451412676,-0.4425564645225182
1789141175616691700,0.291691650390625,-0.23706921897530556,0.08839841442108154,-0.17306622747909275
1789141175626664000,0.301663818359375,0.26479309220314023,-0.0555915388405323,-0.20634232800658792
1789141175636636000,0.311635986328125,0.007520458632707595,0.38320319852828977,-0.19990710732731967
1789141175646608000,0.32160791015625,0.7965601277798414,0.39761867737174034,0.2361696397870779
1789141175656580900,0.331580810546875,0.842113672208786,0.22333061648011207,-0.0622924612512812
1789141175666552800,0.341552734375,1.2949883728563785,0.06609305911064148,-0.31125790625810623
1789141175676524800,0.35152490234375,0.9312930078744888,0.6721247698158025,-0.47629641970209774
1789141175686497000,0.3614970703125,0.7224573652148246,0.6904851868927478,-0.09551146129667758
1789141175696469800,0.3714697265625,0.6935293768942355,0.638617052489519,0.02331270572207868
1789141175706442000,0.38144189453125,0.5501514180511236,1.1186498091757298,-0.4699656092453748
1789141175716414000,0.3914140625,0.07276713004708289,1.3763339461565016,-0.04465067730508744
1789141175726386000,0.401385986328125,-0.5167676193654537,0.7008733099162578,-0.002698883695155382
1789141175736358000,0.41135791015625,-0.7813923692643642,-0.38804888499379153,-0.3634104105606675
1789141175746331000,0.421330810546875,-0.9499170443236827,-1.8448463609188794,0.4812945933155715
1789141175756302800,0.431302734375,-1.615568818733096,-1.5973147846400737,0.6867856747876853
1789141175766274800,0.44127490234375,-1.4704408013522625,-0.76849430924654,-0.12896722924001514
1789141175776246800,0.451246826171875,-0.10146598578691482,-1.7121476170003413,0.17679646351598202
1789141175786219800,0.4612197265625,-0.10828384910821914,-1.7076485520154236,0.18027385730296372
1789141175796192000,0.47119189453125,1.5106290193557739,0.3499754671871662,0.3110872258663177
1789141175806163700,0.481163818359375,1.5030711513221262,0.35477731451094147,0.31678850624784827
1789141175816136000,0.491135986328125,2.5656957064151764,-0.7391513103842735,1.156951921171695
1789141175826108000,0.50110791015625,1.1937421672999857,-0.2312847903549671,0.5898918192218989
1789141175836081000,0.511080810546875,-1.0446627819448708,0.2753039648234844,0.19423779298663138
1789141175846052900,0.521052978515625,-1.3517717518299817,0.4303571638911962,0.4896158469371497
1789141175856025000,0.531025146484375,-0.5322200400412083,-1.3634814788460732,-0.1186111087899655
1789141175865996800,0.540996826171875,-0.27889702087938784,-1.1232324607908726,0.03911342837885022
1789141175875969000,0.550968994140625,-0.6716062988996505,-0.8678501710116863,0.21173940127715468
1789141175885942000,0.56094189453125,-0.19626199229061603,-0.36021336808502674,0.14582513279952108
1789141175895913700,0.570913818359375,2.2373685919344424,-2.386060439276695,-0.22790881111584602
1789141175905886000,0.580885986328125,1.3472399536192416,-0.5168401000797749,0.9166040458519011
1789141175915857700,0.590857666015625,0.2004015763133764,0.9560767359972,-0.6304481398854405
1789141175925831000,0.600830810546875,0.11135375807285308,0.850586316999793,-0.8751669968310744
1789141175935803000,0.610802978515625,0.4268552932500839,-0.13598200337290764,0.46232656573429703
1789141175945774800,0.62077490234375,0.47898587798178194,-1.0399322462916374,0.7329018215354531
1789141175955746800,0.630746826171875,0.4842296238541603,-1.0435200416505337,0.7323155460800975
1789141175965719000,0.640718994140625,-1.513373934149742,1.4806518142431973,0.1831481706302613
1789141175975691800,0.65069189453125,0.1798626461535692,0.36716450239717957,0.7251210314661264
1789141175985664000,0.6606640625,-0.43669279665350913,0.8609592424541711,1.027353627486527
1789141175995636000,0.670635986328125,-0.02282090361714363,-0.37617666089236734,1.0503737069375811
1789141176005608000,0.68060791015625,0.6645604720413685,-0.40219899089932437,0.7968034350164234
1789141176015580000,0.690579833984375,0.07468027019202708,1.1734557505965233,-0.9582838906526565
1789141176025553000,0.700552978515625,0.5567448249667882,0.07059504670500755,-0.5178793069344013
1789141176035524900,0.71052490234375,0.95644966096282,-0.5746574982762337,0.3481950135111809
1789141176045496800,0.720496826171875,0.074579732427001,-0.07330722827315331,-0.27647819623462855
1789141176055468800,0.73046875,0.07600362775027751,-0.0734030898630619,-0.286930251339823
1789141176065441800,0.74044189453125,-0.4758627775251865,-1.1482143418341875,0.8091065248157828
1789141176075414000,0.7504140625,-0.17157471027970314,0.49112347502112386,0.050534620777145024
1789141176085385700,0.7603857421875,-0.3270668852865696,1.2984598483592271,-0.33715522164590656
1789141176095358000,0.77035791015625,1.1176695659667253,-0.6879717427670955,-0.05516454560011625
1789141176105330000,0.780329833984375,-0.6635340516030788,-0.6337520768016577,0.9875437412761151
1789141176115303000,0.790302978515625,-2.5142355682909487,0.8639549171388149,0.0347981589956209
1789141176125275000,0.80027490234375,-0.3337742739707231,-1.2621528557032347,-0.32399419984295963
1789141176135247000,0.8102470703125,-0.05691138926744461,-0.16411095027029513,0.5212281789708882
1789141176145218800,0.82021875,-0.3372697148710489,0.613963672748208,-0.18079514123070983
1789141176155191800,0.83019189453125,1.1147872885286807,-0.39754795022308825,0.7281542616821826
1789141176165164000,0.8401640625,1.6399766992807387,-0.7096727024435997,0.07326696932800114
1789141176175135700,0.8501357421875,1.1540087073266505,0.13997721048891543,0.2144595834886655
1789141176185108000,0.86010791015625,0.6373480554670095,-0.2668728210866451,0.43282011993862685
1789141176195080400,0.87008056640625,-1.8816893601477145,1.128075224646926,0.8509903677560389
1789141176205053400,0.880053466796875,-1.5090157389402388,0.46224107940793036,0.34970183787755665
1789141176215025400,0.890025390625,-0.7070043600171804,0.062465516263246534,-0.012047178809531033
1789141176224997600,0.89999755859375,-0.5919874032616615,0.796489985153079,0.4042081387646496
1789141176234969300,0.90996923828125,-2.5710826601505277,1.3240057930260896,0.38222401476521045
1789141176244941600,0.919941650390625,-1.8559855945706367,-0.4902987146347761,0.5574665633700787
1789141176254914600,0.92991455078125,-1.3633949696063994,0.3892021466821432,0.44868780688438564
1789141176264886300,0.93988623046875,-0.19258534960448742,0.8988982202261686,-1.539940307905525
1789141176274858500,0.9498583984375,0.514547605228424,0.915462401536107,-1.5901714887566865
1789141176284830200,0.959830322265625,0.511487048614025,0.9183172064453363,-1.6100107462145388
1789141176294803500,0.969803466796875,0.2049246066957712,1.0105670355975627,-1.309544867605716
1789141176304775400,0.979775390625,0.35727146941423416,0.13707798191606999,-1.3590662927523254
1789141176314747400,0.989747314453125,-0.2827332380414009,0.3920113588839769,-0.08546524704601616
1789141176324719400,0.99971923828125,-1.067635661253333,0.7900812871545553,-1.2760922414675355
1789141176334691600,1.009691650390625,-0.9543833760827779,0.4732926347762346,-1.2472856875695288
1789141176344664300,1.019664306640625,-1.3592138845294712,-0.46837096046507354,-0.6644822922386229
1789141176354636500,1.029636474609375,-1.8123446057647465,0.29965047057271,-0.9524702359378338
1789141176364608500,1.0396083984375,-1.5189824216812848,0.43376317294239997,-1.171496871613711
1789141176374580500,1.04958056640625,0.5258697942316531,-1.2841840702474117,0.3507802076987922
1789141176384552400,1.059552490234375,0.7863058602690697,-1.0695856262773276,-0.46091041532605886
1789141176394525400,1.069525390625,0.3753723587721586,0.2998427782744169,-0.9643212711207568
1789141176404497400,1.079497314453125,0.9943120663672685,0.19744564911723136,-0.23014203179432077
1789141176414469400,1.089469482421875,1.2073369774103164,-0.66099547303617,0.5910963727060705
1789141176424441300,1.09944140625,-0.21087796214222906,-0.20534896958768367,0.5655423177979886
1789141176434414300,1.109414306640625,-0.8963537964403628,0.05907587382495403,0.860755755771324
1789141176444386600,1.119386474609375,-1.166900922125578,0.7371586752623319,1.0292135030742735
1789141176454358300,1.129358154296875,0.04246902241706848,-0.12264555193781852,0.19140578443109987
1789141176464330500,1.13933056640625,1.1546294695734978,-0.5155301865249872,0.01808057722225785
1789141176474302500,1.149302490234375,0.9075298549711703,-0.04911562082469463,-0.3958030793171376
1789141176484275500,1.159275390625,1.3765712620437145,0.21860651056766509,-0.7339678433317691
1789141176494247400,1.169247314453125,1.9260627548813818,-0.4174830692708492,-0.16231544515565036
1789141176504219600,1.1792197265625,1.9600567944198846,-0.6801584386676549,0.48892669562920926
1789141176514191400,1.18919140625,1.2077601712584496,-0.16502572702765464,-1.1518657770138234
1789141176524164400,1.199164306640625,0.2549567578434944,0.524484477353096,-0.5379743657842279
1789141176534136600,1.209136474609375,0.691596363005042,0.136990303632617,0.1905809144468978
1789141176544108300,1.2191083984375,0.4613093515157699,-0.6512099920809269,0.22349972596932202
1789141176554080500,1.22908056640625,-0.4642179324388504,-0.33740298586189743,0.06407297885934822
1789141176564052200,1.23905224609375,-1.282745561876893,-0.6436988857984542,-0.02731849816418253
1789141176574025500,1.249025390625,-0.9806003518790006,0.42849487715065476,0.4008739528406411
1789141176583997400,1.25899755859375,0.1186205342054367,-0.45706864520609375,-0.9310432708971201
1789141176593969400,1.268969482421875,-0.0326209976196289,0.290444835332036,-1.2706950585991144
1789141176603941400,1.27894140625,0.5552519560605287,-0.06101824006438255,-0.9903567528702318
1789141176613913600,1.28891357421875,0.3142407214611769,0.008462123396992684,-0.3717398474887013
1789141176623886300,1.29888623046875,0.7290501876085996,-1.1082798063308,-1.3688725242346524
1789141176633858600,1.308858642578125,-0.27848960912227627,0.27156828542649747,0.6268788300313055
1789141176643830500,1.31883056640625,-0.7114496489882469,-0.3434527874201536,-0.5910667082201689
1789141176653802500,1.328802490234375,1.6415210061132908,-2.1886849327862263,-0.5487276688583195
1789141176663775500,1.338775390625,-0.37152328212857244,-0.7089367893844842,-0.971063877248764
1789141176673747500,1.34874755859375,-0.4552075275093317,0.2966062805712223,-0.3869986087558791
1789141176683719400,1.358719482421875,0.281992648807168,-0.45528293083310123,-0.700649145771563
1789141176693691400,1.36869140625,0.3535878124654293,0.12532733836770057,0.038746403431054205
1789141176703663400,1.378663330078125,1.198762625810504,0.6955401321947574,-0.21022917937729507
1789141176713636400,1.38863623046875,0.9315490284621715,0.9596113398641347,-1.334694944822788
1789141176723608600,1.398608642578125,0.43777650023698805,-0.21674247026145457,-0.1823641623794101
1789141176733580300,1.408580322265625,0.41177345945239063,-0.7472218041151761,0.08996500615067779
1789141176743552500,1.418552490234375,-0.8384995733648538,0.36556174337565894,-1.0272538934390991
1789141176753524500,1.4285244140625,-0.6841302649080753,-0.24066753572821617,0.0474475962809287
1789141176763497500,1.43849755859375,0.40781157008409497,-1.269582128921151,0.2877767486339435
1789141176773469400,1.448469482421875,-0.36595045043230057,0.7354132928997278,-0.9491729479581117
1789141176783441700,1.458441650390625,-0.748197371149063,0.8545411921054125,-1.231928105570376
1789141176793413400,1.468413330078125,0.08278115906119346,-0.0293447524279356,-0.24493966008946297
1789141176803386400,1.478386474609375,-0.6810697082936763,-0.026566519886255264,-0.16234149291235953
1789141176813358600,1.488358642578125,-0.6983855847537517,-0.1712619910687208,-0.05615015910398215
1789141176823330300,1.498330322265625,-0.23634382731020448,-0.5015606978833675,-0.1549348333850503
1789141176833302500,1.508302490234375,0.8875222552090882,0.17332827594876288,-0.09312153395283966
1789141176843274200,1.518274169921875,2.2819734573364254,0.11352116523981094,-0.38502186532281335
1789141176853247500,1.52824755859375,2.078021495065093,0.4319657681316137,-0.09129004420936107
1789141176863219500,1.538219482421875,0.6981856782674789,0.9817448457390069,0.30452289891466494
1789141176873191400,1.54819140625,-0.8272253151565789,0.9797516260951756,0.8670018105540425
1789141176883163400,1.558163330078125,-0.8247732458293437,0.10033961210548877,0.8474912005286663
1789141176893136400,1.568136474609375,-2.182247593215108,0.39004619629085063,0.798459531660378
1789141176903108400,1.5781083984375,-2.2191116352319717,-0.3054430824995041,0.6301160583868622
1789141176913080600,1.58808056640625,-1.7431196783691643,-0.3725625620484352,-0.06775379539709538
1789141176923052500,1.598052490234375,-0.3340016529858112,-0.45671442494094366,-0.4825823681037873
1789141176933024500,1.6080244140625,0.43342298120260236,-0.44768473078906534,-0.42183366569578645
1789141176942997500,1.61799755859375,1.0704951423376798,-0.723795920342207,0.12737086342666298
1789141176952969500,1.627969482421875,-0.5933101762980222,0.7163321603327989,-0.1100914830520749
1789141176962941400,1.63794140625,-0.15400748940706252,-0.4506237068504095,0.6750617000505328
1789141176972913400,1.647913330078125,0.11973697101473807,-0.7633370726138353,0.8656771378215402
1789141176982885400,1.657885498046875,-1.3234721245408057,0.16757131985723972,0.331315299978666
1789141176992858400,1.6678583984375,-1.2808873667895793,-0.08399287293851375,0.35545061066262423
1789141177002830600,1.67783056640625,-1.0571668742090463,0.0035369419544935225,0.30425478603038936
1789141177012802300,1.68780224609375,0.27474983807206155,0.49341246274113654,-0.5294245275711641
1789141177022774500,1.6977744140625,0.5318406853348017,0.13802607642114162,-0.1354038016261533
1789141177032747500,1.70774755859375,1.1537509331732987,-0.17153963896632193,0.17077022549640386
1789141177042719500,1.717719482421875,1.0437252088338136,0.6834726777821779,-0.23745474769417196
1789141177052691500,1.72769140625,0.5328589224666357,0.38053894775509833,-0.3782106509380042
1789141177062663700,1.73766357421875,1.5247610050827265,-0.12753566206693648,0.388886687524803
1789141177072635400,1.747635498046875,0.9871429053902625,-0.8413309973984956,-1.0599806895207613
1789141177082608400,1.7576083984375,-0.15887304961681364,0.028234745359420773,-0.1512847133796662
1789141177092580600,1.76758056640625,-0.08231821772456169,0.2465951722115278,-0.19989852216206488
1789141177102552300,1.77755224609375,0.718338823980093,0.1854056672334671,-1.0871600075431167
1789141177112524500,1.787524658203125,-0.17815642675757407,0.588508328974247,-0.34817963327895846
1789141177122496300,1.797496337890625,-0.8913602259367703,-0.29478432584106923,0.39603732646442946
1789141177132469500,1.807469482421875,-1.4174515539646149,0.27757074071168897,-0.38636864028926937
1789141177142441500,1.81744140625,-0.8898591737240552,-0.5424035804033279,-0.8608433609895407
1789141177152413400,1.827413330078125,-0.12904840471744536,-1.350439626443386,0.368514199973084
1789141177162385400,1.837385498046875,0.1538601898908615,-1.700206419315934,0.29709084921777246
1789141177172358400,1.8473583984375,0.6682862145662307,-1.4536609314650297,0.8400129736024886
1789141177182330400,1.857330322265625,1.116327503708005,-1.5687790105074644,0.778963534682244
1789141177192302600,1.867302490234375,1.234169454756379,-0.37630233309864997,1.165913591588661
1789141177202274600,1.877274658203125,1.9563281292855739,-0.023307225829362867,0.9244310862157493
1789141177212246800,1.887246826171875,2.2016776853501794,-0.2406353870242834,1.2397042925298214
1789141177222219800,1.8972197265625,2.366424595436454,-0.21989655037820338,0.574627797257714
1789141177232191500,1.90719140625,1.1917957094073295,0.1778454611122608,0.74543345939368
1789141177242163700,1.917163818359375,0.2069341929525137,-0.26575579975545405,-0.06085632750093937
1789141177252135700,1.9271357421875,-0.39829555371999736,0.5215823261708021,0.3936510523824021
1789141177262107600,1.937107666015625,-0.42644437436163424,0.2413496727734804,-0.1395551491519436
1789141177272080600,1.94708056640625,-0.9778034146368503,0.2260837145805359,-0.291983260413073
1789141177282052900,1.957052978515625,-1.2838964854776858,0.03223930482566356,-0.3048336453642696
1789141177292024600,1.967024658203125,-1.198933890724182,-0.19352759889066218,-0.14358517185300587
1789141177301996800,1.976996826171875,-1.039602575945854,-0.7802350159227848,-0.31460714362077413
1789141177311969800,1.9869697265625,-0.9071709585309028,-0.4414893832802772,0.34357177415732293
1789141177321941500,1.99694140625,-0.3778600839346647,-0.269385096168518,0.10142799186408519
1789141177331913700,2.006913818359375,0.22122575315535067,0.07352174780666827,0.554717629988119
1789141177341885400,2.016885498046875,0.9326941068440675,0.3541653200924396,0.5711531434170901
1789141177351857700,2.026857666015625,0.853491975313425,0.6139817929267883,0.48128874809667466
1789141177361830700,2.03683056640625,0.2993009264826774,0.11807166815102099,0.6527746110491455
1789141177371802600,2.046802734375,-0.1404232006907463,0.38645430927872654,0.623925167857483
1789141177381774600,2.056774658203125,-0.475104652634263,0.545987868630886,0.5929878855410963
1789141177391746800,2.066746826171875,-0.09145838651359081,0.4056277963042259,0.7147353926606476
1789141177401718500,2.076718505859375,-0.5828238535970449,0.0703138916760683,0.5887690988022833
1789141177411691800,2.08669189453125,-1.104540619802475,-0.5397071809262037,0.5527431150447577
1789141177421663700,2.096663818359375,-1.1864204461097716,-1.0375877289921045,1.1907490498986095
1789141177431635700,2.1066357421875,-1.5310492915719747,-0.7593664154171943,1.1651296016041188
1789141177441607700,2.116607666015625,-0.9990712435930966,-0.33072833040356636,0.9855074862081556
1789141177451580700,2.12658056640625,-0.8434241702854632,0.2065893250375986,0.29803594804815947
1789141177461552600,2.136552734375,-0.2712736863940954,0.5424795682489871,0.2940833379648626
1789141177471524600,2.146524658203125,0.39042847360670563,0.7021218486726284,-0.9460687713976949
1789141177481496600,2.15649658203125,1.7703683353006838,0.22517478304207322,-0.7678162638545036
1789141177491468500,2.166468505859375,0.9326075976043939,0.6099310562312603,-0.6759171478360891
1789141177501441800,2.17644189453125,-0.6623071401566266,1.1899404369294642,0.17214103892557323
1789141177511413500,2.18641357421875,-0.26056407633125783,0.24689503194093704,0.17724698376245795
1789141177521385700,2.1963857421875,-0.2808107455462217,-0.13834639441668986,0.7079459517162293
1789141177531357700,2.206357666015625,-1.0249164634674788,-0.16971826875805854,0.327861031338945
1789141177541329700,2.21632958984375,-1.280410396927595,-0.23444530021250246,0.5594592715572565
1789141177551302700,2.226302734375,-0.15390227546691893,-0.38306349779665466,0.5967448999870568
1789141177561274600,2.236274658203125,-0.04936287358403205,-0.029508418557047843,0.4149948326516896
1789141177571246600,2.24624658203125,0.6302396847665309,0.07743219924867152,0.7101684500712901
1789141177581218800,2.25621875,0.7085358073681592,-0.1072574286699295,1.4197311893343925
1789141177591190500,2.2661904296875,0.40459436160326,-0.3760071495443582,1.0844861852239818
1789141177601163500,2.27616357421875,0.029741058269143104,-0.363166957193613,0.5432020373046398
1789141177611135700,2.2861357421875,-0.1943453450143337,-0.6775298437297343,0.4563203841220587
1789141177621107500,2.296107421875,-0.19502689753770827,-0.67697863958776,0.45556905429810285
1789141177631079700,2.30607958984375,-0.4274088354796171,0.4567658628672361,-0.19329729726612566
1789141177641052700,2.316052734375,-0.7067763964802026,1.0658166291326283,-0.08331007830612361
1789141177651024600,2.326024658203125,0.9655179335594176,1.0592682304024696,0.26871757217049597
1789141177660996600,2.33599658203125,0.8882061458200216,0.2977472672998905,-0.77256236240305
1789141177670968600,2.345968505859375,-0.06414660121798516,0.4347334792792797,-0.23082879021577535
1789141177680940500,2.3559404296875,-0.15492752686142922,0.3673591481864452,-0.598671191874519
1789141177690913800,2.365913818359375,0.028275661891698837,-0.577476647350192,-0.32585232186503704
1789141177700885500,2.375885498046875,-0.920244375115633,-0.2944832970678806,-0.5763682477168739
1789141177710857700,2.385857666015625,-0.6657943977504969,-0.7177192307770252,-0.8687036460358649
1789141177720829700,2.39582958984375,-0.926669439727068,-0.812260385736823,-1.0176419424198568
1789141177730802400,2.405802490234375,-0.9739595986902713,-0.764756876283884,-0.6125041946548968
1789141177740774700,2.415774658203125,0.001084288105368614,-0.2937824553221464,-0.7964861126955598
1789141177750746600,2.42574658203125,-0.03020166151821613,-0.45011575732827186,0.08395677871182561
1789141177760718600,2.435718505859375,1.4749129783302544,-0.5673205795168876,-0.03513042315728962
1789141177770690600,2.445690673828125,1.856591159248352,0.23679975438416004,-0.3702531160622835
1789141177780663800,2.455663818359375,2.208040206119418,0.3535048103570938,-0.9668054891519248
1789141177790635500,2.465635498046875,1.2651754183948039,0.6189829622149468,-0.8292694612700492
1789141177800607700,2.475607666015625,1.0203472558557987,0.6716419547349214,-0.6686728757962584
1789141177810579500,2.485579345703125,0.9581664017528295,0.3891583075404167,-0.6147237704005092
1789141177820551700,2.4955517578125,0.025835867524147033,0.1544353594303131,-0.4915444769121706
1789141177830524700,2.505524658203125,-0.9201298088252544,0.1799292816489935,0.1531248613536358
1789141177840496600,2.51549658203125,-1.4462246439844368,-0.8659808700084686,0.31102117489278314
1789141177850468600,2.525468505859375,-1.6347645175904035,-1.3049252449810504,-0.7888284375492483
1789141177860440800,2.53544091796875,-1.2400988448053598,-1.3011392967015505,0.07910648913644254
1789141177870412500,2.54541259765625,-0.8084522256255149,-0.19670915153622626,0.2104555720116943
1789141177880385500,2.555385498046875,0.8775503117710352,-1.0423626883089543,-0.5524319667363539
1789141177890357800,2.565357666015625,1.9530618209660051,-0.3116717477560043,-0.015647979780472814
1789141177900329500,2.57532958984375,1.985425628954172,0.8449643854647875,-0.23854550207294523
1789141177910301700,2.5853017578125,1.914609632974863,0.7893927203685045,-0.7471938931949437
1789141177920274700,2.595274658203125,0.8856962088257074,0.81994977119565,-0.09587163637857883
1789141177930246700,2.60524658203125,-0.2349099951148033,1.0523083282619714,-0.7431235019508748
1789141177940218600,2.615218505859375,-1.1456325086474417,0.3036293110758066,-0.5348165593404323
1789141177950190600,2.625190673828125,-0.7988350869745016,-0.4587251802414655,0.10437295927479863
1789141177960162600,2.63516259765625,-0.7973714441627263,-0.45942660650908945,0.09929090677015483
1789141177970135800,2.6451357421875,-1.1648556800335645,-0.5038227975964545,-0.37502336267139763
1789141177980107500,2.655107421875,-1.447011410447955,-0.44069969420731064,0.15214432588368654
1789141177990079700,2.665079833984375,-0.13971008398532866,-0.7245365095764398,0.9826059926129876
1789141178000051700,2.6750517578125,-0.02105097133517265,-0.6285019011884927,0.299535758151859
1789141178010023700,2.685023681640625,-0.34338322931528087,0.6432090564548969,0.23015213306322693
1789141178019996700,2.69499658203125,0.3038333092153072,0.25969080062806604,0.07714092468451708
1789141178029968600,2.70496875,0.5823568206071853,-0.23360592677891254,0.05462634707018733
1789141178039940600,2.714940673828125,0.07927753485441208,-0.056872810822725293,0.034568076566793025
1789141178049912600,2.72491259765625,-1.779926437240839,1.4024340175747871,0.7190263678528368
1789141178059885800,2.7348857421875,-0.49348552797734735,0.4412105663388967,0.24020291389115153
1789141178069857500,2.744857421875,-0.3250222277164459,-0.16802783145308495,0.20905637273825703
1789141178079829800,2.754829833984375,-1.0987982767581939,0.48348026679158207,0.45674785228651016
1789141178089801500,2.764801513671875,-0.7902882079035043,0.9054559713065624,0.44319465282820164
1789141178099773700,2.774773681640625,0.6674205376476049,0.5180792864859104,-0.2567339601164684
1789141178109746700,2.78474658203125,1.198491992175579,0.31940789496600624,0.20177922134213147
1789141178119718700,2.79471875,0.6315782398939133,-0.3692418931931257,-0.012229330443404613
1789141178129690600,2.804690673828125,-0.23093933791816232,-0.4232032004833221,0.3669402651872486
1789141178139662800,2.814662841796875,-0.8322896128088235,-0.5283025743365287,0.5120389834083616
1789141178149634600,2.824634521484375,-0.8293722640573978,-0.48565118108987804,0.5605682557124644
1789141178159607600,2.834607666015625,-0.20193711531758307,-0.8173772903591394,-0.48919553916584696
1789141178169579800,2.844579833984375,-1.3150766366392372,0.18049217622876165,-0.7453538182862103
1789141178179551500,2.854551513671875,-1.0225129094570875,0.952182651168108,0.07067662404123694
1789141178189523700,2.864523681640625,0.08151800725758075,0.3556301319479942,-0.27924798974152654
1789141178199496000,2.874495849609375,1.3803589638888836,-0.5824363155841827,-0.16721059678606687
1789141178209468200,2.88446826171875,0.5303028082430362,-0.03357844447493553,0.3665457494443282
1789141178219439900,2.89443994140625,0.5296107343256473,-0.03300152136981487,0.3644304012581706
1789141178229412000,2.904412109375,0.45840193963646886,0.17931904079616068,-0.6718585931602865
1789141178239383800,2.9143837890625,0.05051496622860431,0.0173585465580225,-0.4282216496998444
1789141178249357000,2.924357177734375,-0.6309405265122652,0.3193494427770376,-0.4008307347534224
1789141178259329000,2.9343291015625,-1.4318892446398734,0.5426350510716438,-0.7063663543745875
1789141178269301000,2.944301025390625,-1.431668295365572,-0.378631652829051,-0.5872364824075251
1789141178279273000,2.95427294921875,-1.47201199619174,0.22578093224167822,0.14490418202970176
1789141178289245200,2.9642451171875,-1.4765209980487823,0.2288233686774969,0.1462626839665696
1789141178299218000,2.974218017578125,0.12450783867835997,-0.50041854211092,0.07282444972489029
1789141178309190100,2.984190185546875,1.418736333078146,-0.2477367434620857,-0.4180490325905382
1789141178319162000,2.994162109375,2.248174648109078,0.44024318261146544,-0.3532220113603398
1789141178329134000,3.004134033203125,2.0714087989270684,0.34417233386635776,0.08205646151583641
1789141178339106000,3.01410595703125,1.270205229255557,-0.03561258065104484,0.8963101034291088
1789141178349079000,3.0240791015625,0.06854162130653858,0.5468593907684087,0.4347943060884252
1789141178359051000,3.034051025390625,0.05248655856251716,0.08467267189621924,0.6279798500757664
1789141178369023000,3.04402294921875,-0.7484183204233646,-0.08262626076042652,0.5127064708737656
1789141178378995000,3.053994873046875,-1.1983674890130758,-0.4653425525546074,0.04972440037280321
1789141178388968000,3.063968017578125,-1.399849261778593,-0.23107436247467994,0.589779225692898
1789141178398940200,3.073940185546875,0.9453893377661704,-1.349790807145834,0.3098482221232727
1789141178408912000,3.083911865234375,0.7822732437521219,0.017077976050972936,0.027211174465343355
1789141178418884000,3.093884033203125,0.22343933755159376,-0.5027326642721891,0.693333708191663
1789141178428856000,3.10385595703125,0.27218729410767556,-0.49512394283413885,1.4083812355414032
1789141178438829000,3.1138291015625,1.247718672159314,-0.8449842592090367,0.4280857483604923
1789141178448801000,3.123801025390625,0.6352203957885504,0.1329419050246477,0.4364718473792076
1789141178458773200,3.133773193359375,-0.2405997311890125,-0.17947335457503794,0.25126773059982804
1789141178468745000,3.143744873046875,-0.23961773441433906,-0.18031038992106913,0.2545020728785545
1789141178478717200,3.15371728515625,-0.015572832185029983,0.6233674609094858,0.30789708805549887
1789141178488690200,3.163690185546875,-0.028624621459841727,-0.19104045825004576,0.5360001065691933
1789141178498662000,3.173661865234375,0.5492413174688816,-0.38280280103385445,0.40193624830991026
1789141178508634000,3.183634033203125,-1.1444523589521647,0.1137146419852972,1.0789762626960873
1789141178518605800,3.193605712890625,-0.43570963083505626,-0.8133744844585656,0.8461223233282565
1789141178528579000,3.2035791015625,-0.3294096490204334,-0.785975020879507,0.6198866330564021
1789141178538551000,3.213551025390625,-0.21820786663889882,-0.6306734000086784,0.0700107074784115
1789141178548523000,3.22352294921875,0.17998773383796213,-0.4559644833564758,0.09296553967352957
1789141178558495000,3.233494873046875,0.2245101816534996,0.22200667439997196,-0.025807079821079968
1789141178568467200,3.24346728515625,1.8503186548501251,-0.21478432193100452,-0.31057825343087314
1789141178578440000,3.25343994140625,0.7788204729497432,-0.0858557442009449,0.06584098404571413
1789141178588412200,3.263412109375,-1.5429694464683532,1.1628303116858005,0.9805037596367299
1789141178598383900,3.2733837890625,-1.8813889158964157,1.2221025848656892,0.5799930140852928
1789141178608356000,3.283356201171875,-0.6311410175204276,-0.6847042654037475,0.21447763060200958
1789141178618328000,3.293328125,-2.0488819098204374,-0.11988017887771128,-0.11135036053936928
1789141178628300800,3.30330078125,-2.449399815765023,0.44245150631070135,0.09310056423004716
1789141178638273000,3.31327294921875,-0.6137760412216187,-0.5233773928940296,-0.3722130179584026
1789141178648245000,3.323244873046875,0.5053396319001913,-0.5215834952145815,-0.09801811035536229
1789141178658217000,3.333217041015625,1.1614543471574783,0.19436872588992118,0.1604970706220716
1789141178668189000,3.34318896484375,1.2600631899476051,0.6164817930489778,0.32538379103783516
1789141178678162200,3.353162109375,0.9482903199046849,0.7547685662329197,-0.03870930455736816
1789141178688134000,3.3631337890625,1.2696166157126425,0.1460655904918909,0.27343177774343635
1789141178698106000,3.373106201171875,0.6350818641006947,0.09642331544458865,-0.7010753352943807
1789141178708077800,3.383077880859375,-0.8520312551110982,0.730558254083991,-0.7099485237102955
1789141178718051000,3.393051025390625,-0.8490753279149532,0.7286293318480253,-0.712470005011931
1789141178728023000,3.40302294921875,-1.2357599388182163,0.023454525345563887,-0.8390144640844315
1789141178737995000,3.4129951171875,-1.0235644643366337,0.03138064216971397,0.1352398432360962
1789141178747967000,3.422967041015625,-0.4049661175251007,-0.13333411921262742,-0.25589115261677653
1789141178757939200,3.432939208984375,0.1289998894006014,0.38223289219141005,-0.8753576970975846
1789141178767912000,3.442911865234375,0.7727011132866144,0.3341857773810625,-0.4709715714175254
1789141178777884000,3.4528837890625,1.1873445752173661,-0.0966699836820364,-0.4691037317190319
1789141178787856100,3.462856201171875,1.1858517063111067,-0.0956453168094158,-0.4691895103063434
1789141178797827800,3.472827880859375,0.09424772497117519,0.6562894873023033,0.2852253836506978
1789141178807800000,3.482800048828125,-1.0591168392330408,0.05320785857439041,0.5184583489313721
1789141178817773000,3.49277294921875,-1.1298515866696834,-0.3791676594018936,0.26534539232365784
1789141178827745000,3.5027451171875,-1.9786779082596302,0.4218506168305874,0.4468036736382171
1789141178837717000,3.512717041015625,-2.2285352971374985,0.17843582822084425,-0.5115614290244878
1789141178847689000,3.52268896484375,-1.4130331530004738,-0.7338263159692286,-0.07797087270263582
1789141178857661000,3.532660888671875,-0.22787176704108714,-0.09381050259768962,-0.02389909077528864
1789141178867634200,3.54263427734375,0.6797673935234546,0.2542640994042158,0.309653539801389
1789141178877606000,3.55260595703125,2.111386589050293,-0.6062105744034052,-0.2546056428508833
1789141178887578000,3.562578125,1.7140099037408827,0.648777796497941,-0.20077727775797247
1789141178897550000,3.572550048828125,0.9799369195342064,0.4286164577037096,-0.4853884385004639
1789141178907522800,3.582522705078125,0.6184107152849435,0.32157179500162597,-0.8061471635535359
1789141178917495000,3.5924951171875,0.31675533463060856,0.34232232208549973,-0.8164356255948543
1789141178927467000,3.602467041015625,-1.0076251369267701,-0.004580898049473763,-0.39155484728813167
1789141178937439000,3.61243896484375,-1.6197715311199425,-0.38222646245062347,-0.13863788817655295
1789141178947411000,3.622410888671875,-1.1986246786445378,-0.36536651306450363,-0.10332819946222006
1789141178957384200,3.63238427734375,-1.1981132219910622,-0.36624563398659227,-0.09176792738679795
1789141178967356000,3.64235595703125,0.06601707126498221,-0.23248481379449365,-0.3740308445027098
1789141178977328000,3.652328125,1.0108248097509145,-0.5200935489177704,-0.35716051985304803
1789141178987299800,3.6622998046875,0.615910715162754,-0.18058862234055995,0.03699059100598097
1789141178997272000,3.67227197265625,1.4280103573799132,-0.8003899152010678,-0.106979305848293
1789141179007245000,3.6822451171875,1.4026210645794868,0.1126513966679573,0.4495162935977801
1789141179017217000,3.692217041015625,0.3118319067537784,0.2842541639983654,0.09381726113203913
1789141179027189000,3.70218896484375,-0.7414414671480655,-0.276446120595932,-0.14895809706300497
1789141179037161200,3.7121611328125,-0.3716898708671331,-0.6896838073819875,0.41189595332089807
1789141179047134000,3.722134033203125,-0.5764946505755185,0.14605565361976622,0.02213339627701789
1789141179057106000,3.73210595703125,-0.8583399998664856,0.18610358636975288,-0.3514426171302795
1789141179067078100,3.742078125,-0.09427636654376984,-0.6071510701239109,1.0169771949008106
1789141179077049900,3.7520498046875,0.3349707902789116,-0.27009119861125946,0.48969669362101703
1789141179087022000,3.76202197265625,1.2240396904081106,0.11520984897911547,-0.5375531812300905
1789141179096995000,3.7719951171875,1.1365630670070648,0.12050737086534499,0.20770298536792398
1789141179106967000,3.781967041015625,1.124669215595722,-0.0064256491333246225,0.34326614227425306
1789141179116939000,3.79193896484375,1.0748971766889095,-0.5336825138092041,-0.07342530169487
1789141179126911000,3.801910888671875,0.0037602293163537977,0.04037351144254207,0.7589040586024522
1789141179136883000,3.811883056640625,-0.4067822270363569,0.4872989482969045,0.703007545465976
1789141179146856200,3.821856201171875,-0.4031207819193601,-0.2102788272053003,-0.03295227540060878
1789141179156828000,3.831827880859375,-0.6949322294294834,-0.6446656850039959,0.3454490027386695
1789141179166800100,3.841800048828125,-0.620008213609457,-0.4756237080723047,0.07348543438427149
1789141179176772000,3.851772216796875,-0.6398959863841533,0.05538052643835544,-0.30450258677899833
1789141179186744000,3.861744140625,-0.6391255865335465,0.1766518674135208,-0.09399119292683898
1789141179196717800,3.8717177734375,0.9030167614609003,-0.4285474841207266,-0.3681822280723601
1789141179206689500,3.881689453125,0.9095616530597209,-0.4922241297394037,-0.19364348035529255
1789141179216661800,3.891661865234375,0.20269757829606533,0.09794833305478096,-0.6194158737394958
1789141179226633500,3.901633544921875,0.22000994762480258,0.002423427754640579,-0.6886234116088599
1789141179236605700,3.911605712890625,0.7712637739598751,-0.2744055546790361,-0.7741710397087037
1789141179246578700,3.92157861328125,0.912694690388441,0.034874914026260376,-0.9794646989125758
1789141179256550700,3.931550537109375,-0.32628421047627926,1.6977105108469723,0.04719437043853104
1789141179266522600,3.941522705078125,-0.27388123854398727,1.1661451353222132,-0.019593612133711576
1789141179276494800,3.951494873046875,-0.5736626420199871,0.7780822218030691,0.19628778431899843
1789141179286467600,3.961467529296875,-0.5691337664186954,0.7739543282181024,0.2057616420418024
1789141179296439600,3.971439453125,-3.3959365700006483,1.4566612823247909,0.6670696053180843
1789141179306411800,3.981411865234375,-1.9149486556708812,-0.5310094952076673,0.6363909739378839
1789141179316383500,3.991383544921875,-1.584663977381587,-0.8214671900212764,1.0795965865515171
1789141179326355700,4.001355712890625,-1.3004384549558161,-0.79900576736629,1.0837651044078171
1789141179336328700,4.01132861328125,-0.5202537079155445,-0.3067436437040567,0.5232991400260478
1789141179346300700,4.02130078125,1.396203014230728,-0.21337913130819797,0.7755666587855666
1789141179356272600,4.031272705078125,1.1628174522042274,0.4808142624527216,0.455765965109691
1789141179366244600,4.04124462890625,-0.1133878942489624,0.9641238488525151,1.6951105574816465
1789141179376216600,4.051216552734375,-0.4389040429621935,0.28759879825115203,2.2728546235963702
1789141179386189800,4.06118994140625,-0.8006073573440313,-0.489827005469799,0.8956439676705747
1789141179396161500,4.07116162109375,-0.9386474622905254,-0.19398820213973522,0.6006344547715038
1789141179406133800,4.0811337890625,-1.0803946050614117,0.39170390037000175,1.062042005964741
1789141179416105700,4.091105712890625,-0.6821119108229875,-0.7548755337387323,0.25586320516392586
1789141179426077700,4.10107763671875,0.48061318692266936,-0.8141875544071197,0.15973602312169968
1789141179436050700,4.11105078125,0.23467735540270804,0.352708107021451,-0.07292232060879468
1789141179446022700,4.121022705078125,1.4963152473211287,-0.3460539098292589,-0.8035328163366764
1789141179455994600,4.13099462890625,1.2052794603586197,0.33001404465436934,0.3442486870381981
1789141179465966600,4.140966552734375,0.7904910369992255,0.3214712572365999,0.08901450049281119
1789141179475938600,4.1509384765625,0.7466051335215568,-0.3303349471718073,0.6507427398953587
1789141179485911600,4.16091162109375,0.19034487720131874,0.5517272890657187,0.9530007626179605
1789141179495883800,4.1708837890625,-1.0134399606853723,0.45496845805644986,0.6257905233379453
1789141179505855500,4.18085546875,-0.8852747685432434,-0.06447276443243026,0.3171054632425308
1789141179515827700,4.19082763671875,-0.38657588983178137,0.29762393318116664,0.06990991398505866
1789141179525800700,4.20080078125,-0.3562462180197239,0.04206862492263317,-0.08888890135176479
1789141179535772700,4.210772705078125,0.07783551935255527,0.005022212076187134,-0.8990067951671779
1789141179545744600,4.22074462890625,0.5922586214184761,0.00003507131338119507,-0.39036322635076937
1789141179555716900,4.230716796875,1.1067407601952552,0.37092297814786435,-0.6009929858855902
1789141179565688600,4.2406884765625,1.4293191018909215,-0.6156120244771242,-0.5175751363560557
1789141179575661600,4.25066162109375,0.9653478376895188,-0.7721931637644768,0.5085624664042144
1789141179585633800,4.2606337890625,0.7854162179529667,-0.2684855169802904,-0.17012140619885174
1789141179595605500,4.27060546875,0.5207277551680803,-0.2952291469991207,-0.40952009103503073
1789141179605577700,4.28057763671875,-0.28843349550962444,0.16709610356092452,-0.2954540783287957
1789141179615549400,4.290549560546875,-1.1461036332905292,-0.13781038784384728,-0.24359529627580195
1789141179625522700,4.300522705078125,-1.1453121906518935,-0.13659165970385073,-0.2735125148294493
1789141179635494700,4.31049462890625,-0.7239128247201442,-0.5586603031992912,-0.8927044801525771
1789141179645466600,4.320466552734375,0.47200902470648287,-0.5664812060832977,-0.7436554168704896
1789141179655438600,4.3304384765625,0.9679331780076026,-0.5821008000195026,-0.6619899639662354
1789141179665410800,4.340410888671875,0.9987368970721959,-0.32236616024971004,-0.9200186766009777
1789141179675383600,4.350383544921875,1.8709376645088194,0.20772329750359056,-0.576282359531708
1789141179685355800,4.360355712890625,1.3101625611126422,0.023660277050733564,-0.4921641066478565
1789141179695327700,4.37032763671875,0.4720546174138784,-0.2875613888502121,-0.5946498274039477
1789141179705299700,4.3802998046875,-2.6077842050820585,1.2874077084690332,-0.5321552311766893
1789141179715272700,4.390272705078125,-2.4984505546599625,0.40260640265643594,-0.8285005957894027
1789141179725244700,4.40024462890625,-1.150236787572503,-0.3477525304406881,-1.2126760734159499
1789141179735216600,4.410216552734375,-1.195215162461996,0.0578396100282669,-0.8189872097738087
1789141179745188600,4.420188720703125,-0.6078811379641295,0.4115279602587223,-0.5810536655867472
1789141179755160600,4.43016064453125,0.33833880540728567,0.21880700157582758,-0.4966602855559438
1789141179765133600,4.440133544921875,2.3935166005015374,-0.8010434106737375,0.08369239215459674
1789141179775105800,4.450105712890625,2.164154887163639,-0.6310170988798142,0.6613339112102985
1789141179785077500,4.460077392578125,2.1704496033936738,-0.6353174264222383,0.6370570366311818
1789141179795049700,4.4700498046875,-1.1376806728601454,1.335178344425559,-0.29488588651940223
1789141179805021700,4.480021728515625,-0.259405553945899,0.5643143834382295,-0.027755104049737564
1789141179814994700,4.48999462890625,-0.6496259377598762,0.09498305350840092,-0.6640290685784072
1789141179824966700,4.499966552734375,-1.5750059221982955,0.6614362025409937,-1.0162773760683834
1789141179834939000,4.50993896484375,-2.7284499813795087,0.4808090017557144,-0.44968620680458843
1789141179844910600,4.51991064453125,-0.7566916432499885,-0.8856342495054006,-1.1295099336251615
1789141179854882800,4.5298828125,0.09418108947575092,-0.5661141263365745,-0.5741281771725043
1789141179864855800,4.539855712890625,-0.7099222932904958,0.10304185680150985,0.006709525842312723
1789141179874827500,4.54982763671875,0.5976140109717846,-0.3466396007627249,-0.006548380463849752
1789141179884799700,4.5597998046875,0.9592764088213444,-0.0361982715845108,-0.6491118507578969
1789141179894771500,4.569771484375,0.8002659965604543,-0.13882336427867412,-0.03948755892086774
1789141179904743700,4.57974365234375,-0.985064345550537,-0.022293080350756642,-0.48364692859537894
1789141179914716700,4.589716552734375,-1.3413707693248986,-0.25136837796270844,-0.7233132513917983
1789141179924688600,4.599688720703125,-0.7727560583442449,-0.5044546657592058,-0.18353152565835043
1789141179934660600,4.60966064453125,-1.6786498365461826,0.6750964791029691,-0.7198809388555586
1789141179944632600,4.619632568359375,-0.41704526237547396,0.9142992029756307,-1.2460820108681916
1789141179954605600,4.62960546875,0.5131716407001018,0.7877373543769121,-0.4850135407734662
1789141179964577800,4.639577880859375,1.2969956210255622,0.49982174526154993,-0.5886602681329474
1789141179974549500,4.649549560546875,1.4411211833655833,0.28757950902879237,-0.5645672987533733
1789141179984521700,4.659521728515625,1.4015595728278158,-0.4168395106703043,0.4133705193854868
1789141179994493700,4.66949365234375,1.1546616182774305,-0.7572925317525864,0.2685632583916187
1789141180004466400,4.679466552734375,-0.11407295390367507,-0.49980245603919027,0.0653068041037768
1789141180014438700,4.689438720703125,-1.616488271665573,0.09288403540253638,0.458290734346956
1789141180024410600,4.69941064453125,-2.272923889440298,0.2632861947715282,0.3134463562130928
1789141180034382600,4.709382568359375,-2.469316230112314,0.645071927717328,0.451981405069679
1789141180044354600,4.7193544921875,-1.0861071374893188,-0.021062077251076696,0.34112752281036224
1789141180054327800,4.729327880859375,-0.3523936342447996,0.18017068918943405,-0.09222106884862295
1789141180064299500,4.739299560546875,0.0206786308914423,0.17948329144716263,-0.5019170735729858
1789141180074271700,4.749271728515625,0.9548913256049155,-0.43888300017416476,-0.9591538784202188
1789141180084243500,4.759243408203125,1.613271063184738,-0.7077075398504734,-0.47167526270747184
1789141180094215700,4.769215576171875,0.8500006260663271,0.21122692171037197,-0.4236856137054041
1789141180104188700,4.779188720703125,0.7822644759237766,-0.24204934547543525,-0.6369133173115551
1789141180114160600,4.78916064453125,0.6835428204089403,-0.3700175537407398,-0.21695938268145545
1789141180124132600,4.799132568359375,1.3399842834025621,-0.5690472571790218,-0.942075610108301
1789141180134104800,4.809104736328125,0.035894904723763464,-0.1401443837493658,-0.7107919887971132
1789141180144076500,4.81907666015625,0.4036918598055839,-0.47580900151133537,0.06979516503158956
1789141180154049500,4.829049560546875,-0.27607728728353975,-0.44618484762012955,-0.024249347251374273
1789141180164021800,4.839021728515625,-0.7162053190827369,0.08054536283314227,-0.04052501220982521
1789141180173993500,4.848993408203125,-0.02334463523030281,-0.6426122596055269,-0.13506987523036076
1789141180183965700,4.858965576171875,0.056709729215502734,-1.2732856596142053,-0.7733924565516411
1789141180193937400,4.8689375,-0.5218628966778517,-0.6711474492162466,-0.07568847912019118
1789141180203910400,4.878910400390625,-0.4927952076256275,-0.39793607275784015,0.6350163245838135
1789141180213882400,4.88888232421875,1.503733999145031,-0.8372183013826608,-0.143949283324508
1789141180223854300,4.898854248046875,0.9604162265062332,-0.6189338623762131,0.23827835730304942
1789141180233826300,4.908826416015625,0.26095161434412,0.36933132504224775,0.22749456775914875
1789141180243799600,4.918799560546875,0.3524889113128185,0.600757569694519,-0.07244599006762728
1789141180253771300,4.928771240234375,0.4614554819881916,0.22544833928644656,-0.8249825046658515
1789141180263743500,4.938743408203125,-0.19121523029506204,0.06817454155981541,-0.48020979375354944
1789141180273715500,4.948715576171875,-0.3110276046335697,0.4583873265892267,-0.3257641321249306
1789141180283687400,4.9586875,-0.4052940343052149,0.17394903819561003,0.2529219458139501
1789141180293660400,4.968660400390625,-0.4073334311783314,0.1749924097687006,0.265426878328342
1789141180303632400,4.97863232421875,0.5592693750083446,-0.8318675880044698,0.7550866192061454
1789141180313604400,4.988604248046875,0.25363866098225113,-0.3508972582072019,-0.8562710846379399
1789141180323576600,4.99857666015625,-0.11465046153068542,0.5990683014333248,0.29429433210073036
1789141180333548300,5.00854833984375,0.005896656823158264,0.8752619085729122,-0.5406184505522251
1789141180343521300,5.018521240234375,-0.005108136793971062,0.26730478276312347,-1.0349590609889476
1789141180353493500,5.028493408203125,-0.7168366027235984,-0.15439327385425566,-1.2294561624988913
1789141180363465200,5.03846533203125,-0.5627180541574954,-0.45760523630082606,-0.3445402173306793
1789141180373437400,5.0484375,-0.5621516524463892,0.13334054895341396,-2.0610636382624508
1789141180383409400,5.058409423828125,0.14448562782406807,-0.08291618361771107,-1.9038529688999055
1789141180393382400,5.06838232421875,-0.42694063344597816,0.29720833811759945,-0.36445385519899426
1789141180403354400,5.078354248046875,-0.5505822106838226,0.28333704915344715,-1.1195675085425376
1789141180413326600,5.08832666015625,0.38086920262277124,-0.05062368730008602,-0.2785405355919152
1789141180423298300,5.09829833984375,-0.021739538121223447,0.03091536274552345,0.1959945369934663
1789141180433270500,5.1082705078125,-0.40307168208062644,0.14469196405112741,0.08225611227378249
1789141180443243500,5.118243408203125,-0.009821721312403678,-0.2986269727438688,-0.4176558685544878
1789141180453215500,5.128215576171875,0.23932255086004733,-0.04140811518728733,-0.3070796707253903
1789141180463187500,5.1381875,-0.19324469029605387,0.28601182132065295,-0.7961493550218641
1789141180473159400,5.148159423828125,-0.842671306091547,0.3360989175260067,-0.5022367339814081
1789141180483132400,5.15813232421875,-0.13003507766723632,0.0804442405462265,-0.10200305180568248
1789141180493104400,5.1681044921875,-0.5113163682222366,0.33413901562988757,0.16120609567426145
1789141180503076400,5.178076416015625,-1.0781997253656386,0.6431997041046619,-0.031104017185419795
1789141180513048300,5.18804833984375,-0.99718148432374,0.4759375963270664,-0.22159889731667934
1789141180523020500,5.1980205078125,0.2789642408967018,-0.007176759761571884,-0.02194463223926723
1789141180532993300,5.2079931640625,1.1561235075235365,-0.03314005305767059,-0.3281465702820569
1789141180542965500,5.217965576171875,1.282590663576126,0.24807050546109674,0.3093528032891452
1789141180552937500,5.2279375,0.37608196834623814,0.5810381392240523,-0.1611552422698587
1789141180562909400,5.237909423828125,-0.7942693864941597,0.9593278467476367,0.5508095896989107
1789141180572881400,5.24788134765625,-1.0777484744668007,0.25088030218482016,0.13277001905646174
1789141180582854400,5.2578544921875,-1.770755873313546,0.41265901011526585,0.6374411405779421
1789141180592826400,5.267826416015625,-2.103269918090105,-0.023870704931020736,-0.05371493131369352
1789141180602798300,5.27779833984375,-1.2762749045580626,-0.22265666274130344,0.1319562549881637
1789141180612770300,5.287770263671875,-0.3599468261033296,-0.5378232668757439,-0.3978152959223836
1789141180622742500,5.297742431640625,0.5807505544543266,-0.25859423756301403,-0.7678992659628391
1789141180632715500,5.307715576171875,1.040490464696288,-0.10851531977653503,-0.8901746694140136
1789141180642687200,5.317687255859375,1.5343676223397253,0.08782967462241649,-0.4214709333306178
1789141180652659500,5.327659423828125,0.012673019090294836,1.0235475132018328,-0.0791866051679477
1789141180662631400,5.33763134765625,1.064823526442051,-0.03068096946775913,-0.2676189267462119
1789141180672603400,5.347603271484375,0.45313598193228244,-0.6995271560043096,-0.0823087923090905
1789141180682576400,5.357576416015625,-0.7747615529477596,0.7101841590970754,-0.40634405481480057
1789141180692548600,5.367548583984375,-0.7725169888913631,0.10917115333676337,-0.5218037138365209
1789141180702520300,5.377520263671875,0.4196621668756008,-0.9060112671017646,-0.8690663418684155
1789141180712492500,5.387492431640625,0.3312058847874403,-0.4544108241736889,-1.0054966004654764
1789141180722464300,5.39746435546875,-0.7143962238341569,-0.3539689207375049,-0.06015994273461401
1789141180732437200,5.407437255859375,-0.06042319678068161,0.204458742749691,-0.09889686595126986
1789141180742409500,5.417409423828125,-0.7749965307474136,0.5382587356835603,-0.5754881038814783
1789141180752381400,5.42738134765625,-0.23086744172573087,-0.018480244064331054,-0.10418397604133933
1789141180762353400,5.437353515625,1.5003081163495777,-0.7636059526830912,0.021738515207916496
1789141180772325600,5.44732568359375,2.0414625734746457,0.25190029288232324,0.004167312279902398
1789141180782298400,5.45729833984375,1.730138031721115,0.06878595145642757,0.8550530140850693
1789141180792270300,5.467270263671875,0.6338584597855806,-0.3147358115017414,0.32583025616370137
1789141180802242300,5.4772421875,0.04755202476978302,-0.5251958404928445,1.366122348743677
1789141180812214300,5.48721435546875,-1.3383137198418378,0.2644856336891651,1.5402435286357998
1789141180822187500,5.4971875,-1.611471320286393,-0.5797790790736675,1.1167505514256655
1789141180832159200,5.5071591796875,-1.0165081160843372,-0.9085095136582851,1.4483024731718004
1789141180842131500,5.51713134765625,-0.9371738826066255,-0.7174070960879325,1.6482964915975928
1789141180852103400,5.527103515625,-0.5121966581881046,-0.5109136326402426,1.133659235324338
1789141180862075400,5.537075439453125,0.3475491168230772,0.048263387909531594,0.6784556533377617
1789141180872048400,5.54704833984375,1.0002069696247577,0.2284358306646347,-0.2133624724343419
1789141180882020400,5.557020263671875,2.482692429035902,-0.596020604300499,0.7152426115304231
1789141180891992300,5.566992431640625,0.655499213707447,0.2755547247141599,0.671360726640746
1789141180901964500,5.576964599609375,0.2690788066983223,0.9084937315672635,0.264371907649003
1789141180911936300,5.586936279296875,0.6263520296782255,0.15462942069768904,0.8665336815856397
1789141180921909200,5.5969091796875,-0.08733458458185195,0.07888707423210144,0.28649737634789196
1789141180931881500,5.606881591796875,-0.9619032501935958,0.1316612175643444,-0.04164060876891017
1789141180941853200,5.616853271484375,-1.0782423954635858,-0.5949345626294612,-0.38990207511242475
1789141180951825400,5.626825439453125,-0.5845984620541333,-0.523076364120841,-0.964886942179501
1789141180961797400,5.63679736328125,-0.585538957774639,-0.5225006100594997,-0.9634867199927568
1789141180971770400,5.646770263671875,0.539128504255414,0.0680833561450243,-0.40458942969981576
1789141180981742300,5.656742431640625,0.6219184311449527,-0.3869698575854301,-0.5945341286024078
1789141180991714600,5.666714599609375,-0.03928337811827659,0.09639467387199402,0.24465455953776835
1789141181001686300,5.676686279296875,-0.1179454114228487,-0.14222119002342223,-0.61608607172966
1789141181011658500,5.686658447265625,-0.6547071865469217,-0.17436755586862562,-1.0554407810688018
1789141181021631500,5.696631591796875,0.0756383015692234,-0.7652075426608324,-0.5318436444768682
1789141181031603500,5.706603515625,-0.9702753572195768,0.0596393529266119,-0.9306942382637411
1789141181041575400,5.716575439453125,-0.14907061752676962,0.1571761825710535,-0.7193249124079942
1789141181051547400,5.72654736328125,0.3914811975300312,-0.1177314764112234,0.4526747941613197
1789141181061519400,5.736519287109375,0.23866730182170867,-0.093293200725317,0.21045842155590652
1789141181071492400,5.746492431640625,0.34997137553393837,0.30924890452325343,0.14044720262084157
1789141181081464300,5.75646435546875,1.1438222443550825,-0.05327215598225593,0.38374358901530503
1789141181091436300,5.766436279296875,0.5697054288268089,0.2927268087893724,0.5400594649625942
1789141181101408500,5.776408447265625,-0.22809271631538866,0.45302024659812445,0.6716199620988219
1789141181111380200,5.786380126953125,-0.7043833638638257,0.1609317357122898,-0.15078049018457532
1789141181121353500,5.796353515625,-1.6503718365669249,-0.03844108207523823,0.3787257973859086
1789141181131325400,5.806325439453125,-2.1842308759868145,0.6200321790069341,0.7046247714042663
1789141181141297400,5.81629736328125,-1.864071870392561,0.19398177239894865,0.39884138756711035
1789141181151269400,5.826269287109375,-1.0090385108560322,-0.3149655286043882,0.33399387153815474
1789141181161241300,5.836241455078125,-0.9974304906487464,0.1151788693189621,0.5741286886291578
1789141181171214300,5.84621435546875,-0.4676163427054882,0.4316822750151157,-0.013297032740153371
1789141181181186600,5.8561865234375,1.2827695272743702,-0.05470423461198806,0.29111400329787285
1789141181191158300,5.866158203125,0.9558616319417953,0.48606794519722457,0.6056685399485752
1789141181201130000,5.8761298828125,1.091770570078492,0.05769464859962463,0.5637989447293803
1789141181211102000,5.88610205078125,0.352180283755064,0.37055531387925145,0.5823753061119467
1789141181221075000,5.896074951171875,0.35640462345182894,0.3674339669883251,0.5860455555899068
1789141181231047000,5.906046875,-0.5735241103321314,0.4556201999634504,0.014178564815036952
1789141181241019100,5.91601904296875,-0.5290998621940612,-0.08161912954449653,-0.09317962081562726
1789141181250990800,5.925990966796875,-1.3944751675248146,0.5821621748179197,-0.3529344631232321
1789141181260963800,5.9359638671875,-1.5275766470253467,0.06123159055411815,-0.2839822517218068
1789141181270936000,5.94593603515625,0.13146306464374063,-0.46151685678660864,-0.7806007804952562
1789141181280907800,5.95590771484375,0.6403560051113367,-0.5202057771205901,-0.7583350265428423
1789141181290880000,5.9658798828125,0.5736895300269127,-0.7073188327938318,-0.3805359155477956
1789141181300851700,5.975851806640625,0.9477385312408209,0.3642401393830776,-0.3990868502281606
1789141181310825000,5.985824951171875,1.3435925370275974,-0.04816343466639519,-0.20915091915391384
1789141181320797000,5.995796875,0.7133803247898817,0.15217209067344664,-0.5034122805668041
1789141181330769000,6.005768798828125,-0.21104981157779693,0.13005845854282377,-0.16889292384982107
1789141181340740900,6.015740966796875,-0.6031663844019174,-0.08824585420787334,0.4737549550583586
1789141181350713000,6.025713134765625,-0.49681321109533305,-0.6784504657059908,-0.038359723934717475
1789141181360685800,6.035685791015625,-0.11842939554750918,-1.0327677614897488,-0.21391901033855973
1789141181370658000,6.045657958984375,-0.3729997844219208,-0.5399164397627115,0.06043605626225471
1789141181380630000,6.055630126953125,0.5022118552684783,-0.3549433187276125,-0.697095398812741
1789141181390602000,6.06560205078125,0.6697983726948499,0.935984965083003,-0.1704753707356751
1789141181400574000,6.075573974609375,1.7388433162242174,0.16399755302369592,-0.2182548110531643
1789141181410546700,6.085546630859375,1.5804869839578866,-0.27889935896694656,-0.08507310592327266
1789141181420519000,6.095518798828125,0.6005751988649368,0.10210486821234226,0.0020603665959089993
1789141181430491000,6.105490966796875,0.07848024699687957,-0.09219196148514747,-0.6701631143540143
1789141181440462800,6.115462890625,0.042320553857088085,-0.5867781441807747,-0.25744817280042914
1789141181450434800,6.125434814453125,-0.806253254276514,-0.5232072970241308,0.2372377804752439
1789141181460408000,6.135407958984375,-1.126200662946701,-0.2529261287987232,-1.0691400014016776
1789141181470379800,6.1453798828125,-1.1244260544896125,-0.2549222710520029,-1.0591589978743343
1789141181480352000,6.15535205078125,-0.1753004528045654,0.34784254681169985,0.39043672997839746
1789141181490323700,6.16532373046875,0.4712058916300535,0.3862339445263147,-0.798115394397825
1789141181500296000,6.1752958984375,0.19445815773904324,0.18534195434749126,-0.6299593334551901
1789141181510269000,6.18526904296875,0.5037205062657595,0.15760463711619377,-0.28690168283246453
1789141181520241000,6.195240966796875,0.14653262348175047,0.15466273844540118,-0.4709021594431251
1789141181530212900,6.205212890625,-0.21988135280907153,-0.5851110877513885,0.11768551837764679
1789141181540185000,6.21518505859375,-0.646752428150177,0.05105214184522629,0.29073073960132895
1789141181550156800,6.22515673828125,-0.7539853069007396,0.15319441945850848,0.28193090868256987
1789141181560129800,6.2351298828125,-0.8802432041168212,0.15730536190867422,0.2745516851514578
1789141181570102000,6.24510205078125,-0.6038280631810427,-0.20901684444546698,0.2919927954263985
1789141181580073700,6.25507373046875,-0.29579730227589607,-0.3141828537940979,0.31330563256815075
1789141181590046000,6.2650458984375,0.3900210618495941,-0.39646307759582994,-0.8667117415662854
1789141181600017700,6.275017578125,0.6350865402758121,0.4785048164665699,-1.0738353926762938
1789141181609991000,6.284990966796875,0.8668880479812622,0.12413783632218837,0.013531316420063376
1789141181619963000,6.294962890625,0.7793471271723509,-0.3887304375171661,-0.5288201684698463
1789141181629934800,6.304934814453125,0.7822942865401507,-0.39145197143554683,-0.5215743620600551
1789141181639906800,6.31490673828125,-0.8961118043780326,0.3932002764075994,0.4870036916773766
1789141181649879000,6.324879150390625,-0.7493418650090694,-0.5927005199670792,0.8286547634378075
1789141181659851800,6.334851806640625,0.04894786304235458,-0.5880833815604448,0.918177797974646
1789141181669824000,6.344823974609375,-0.5931430030375718,0.4526660263329744,0.8588030142683535
1789141181679796000,6.3547958984375,0.10453589475154876,0.15269465324282644,0.36639855952598155
1789141181689768000,6.364767822265625,1.3853952044904232,-0.4023907140791416,0.8491755734190344
1789141181699741000,6.374740966796875,0.8511667472362517,-0.21180150672793388,1.2051632866330444
1789141181709713000,6.384712890625,0.9325725262910127,-0.009439443996548651,1.2733803521603344
1789141181719684900,6.394684814453125,0.935738881367445,-0.01239186406135559,1.2806295926362274
1789141181729656800,6.40465673828125,0.5844131686151027,-0.3514648289620876,1.9420697406999765
1789141181739628800,6.41462890625,-0.10552373674511908,0.30710955440700055,0.7817889673665166
1789141181749601800,6.424601806640625,-1.1019289759993554,0.7894546796888112,0.9457321598544717
1789141181759574000,6.434573974609375,-2.1208932530641555,0.6583832447111606,1.1271231846190988
1789141181769545700,6.444545654296875,-1.115948733523488,-0.3164700879484415,0.60975423835963
1789141181779518000,6.45451806640625,-2.215983274078369,0.29703122798502446,0.3211063694469631
1789141181789490000,6.464489990234375,-1.4217688326418398,-0.24122166247963903,0.49631914396807547
1789141181799463000,6.474462890625,-1.3671230502188205,0.09107669371962547,0.4675503647971898
1789141181809435000,6.484434814453125,-0.15359189434349535,-0.07834931409358978,0.6365561744369566
1789141181819407000,6.494406982421875,0.6547463495135307,-0.168010880318284,0.7336414609216153
1789141181829378800,6.50437890625,1.1040578047215939,0.5276484943419695,0.2450241235025227
1789141181839351000,6.51435107421875,1.2674550537645817,0.655911301639676,0.7394293966732919
1789141181849324000,6.524323974609375,1.2847680076152086,-0.2886410007804632,0.17865991930030287
1789141181859295700,6.534295654296875,-0.19540566772222517,0.6880775412291288,-0.2937372279409319
1789141181869268000,6.54426806640625,-1.0141542464345692,0.7101631163090467,-0.04379859052039683
1789141181879239700,6.55423974609375,-0.7771820580929517,-0.28124504531025885,-0.11331219866424798
1789141181889212000,6.5642119140625,-0.25682079814970493,-0.7961030316621065,-0.3922933906957507
1789141181899185000,6.574184814453125,-0.8430699500203133,-1.134977259120345,0.36356655097045004
1789141181909156900,6.584156982421875,-0.1716454374283552,-0.7093079607844353,0.16511099415831268
1789141181919128800,6.59412890625,0.5774889223098755,0.10262567721605301,0.14900383590087293
1789141181929101000,6.60410107421875,1.2095686819851397,0.15559095920622348,0.32413682318404313
1789141181939072800,6.61407275390625,1.5812912860780954,0.07142857491970062,-0.10217698360048234
1789141181949046000,6.6240458984375,0.46025428950488567,0.360761065095663,0.4459234932702034
1789141181959018000,6.63401806640625,0.14221534480452536,0.23947218846380708,0.7041426869757473
1789141181968990000,6.643989990234375,0.6350894628852606,-0.5539373663306236,0.3174181824535131
1789141181978962000,6.6539619140625,0.13151859422326087,0.15796119546890258,0.6242533038333058
1789141181988934000,6.663933837890625,-0.6372603771835565,0.12619535337388516,0.6534216767810285
1789141181998907000,6.673906982421875,-0.3759463592678308,-0.4985340435385704,1.2028197191815824
1789141182008878800,6.68387890625,-0.2085463043242693,0.003729834178090095,1.6396858996406196
1789141182018850800,6.693850830078125,-0.08469488372802735,-0.07373451377451419,0.8724779769428074
1789141182028822800,6.70382275390625,-0.2876899836659431,-0.6299895093977451,0.5381518412429839
1789141182038795000,6.713794921875,0.1179237841129303,-0.9273317030280828,0.06744622728526592
1789141182048767700,6.723767822265625,-0.5852659860521554,-0.032627427360415455,0.5374204582285136
1789141182058740000,6.733739990234375,0.11301380023956298,-0.4339467128157615,0.7443537013329565
1789141182068712000,6.7437119140625,0.8101397403210401,-0.4089730150789022,0.3944710269957781
1789141182078684000,6.753683837890625,1.0366729522347449,0.16374737765491007,0.36227716874703764
1789141182088656000,6.76365576171875,0.3150882782012224,0.670592737942934,0.5402388035848736
1789141182098629000,6.773629150390625,0.780066673618555,0.7504910350441932,-0.04085881074145436
1789141182108600800,6.783600830078125,0.2914069583624601,0.44248657762408256,0.6478572475869209
1789141182118573000,6.793572998046875,-1.7810662549257277,0.15219371798336506,-0.1500170315314084
1789141182128544800,6.803544677734375,-1.2101771692723036,-0.33525954409241676,-0.4578999814637005
1789141182138517000,6.81351708984375,-1.4000304635643959,-0.5782774423390626,-0.2951291937559843
1789141182148490000,6.823489990234375,-1.5428607253968716,-0.2960691049546003,-0.1714321600038558
1789141182158461700,6.833461669921875,-1.0366004715204238,-0.48861762968003747,-0.3898627294827252
1789141182168434000,6.843433837890625,0.6981336558192968,-0.8609329389691353,-0.5256858890321106
1789141182178406000,6.853406005859375,0.6817781488239765,-0.053610594156384465,0.2704680690996349
1789141182188377900,6.8633779296875,1.0150918195456267,0.40603696162700653,0.012326762935891748
1789141182198351400,6.873351318359375,0.9985194549292326,0.4115332209557295,-0.3917239202447235
1789141182208323600,6.883323486328125,0.8314309501528739,0.19468845936357973,-0.22522702468596398
1789141182218295300,6.89329541015625,0.8339245205342769,0.1939490391731262,-0.23759565400220453
1789141182228267500,6.903267578125,-0.07697218052148819,1.2121224581211805,-0.19776699002608655
1789141182238239500,6.913239501953125,-0.4460884015083313,0.6198118142545223,-0.15385357748698442
1789141182248212200,6.923212158203125,-1.302977033522725,0.12040975570976734,0.6643983402822167
1789141182258184400,6.933184326171875,-0.7160498362600803,-0.41906829263567924,0.614945523392409
1789141182268156400,6.943156494140625,-0.6282856280893087,-0.15781974117159842,-0.033525545243918896
1789141182278128400,6.95312841796875,-0.8400169921904802,0.48341129320859905,-0.0262866069663316
1789141182288101400,6.963101318359375,-0.8411451194375753,0.48523266341686244,-0.042115569336898626
1789141182298073600,6.973073486328125,0.296401697909832,-0.431476523309946,0.10913264795728027
1789141182308045300,6.98304541015625,-0.47511751211583614,0.4325941291630268,-0.062191594692692156
1789141182318017500,6.993017578125,-1.0729466271430252,0.7625286788403988,0.2803359311087057
1789141182327989200,7.0029892578125,-1.1523866590827703,0.3951706996977329,-0.10831844549756496
1789141182337962500,7.01296240234375,-1.2709236066579819,0.1779851618438959,0.12026961658671498
1789141182347934500,7.0229345703125,-1.3396926069796085,0.5602864430963993,0.33569358812812716
1789141182357906400,7.032906494140625,-1.2092413497269152,0.9073293639630079,-0.057336227083392435
1789141182367878400,7.04287841796875,0.4043769194602966,0.12014379824995994,-0.0020541925834491846
1789141182377850600,7.0528505859375,0.22741759353280067,-0.36721360223591326,-0.0915629793992266
1789141182387823400,7.0628232421875,0.7327431969076394,-0.4325970517724752,-0.3778240262405947
1789141182397795300,7.07279541015625,0.38060441420674324,-0.2436380759716034,-0.22160759207978845
1789141182407767600,7.082767578125,0.3649637774825096,-0.9780372233927249,-0.1008136593580246
1789141182417739300,7.0927392578125,0.6162637663841247,-1.1523989340424536,-0.7786783610653132
1789141182427711500,7.10271142578125,-0.16086977639198302,0.22368542126715182,-0.9902547538004814
1789141182437684500,7.1126845703125,-0.539296262037754,0.4612111518383026,-0.9022111441664398
1789141182447656400,7.122656494140625,0.11257190169095993,0.6285720438152551,-0.1500142915850505
1789141182457628400,7.13262841796875,0.3496142326593399,-0.051232174587249754,-0.41065632852334527
1789141182467600400,7.142600341796875,-0.0748936206817627,-0.0865220991551876,-0.8815640774570405
1789141182477572400,7.152572265625,-0.5019114110171795,0.6331745691746473,-0.32146205101683734
1789141182487545600,7.162545654296875,0.2841495345801115,-0.382212433925271,-0.9783611215848476
1789141182497517300,7.172517333984375,0.7037251922160387,0.29744974565804005,-0.7697689322922379
1789141182507489500,7.182489501953125,0.134976041200757,0.6568950519800186,-0.5104620529478415
1789141182517461500,7.19246142578125,1.3307611125051975,-0.7536883697807788,-1.097749936749041
1789141182527433500,7.20243359375,0.5263982020199298,-0.3313759806573391,-1.257777563228458
1789141182537406500,7.212406494140625,-0.3470557803481817,-0.19618308183550834,-0.24540269275764
1789141182547378400,7.22237841796875,0.04930909757018089,-0.5081956058531999,-0.5131728828091174
1789141182557350400,7.232350341796875,0.21185995891690254,-0.2996259206533432,-0.33575854312311854
1789141182567322400,7.242322265625,-0.9220996475934982,0.7650871311515569,-0.8452177026387303
1789141182577294300,7.25229443359375,-0.6044044017642736,0.20141163013875482,-0.09943594126403331
1789141182587267300,7.262267333984375,-0.5281891770899295,-0.16345745479762552,-0.11721021988294086
1789141182597239600,7.272239501953125,-0.3561491873860359,0.041297056028246876,0.4105683945115655
1789141182607211300,7.282211181640625,-0.6896633491158485,-0.4622919328123331,-0.6416722753416747
1789141182617183500,7.29218359375,0.49876785229444504,-0.9566852232843637,-0.39689120334740724
1789141182627155500,7.302155517578125,0.495920061647892,-0.9547241523444652,-0.4029694272825494
1789141182637128400,7.31212841796875,0.9885235460937023,-0.8669634513050317,-1.0029976963218301
1789141182647100400,7.322100341796875,0.40107203269600866,-0.29506022017300126,-0.2839579027318396
1789141182657072600,7.33207275390625,-0.21713117731809614,0.8023919026732445,-0.6767847244508564
1789141182667044400,7.34204443359375,0.35947979311347006,0.18514204786121843,-0.41322621554397043
1789141182677016600,7.3520166015625,0.1953308489203453,0.13559095822870731,-0.946520752948895
1789141182686989600,7.361989501953125,-0.320085355836153,0.2355155597925186,0.10386638885899446
1789141182696961300,7.371961181640625,-0.172686470913887,-0.3365647814720869,-1.1632651959717273
1789141182706933500,7.38193359375,-0.3682867844253778,-0.5932037933140992,0.028601640159764793
1789141182716905500,7.391905517578125,-0.8601403272867202,0.15411504143476484,0.21231882686661555
1789141182726878500,7.40187841796875,-1.067318265867233,-0.05831716441214084,-0.013379077008907916
1789141182736850400,7.411850341796875,-0.45216801368296144,-0.49891398276686666,-0.5668262931939214
1789141182746822400,7.421822509765625,0.4566846143245697,-0.693416564169526,-0.1672659254361875
1789141182756794400,7.43179443359375,0.39227497825622554,-0.14581950677633285,-0.3798866213262081
1789141182766766600,7.4417666015625,0.6426350559592247,-0.10522153892815113,-1.4193370754502712
1789141182776738300,7.45173828125,0.7016460478544235,0.46735213881134985,-0.1731491017232649
1789141182786711600,7.461711669921875,0.7028916640013456,0.4665045820713043,-0.1731923563431017
1789141182796683500,7.47168359375,0.42805122503638265,0.3053852148324251,-0.7012950424596667
1789141182806655500,7.481655517578125,-0.285407425686717,0.06412965008318423,-0.09674811781900934
1789141182816627500,7.49162744140625,-1.5008569824039935,-0.060597968825697894,-0.37311383925564584
1789141182826600400,7.501600341796875,-0.9136322634994983,-0.062415831902623176,-1.1587546597447245
1789141182836572400,7.511572509765625,-1.0476187091410158,0.8810545204997062,-0.48121060482654715
1789141182846544400,7.52154443359375,0.36671325149834155,0.17290917375385761,-0.5297651211697608
1789141182856516400,7.531516357421875,0.6197457632809877,0.11426292351782322,-0.9669839144587516
1789141182866488600,7.541488525390625,0.12105331431031226,0.4513064284175634,-0.04123217409849167
1789141182876461600,7.551461669921875,0.5931131924211979,0.3570540272712707,-0.4571060180744156
1789141182886433300,7.561433349609375,-0.16425766526460647,0.23499942696392534,-0.6284566738072782
1789141182896405500,7.571405517578125,-0.9453718021094798,0.10511983211934565,0.6234076467894017
1789141182906377500,7.58137744140625,-1.6006979973375797,-0.20857026972174644,0.49767647686116395
1789141182916349400,7.591349365234375,-1.9423019420206546,-0.18080138830840586,0.4447925530115142
1789141182926322400,7.601322509765625,-1.608205596488714,-0.6520639785617589,1.1338668136604129
1789141182936294700,7.611294677734375,-0.23834113860726355,-0.9879092135876416,0.12649703973419962
1789141182946266400,7.621266357421875,-0.4713911850690841,-0.049207975283265114,-0.3565272634508088
1789141182956238600,7.631238525390625,-0.1558557476222515,0.8275064701855183,0.28660363146765155
1789141182966210300,7.641210205078125,-0.15819500422477722,0.8291086446851491,0.2856302381245419
1789141182976183300,7.651183349609375,1.176746024313569,0.33852935954332347,-0.4730180921511724
1789141182986155500,7.661155517578125,0.6377975528001785,0.006095978787541389,0.0075315051831072195
1789141182996127500,7.67112744140625,0.5317056607782841,0.32913784634172916,-0.3408805257793516
1789141183006099500,7.681099365234375,0.806557205659151,0.49470191802978514,-0.9643657678496091
1789141183016071700,7.69107177734375,0.17226386158764362,-0.19026479770243165,-0.7859558047223836
1789141183026044400,7.70104443359375,-0.22778876493275163,0.5135568406254053,-0.28188765406273303
1789141183036016400,7.711016357421875,-0.721809714961052,0.5497890144795179,0.16958050425518303
1789141183045988400,7.72098828125,-0.6533990265578031,-0.078570847889781,-0.47880496845692394
1789141183055960300,7.730960205078125,-0.194451143476367,0.4051356288731098,-0.7742888208694756
1789141183065932500,7.7409326171875,-0.1901286041021347,-0.11378595365583896,-0.9814767693873494
1789141183075905300,7.7509052734375,0.3861684780746698,-0.6620008506864309,-0.865251459755376
1789141183085877500,7.76087744140625,-0.11765958021879196,-0.05262801285982131,-1.6801307227537035
1789141183095849500,7.770849365234375,-0.1614589744567871,0.27876608797609803,-0.5117220994789153
1789141183105821400,7.780821533203125,-0.15893910059034824,0.17186989383399487,-0.44884442221820353
1789141183115793400,7.79079345703125,-0.2773006915986538,0.2690723769575357,0.1111142867611721
1789141183125766400,7.800766357421875,0.08096095789670944,0.574863834503293,0.6598350509546697
1789141183135738400,7.81073828125,-0.5396931524008513,0.0414268198877573,0.7124423863526433
1789141183145710600,7.820710693359375,1.0681599773883819,-0.5571148273229599,0.10629888583607972
1789141183155682300,7.830682373046875,0.8078110051125288,-0.4084849393010139,0.35977819153815505
1789141183165654500,7.840654541015625,1.0753858369886875,-0.26896365588605403,-0.6331686508905142
1789141183175627500,7.85062744140625,1.4140800317049025,-0.5465215371161699,-0.2171720938503742
1789141183185599200,7.86059912109375,0.9307207609444856,-0.49407414152026174,-0.49749881873931734
1789141183195571500,7.870571533203125,-0.12770809602439404,0.4521656755954027,-0.08376848046495579
1789141183205543200,7.880543212890625,-0.5499667091339826,0.3708370534300804,-0.34326541162189095
1789141183215515400,7.890515380859375,-0.9366244320303201,-0.07657295207083224,0.06314415987690444
1789141183225488400,7.90048828125,-1.3630407493412493,-0.8515735744714736,-0.1476575723910704
1789141183235460400,7.91046044921875,-1.894825320574641,-0.08394494214355945,-0.41440022775940594
1789141183245432300,7.920432373046875,-0.7541285147637128,-0.4708417344927788,-0.11907874456802382
1789141183255404300,7.930404296875,-0.15995032345950602,-0.6166320151746273,-0.41970432551689446
1789141183265376300,7.940376220703125,0.5714180779635906,-0.24152210673093794,0.13626408998360856
1789141183275349500,7.950349609375,1.3003420088440178,0.10803659634888171,-0.6430026471626014
1789141183285321200,7.9603212890625,1.2995347841143607,0.10858780049085616,-0.6431459280908107
1789141183295293400,7.97029345703125,1.0768366203188895,0.16091127744615077,0.3370940660431981
1789141183305265400,7.980265380859375,0.31742870384752747,-0.020992519146203995,0.43710623629260803
1789141183315238100,7.990238037109375,-1.365693309676647,0.7894073334157466,0.5449705813471227
1789141183325210400,8.00021044921875,-0.6084031160116196,0.353804670086503,0.08869429209511727
1789141183335182300,8.010182373046876,0.023375030368566512,-0.3287923939049244,0.6863012522716074
1789141183345154300,8.020154296875,-0.9715689041614531,-0.24969722988009452,0.8617082341905683
1789141183355126300,8.030126220703124,-1.24384738368392,0.07229892801344394,0.14144025964564644
1789141183365099500,8.040099609375,-0.6160311266720294,0.03717383861839771,0.4661351642370224
1789141183375071200,8.0500712890625,0.9623702831834554,-0.4801110826194286,0.1649897423988208
1789141183385043500,8.06004345703125,0.6601788959562778,0.15739537827968597,0.036008808860438876
1789141183395015200,8.07001513671875,-0.08326455866396426,0.7401327226370572,0.1427123345412314
1789141183404987400,8.0799873046875,-0.09287351400852203,0.2449041503846645,-0.07029390833396464
1789141183414960400,8.08996044921875,-0.12671850046515465,-0.2698375161111355,-0.15620770286507904
1789141183424932400,8.099932373046874,-0.6031506023108959,-0.3300853563249111,0.3787909715766087
1789141183434904300,8.109904296875,-0.769919373613596,-0.253234171834588,-0.18760374353332443
1789141183444876500,8.11987646484375,-1.268615914237499,0.6142588563024998,-0.6750187376916408
1789141183454848300,8.12984814453125,0.1526584128856659,0.4712883092164993,-0.546558690788783
1789141183464821200,8.1398212890625,0.043676060119271276,0.4514297625362873,-1.1583668294709175
1789141183474793200,8.149793212890625,0.0736339760094881,0.8611667477250099,-0.8104262291122227
1789141183484765200,8.15976513671875,-0.6630512365221977,1.1357833148062229,0.023664313905034214
1789141183494737400,8.1697373046875,0.12505728925466536,0.142077982160449,0.2165422715142369
1789141183504709000,8.179709228515625,0.2558949154764414,-0.2966828529387712,-0.29635813276274126
1789141183514682400,8.189682373046875,-0.6802905406147242,0.6791881323307752,-0.012575659663043916
1789141183524654300,8.199654296875,-0.4314338532119989,0.6715209587037563,-0.6164448951046914
1789141183534626300,8.209626220703125,0.4279939418911934,-0.035686230409145356,-0.7537596814513206
1789141183544598300,8.219598388671875,-1.016861167305708,0.645444852682948,-0.6176143772754817
1789141183554570200,8.2295703125,-1.634332555913925,0.5000374338388442,0.4916347855441272
1789141183564543200,8.239543212890625,-0.6269634395748377,-0.6437082381486893,-0.2796176267715171
1789141183574515500,8.249515380859375,-0.5352279896855354,-0.3404296402066946,0.43121202715486284
1789141183584487200,8.259487060546874,-0.1812275047659874,-0.19132395136654376,-0.47172922138441353
1789141183594459400,8.26945947265625,1.189632978415489,-1.30248311252594,-1.1603663327250628
1789141183604431400,8.279431396484375,0.8330424770027398,-0.8994593612402677,-1.1999679099470377
1789141183614404000,8.289404052734374,0.3317851459801197,0.17109364876449107,0.5507098556514829
1789141183624376300,8.299376220703126,0.2787596582353115,-0.2958978400409221,-0.8419936990909278
1789141183634348300,8.309348388671875,0.28070143995285035,-0.29748423244953154,-0.8349003798291087
1789141183644320300,8.3193203125,-0.21821780351102352,0.5937532438904046,-0.01496509381653741
1789141183654292200,8.329292236328126,0.09583177929222583,0.20689795259535312,-0.18861721315849572
1789141183664265500,8.339265380859375,0.35590777984559535,0.16711188565194607,-0.28325167242493476
1789141183674237200,8.3492373046875,1.3181664193481206,-0.03407587260305881,-0.17952592501249162
1789141183684209400,8.35920947265625,1.4745219331860542,-0.35712300085425375,-0.6103371162815019
1789141183694181000,8.36918115234375,0.8939742078274487,-0.33901100558042524,-0.33203795169740913
1789141183704153300,8.3791533203125,-0.2315419799864292,-0.18172434837222098,-0.4027196172399446
1789141183714126300,8.389126220703124,-1.4676350962817668,0.3286988704025745,-0.183221199333854
1789141183724098300,8.399098388671876,-0.005851064115762711,-0.5411830986976623,0.27085206344854085
1789141183734070300,8.4090703125,-0.08838964659273624,0.04113397442102432,-0.38312403234485537
1789141183744042500,8.41904248046875,-0.49403907020688054,-0.5069932443261146,-0.7052178419265895
1789141183754014200,8.42901416015625,0.06304243936836719,-0.22319325383603572,-0.35889282353837043
1789141183763987200,8.4389873046875,0.14876140544712543,0.11433832684159279,-1.1458141488246618
1789141183773959400,8.44895947265625,0.6469622715085744,0.3753969086915254,-0.8470581428736448
1789141183783931100,8.45893115234375,0.6742243724435567,0.06530570812523365,-0.6876251943517476
1789141183793903400,8.4689033203125,-0.7378881585806608,0.6372410879611968,-0.37125739773400124
1789141183803875300,8.478875244140625,0.1196615676909685,-0.4517904125422239,-0.38402711866442113
1789141183813848300,8.488848388671874,-0.4274731328874826,-0.6943535527586937,0.5266687625896185
1789141183823820300,8.4988203125,0.4293663992881775,-0.6647007572948932,-0.8077734495811164
1789141183833792300,8.508792236328125,-0.16756839724779127,-0.21473639113605023,-0.6945026789058
1789141183843764200,8.51876416015625,0.3682166417986154,-0.004115034103393554,-0.11283106408379971
1789141183853736400,8.528736328125,2.0240999352633953,0.06291033742129802,-0.6223503197561949
1789141183863709200,8.538709228515625,-0.004109188884496688,0.7779641483813524,-0.9525815873578191
1789141183873681400,8.548681396484374,-1.2182757200539112,0.35461247933804985,0.5947375056874007
1789141183883653400,8.5586533203125,-1.1706050373405217,-0.17649696911275387,0.7699013995654881
1789141183893625300,8.568625244140625,-1.4732640420794487,-0.6544564266562461,0.6338263110816479
1789141183903597300,8.578597412109374,-2.037169844716787,-0.4149509204447269,-0.053302879914082585
1789141183913570300,8.5885703125,-0.9617956981658935,-0.46771629594862457,0.6218127788133919
1789141183923542300,8.598542236328125,0.026561259189248083,0.11823591880202293,-0.84233688650541
1789141183933514200,8.60851416015625,1.4268115029841661,0.3101327016204595,-0.6239977216370404
1789141183943486200,8.618486328125,2.0767834777027367,0.4197837474286556,-0.8087137991711497
1789141183953459200,8.628459228515625,2.2876035721778867,0.2382043604850769,0.04804685908202082
1789141183963431400,8.638431396484375,1.1599456961601973,0.6519190171331167,-0.21732816119492052
1789141183973403100,8.648403076171874,0.27458383385539054,0.438880662086606,-0.05992902005556971
1789141183983375400,8.658375244140625,-0.9273714505165814,0.14755787487626074,-0.4738138456387445
1789141183993347300,8.668347412109375,-2.5885551884770392,0.6648860507339239,0.14757818701192735
1789141184003320300,8.6783203125,-3.1157191141724585,0.8956815962672233,-0.06886698080338537
1789141184013292300,8.688292236328126,-1.715180701085925,-0.24695874482691285,0.1944060256930068
1789141184023264500,8.698264404296875,-0.05478314506709575,-0.794300366154313,0.48055831493027507
1789141184033236200,8.708236328125,-0.4037485584288835,0.07852993135750293,0.48606283063068983
1789141184043208400,8.71820849609375,-0.18914543828368185,0.43386721783876414,0.7353593707554041
1789141184053181400,8.728181396484375,2.223208549156785,-0.4079635457754135,-0.14895389581192284
1789141184063153200,8.738153076171875,0.856612153160572,0.3070651307433843,0.626020898027718
1789141184073125400,8.74812548828125,0.2807324196130037,-0.10028408252596854,1.328501643140614
1789141184083097300,8.758097412109375,-0.042139352071285247,-0.6673556557178497,0.1954044621458277
1789141184093069300,8.7680693359375,-0.42795419440269467,-0.2012730984508991,-0.037217604694887996
1789141184103042300,8.778042236328124,-0.6044879883944988,-0.16197627632915973,-0.10883636842444538
1789141184113014300,8.78801416015625,-0.6295487798929215,0.1047083287090063,-0.5048734391605482
1789141184122986200,8.797986328125,0.03623217385411262,-0.12095686819851398,-0.5568585510069504
1789141184132958500,8.80795849609375,0.22477438554763793,-0.1480705005735159,0.23935630699917673
1789141184142930200,8.81793017578125,0.2195516824632883,0.13793781361579893,0.2694724821910262
1789141184152903400,8.8279033203125,-0.27543957390189167,0.4937520699590444,0.5513318965399637
1789141184162875400,8.83787548828125,-0.9359598306417465,-0.002574234402179718,0.17837701070569453
1789141184172847400,8.847847412109376,-0.4982850372135639,-0.42659693457484243,-0.10742577097415923
1789141184182819300,8.8578193359375,-1.6198071869552135,-0.19822832392752168,-0.11441694503575563
1789141184192791300,8.867791259765625,-0.8915496110290289,-0.6897451821804046,-0.2121141894062981
1789141184202765000,8.87776513671875,-0.35716976260542865,-0.08804594772160053,-1.0521731575749813
1789141184212736800,8.88773681640625,0.7931506115972995,0.4257090458244085,-1.1100123292118311
1789141184222709000,8.897708984375,0.37549569289088247,1.2939847487717866,-0.9293871011879294
1789141184232681000,8.907680908203124,0.15581366204619407,1.32670920676589,-0.9173195737101137
1789141184242653000,8.91765283203125,0.4479904357373714,0.30806174056529995,-0.09659224227070808
1789141184252626000,8.9276259765625,1.7099053910315036,-0.030465865412354468,-0.22694040447510777
1789141184262598100,8.93759814453125,0.4500608122706413,-0.0349871422290802,-0.46849389272499825
1789141184272569900,8.94756982421875,0.308512991464138,-0.9052157328099012,0.2249037110157311
1789141184282542000,8.9575419921875,-0.18877134427428244,0.20997136869132518,-0.4159559693014249
1789141184292513800,8.967513671875,-0.2811561979830265,0.0553518848657608,-0.01759699495639652
1789141184302486800,8.97748681640625,0.0955453635662794,-0.48246202965974805,-0.2396267579710111
1789141184312459000,8.987458984375,-0.1578209102153778,0.09363046985566616,0.30848080622758717
1789141184322431000,8.997430908203125,-0.15463292782902716,-0.5081716404557228,-0.18375961705949156
1789141184332403000,9.00740283203125,0.15417290910184384,-0.5728150852799415,-0.3874967675363645
1789141184342375200,9.017375244140625,0.6557271772444248,-0.33288872330784797,0.3728540923409164
1789141184352348000,9.027347900390625,0.09170505475103854,-0.1507844357073307,-0.0018174612181261181
1789141184362320000,9.03731982421875,-0.3104530196160078,0.16102116756141185,0.19262053051572292
1789141184372292000,9.0472919921875,1.4217115494966506,-0.43248540809154506,0.4404507974801585
1789141184382263800,9.057263916015625,0.8801602020084858,-0.6719768857777119,0.13661635575369
1789141184392236000,9.067236083984374,-0.1410848794698715,-0.03317863150238991,0.725970341771841
1789141184402209000,9.077208984375,-1.1259610089719294,0.46871582837998865,0.9065997345142066
1789141184412181000,9.087180908203125,-0.13157061667144299,0.10215747518241405,1.100727345124632
1789141184422153000,9.097153076171875,0.003220131090283394,-0.6801204447448254,0.699877649942413
1789141184432125000,9.107125,-0.9602788638621568,0.09957213486433028,0.9469625784322618
1789141184442097000,9.117096923828125,-1.5340274305999277,-0.019043723165988923,0.3860933670118451
1789141184452070000,9.12706982421875,0.20705752707123756,-0.7779267389804124,0.6500551960226147
1789141184462041900,9.137041748046874,0.7612655270367861,-0.5211515335381031,0.8517625211723149
1789141184472013800,9.147013916015625,0.0834592044532299,0.16632161205708978,1.054487718127668
1789141184481986000,9.156986083984375,-0.7307464701324701,0.5454477704048156,1.7688322117745876
1789141184491958000,9.1669580078125,0.23193711678385734,-0.2961602903693914,0.7812744419731199
1789141184501931000,9.176930908203126,0.5319195957899093,-1.090455980348587,0.4014349111916497
1789141184511903000,9.186903076171875,-1.5719710845470427,0.2515846510618925,0.6053265581104904
1789141184521875000,9.196875,-1.3369050220876932,0.822249280309677,0.0390498250907287
1789141184531847000,9.206846923828126,-0.38064649978280063,0.6887474033147096,0.18234536634739487
1789141184541819000,9.21681884765625,0.3024836481720209,-0.05787818847298622,0.4937729300839826
1789141184551791900,9.2267919921875,-0.28110476005673407,0.5386030190765857,-0.1304291915513575
1789141184561764000,9.23676416015625,-0.23455051415264605,0.25687632772922514,0.17003445856776087
1789141184571735800,9.24673583984375,-0.27685645496249195,0.043486675027012825,-0.33256800345350057
1789141184581708000,9.2567080078125,-0.006380056425929069,0.18426935667991637,0.02438362288922071
1789141184591680000,9.266679931640626,-0.3909060279905796,0.6186316645592451,0.6325885859802365
1789141184601652700,9.27665283203125,-0.21185060656666754,0.029406711748242376,0.3114968295805156
1789141184611625000,9.286625,-0.15337795933187007,0.16588906585872173,0.2361607988934964
1789141184621597000,9.296596923828124,0.022465514308214186,0.5518278268307447,0.17468118839506058
1789141184631569000,9.30656884765625,0.10671206974685192,0.6336112070262432,0.1845869347291067
1789141184641541000,9.316541015625,0.1145855796009302,0.514682045263052,-0.4201503157187253
1789141184651514000,9.32651416015625,-0.9724965404003858,0.9389701183736324,0.37154198682904244
1789141184661485800,9.33648583984375,-0.8481541214168071,0.28224574678540226,-0.02597702956050634
1789141184671458000,9.3464580078125,-1.5260533829808234,0.6815501852869987,0.1247645899184048
1789141184681429800,9.3564296875,-1.5738737032979726,0.6624491789758205,-0.35706389107815917
1789141184691402000,9.366402099609376,-0.8100719357818364,-0.009832827228307724,0.160280249533616
1789141184701375000,9.376375,-0.36961598720252514,-0.20825696598887442,-1.1552056620262563
1789141184711347000,9.386346923828125,-0.7373065593004227,0.05892331361174583,0.5373239755840972
1789141184721319000,9.39631884765625,-0.7426344763249159,0.06307867972552776,0.5305341693134978
1789141184731291100,9.406291015625,0.8768664211601018,-0.7013117013335227,-0.2701387275474146
1789141184741262800,9.416262939453125,0.5252589688569307,-0.2306622745424509,-0.9942584364838898
1789141184751235800,9.42623583984375,0.44484629249274726,-0.13627251075208185,-0.8749144103094935
1789141184761208000,9.4362080078125,0.3968646441340446,-0.49775429133772847,-1.391971368010342
1789141184771180000,9.446179931640625,-0.12717559658288954,0.5085626855999231,0.10323171681780367
1789141184781152000,9.456152099609374,0.28971593653559685,-0.33408757770359515,-1.2187269709527493
1789141184791124700,9.466124755859376,0.018297288712859152,-0.10952362003624438,-0.34325061591155825
1789141184801097000,9.476096923828125,-0.19177169513404368,0.7886410252183675,-0.08105404300764203
1789141184811069000,9.48606884765625,0.7786281652480364,-0.23327742547690866,-0.9004777445025741
1789141184821041000,9.496041015625,0.23065584480166434,-0.08666121536493301,-0.1249245297204703
1789141184831012900,9.506012939453125,0.010282909083366393,-0.013589549413323401,-0.6866794379342347
1789141184840984800,9.51598486328125,0.2743862654566765,-0.2639063724964857,-0.5201402376037091
1789141184850957800,9.525957763671874,0.7342763978242873,-0.5231967756301165,0.2897469161957502
1789141184860930000,9.535929931640625,1.0822966392904518,-0.38303076457083224,-0.07761131867524236
1789141184870901800,9.54590185546875,0.8822738331615925,0.3352607131361961,-0.862161457850784
1789141184880874000,9.5558740234375,0.5418044454663992,0.33797815540134907,-0.2536166318135336
1789141184890846000,9.565845947265625,0.3607639877051115,0.37940965146422384,0.20740725382436065
1789141184900819000,9.57581884765625,0.5601350519269704,-0.03551087384223938,-0.3556348811883479
1789141184910791000,9.585791015625,-0.8569324711561203,0.25099369943141936,0.22452545228786766
1789141184920763100,9.59576318359375,-1.0280202747017144,0.19171558103263378,0.12362426077686249
1789141184930734800,9.60573486328125,-0.939420200228691,-0.2038707137286663,0.15999580656904727
1789141184940707000,9.61570703125,-0.52747956751585,-0.5022551098883151,0.07862579294741154
1789141184950680000,9.62568017578125,-0.2140349648684263,-0.19936580352485178,-0.2917856554817408
1789141184960651800,9.63565185546875,-0.3593435995131731,0.22513854268491268,0.14177720911558717
1789141184970624000,9.6456240234375,-0.360671633246541,0.22616905477643012,0.14004304226674139
1789141184980595700,9.655595703125,1.3981418733388185,-0.39188627119958397,-0.6567699642956256
1789141184990569000,9.66556884765625,0.666639031881094,0.3328986601799726,0.005626826905831694
1789141185000541000,9.675541015625,0.2838233713656664,-0.028852000474929806,0.3937489597989246
1789141185010513000,9.685512939453124,1.1620996593236923,-0.388687767419219,0.383099299762398
1789141185020484900,9.69548486328125,0.5909679970860481,-0.23127543800473213,-1.4354219488106668
1789141185030457000,9.70545703125,-1.4475421563237905,0.31404490662813184,-0.048598392017558216
1789141185040429800,9.715429931640625,-2.5388205589711665,0.5789250925928354,0.4188300634330138
1789141185050402000,9.725402099609376,-2.122322993606329,0.020633038184046743,0.5332057631429284
1789141185060374000,9.7353740234375,-1.4075976839482784,-0.5211076943963766,-0.005651267227344214
1789141185070346000,9.745345947265625,-0.9675824648737907,-0.5986205576658249,0.2565493242645636
1789141185080318000,9.75531787109375,-0.13043138350844383,-0.1559820043504238,-0.3603322086917236
1789141185090291000,9.765291015625,1.0822820262432098,-0.2729863355308771,-0.37801633394230155
1789141185100263000,9.775262939453125,1.7395096711784601,0.23075170639157294,-0.7705962499618529
1789141185110235000,9.78523486328125,0.8671861541450023,0.6100134738177061,-0.7454111014313995
1789141185120206800,9.795206787109375,0.0008487257838249206,0.406912575417757,0.2874767062414437
1789141185130178800,9.8051787109375,-0.9542413372635841,0.42444297141134735,0.634621406982094
1789141185140152000,9.815152099609374,-1.1098515856921671,0.8295382682740687,0.2973570624059066
1789141185150123800,9.825123779296876,0.10917641403377056,-0.18501286852359772,0.25282975575216116
1789141185160096000,9.835095947265625,0.33604631055593487,0.0195458274692297,-0.2789022450437769
1789141185170068000,9.84506787109375,0.653824558493495,0.2754249608546495,-0.18636139705572277
1789141185180040000,9.8550400390625,0.06482347756624221,0.6150999833017587,0.2635281868338585
1789141185190013000,9.865012939453125,0.3720569506138563,0.2995464256763458,0.4758753082131967
1789141185199984400,9.874984375,-0.377428706780076,0.36396716766059395,0.7478884513303637
1789141185209956000,9.8849560546875,-2.155015887418389,0.014009236130118369,1.2172918966483324
1789141185219928300,9.89492822265625,-2.158082289251685,0.016112345889210702,1.2175173029020427
1789141185229900300,9.904900390625,-0.5902332530707121,-1.2069511929631231,0.6262351983655243
1789141185239873300,9.914873291015626,-0.1618897670894861,-0.7719634466618299,0.4573035864731297
1789141185249845200,9.92484521484375,1.5210358470797538,-0.6183569392710924,-0.5737262453081086
1789141185259817500,9.9348173828125,2.1190140151888133,-0.03558744620978832,-0.5039429899100214
1789141185269789200,9.9447890625,1.8135574886858463,0.5275789362370967,0.17467322428431362
1789141185279761400,9.954761474609375,0.3810626793682575,1.180494563192129,-0.22166253713741899
1789141185289734400,9.964734375,-1.3373749776870012,1.6175976942121981,0.7849263886094093
1789141185299706000,9.9747060546875,-1.2114829911738634,0.6796960818529129,0.3507327152952552
1789141185309678300,9.98467822265625,-1.4640116450875997,-0.05554886874258518,-0.10139533170349896
1789141185319650000,9.994650146484375,-2.1190584388524294,-0.44927930650413034,0.2534119760869071
1789141185329622300,10.004622314453124,-0.9427613273501395,-1.226767069545388,0.3840674506748095
1789141185339595300,10.01459521484375,-0.12658289138674736,-1.1245102256417274,-0.22053283898774534
1789141185349567200,10.024567138671875,0.4200029431372881,-0.04516717545986175,0.09065364600196481
1789141185359539200,10.034539306640625,0.9084943160891532,0.8385165244996547,0.1965183051392436
1789141185369511400,10.044511474609376,1.3029448848187923,-0.06333470031321048,0.10199464930351823
1789141185379483100,10.054483154296875,1.5507716446518898,-0.2909422634601593,0.40334907424990085
1789141185389456400,10.064456298828125,0.06234744284152984,0.4270955317467451,-0.35307328707203267
1789141185399428400,10.074428466796874,-0.45325288631021976,0.17423896105289458,-1.0019108509331942
1789141185409400300,10.084400390625,-0.22306407449841498,0.8295803538501262,-0.6231937848430127
1789141185419372300,10.094372314453125,0.5344073209524154,-0.22831132750213146,-0.5524707278441637
1789141185429344300,10.10434423828125,0.06923194165825844,0.4488572816997766,-0.7354010179400443
1789141185439317200,10.114317138671876,0.2674783857643604,1.0050678536593913,0.5419273777263238
1789141185449289200,10.124289306640625,-0.4111421758115291,0.610199936300516,0.7373856889512389
1789141185459261200,10.13426123046875,-0.6337322030574083,-0.34909167008996006,0.4160574934471398
1789141185469233200,10.144233154296876,-0.6335989320665597,-0.3489005314320326,0.41110052862688895
1789141185479205400,10.154205322265625,-1.3675269548445939,-0.5818553008258343,-0.19907851101607082
1789141185489178000,10.16417822265625,0.0545195256948471,-1.71496618155241,-0.7273805008307099
1789141185499150300,10.174150390625,0.1449070681065321,-0.8398480653643607,-0.27972353483140466
1789141185509122300,10.184122314453125,0.23223054677248,0.16702420736849308,0.6425019310988486
1789141185519094300,10.19409423828125,0.05429916094243526,0.3013841624975204,-0.12726667239982634
1789141185529066200,10.204066162109376,0.5066653275460005,0.6992138522714376,0.6228986743539572
1789141185539039500,10.21403955078125,0.8485293844699859,-0.4762941546797752,0.5999572496296838
1789141185549011200,10.22401123046875,0.1657546258240938,-0.22222002488970755,0.8518126439243554
1789141185558983400,10.2339833984375,-0.9627321022331714,0.668047145113349,0.2538308225534856
1789141185568955100,10.243955078125,-0.6619342151910066,-0.1523573841124773,0.6345521411381662
1789141185578927400,10.25392724609375,0.5739736076653004,-1.5502186869442462,-0.015606515258923172
1789141185588900400,10.263900390625,-0.9378525125205516,0.06759118871390819,0.8319163955822586
1789141185598872000,10.2738720703125,-0.867108412733674,-0.021437340304255485,0.13764551613833753
1789141185608844300,10.28384423828125,-0.15945640246272086,-0.2205056221872568,-0.7734680060058832
1789141185618816300,10.293816162109374,0.5332628270924091,0.18518121082782743,-0.12931567735150457
1789141185628788200,10.303788330078126,0.9364508290290832,0.41457916452288623,0.2481369582934305
1789141185638761200,10.31376123046875,0.9354209014594554,0.4155436256408691,0.2423163989137858
1789141185648733400,10.3237333984375,0.7619044094622135,0.06560615237653256,-0.21220022372193634
1789141185658705200,10.333705078125,0.5138578693985939,0.040647067686915395,-0.246042799025774
1789141185668677400,10.343677490234375,0.11951485269665717,-0.10011281761229038,0.9160689891271293
1789141185678649000,10.353649169921875,-0.15211363848447798,-0.15871756679415702,-0.5799680257745087
1789141185688622300,10.363622314453124,-0.526890369451046,0.6860100873053073,-0.7521086993739008
1789141185698594300,10.37359423828125,-0.9533622163414954,0.4772697217136621,0.9755917299367487
1789141185708566300,10.383566162109375,-0.13745032235980034,0.3650029404491186,0.4145665607696399
1789141185718538200,10.393538330078124,-0.13834580989480016,0.365446008041501,0.4183458601126447
1789141185728510500,10.403510498046876,-0.6465116051316261,0.05566343503296375,1.2702552058771253
1789141185738483200,10.413483154296875,-0.19248422731757162,-0.5834492920190095,0.7370576260406524
1789141185748455200,10.423455078125,0.014912322449684143,-0.3961848451763391,0.6926485024064779
1789141185758427400,10.433427490234376,-0.4324924223542213,-0.372381944784522,0.9424510923571884
1789141185768399400,10.4433994140625,-1.2205576935112477,0.6845932062447071,0.7103210833497345
1789141185778371300,10.453371337890625,0.3248492092370987,-0.02563888364732265,-0.09847166280914098
1789141185788344300,10.46334423828125,0.3265472453266382,-0.02701192556619644,-0.09408873501718043
1789141185798316300,10.47331640625,-1.1961276011317967,0.5820663132280111,0.13322313311882317
1789141185808288300,10.483288330078125,-0.6964572470396757,-0.06096037239730358,-0.7442677035499363
1789141185818260200,10.49326025390625,-0.019193945291638374,-0.08466098145842552,-0.4391728864988312
1789141185828232200,10.503232177734375,-0.8143582347989082,0.7681020950585603,-0.061202437524870035
1789141185838205400,10.513205322265625,-0.20279227084219453,0.03606967676877975,-1.477835441648215
1789141185848177200,10.52317724609375,-0.6923731925964355,-0.01511632058918476,0.34972456116601824
1789141185858149400,10.5331494140625,-0.8292313942819833,-0.08491115682721137,0.3048038347478956
1789141185868121300,10.543121337890625,-0.32848785800039765,-0.38691023635268207,0.7243051119733601
1789141185878093300,10.55309326171875,0.0801344439446926,-0.5469733725368976,0.0699365462636575
1789141185888066300,10.56306640625,-0.7451321383595466,-0.053181555089354515,0.26479247114863247
1789141185898038300,10.573038330078125,0.3185778738826513,-0.05127952086031436,-0.09543649636432527
1789141185908010200,10.58301025390625,0.04519698607623577,0.7226514264822006,-0.5622491945367306
1789141185917982500,10.592982421875,0.18247896613180636,0.7149807457238435,-0.020094035936519504
1789141185927954200,10.6029541015625,-0.13623393230736255,0.5375538022845984,-0.14093206352833657
1789141185937927200,10.61292724609375,0.13847089757919312,0.041078444841504094,0.3284212590375915
1789141185947899400,10.6228994140625,-0.18781682002842426,-0.44571723010838027,0.3550313623372465
1789141185957871000,10.63287109375,-0.8722469446659088,0.2572761407017708,0.3002544278152287
1789141185967843300,10.64284326171875,-0.8721633580356836,0.2567477329134941,0.30768421248979866
1789141185977815300,10.652815185546874,0.9142465960055589,-0.727779437020421,0.5134995209475979
1789141185987788300,10.662788330078126,0.7654337526321411,-0.06066869597434997,-0.2772575100440532
1789141185997760300,10.67276025390625,1.1126450158029795,0.7704290767014026,-1.0176851970396936
1789141186007732500,10.682732421875,1.0440905350148677,0.2390799742758274,-0.5617913312340155
1789141186017704200,10.6927041015625,1.706950632879138,0.18119944771528243,-0.729666858202219
1789141186027676400,10.702676513671875,0.4675882856547832,0.6439163279414176,-0.14423114160634576
1789141186037649200,10.712649169921875,-0.596785158932209,0.18903145651519299,0.3276757378999144
1789141186047621400,10.722621337890626,0.2977215483367443,-0.7912561761528253,0.5820582029867917
1789141186057593300,10.73259326171875,-0.2520376555263996,-1.1737906816393135,-0.5644661399338394
1789141186067565300,10.7425654296875,-1.1286726060181855,-1.1732909154236315,-0.4551049804503098
1789141186077537300,10.752537353515624,-0.676327482202649,-0.1278618252813816,-0.18028562080599367
1789141186087510300,10.76251025390625,-0.7661825251728296,0.5243126279175281,-1.0376508573561907
1789141186097482200,10.772482177734375,0.8420306701004505,-0.6966027929902077,-0.5616128693945706
1789141186107454200,10.7824541015625,1.2514689646035433,-0.049558688417077064,-0.5258793292449787
1789141186117426200,10.79242626953125,0.8381237257897853,0.7120330018341541,-0.9739922588508576
1789141186127398100,10.802398193359375,0.6484072096198796,0.07371288646459578,-1.6300889269948005
1789141186137371400,10.812371337890625,0.5638637170612811,0.0394137264996767,0.07956102797091007
1789141186147343000,10.822343017578126,-0.03786006731688976,0.2884650596916675,-0.788670981965214
1789141186157315300,10.8323154296875,-0.16210954732000826,-0.5894657758295536,-0.5344997850088402
1789141186167287300,10.842287353515625,-1.2026169631510972,-0.14419921209812164,0.25958145850207653
1789141186177259300,10.85225927734375,-1.4882716415971518,0.22718612286448478,0.4585048520216718
1789141186187232300,10.862232177734375,0.3322428266197443,-0.2742588396847248,-0.7167455634392798
1789141186197204200,10.872204345703125,-0.2851771240621805,-0.048750879165530205,-0.3043365825623274
1789141186207176000,10.882176025390624,0.24241525617837906,0.19538228684663772,-0.5033985808350145
1789141186217148000,10.89214794921875,0.3675724986761808,-0.2537725164949894,-1.1007929577067495
1789141186227119900,10.902119873046875,-0.1386369017958641,0.21351415586471556,0.4323592974938452
1789141186237092900,10.9120927734375,-0.17510463797152043,0.18516016803979873,-0.7396957925245166
1789141186247064800,10.92206494140625,-0.09970891298651695,0.18190964181125163,-0.4298457072377205
1789141186257036800,10.932036865234375,-0.9221803116142749,0.252206582352519,0.32669881915915755
1789141186267008800,10.9420087890625,-1.4298691369891166,0.6825976485133171,0.3733836326403543
1789141186276981000,10.95198095703125,-0.5091986454159021,0.030064298874139785,-0.21000139850340782
1789141186286954000,10.9619541015625,-0.5092904153525829,0.030517887860536573,-0.21654135819878428
1789141186296925700,10.97192578125,-0.29279519785046576,-0.14313655130267142,0.21820936447624115
1789141186306898000,10.98189794921875,-0.29582828193604943,-0.14074293416440486,0.21297387497555464
1789141186316870000,10.991869873046875,0.11559154177308081,0.6252326702594757,-0.8672731017760932
1789141186326841900,11.001841796875,1.3245499829053877,-0.18171207341253756,-0.5539076653121039
1789141186336814800,11.01181494140625,-0.23880466446578502,0.33496494506001473,-0.39307230264637616
1789141186346787000,11.021787109375,0.27015666506290437,0.44839317131936546,0.4203770371466875
1789141186356758800,11.0317587890625,-0.3474479945361614,0.5517144295841455,0.4180877936983481
1789141186366731000,11.04173095703125,0.07101414889991282,0.3131038263857365,-0.4750078411962837
1789141186376702700,11.05170263671875,0.009797755914926529,0.39114685100913044,0.30227899244539436
1789141186386675700,11.06167578125,-0.4033060753583908,0.7289537414968014,-0.039302082818746566
1789141186396648000,11.07164794921875,-0.41928924190998074,0.5905868888139725,-0.36594588385503735
1789141186406620000,11.081619873046876,0.018949030619859693,-0.04213175328671932,0.41885669571161266
1789141186416592000,11.091591796875,-0.6028782151103019,-0.2515074941724539,0.6336921633079647
1789141186426564000,11.101564208984374,-1.0647568909466265,-0.010068389549851417,0.29241792550329115
1789141186436536800,11.111536865234376,-0.5978542494684458,-0.0642179128885269,-0.021356822413951156
1789141186446508800,11.1215087890625,-0.11769523605406283,-0.5619464852631092,-0.0985204703869298
1789141186456481000,11.13148095703125,0.06320785906314849,-0.3911971198916435,0.10989197842460124
1789141186466452700,11.14145263671875,-0.6770435215175151,0.24885844096839427,0.20884583526011555
1789141186476425000,11.151425048828125,-0.026197686573863028,-0.11254326011836528,0.7590208899151534
1789141186486398000,11.16139794921875,0.3749105864793062,0.003710544955730438,0.5717709099892526
1789141186496370000,11.171369873046874,-0.42745910436213014,-0.09378712172210216,-0.21703195472732184
1789141186506342000,11.181341796875,-0.7998965787261724,-0.469420177257061,-0.037954467602074146
1789141186516313900,11.19131396484375,-1.5506787056714295,0.5166559756845236,0.8932254352867602
1789141186526285800,11.201285888671874,-0.16465338658392428,-0.4287386227786541,-0.7498371742453426
1789141186536258800,11.2112587890625,0.17268997804522512,-0.6176753867477178,-0.3034219884680584
1789141186546230800,11.221230712890625,0.5250298362761736,0.1438046598225832,0.3418121075410396
1789141186556203000,11.231203125,1.2240011119633913,-0.3644453065663576,-1.0612805931381881
1789141186566175000,11.241175048828126,1.0241150839567184,0.27611235859692096,0.12002576136086135
1789141186576147000,11.25114697265625,2.244707848781347,-0.8267606202542781,-0.31358879689108576
1789141186586120000,11.261119873046875,-0.03796411221325397,-0.1381008952230215,-0.18939506566319614
1789141186596092000,11.271091796875,-0.3724702075898647,0.22809037822782993,0.228522230306454
1789141186606063900,11.28106396484375,-1.316727910977602,0.40906420049369335,1.0547724533531815
1789141186616035800,11.291035888671875,-0.056899698829650874,-0.8826169475108384,0.1864414034893736
1789141186626007800,11.3010078125,0.12053075174093246,-0.845647691553831,0.16931608116533606
1789141186635980800,11.310980712890625,-0.7161731703788041,0.9493196629524231,0.2849625679960474
1789141186645953000,11.320953125,-0.47698447503149505,0.6799398274809122,0.263173820438236
1789141186655924700,11.3309248046875,1.2778770790576934,-0.24293314257264137,0.42381906735934316
1789141186665897000,11.34089697265625,0.7097942829966545,0.15045534988343714,0.7214441695842891
1789141186675869000,11.350868896484375,-0.08873743711709976,-0.09169044170379638,-0.014298830193839967
1789141186685842000,11.360842041015625,0.5887602579087019,-0.17549977476894854,0.062042980002239345
1789141186695814000,11.37081396484375,0.2230102984845638,-0.15336276176273822,0.18917524890005588
1789141186705786000,11.3807861328125,1.2484510780870914,-0.43217678053379055,0.18767083568647502
1789141186715757800,11.3907578125,1.0863684187740086,-0.3395926048606634,0.32291842383760955
1789141186725730000,11.40072998046875,0.2639624865978956,0.669801879826188,1.1599527104228735
1789141186735703000,11.410703125,-0.690960403189063,0.19812661711871624,0.1495787497119978
1789141186745674800,11.4206748046875,-0.9524386717557907,0.1763724659502506,-0.5607465348888189
1789141186755647000,11.43064697265625,-1.5997785444051027,-0.11802139926850795,0.7811955315180122
1789141186765618700,11.44061865234375,-1.7985680093467233,-0.732844903716445,0.39915885601844636
1789141186775591000,11.4505908203125,-0.4602262324541807,-1.0314461574971676,-0.8242693148951977
1789141186785564000,11.46056396484375,-0.4637368709236383,-1.0290104547828436,-0.825129950312525
1789141186795536000,11.470535888671876,-0.6059393562465906,-0.8493839554727077,-0.4460229715893045
1789141186805507800,11.4805078125,0.22866028707027433,-0.643214317151904,-0.6405372068971396
1789141186815480000,11.49047998046875,0.058062312868237494,-0.306741305616498,0.5117680209798738
1789141186825451800,11.50045166015625,0.5632920546531677,0.016512158861756325,-0.2378627805057913
1789141186835425000,11.510425048828125,1.2811480635523795,0.26793898901343344,-0.3003244973767549
1789141186845397000,11.52039697265625,1.0126035098612307,0.15993103423714636,0.5868116080589593
1789141186855369000,11.530368896484376,0.0612163929849863,0.04075929588973522,-0.28594080191105603
1789141186865341000,11.5403408203125,-0.8433218789547682,1.095852870956063,-0.13677132711969314
1789141186875313000,11.55031298828125,-1.0034691862910985,0.8709060514509678,0.424244964621216
1789141186885286000,11.560285888671874,-1.6662679093569517,0.5959089606195688,-0.026677104121260342
1789141186895257900,11.5702578125,-0.7687631893157959,0.016211130088567734,1.403427558656782
1789141186905229800,11.580229736328125,-1.2727590053915976,0.5362620089083909,1.2783344674363732
1789141186915201800,11.590201904296874,-0.13404723591804504,0.3619792087137699,1.2103158470906317
1789141186925174000,11.600174072265625,1.1222609854102135,0.16904256145358085,1.0559962229944766
1789141186935146800,11.610146728515625,0.6017278760313988,0.6647282298237085,1.0199334143579006
1789141186945119000,11.620118896484374,0.12298282106816769,0.6001560966700316,0.760404964684695
1789141186955091000,11.630091064453126,-1.4698025034487248,1.5370681134700774,0.7427750538393855
1789141186965063000,11.64006298828125,-1.0135328996658324,0.6528752949446439,-0.15344587346892802
1789141186975035000,11.650034912109374,-1.01297818839252,0.652259793394804,-0.14857534482311457
1789141186985008000,11.660008056640624,-1.2978724038600922,0.4118617222577333,-0.8359381984442472
1789141186994979800,11.669979736328125,-1.2636761197477577,0.4770645545303821,0.1536320071581751
1789141187004952000,11.6799521484375,0.6743512136936187,-0.7509218276768922,0.052214828949049115
1789141187014923800,11.689923828125,1.4954823036283253,-0.7423194190263748,-0.353504189302586
1789141187024896000,11.69989599609375,0.020330255845189094,0.3801122467756271,-0.7429468302097171
1789141187034869000,11.709868896484375,-0.5353752892017364,0.092726214492321,0.23671620428655296
1789141187044840700,11.7198408203125,-0.8981856880426407,-0.2660246798247099,-0.6150698804244399
1789141187054813000,11.72981298828125,-0.7679337527543306,-1.1144465122669935,-0.24331717345416545
1789141187064785000,11.739784912109375,-0.9083551998794078,-0.9820417828589677,-0.42570002226773646
1789141187074756900,11.7497568359375,-0.7087678625583649,-0.6352987217217684,-0.24871165290884673
1789141187084729900,11.759729736328126,0.5743289969742298,-1.045211063477397,0.08072802592366933
1789141187094702000,11.7697021484375,2.4139473941117524,-1.1638520559489727,0.04352642251551151
1789141187104673800,11.779673828125,0.9363380163043736,0.3377835096120834,-1.306671796387434
1789141187114646000,11.78964599609375,0.21513211245536804,1.3201011868029833,0.39838896762449294
1789141187124617700,11.79961767578125,0.4703185874015093,0.8507178344249725,-0.59891972327549
1789141187134591000,11.809591064453125,0.12160042679905891,-0.4846855509281158,0.32825627773422744
1789141187144563000,11.81956298828125,-0.5137012175321579,-1.0020464600116015,-0.019962153185158968
1789141187154535000,11.829534912109375,-1.1132383055210113,-0.4566998118937015,0.046147345603629944
1789141187164507000,11.8395068359375,0.012067454412579537,-0.43375206702649594,0.18629651512596754
1789141187174479000,11.84947900390625,1.157221239632368,-0.2630658300191164,0.39047424897719174
1789141187184451800,11.859451904296876,1.6166361557036637,0.26845687540769575,-0.5805180243400857
1789141187194423800,11.869423828125,0.856515122526884,1.079582704156637,0.2670902266969904
1789141187204397000,11.87939697265625,0.8831880253970622,0.27898645272850986,0.33514099574666467
1789141187214368800,11.88936865234375,0.009487959313392639,1.0337141024291514,0.2716929347194731
1789141187224341000,11.899341064453125,-0.16233341920375824,-0.1802507686883211,-0.04888919165767729
1789141187234314000,11.90931396484375,-0.37039632392525673,-1.0438730928719042,0.8539635383479297
1789141187244285700,11.91928564453125,-0.620390490925312,-0.4613718953579664,0.06552855709567666
1789141187254258000,11.9292578125,-1.026118824994564,0.1463192729920149,0.2914741053145379
1789141187264230000,11.93922998046875,0.22834289168417451,0.019916998869180677,-0.38010486718676983
1789141187274201900,11.949201904296874,0.5643208131790161,0.5158399831265211,-0.15050342680886386
1789141187284174800,11.9591748046875,0.13159692015647886,0.9037263710349798,-0.2466983403250575
1789141187294147000,11.96914697265625,0.7845628159940242,0.2901554969966411,-0.8040580092545598
1789141187304118800,11.979118896484374,0.14200959309935568,0.16910452077388763,0.045900604300945995
1789141187314091000,11.989091064453126,-0.08888006045818328,-0.7629173858970403,-0.5209153136294334
1789141187324062700,11.999062744140625,-0.569317306292057,-0.8839911584734916,-0.16030366694182158
1789141187334036000,12.009035888671875,-0.5874760633170605,-1.2295341961711646,-0.1999429458256811
1789141187344008000,12.019008056640626,-1.8032026834100483,-0.4511550372481346,-0.029827202182635664
1789141187353980000,12.02897998046875,-0.43869946030080315,-0.20256898348033428,-0.9215910404842347
1789141187363951900,12.038951904296875,0.5574024120926857,0.03752513627409935,0.600243263496831
1789141187373923800,12.048923828125,1.6655653140455484,-0.16940262693762778,-1.3989892839483915
1789141187383896800,12.058896728515625,0.5000765968054532,0.8648632641553878,-0.9655459906101226
1789141187393868800,12.068868896484375,0.6669020667314529,0.12076923667192459,-0.522717321550101
1789141187403840800,12.0788408203125,0.7156687279880046,-0.28434651845693587,0.2926140691298991
1789141187413813000,12.08881298828125,-0.04905307698249817,0.08610124339461327,-0.6668388653021305
1789141187423785000,12.098784912109375,-1.4639672214239834,0.5796633437395096,0.47166773698814213
1789141187433757700,12.1087578125,-1.3731693446457385,0.17940788812339306,-0.43081301789991555
1789141187443730000,12.11872998046875,-1.549049643164873,-0.003426467317342758,0.375749229260534
1789141187453702000,12.128701904296875,-1.2277584186702966,-0.10291501555144786,-0.01459872645586729
1789141187463673900,12.138673828125,-0.859702520391345,0.22590368183851242,-0.5123114436741918
1789141187473645800,12.148645751953126,-0.6428764634996652,0.830483440169692,-0.6480564234208315
1789141187483617800,12.15861767578125,1.1625585090070962,-0.10895078858435153,0.090988503979519
1789141187493590800,12.1685908203125,1.446000772100687,-0.0114198041588068,-0.40337062849458305
1789141187503563000,12.17856298828125,0.497495932662487,1.0609522379666567,-0.5734770928526297
1789141187513534700,12.18853466796875,-0.7325789462566376,0.9933855991721152,0.9436141447871923
1789141187523507000,12.1985068359375,-0.9547294130414724,0.331519773042202,0.9346251479718833
1789141187533480000,12.20847998046875,-1.3458587283939123,0.6152969671785831,0.17489632898308335
1789141187543452000,12.218451904296876,-1.5067320119172334,0.8357166646480559,0.557873171409592
1789141187553424000,12.228423828125,-1.7229396446496248,0.609994769117236,0.2921467073464766
1789141187563396000,12.23839599609375,0.2610655961126089,-0.37606677077710626,0.48562352589797225
1789141187573367800,12.248367919921876,0.06753449009060859,-0.12883622327148914,-0.08993135960940271
1789141187583340000,12.258340087890625,-0.10803834991455077,0.3190314628690481,0.5449566989522427
1789141187593313000,12.26831298828125,0.4806096797913313,-0.05098433730602264,-0.11838164741564541
1789141187603284700,12.27828466796875,0.22131284691691397,-0.15087094494700432,-0.14645422448329626
1789141187613257000,12.288257080078125,0.5156465063810348,-0.6426034917771816,-0.014166362920589743
1789141187623228700,12.298228759765625,0.0005652326673269272,0.15336217724084852,-0.14060929784737528
1789141187633201000,12.308200927734376,-0.4203232611328363,0.7871265290021896,-0.25197120269406587
1789141187643174000,12.318173828125,-0.41896775487065313,0.7869675390481948,-0.27338435840513553
1789141187653145900,12.328145751953125,-0.4461790024012327,0.1831868221402168,-0.2227179644744843
1789141187663117800,12.338117919921874,-0.9079682463884353,0.0020458266139030457,-0.19106321807112545
1789141187673090000,12.348090087890625,-0.9090461047530174,0.4576011446475982,-0.32250498419851065
1789141187683061800,12.358061767578125,0.5405167437434196,-0.2772995225548744,-1.1424304977357387
1789141187693035000,12.368034912109374,0.4471148219466209,-0.37190146779119965,-0.6472047019623219
1789141187703007000,12.378007080078126,0.8078314633786677,-0.09021861558556556,-0.6835310569059103
1789141187712979000,12.38797900390625,1.0099041877746582,-0.391934786516428,-0.4545581967551261
1789141187722951000,12.397950927734374,0.7658230442106724,-0.3664566463887691,-0.4648514080367982
1789141187732923000,12.4079228515625,-0.21955460507273672,0.6162731187343597,-0.5629128826098516
1789141187742895900,12.417895751953125,-0.03891220671832561,-0.4434381792604923,-0.82267035526596
