time,seconds_elapsed,z,y,x
1789141175367385900,0.0423857421875,-5.587765061509609,-8.03642487256229,-0.602608604388684
1789141175377358800,0.05235888671875,-5.585815096485614,-8.037511498755217,-0.606188362571597
1789141175387331000,0.0623310546875,-5.58356702529788,-8.038841870576142,-0.6092575043512508
1789141175397302800,0.072302734375,-5.585578949642181,-8.036941005390881,-0.6158463446896523
1789141175407275000,0.08227490234375,-5.587005767574906,-8.03589997190535,-0.6164885150507092
1789141175417246700,0.092246826171875,-5.590808666989207,-8.033390034911037,-0.6147188019644468
1789141175427220000,0.102219970703125,-5.595347479462624,-8.030377993613481,-0.612790171989426
1789141175437192000,0.11219189453125,-5.603409205365181,-8.024855430799722,-0.6114597271032631
1789141175447164000,0.122163818359375,-5.6108045763134955,-8.019942524316907,-0.6080794004825875
1789141175457135900,0.132135986328125,-5.61875875018835,-8.014521083790063,-0.6061209964238107
1789141175467108900,0.14210888671875,-5.623033943289518,-8.011631792089343,-0.6046792366502807
1789141175477080800,0.152080810546875,-5.62407439225316,-8.011085848644376,-0.6022286651603878
1789141175487052800,0.162052734375,-5.625668383446335,-8.009961813050507,-0.6022882498605177
1789141175497025000,0.17202490234375,-5.623987883013487,-8.011205091109872,-0.6014468671329319
1789141175506997000,0.1819970703125,-5.621867237597703,-8.013028214883803,-0.596966762576811
1789141175516970000,0.191969970703125,-5.621292068058252,-8.013616243904828,-0.594492591015622
1789141175526942000,0.20194189453125,-5.622914116302132,-8.012744137245416,-0.5908989504378289
1789141175536914000,0.211913818359375,-5.628627233251929,-8.008790431183575,-0.5901024297652766
1789141175546886000,0.221885986328125,-5.635154004672169,-8.004263309147953,-0.5892300673775375
1789141175556857900,0.23185791015625,-5.641347014093399,-7.999927910292148,-0.588848338050954
1789141175566830800,0.241830810546875,-5.648704975640773,-7.994628634840249,-0.5902774575386196
1789141175576803000,0.251802978515625,-5.6550891237199306,-7.990004482170939,-0.5917693400641902
1789141175586774800,0.26177490234375,-5.65911764858365,-7.987178903356194,-0.5913985705230385
1789141175596747000,0.2717470703125,-5.663049142813683,-7.984353909063339,-0.5919091503936798
1789141175606720000,0.281719970703125,-5.663582226777076,-7.983776985958218,-0.5945817671364173
1789141175616691700,0.291691650390625,-5.662393309253454,-7.984475489616393,-0.5965199686573818
1789141175626664000,0.301663818359375,-5.660575446176528,-7.985634012001753,-0.5982590674096718
1789141175636636000,0.311635986328125,-5.658583980098366,-7.98688781145513,-0.6003547245146706
1789141175646608000,0.32160791015625,-5.6561903629601,-7.9884344563752405,-0.6023327831219881
1789141175656580900,0.331580810546875,-5.654459009122848,-7.989372614008188,-0.6061387147435918
1789141175666552800,0.341552734375,-5.653034529277682,-7.99000272860527,-0.6111083198497071
1789141175676524800,0.35152490234375,-5.653407454243302,-7.989253956064581,-0.617404753112793
1789141175686497000,0.3614970703125,-5.655260388633608,-7.987562349715828,-0.6222999778084457
1789141175696469800,0.3714697265625,-5.657008109083772,-7.98597303469777,-0.6268011616852134
1789141175706442000,0.38144189453125,-5.658629572805762,-7.984322929403185,-0.6331628787368535
1789141175716414000,0.3914140625,-5.660085616832971,-7.982834152150153,-0.6388939697347581
1789141175726386000,0.401385986328125,-5.659674113422632,-7.982688021677732,-0.644334041896835
1789141175736358000,0.41135791015625,-5.656466257292032,-7.984324682968855,-0.6521800061568618
1789141175746331000,0.421330810546875,-5.651196207934618,-7.98739166932404,-0.6602611674122512
1789141175756302800,0.431302734375,-5.64589459439516,-7.990564454141259,-0.6671830756299197
1789141175766274800,0.44127490234375,-5.64048776691556,-7.993685216510295,-0.6754845285724849
1789141175776246800,0.451246826171875,-5.631449304935336,-7.999632142215967,-0.6804764916408806
1789141175786219800,0.4612197265625,-5.624632026135921,-8.004131207200885,-0.683954104623571
1789141175796192000,0.47119189453125,-5.615936678504943,-8.009924403649569,-0.6875754369258881
1789141175806163700,0.481163818359375,-5.608378810471296,-8.014726835495233,-0.6932767173074186
1789141175816136000,0.491135986328125,-5.600046450933814,-8.020035463297367,-0.6992104912705719
1789141175826108000,0.50110791015625,-5.596828073409199,-8.021527747681736,-0.7078063240498303
1789141175836081000,0.511080810546875,-5.596254657435417,-8.02114605488777,-0.7166228138424455
1789141175846052900,0.521052978515625,-5.595154587239026,-8.021174696460365,-0.7248463061779737
1789141175856025000,0.531025146484375,-5.590501792997122,-8.023883955419063,-0.7307320032157003
1789141175865996800,0.540996826171875,-5.587196321710944,-8.025610633081197,-0.737023212314397
1789141175875969000,0.550968994140625,-5.583395175862312,-8.02780609729886,-0.7419054313980042
1789141175885942000,0.56094189453125,-5.580348063251376,-8.029667799517512,-0.7446748961113393
1789141175895913700,0.570913818359375,-5.574138102695345,-8.033654823327064,-0.7481773512743413
1789141175905886000,0.580885986328125,-5.572855661669373,-8.034200182250142,-0.7518528979819268
1789141175915857700,0.590857666015625,-5.57418661801219,-8.032737708482145,-0.757590126459673
1789141175925831000,0.600830810546875,-5.5749219465494155,-8.031994196638465,-0.7600727370556444
1789141175935803000,0.610802978515625,-5.57528668820858,-8.031836375728249,-0.7590580070551485
1789141175945774800,0.62077490234375,-5.576690125265717,-8.031098124581575,-0.7565444167990237
1789141175955746800,0.630746826171875,-5.581933286616206,-8.027510329222679,-0.7559582144089043
1789141175965719000,0.640718994140625,-5.586032538628578,-8.025052414676546,-0.7517710649173707
1789141175975691800,0.65069189453125,-5.585520497453213,-8.026065391111374,-0.7447234114281833
1789141175985664000,0.6606640625,-5.585472566658258,-8.026655173698067,-0.7387026167687029
1789141175995636000,0.670635986328125,-5.583351921242476,-8.028668267086148,-0.7328427848245949
1789141176005608000,0.68060791015625,-5.581502493983507,-8.030478531378508,-0.7270723116643727
1789141176015580000,0.690579833984375,-5.581344088551401,-8.030897633573412,-0.7236427025418728
1789141176025553000,0.700552978515625,-5.578433169540762,-8.033709768384695,-0.714835345903784
1789141176035524900,0.71052490234375,-5.576061764234304,-8.03638804768324,-0.7031354826945811
1789141176045496800,0.720496826171875,-5.5763049253404136,-8.037199948588013,-0.6918266646295785
1789141176055468800,0.73046875,-5.57772940518558,-8.037104671519995,-0.6813746825896203
1789141176065441800,0.74044189453125,-5.576978294557333,-8.038785756474732,-0.6675493516590446
1789141176075414000,0.7504140625,-5.5778013013780114,-8.039143483871221,-0.6562676407966762
1789141176085385700,0.7603857421875,-5.57853136921823,-8.039783535340428,-0.6420732573579997
1789141176095358000,0.77035791015625,-5.575523419573903,-8.043381852093338,-0.6228433639701455
1789141176105330000,0.780329833984375,-5.5757548902422185,-8.044780028453468,-0.6023765857310965
1789141176115303000,0.790302978515625,-5.5777171302258965,-8.044614608758687,-0.5862128019155934
1789141176125275000,0.80027490234375,-5.574516288357973,-8.048148628103732,-0.5678458089673891
1789141176135247000,0.8102470703125,-5.572305626571178,-8.050993496140837,-0.5489111721990629
1789141176145218800,0.82021875,-5.5711716541051866,-8.052898452979326,-0.5322281868150457
1789141176155191800,0.83019189453125,-5.5675540481299155,-8.056676802474259,-0.5125265111969783
1789141176165164000,0.8401640625,-5.56512068350315,-8.059539790689945,-0.49359907135441894
1789141176175135700,0.8501357421875,-5.566970695284009,-8.059397751870751,-0.4746793398942798
1789141176185108000,0.86010791015625,-5.570001441282034,-8.058364317169785,-0.45631315066367384
1789141176195080400,0.87008056640625,-5.5760985891133545,-8.055098593372106,-0.4391876091439277
1789141176205053400,0.880053466796875,-5.580364429864287,-8.05290780532956,-0.42496962563395496
1789141176215025400,0.890025390625,-5.583759917521476,-8.051317905789613,-0.4102301024679094
1789141176224997600,0.89999755859375,-5.58699816879034,-8.049873552200198,-0.39418245584536343
1789141176234969300,0.90996923828125,-5.591199712133407,-8.047821880367398,-0.37608887301106003
1789141176244941600,0.919941650390625,-5.5910296162635085,-8.048771143916248,-0.3578499634219333
1789141176254914600,0.92991455078125,-5.589814979776739,-8.050347599452733,-0.3409486591121182
1789141176264886300,0.93988623046875,-5.58686782040894,-8.053071471458672,-0.32454408881068225
1789141176274858500,0.9498583984375,-5.5844192582130425,-8.055420664933324,-0.3079815880011767
1789141176284830200,0.959830322265625,-5.581358117076754,-8.058274885320664,-0.28814227574439716
1789141176294803500,0.969803466796875,-5.5823015354067085,-8.058199481996894,-0.27152607198627665
1789141176304775400,0.979775390625,-5.581569129478931,-8.05919200016558,-0.2567206257108599
1789141176314747400,0.989747314453125,-5.583360104548931,-8.058394712308049,-0.24239076105793936
1789141176324719400,0.99971923828125,-5.586598940339684,-8.056482741206883,-0.23105766706820577
1789141176334691600,1.009691650390625,-5.5886699013948435,-8.055279795157908,-0.22275409523379056
1789141176344664300,1.019664306640625,-5.588161367350817,-8.055885359835624,-0.21344162035146727
1789141176354636500,1.029636474609375,-5.58873127619326,-8.055667917692661,-0.20662267931792883
1789141176364608500,1.0396083984375,-5.587157743266225,-8.05690184340179,-0.20097924833716824
1789141176374580500,1.04958056640625,-5.581376237255334,-8.061133197361231,-0.19171539836954324
1789141176384552400,1.059552490234375,-5.5777019326567645,-8.063844794407487,-0.18447655142350122
1789141176394525400,1.069525390625,-5.5755777801096436,-8.065435862991214,-0.17905964094130322
1789141176404497400,1.079497314453125,-5.572623606479167,-8.067635418862103,-0.17178459017071873
1789141176414469400,1.089469482421875,-5.57136805346012,-8.068712692704796,-0.16163650471447036
1789141176424441300,1.09944140625,-5.57396216160655,-8.067066679063439,-0.15418858159501106
1789141176434414300,1.109414306640625,-5.57607053206265,-8.065735138198733,-0.1474333351811394
1789141176444386600,1.119386474609375,-5.578911308446526,-8.063864668151735,-0.14216178798638282
1789141176454358300,1.129358154296875,-5.578312173509597,-8.064326440444589,-0.13948155419277025
1789141176464330500,1.13933056640625,-5.575671888133884,-8.06618638909757,-0.13749134848993272
1789141176474302500,1.149302490234375,-5.572931064993143,-8.068125832727551,-0.13481191841391846
1789141176484275500,1.159275390625,-5.5706140202224255,-8.069792304635047,-0.1307879327279981
1789141176494247400,1.169247314453125,-5.568091808268427,-8.071607245102525,-0.12603617162364533
1789141176504219600,1.1792197265625,-5.566771373319625,-8.072593333530426,-0.12111742905508727
1789141176514191400,1.18919140625,-5.568798495233058,-8.071177621513606,-0.1222984190005809
1789141176524164400,1.199164306640625,-5.571580819427966,-8.069211874398588,-0.12521943928012624
1789141176534136600,1.209136474609375,-5.573970929434895,-8.067483443170785,-0.13012726772902533
1789141176544108300,1.2191083984375,-5.576071701106429,-8.065928030422329,-0.13641058578221127
1789141176554080500,1.22908056640625,-5.579944158625603,-8.063102451607584,-0.14487733968854882
1789141176564052200,1.23905224609375,-5.582776751703023,-8.061019215592742,-0.1514984109292738
1789141176574025500,1.249025390625,-5.5863955267220735,-8.058366655257343,-0.15905958516485988
1789141176583997400,1.25899755859375,-5.586228937983512,-8.058357887428999,-0.16520179598061366
1789141176593969400,1.268969482421875,-5.5865697142452,-8.05798320889771,-0.17181149644395335
1789141176603941400,1.27894140625,-5.584871093633771,-8.059066912481189,-0.17621804257351903
1789141176613913600,1.28891357421875,-5.5849260386914015,-8.058964621150492,-0.17907608061945066
1789141176623886300,1.29888623046875,-5.583443691179156,-8.05986595390439,-0.18466504146661608
1789141176633858600,1.308858642578125,-5.583862793374061,-8.059457373103498,-0.18978746251426637
1789141176643830500,1.31883056640625,-5.584851219889521,-8.058548441565037,-0.19901976656615733
1789141176653802500,1.328802490234375,-5.581928025919199,-8.06029382392764,-0.21008465634007006
1789141176663775500,1.338775390625,-5.58345479709506,-8.058928965315221,-0.22154787951549515
1789141176673747500,1.34874755859375,-5.588505066221952,-8.05516581338942,-0.2308550389018841
1789141176683719400,1.358719482421875,-5.591284467807411,-8.052961581343412,-0.2402721066698432
1789141176693691400,1.36869140625,-5.593896696132421,-8.050883021503687,-0.2489873097787611
1789141176703663400,1.378663330078125,-5.597659263536333,-8.047983792930841,-0.25798691931962964
1789141176713636400,1.38863623046875,-5.600990453785657,-8.045400790700317,-0.2661281767318025
1789141176723608600,1.398608642578125,-5.6034162196278565,-8.043552532485126,-0.270888175941538
1789141176733580300,1.408580322265625,-5.607191646513343,-8.040846196135877,-0.27312152448417615
1789141176743552500,1.418552490234375,-5.613424987944961,-8.036284587308764,-0.27923200672110543
1789141176753524500,1.4285244140625,-5.617857417434454,-8.032945213752985,-0.28611964734299106
1789141176763497500,1.43849755859375,-5.62088582534492,-8.030543997830152,-0.2939118721217848
1789141176773469400,1.448469482421875,-5.624940069171786,-8.027253724113105,-0.3059872541124932
1789141176783441700,1.458441650390625,-5.62756223436892,-8.02502494214773,-0.31607286879178137
1789141176793413400,1.468413330078125,-5.628650029605627,-8.024000859797,-0.322635770971328
1789141176803386400,1.478386474609375,-5.62884876704812,-8.023637287181616,-0.3281705722121522
1789141176813358600,1.488358642578125,-5.6276937517941,-8.024239344727993,-0.3332068493463099
1789141176823330300,1.498330322265625,-5.6258577685385935,-8.025238877159357,-0.34006628678701817
1789141176833302500,1.508302490234375,-5.622953863790631,-8.026907687154411,-0.3486085992807522
1789141176843274200,1.518274169921875,-5.619939484405517,-8.028602800634502,-0.3580785480134189
1789141176853247500,1.52824755859375,-5.619793938454985,-8.028318722996115,-0.3666009867629036
1789141176863219500,1.538219482421875,-5.622459942793846,-8.026084680333733,-0.37455326094161717
1789141176873191400,1.54819140625,-5.6267935880839826,-8.022744137734174,-0.3809788004770875
1789141176883163400,1.558163330078125,-5.630143483033776,-8.020059428694843,-0.38795411938242613
1789141176893136400,1.568136474609375,-5.634222276780009,-8.016775584718584,-0.39653292796164746
1789141176903108400,1.5781083984375,-5.635217133036256,-8.015604787373542,-0.40595896448735147
1789141176913080600,1.58808056640625,-5.63401477150917,-8.015973036164045,-0.4152764626046642
1789141176923052500,1.598052490234375,-5.630702870482206,-8.017861626389623,-0.4236229602653533
1789141176933024500,1.6080244140625,-5.625847831666469,-8.021055453994869,-0.42765897431578487
1789141176942997500,1.61799755859375,-5.621573223087191,-8.0240178109318,-0.42829204805493354
1789141176952969500,1.627969482421875,-5.621289145448803,-8.024184399670363,-0.4289032387558371
1789141176962941400,1.63794140625,-5.6190118481665845,-8.025747411203383,-0.4295063922807574
1789141176972913400,1.647913330078125,-5.616973035815358,-8.026974322649837,-0.43322449948843567
1789141176982885400,1.657885498046875,-5.618215729352832,-8.025640443697572,-0.44174788808599114
1789141176992858400,1.6678583984375,-5.618004716950654,-8.025168150010705,-0.45286476377546786
1789141177002830600,1.67783056640625,-5.616370393747091,-8.025758517119288,-0.46257137080822136
1789141177012802300,1.68780224609375,-5.613819540220499,-8.027067261630297,-0.47075321595910935
1789141177022774500,1.6977744140625,-5.610690594545006,-8.029014888566731,-0.4748183465061709
1789141177032747500,1.70774755859375,-5.606517108252644,-8.031894243395328,-0.4754325328817591
1789141177042719500,1.717719482421875,-5.604829009035229,-8.033072639524937,-0.4754187600847333
1789141177052691500,1.72769140625,-5.603179488262533,-8.03420310485959,-0.47577122678421435
1789141177062663700,1.73766357421875,-5.60163751951754,-8.035345260632038,-0.47462903447914867
1789141177072635400,1.747635498046875,-5.601816967737674,-8.035171657630801,-0.4754507626581937
1789141177082608400,1.7576083984375,-5.604868172001838,-8.032948720884322,-0.4770435848075896
1789141177092580600,1.76758056640625,-5.608099993529915,-8.030593682190775,-0.47870801088847215
1789141177102552300,1.77755224609375,-5.61044100369811,-8.028810305905342,-0.48119171746298667
1789141177112524500,1.787524658203125,-5.613417973682284,-8.026545283582806,-0.4842545025670901
1789141177122496300,1.797496337890625,-5.613386409500241,-8.026562234717607,-0.484323439617455
1789141177132469500,1.807469482421875,-5.613719586977362,-8.026254776203633,-0.485569713351503
1789141177142441500,1.81744140625,-5.6099488362669945,-8.028688725352287,-0.4888877518583089
1789141177152413400,1.827413330078125,-5.601921597155928,-8.034231746432186,-0.4898702235570177
1789141177162385400,1.837385498046875,-5.592738173747063,-8.040603035029768,-0.49027299567162985
1789141177172358400,1.8473583984375,-5.584031720200181,-8.046531256034969,-0.4922551824647933
1789141177182330400,1.857330322265625,-5.5744800480008125,-8.053067964327335,-0.49360455124713476
1789141177192302600,1.867302490234375,-5.567674459639191,-8.05772134309113,-0.4944897000512108
1789141177202274600,1.877274658203125,-5.562145467084646,-8.061462867707014,-0.49571935144402085
1789141177212246800,1.887246826171875,-5.5579000845998525,-8.064401259246468,-0.4955565620977431
1789141177222219800,1.8972197265625,-5.555799312928318,-8.06568662288189,-0.4981629452038556
1789141177232191500,1.90719140625,-5.556724611079693,-8.064944280081987,-0.4998782246891409
1789141177242163700,1.917163818359375,-5.5596203325212,-8.062773365783691,-0.5026788151931018
1789141177252135700,1.9271357421875,-5.564912009188532,-8.058978065153957,-0.5049814295796677
1789141177262107600,1.937107666015625,-5.568786220273375,-8.05617294460535,-0.5070289366940036
1789141177272080600,1.94708056640625,-5.572732327550649,-8.053328076568246,-0.5088772314418107
1789141177282052900,1.957052978515625,-5.575791130599379,-8.051019215103983,-0.5118883959565311
1789141177292024600,1.967024658203125,-5.576807029643654,-8.050157629838585,-0.5143714084113017
1789141177301996800,1.976996826171875,-5.576923349499702,-8.049730344337224,-0.5197721714762971
1789141177311969800,1.9869697265625,-5.576027277442813,-8.049995132753253,-0.5252317885890603
1789141177321941500,1.99694140625,-5.574872846710681,-8.050315450748801,-0.5325338552307337
1789141177331913700,2.006913818359375,-5.573014651623368,-8.051001679447293,-0.5415495939224958
1789141177341885400,2.016885498046875,-5.571160548189282,-8.051523657494783,-0.5527477546872571
1789141177351857700,2.026857666015625,-5.570368521028756,-8.051120337390898,-0.5664325811685994
1789141177361830700,2.03683056640625,-5.5704357410460705,-8.050061768248677,-0.5806493225695565
1789141177371802600,2.046802734375,-5.571991738316417,-8.047899621778726,-0.5954940962083637
1789141177381774600,2.056774658203125,-5.573845841750503,-8.045525878384709,-0.6100466454349458
1789141177391746800,2.066746826171875,-5.575317083346843,-8.043430367410183,-0.6240549317169934
1789141177401718500,2.076718505859375,-5.577157742777467,-8.041060715669394,-0.6379998704392462
1789141177411691800,2.08669189453125,-5.577825851297378,-8.039464970910549,-0.652102483941242
1789141177421663700,2.096663818359375,-5.578396344661712,-8.03793235451579,-0.6659699735131114
1789141177431635700,2.1066357421875,-5.580178551903367,-8.03558316104114,-0.6792561560656875
1789141177441607700,2.116607666015625,-5.581990569761395,-8.033115309622882,-0.693414810603857
1789141177451580700,2.12658056640625,-5.583960408529639,-8.030391437616943,-0.7089408079724758
1789141177461552600,2.136552734375,-5.584793936744332,-8.02854960914254,-0.7230944210093468
1789141177471524600,2.146524658203125,-5.5847974438756705,-8.027330881002545,-0.7364562991466372
1789141177481496600,2.15649658203125,-5.583732444992661,-8.027129805472493,-0.7466659968633205
1789141177491468500,2.166468505859375,-5.5848395294517275,-8.025671423357725,-0.7540196475617588
1789141177501441800,2.17644189453125,-5.5882052064925425,-8.022843506455422,-0.7591695046056062
1789141177511413500,2.18641357421875,-5.5904158682793375,-8.02071818486452,-0.7653227665383369
1789141177521385700,2.1963857421875,-5.5920162892133,-8.018848299339414,-0.7731878738902509
1789141177531357700,2.206357666015625,-5.5938540260344745,-8.01650553560555,-0.7841060852024704
1789141177541329700,2.21632958984375,-5.594988583022356,-8.014626882252097,-0.7951384974788874
1789141177551302700,2.226302734375,-5.594126413235068,-8.014149912390112,-0.8059382700432092
1789141177561274600,2.236274658203125,-5.591974788159131,-8.014858937442302,-0.813779046671465
1789141177571246600,2.24624658203125,-5.589678786176443,-8.015856716307997,-0.8197031760234386
1789141177581218800,2.25621875,-5.5870209651440375,-8.017465905070305,-0.8220786729831248
1789141177591190500,2.2661904296875,-5.585048203766346,-8.018662421378492,-0.8238174794744699
1789141177601163500,2.27616357421875,-5.583690359416604,-8.019381383302807,-0.8260170353453606
1789141177611135700,2.2861357421875,-5.582563401213288,-8.020005652680993,-0.827571205984801
1789141177621107500,2.296107421875,-5.5818824332118036,-8.020557441344856,-0.8268199492260814
1789141177631079700,2.30607958984375,-5.582935157135129,-8.02019854490459,-0.8231909450739622
1789141177641052700,2.316052734375,-5.583688605850934,-8.020224263867735,-0.8178074984699487
1789141177651024600,2.326024658203125,-5.5821372847557065,-8.022055570948124,-0.8104057708460837
1789141177660996600,2.33599658203125,-5.580093211707473,-8.024284937435388,-0.8023734902337193
1789141177670968600,2.345968505859375,-5.578537798959016,-8.026298030823469,-0.792991694708541
1789141177680940500,2.3559404296875,-5.577539435571432,-8.027906635063886,-0.7836809916581958
1789141177690913800,2.365913818359375,-5.576239458888769,-8.029678320911525,-0.774732253788039
1789141177700885500,2.375885498046875,-5.575224144366383,-8.031203338521719,-0.7661803332157433
1789141177710857700,2.385857666015625,-5.5731952688872815,-8.033386527779697,-0.7580065983060746
1789141177720829700,2.39582958984375,-5.570894590729475,-8.035661486974359,-0.7507753318782895
1789141177730802400,2.405802490234375,-5.568495128372311,-8.038123493173718,-0.7421648860517889
1789141177740774700,2.415774658203125,-5.5653585839122535,-8.041181711700558,-0.7325109955869614
1789141177750746600,2.42574658203125,-5.562503779003023,-8.044213626742362,-0.7208145664438604
1789141177760718600,2.435718505859375,-5.55702680889666,-8.049111335656047,-0.7082691192559898
1789141177770690600,2.445690673828125,-5.555034173774719,-8.05147338861227,-0.6969622739523649
1789141177780663800,2.455663818359375,-5.554236301395297,-8.052958074212073,-0.6860915550436825
1789141177790635500,2.465635498046875,-5.555434571269155,-8.053278392207622,-0.672493676193431
1789141177800607700,2.475607666015625,-5.558107589870691,-8.052666397789121,-0.6575652063265442
1789141177810579500,2.485579345703125,-5.562964382252097,-8.050454566958546,-0.6434292750768363
1789141177820551700,2.4955517578125,-5.567664522767067,-8.048267870569228,-0.6299893632672727
1789141177830524700,2.505524658203125,-5.572645818310976,-8.045779560884833,-0.6175999103587121
1789141177840496600,2.51549658203125,-5.575818603128194,-8.044488936552405,-0.6056575436305255
1789141177850468600,2.525468505859375,-5.575822694781422,-8.045180425947905,-0.5963668239222839
1789141177860440800,2.53544091796875,-5.574995596307516,-8.046421950441598,-0.5872756819067523
1789141177870412500,2.54541259765625,-5.573441352602839,-8.048173178023099,-0.5779655633782967
1789141177880385500,2.555385498046875,-5.568389914432168,-8.05231159300208,-0.5689522723719478
1789141177890357800,2.565357666015625,-5.56381719968915,-8.056213276615738,-0.5583619413072243
1789141177900329500,2.57532958984375,-5.562213856145739,-8.05809485257864,-0.5470518811332061
1789141177910301700,2.5853017578125,-5.56172753393352,-8.059237592872977,-0.5350508430203422
1789141177920274700,2.595274658203125,-5.56396566824913,-8.058518630948662,-0.5224308692915365
1789141177930246700,2.60524658203125,-5.567288675191998,-8.0568445602566,-0.512784906404838
1789141177940218600,2.615218505859375,-5.570103148090839,-8.055455736246705,-0.5039677224924788
1789141177950190600,2.625190673828125,-5.570938429871201,-8.055355198481678,-0.496273916586861
1789141177960162600,2.63516259765625,-5.572402072682976,-8.054653772214055,-0.49119175448436286
1789141177970135800,2.6451357421875,-5.572725897809863,-8.05469936492145,-0.4867395243158564
1789141177980107500,2.655107421875,-5.572338359797,-8.055273949939012,-0.4816462562974542
1789141177990079700,2.665079833984375,-5.570909788298606,-8.056646407335997,-0.4751848782636225
1789141178000051700,2.6750517578125,-5.569260267525911,-8.058110634669662,-0.46967375015933066
1789141178010023700,2.685023681640625,-5.569247408044338,-8.058350873166322,-0.46568175791371613
1789141178019996700,2.69499658203125,-5.568682759898901,-8.058952346190809,-0.4620089511524886
1789141178029968600,2.70496875,-5.5681321402788155,-8.059608764272928,-0.4571515011839568
1789141178039940600,2.714940673828125,-5.568135062888264,-8.05991972991824,-0.4516080417126417
1789141178049912600,2.72491259765625,-5.5717690354764455,-8.057716082394123,-0.44608741512764244
1789141178059885800,2.7348857421875,-5.572522484192252,-8.057465322503447,-0.44116614267528054
1789141178069857500,2.744857421875,-5.571297326311469,-8.05859871044755,-0.4359070165706798
1789141178079829800,2.754829833984375,-5.5704000852107995,-8.059482507544756,-0.43101018443983047
1789141178089801500,2.764801513671875,-5.569011261200904,-8.060678439331054,-0.42658495187610385
1789141178099773700,2.774773681640625,-5.564610395893454,-8.0638553158015,-0.42396757245194167
1789141178109746700,2.78474658203125,-5.560278504168987,-8.06704446723163,-0.42010052176024765
1789141178119718700,2.79471875,-5.557797208747267,-8.068971635901928,-0.4158837808480486
1789141178129690600,2.804690673828125,-5.557341866195202,-8.069478416380285,-0.41213078499007966
1789141178139662800,2.814662841796875,-5.558881496852636,-8.068526814743876,-0.4099860645789653
1789141178149634600,2.824634521484375,-5.560751966899633,-8.067334974610805,-0.40808757401388135
1789141178159607600,2.834607666015625,-5.561953159382939,-8.066607244858146,-0.4060862806614488
1789141178169579800,2.844579833984375,-5.564811471423506,-8.064747880727053,-0.40386305165402586
1789141178179551500,2.854551513671875,-5.566180421689152,-8.064008460536598,-0.3997296416437253
1789141178189523700,2.864523681640625,-5.564389446619153,-8.065558028066159,-0.3933731122238561
1789141178199496000,2.874495849609375,-5.560485424917936,-8.068562470579147,-0.3868974499363452
1789141178209468200,2.88446826171875,-5.5587248449862,-8.070045987135172,-0.38121019808016715
1789141178219439900,2.89443994140625,-5.558032771068811,-8.070622325718402,-0.37909492295924574
1789141178229412000,2.904412109375,-5.557901838165521,-8.07075735027492,-0.37814847242198885
1789141178239383800,2.9143837890625,-5.559124073436856,-8.06995655528605,-0.37727764440421013
1789141178249357000,2.924357177734375,-5.561362792274355,-8.06848239108026,-0.37578842875976115
1789141178259329000,2.9343291015625,-5.5630701807141305,-8.067311593735218,-0.3756631949448958
1789141178269301000,2.944301025390625,-5.562393304365873,-8.06781252899468,-0.374933382833004
1789141178279273000,2.95427294921875,-5.561104433599114,-8.068736658102273,-0.3741489909896627
1789141178289245200,2.9642451171875,-5.556596016263962,-8.071779094538092,-0.3755074563939124
1789141178299218000,2.974218017578125,-5.55126459210813,-8.075311944839358,-0.3783843635370955
1789141178309190100,2.984190185546875,-5.544693981546163,-8.07959590576887,-0.38326037207562474
1789141178319162000,2.994162109375,-5.540052293220162,-8.082534297308325,-0.3883818798078224
1789141178329134000,3.004134033203125,-5.538213387355208,-8.083578253403305,-0.3928537279922515
1789141178339106000,3.01410595703125,-5.537420775672793,-8.084023074561356,-0.39487445669751614
1789141178349079000,3.0240791015625,-5.539741327574848,-8.082309840902685,-0.3973848686158657
1789141178359051000,3.034051025390625,-5.5431385687977075,-8.079809840780497,-0.4008299675684422
1789141178369023000,3.04402294921875,-5.545189071586727,-8.078308788567782,-0.4027228321103379
1789141178378995000,3.053994873046875,-5.54609858764708,-8.077617883694172,-0.40406624607592817
1789141178388968000,3.063968017578125,-5.547226714894175,-8.076804813745618,-0.4048271474458277
1789141178398940200,3.073940185546875,-5.54270485355556,-8.079922068983317,-0.40456889836844057
1789141178408912000,3.083911865234375,-5.540449768105149,-8.081496770954132,-0.4039986972650513
1789141178418884000,3.093884033203125,-5.539164988991618,-8.082424991714953,-0.4030366838324815
1789141178428856000,3.10385595703125,-5.537335435476899,-8.083749518316983,-0.40161951051093636
1789141178438829000,3.1138291015625,-5.534835435354709,-8.085387348651885,-0.4030961954673752
1789141178448801000,3.123801025390625,-5.535851918920875,-8.084533946692943,-0.40624497835449874
1789141178458773200,3.133773193359375,-5.537357647308707,-8.08336548743546,-0.408985764962621
1789141178468745000,3.143744873046875,-5.538338475039601,-8.082527867567538,-0.4122200341761112
1789141178478717200,3.15371728515625,-5.540321173289418,-8.081155994692445,-0.41249380961619314
1789141178488690200,3.163690185546875,-5.539989164856076,-8.081524828004836,-0.4097059689959511
1789141178498662000,3.173661865234375,-5.539655402857065,-8.081896583926678,-0.40687425270136446
1789141178508634000,3.183634033203125,-5.5413557770341635,-8.080869578966498,-0.40411059667430815
1789141178518605800,3.193605712890625,-5.540367350518703,-8.08168323343694,-0.40139940148685127
1789141178528579000,3.2035791015625,-5.539227532833814,-8.082596841150522,-0.3987222912320867
1789141178538551000,3.213551025390625,-5.538949300414323,-8.082873904526233,-0.39696890822611747
1789141178548523000,3.22352294921875,-5.5388090151607985,-8.083105375194549,-0.39418596297670155
1789141178558495000,3.233494873046875,-5.539188954389095,-8.083068550315499,-0.38958694474864747
1789141178568467200,3.24346728515625,-5.539782828629017,-8.082919497233629,-0.3841891042931005
1789141178578440000,3.25343994140625,-5.543132139056921,-8.080915756195783,-0.3779850620212033
1789141178588412200,3.263412109375,-5.548506233310699,-8.077583981424569,-0.3702816115044057
1789141178598383900,3.2733837890625,-5.553654117593169,-8.074307736232877,-0.3645148646712303
1789141178608356000,3.283356201171875,-5.554727299782633,-8.073734320259094,-0.36082317054644225
1789141178618328000,3.293328125,-5.554802703106403,-8.073824921151996,-0.35761378004588185
1789141178628300800,3.30330078125,-5.555314159759879,-8.073670022851228,-0.35317079262975604
1789141178638273000,3.31327294921875,-5.552041421699523,-8.07614605757594,-0.3479927689373493
1789141178648245000,3.323244873046875,-5.546331227359175,-8.080333572393656,-0.34176677056197075
1789141178658217000,3.333217041015625,-5.542393887910246,-8.083262611582875,-0.3363212185071781
1789141178668189000,3.34318896484375,-5.540146985766292,-8.08504423430264,-0.3304714695656672
1789141178678162200,3.353162109375,-5.538872143524885,-8.086112740316986,-0.3256581875324249
1789141178688134000,3.3631337890625,-5.537580350148677,-8.087183584418892,-0.32101660880427807
1789141178698106000,3.373106201171875,-5.539004829993844,-8.086322583675384,-0.31810631084814667
1789141178708077800,3.383077880859375,-5.5428813791662455,-8.083750102838874,-0.31596692419927563
1789141178718051000,3.393051025390625,-5.54583730636239,-8.081820596081018,-0.31344540636502205
1789141178728023000,3.40302294921875,-5.54716241748631,-8.080990574997664,-0.3113994701532647
1789141178737995000,3.4129951171875,-5.546424750861525,-8.081584449237585,-0.30911877533756194
1789141178747967000,3.422967041015625,-5.543877404466271,-8.083416925361751,-0.3068959481889382
1789141178757939200,3.432939208984375,-5.541840930202603,-8.084827961203455,-0.3064800608644262
1789141178767912000,3.442911865234375,-5.538807846117019,-8.08690944365263,-0.30639570704922076
1789141178777884000,3.4528837890625,-5.535663118350506,-8.089104907870292,-0.30527079467251894
1789141178787856100,3.462856201171875,-5.534170249444246,-8.090129574742912,-0.3051850343515165
1789141178797827800,3.472827880859375,-5.536417151588201,-8.088639628446101,-0.30393004758805037
1789141178807800000,3.482800048828125,-5.5403498148620125,-8.085904066002369,-0.3050751442362554
1789141178817773000,3.49277294921875,-5.544583506909013,-8.082838833212852,-0.30933884782902893
1789141178827745000,3.5027451171875,-5.5488423333972685,-8.079705211362242,-0.3148233801873401
1789141178837717000,3.512717041015625,-5.551722857269644,-8.077505655491352,-0.32042372094504534
1789141178847689000,3.52268896484375,-5.550951288375258,-8.0778826721102,-0.3242550792688504
1789141178857661000,3.532660888671875,-5.548588650897145,-8.07939541476071,-0.32700116310659794
1789141178867634200,3.54263427734375,-5.545982267791032,-8.081208601662516,-0.3264129879551008
1789141178877606000,3.55260595703125,-5.541379742431641,-8.084442176756262,-0.3244919202320278
1789141178887578000,3.562578125,-5.541440532708168,-8.084419964924454,-0.32400179862752554
1789141178897550000,3.572550048828125,-5.543434921395779,-8.083028802827,-0.32459994718376545
1789141178907522800,3.582522705078125,-5.5459770070940255,-8.081178791046142,-0.327208083855547
1789141178917495000,3.5924951171875,-5.550030666399001,-8.078136939132213,-0.33352924970109016
1789141178927467000,3.602467041015625,-5.555030666643381,-8.074352744418382,-0.3418189756732434
1789141178937439000,3.61243896484375,-5.558343736714124,-8.071699015039204,-0.35052736544888463
1789141178947411000,3.622410888671875,-5.560954795995355,-8.069404766622185,-0.36174536342527713
1789141178957384200,3.63238427734375,-5.56146625264883,-8.068526814743876,-0.3733057816311717
1789141178967356000,3.64235595703125,-5.560260968512297,-8.068810892382263,-0.38493111829943955
1789141178977328000,3.652328125,-5.5577130375951524,-8.070002732515334,-0.39656405375227327
1789141178987299800,3.6622998046875,-5.556196203291416,-8.070578486576675,-0.40599699494279917
1789141178997272000,3.67227197265625,-5.554266696533561,-8.071473389589785,-0.41450767018925394
1789141179007245000,3.6822451171875,-5.555363844120502,-8.070229527008532,-0.4239282633548602
1789141179017217000,3.692217041015625,-5.55902353567183,-8.067054988625646,-0.43618802546914665
1789141179027189000,3.70218896484375,-5.562043175753951,-8.064204275369644,-0.45019086839109657
1789141179037161200,3.7121611328125,-5.565480748987198,-8.060973038363457,-0.4653165413305163
1789141179047134000,3.722134033203125,-5.569420426523685,-8.057245542272925,-0.4824186289094388
1789141179057106000,3.73210595703125,-5.571887108898163,-8.054348067265748,-0.5019406736442819
1789141179067078100,3.742078125,-5.572050775027275,-8.053125831994414,-0.51943216239959
1789141179077049900,3.7520498046875,-5.57094076795876,-8.052752322506905,-0.5368325388053432
1789141179087022000,3.76202197265625,-5.5696653411954635,-8.052437265208363,-0.5545020510086789
1789141179096995000,3.7719951171875,-5.569128165578842,-8.051749282944202,-0.5696763488627969
1789141179106967000,3.781967041015625,-5.56890663178265,-8.050960762915015,-0.5828359458936379
1789141179116939000,3.79193896484375,-5.569263190135359,-8.04967949093282,-0.59695116314888
1789141179126911000,3.801910888671875,-5.571475605487823,-8.04703219129443,-0.6118101845087484
1789141179136883000,3.811883056640625,-5.574382432845234,-8.043699247479438,-0.6289370046701281
1789141179146856200,3.821856201171875,-5.576248226717114,-8.040888281711936,-0.6480484593100846
1789141179156828000,3.831827880859375,-5.576529381746053,-8.039103736382723,-0.6674691260296851
1789141179166800100,3.841800048828125,-5.576334735956788,-8.037708482632041,-0.6856528713654726
1789141179176772000,3.851772216796875,-5.575750798588991,-8.036601398172975,-0.7031571100044995
1789141179186744000,3.861744140625,-5.574126996779442,-8.03636700489521,-0.7185410685539245
1789141179196717800,3.8717177734375,-5.57051172889173,-8.037499223795532,-0.7337490129493176
1789141179206689500,3.881689453125,-5.567181707686186,-8.038615660604835,-0.7466792216710746
1789141179216661800,3.891661865234375,-5.566607122668624,-8.037869226151704,-0.7588960944917053
1789141179226633500,3.901633544921875,-5.566710583043098,-8.036765648823977,-0.7697446015685796
1789141179236605700,3.911605712890625,-5.567748109397292,-8.035120219704508,-0.7793665625251829
1789141179246578700,3.92157861328125,-5.5701645228892565,-8.032406284570694,-0.7900000386118888
1789141179256550700,3.931550537109375,-5.576320707431435,-8.027230927759408,-0.799123256266117
1789141179266522600,3.941522705078125,-5.581438196575641,-8.022839414802194,-0.807453423846513
1789141179276494800,3.951494873046875,-5.586019679147005,-8.018746592530608,-0.8163860142994671
1789141179286467600,3.961467529296875,-5.590548554748296,-8.014618114423751,-0.8258598720222711
1789141179296439600,3.971439453125,-5.594889214301109,-8.010489051795005,-0.836459372774139
1789141179306411800,3.981411865234375,-5.594015938597917,-8.009856014588475,-0.848277820861712
1789141179316383500,3.991383544921875,-5.591655639207363,-8.01029382148385,-0.8596292359594255
1789141179326355700,4.001355712890625,-5.589176681873202,-8.01105837611556,-0.8685862302012741
1789141179336328700,4.01132861328125,-5.58660653912425,-8.012059662112593,-0.8758453344840555
1789141179346300700,4.02130078125,-5.583960993051528,-8.013546101278067,-0.8791158075220883
1789141179356272600,4.031272705078125,-5.582663354456424,-8.014469061341881,-0.8789411085423081
1789141179366244600,4.04124462890625,-5.583465318489075,-8.014298965471982,-0.8753959102161228
1789141179376216600,4.051216552734375,-5.583560595557094,-8.014884656405448,-0.8694034648682921
1789141179386189800,4.06118994140625,-5.582782596921921,-8.015873667442799,-0.8652674610421061
1789141179396161500,4.07116162109375,-5.583157859975099,-8.015878928139806,-0.8627995365586131
1789141179406133800,4.0811337890625,-5.582817668235301,-8.01663705303073,-0.8579362413711845
1789141179416105700,4.091105712890625,-5.579472449460625,-8.019723328608274,-0.8508221715822816
1789141179426077700,4.10107763671875,-5.576372145357728,-8.022660551103948,-0.8434301616348325
1789141179436050700,4.11105078125,-5.573448366865516,-8.025675515010953,-0.8340311957791448
1789141179446022700,4.121022705078125,-5.569301184058189,-8.029611685416102,-0.8237761245507746
1789141179455994600,4.13099462890625,-5.568562348389626,-8.031412597358226,-0.811118083833903
1789141179465966600,4.140966552734375,-5.567671537029743,-8.03334444220364,-0.7979974671065807
1789141179475938600,4.1509384765625,-5.566731041309237,-8.035455150747298,-0.7831720192227513
1789141179485911600,4.16091162109375,-5.568469409409165,-8.035552181380986,-0.7696946249470115
1789141179495883800,4.1708837890625,-5.570165107411146,-8.035608880004286,-0.7567232804972678
1789141179505855500,4.18085546875,-5.569043994426727,-8.037655291140078,-0.7431237211465835
1789141179515827700,4.19082763671875,-5.567503779247403,-8.04002260479331,-0.728913774812594
1789141179525800700,4.20080078125,-5.564764125150441,-8.04349057316482,-0.7113730766206979
1789141179535772700,4.210772705078125,-5.559509857884049,-8.048791017660498,-0.6922394101489335
1789141179545744600,4.22074462890625,-5.5545408372998235,-8.054129456079005,-0.6696694856181741
1789141179555716900,4.230716796875,-5.549480631300806,-8.059601165488361,-0.6453384696990251
1789141179565688600,4.2406884765625,-5.543904292473196,-8.065463920041918,-0.6195210146144032
1789141179575661600,4.25066162109375,-5.539320471814275,-8.070641030418873,-0.5925091255808249
1789141179585633800,4.2606337890625,-5.538356010696291,-8.073062120085954,-0.5680409296806901
1789141179595605500,4.27060546875,-5.537627696421742,-8.075199716636538,-0.5442701049275696
1789141179605577700,4.28057763671875,-5.539053345310688,-8.075892959597706,-0.5188737978644669
1789141179615549400,4.290549560546875,-5.540901603525876,-8.076396232944726,-0.4905267512369901
1789141179625522700,4.300522705078125,-5.541693046164513,-8.077614961084723,-0.4606096057485789
1789141179635494700,4.31049462890625,-5.538570530229807,-8.081414937889576,-0.4305408498950302
1789141179645466600,4.320466552734375,-5.534547850584984,-8.08571409638822,-0.4004735553462058
1789141179655438600,4.3304384765625,-5.531281542265415,-8.089398337858915,-0.37006058916486795
1789141179665410800,4.340410888671875,-5.52916440398097,-8.0922046274513,-0.33903201183583587
1789141179675383600,4.350383544921875,-5.528678666290641,-8.093774068725109,-0.3080758421558887
1789141179685355800,4.360355712890625,-5.531439363175631,-8.093017697399855,-0.27682355733988806
1789141179695327700,4.37032763671875,-5.535491268914938,-8.091246011552213,-0.24586446505049242
1789141179705299700,4.3802998046875,-5.543873897334933,-8.086341872897744,-0.21663142936872318
1789141179715272700,4.390272705078125,-5.549059191018342,-8.083504019123316,-0.18783799068061635
1789141179725244700,4.40024462890625,-5.550684161871671,-8.082979118466376,-0.1603984690858051
1789141179735216600,4.410216552734375,-5.550897512361407,-8.083353212475776,-0.13166049604513683
1789141179745188600,4.420188720703125,-5.5498558943539855,-8.084495952770114,-0.10204205037551001
1789141179755160600,4.43016064453125,-5.5476732896178955,-8.086303294453025,-0.073608640638832
1789141179765133600,4.440133544921875,-5.5445852604746815,-8.088627353486418,-0.045534867127938194
1789141179775105800,4.450105712890625,-5.544468356096744,-8.088814985013007,-0.01819157244921662
1789141179785077500,4.460077392578125,-5.550763072326779,-8.084514657470583,0.006085394603089662
1789141179795049700,4.4700498046875,-5.558003544974326,-8.079494783481955,0.02748342695190804
1789141179805021700,4.480021728515625,-5.562544695535302,-8.076272314304113,0.048105754228984006
1789141179814994700,4.48999462890625,-5.567217948043346,-8.072911897960305,0.06757353432620875
1789141179824966700,4.499966552734375,-5.57228458378315,-8.06924577666819,0.08553135281847789
1789141179834939000,4.50993896484375,-5.575239341935515,-8.066986015042662,0.10402336951899342
1789141179844910600,4.51991064453125,-5.573727183806896,-8.067782133856415,0.12185030990689992
1789141179854882800,4.5298828125,-5.57241434764266,-8.06842510793507,0.1382338100208435
1789141179864855800,4.539855712890625,-5.571565037336946,-8.068699833223222,0.1553479442305863
1789141179874827500,4.54982763671875,-5.569622671097517,-8.069727422705292,0.17085041459314523
1789141179884799700,4.5597998046875,-5.568264242225885,-8.070418327578901,0.18209292595628648
1789141179894771500,4.569771484375,-5.568766931051016,-8.0698460806489,0.1918186943472363
1789141179904743700,4.57974365234375,-5.570260384479165,-8.06861215493977,0.20023325227545574
1789141179914716700,4.589716552734375,-5.572185799583792,-8.067136821690202,0.20601607346059753
1789141179924688600,4.599688720703125,-5.573374132585525,-8.06618814266324,0.21091520714638753
1789141179934660600,4.60966064453125,-5.573985542482137,-8.065697728797794,0.21350728773251174
1789141179944632600,4.619632568359375,-5.572349465712905,-8.066827025088667,0.2135825083931908
1789141179954605600,4.62960546875,-5.569276049616932,-8.068953515723347,0.2134212168842554
1789141179964577800,4.639577880859375,-5.564061529839038,-8.072531958732009,0.21411732765594496
1789141179974549500,4.649549560546875,-5.560494777268171,-8.075020268416404,0.21291891165161503
1789141179984521700,4.659521728515625,-5.558941118085384,-8.076141965922712,0.21091750870132817
1789141179994493700,4.66949365234375,-5.558945209738612,-8.076264130997657,0.20608725726697594
1789141180004466400,4.679466552734375,-5.562729404452443,-8.073833104458451,0.1991028965386562
1789141180014438700,4.689438720703125,-5.568959238752722,-8.069765416628123,0.1896400168675929
1789141180024410600,4.69941064453125,-5.5739224141180514,-8.066587371113895,0.17871168602015822
1789141180034382600,4.709382568359375,-5.576847361654043,-8.064852510145306,0.165273655640427
1789141180044354600,4.7193544921875,-5.575010793876648,-8.066401493152975,0.15103055595550685
1789141180054327800,4.729327880859375,-5.570860688459873,-8.069513487693667,0.1372619875803124
1789141180064299500,4.739299560546875,-5.565649091291427,-8.073315218064188,0.12453109168978407
1789141180074271700,4.749271728515625,-5.559688721582293,-8.077590995687245,0.11295322915874421
1789141180084243500,4.759243408203125,-5.553678667512536,-8.08185508287251,0.10326742745200171
1789141180094215700,4.769215576171875,-5.551015001261234,-8.0838108931154,0.09283689005887136
1789141180104188700,4.779188720703125,-5.54971794718802,-8.084834390944241,0.0804110780621413
1789141180114160600,4.78916064453125,-5.54841095624268,-8.085853797119855,0.06702249001443851
1789141180124132600,4.799132568359375,-5.547943338730931,-8.086291019493341,0.051133221424533984
1789141180134104800,4.809104736328125,-5.550190240874886,-8.08483614450991,0.03457963000726886
1789141180144076500,4.81907666015625,-5.55227230784595,-8.083461933547257,0.017443548827199264
1789141180154049500,4.829049560546875,-5.554700996297598,-8.081811243730783,0.000008062661185743991
1789141180164021800,4.839021728515625,-5.557052527859807,-8.080171075308323,-0.01977892840562854
1789141180173993500,4.848993408203125,-5.557539434593916,-8.07976366355121,-0.03955721749044023
1789141180183965700,4.858965576171875,-5.556639855405688,-8.080261091679334,-0.05934080837145447
1789141180193937400,4.8689375,-5.556865480855107,-8.079958893862367,-0.07679227564362809
1789141180203910400,4.878910400390625,-5.556454561966658,-8.0800816434592,-0.09213116207546554
1789141180213882400,4.88888232421875,-5.554124073192477,-8.081482157906889,-0.108339771413384
1789141180223854300,4.898854248046875,-5.553841164597869,-8.08144474850595,-0.12440407690978608
1789141180233826300,4.908826416015625,-5.554680538031459,-8.08060595959425,-0.1404054915041197
1789141180243799600,4.918799560546875,-5.555836722329259,-8.079494783481955,-0.15754697037851437
1789141180253771300,4.928771240234375,-5.5561669771969315,-8.078878697410225,-0.17639235796080902
1789141180263743500,4.938743408203125,-5.555765995180606,-8.078723799109458,-0.19510469374796374
1789141180273715500,4.948715576171875,-5.555664288371801,-8.07838302284777,-0.2114348105737008
1789141180283687400,4.9586875,-5.55507041413188,-8.078405234679579,-0.22568781059812754
1789141180293660400,4.968660400390625,-5.553031601780653,-8.07944919077456,-0.23819288924299178
1789141180303632400,4.97863232421875,-5.550132957729697,-8.08114664234221,-0.2479647800642997
1789141180313604400,4.988604248046875,-5.549163820436597,-8.08148098886311,-0.25852913643755016
1789141180323576600,4.99857666015625,-5.549731391191482,-8.080798851817846,-0.26750925582665946
1789141180333548300,5.00854833984375,-5.549371325707435,-8.080762026938796,-0.27595397143112493
1789141180343521300,5.018521240234375,-5.54854130462408,-8.081081175890564,-0.28319857226451856
1789141180353493500,5.028493408203125,-5.547292765867709,-8.081661021605134,-0.29101149277146904
1789141180363465200,5.03846533203125,-5.546236534813046,-8.082212810268997,-0.29575908915735777
1789141180373437400,5.0484375,-5.545157507404685,-8.082688611087203,-0.3029112442006357
1789141180383409400,5.058409423828125,-5.543709646683931,-8.083406403967738,-0.3101850163295865
1789141180393382400,5.06838232421875,-5.542253018134832,-8.084199600172042,-0.3154994528179988
1789141180403354400,5.078354248046875,-5.539966953024268,-8.085590762269497,-0.3199461665611714
1789141180413326600,5.08832666015625,-5.538129216203093,-8.086669205155967,-0.3244990440925583
1789141180423298300,5.09829833984375,-5.5369981663465495,-8.087254311567545,-0.3291720408722758
1789141180433270500,5.1082705078125,-5.536044811144471,-8.087755246827006,-0.3328991716366261
1789141180443243500,5.118243408203125,-5.534401135590672,-8.088711524638533,-0.33696671333648265
1789141180453215500,5.128215576171875,-5.534249159899353,-8.088702172288299,-0.3396540161916986
1789141180463187500,5.1381875,-5.535481332042813,-8.087817790669202,-0.34064755727369334
1789141180473159400,5.148159423828125,-5.536080466979742,-8.087476429885625,-0.3390259108886122
1789141180483132400,5.15813232421875,-5.536590754589438,-8.087252558001875,-0.3359861413339153
1789141180493104400,5.1681044921875,-5.536137165603042,-8.087761092045902,-0.33119448661059137
1789141180503076400,5.178076416015625,-5.535034172797203,-8.08871795437932,-0.3262305805929005
1789141180513048300,5.18804833984375,-5.53405100697875,-8.08949887562394,-0.3235308931801468
1789141180523020500,5.1980205078125,-5.530495360323786,-8.091958543735743,-0.32282044335585086
1789141180532993300,5.2079931640625,-5.526439362931251,-8.094725670361518,-0.3229267167419195
1789141180542965500,5.217965576171875,-5.526611796888709,-8.094616949290037,-0.32267047695852813
1789141180552937500,5.2279375,-5.528254303398728,-8.093443229335547,-0.3239697595214471
1789141180562909400,5.237909423828125,-5.531959003135562,-8.090906404334307,-0.3241086200028658
1789141180572881400,5.24788134765625,-5.536982384255528,-8.087401611083745,-0.3258024913739413
1789141180582854400,5.2578544921875,-5.540537446388602,-8.08487764556408,-0.3279905029375106
1789141180592826400,5.267826416015625,-5.542613083618879,-8.08334502916932,-0.33070407274514435
1789141180602798300,5.27779833984375,-5.543159611585736,-8.082830065384506,-0.33411676726546136
1789141180612770300,5.287770263671875,-5.5395157021254295,-8.08519328738451,-0.3373542878819629
1789141180622742500,5.297742431640625,-5.536149440562725,-8.087443112137914,-0.33867085037324574
1789141180632715500,5.307715576171875,-5.535304806432127,-8.088034063768387,-0.33835002092104405
1789141180642687200,5.317687255859375,-5.535228234064578,-8.088204744160175,-0.33554581368789077
1789141180652659500,5.327659423828125,-5.53804153791964,-8.08644241066277,-0.33156865368522703
1789141180662631400,5.33763134765625,-5.54063447702229,-8.084764832839369,-0.32913580051511526
1789141180672603400,5.347603271484375,-5.543507986631989,-8.082852861738205,-0.3276981689274311
1789141180682576400,5.357576416015625,-5.548474084606767,-8.079386646932363,-0.3291246580665931
1789141180692548600,5.367548583984375,-5.553262487927078,-8.076026815110444,-0.3308313889192417
1789141180702520300,5.377520263671875,-5.5537283518731595,-8.075686623370647,-0.33132651549242437
1789141180712492500,5.387492431640625,-5.555353907248377,-8.07463389944732,-0.32971973788291215
1789141180722464300,5.39746435546875,-5.558112266045809,-8.072872150471806,-0.3263539512442425
1789141180732437200,5.407437255859375,-5.559965200436115,-8.071656344941259,-0.3248768644290045
1789141180742409500,5.417409423828125,-5.5612581628561015,-8.070716433742643,-0.3260784587711096
1789141180752381400,5.42738134765625,-5.560107823777199,-8.071376943477988,-0.32931616205070163
1789141180762353400,5.437353515625,-5.556384419339895,-8.073691065639258,-0.3353788961557671
1789141180772325600,5.44732568359375,-5.553008220905065,-8.07570240546167,-0.342797209588252
1789141180782298400,5.45729833984375,-5.552779672846198,-8.075594268912077,-0.34897860163692385
1789141180792270300,5.467270263671875,-5.554092509010434,-8.074397168081997,-0.3557578134482726
1789141180802242300,5.4772421875,-5.556908735474944,-8.072232683524488,-0.36085699975080787
1789141180812214300,5.48721435546875,-5.561176329791546,-8.06913354846537,-0.36439112869370727
1789141180822187500,5.4971875,-5.563352504786849,-8.067478182473778,-0.36781423501018434
1789141180832159200,5.5071591796875,-5.562608408421277,-8.067800838556884,-0.3719591527951881
1789141180842131500,5.51713134765625,-5.560688838535547,-8.068863499352336,-0.3775738508718088
1789141180852103400,5.527103515625,-5.557403240993619,-8.070803527504205,-0.3844237898318097
1789141180862075400,5.537075439453125,-5.553142660939693,-8.073478884193301,-0.3898047887504101
1789141180872048400,5.54704833984375,-5.549340346047282,-8.075881269159913,-0.3941662718955427
1789141180882020400,5.557020263671875,-5.545474902790785,-8.078471285653114,-0.3954669792305678
1789141180891992300,5.566992431640625,-5.5456561045765875,-8.078407572767137,-0.39423192101027815
1789141180901964500,5.576964599609375,-5.547396226242184,-8.077182414886355,-0.3948559346601367
1789141180911936300,5.586936279296875,-5.548830642959476,-8.076144888532161,-0.3959234542937949
1789141180921909200,5.5969091796875,-5.549962277337908,-8.075221928468347,-0.39887525330409407
1789141180931881500,5.606881591796875,-5.551971279072761,-8.073677037113905,-0.40218459704779086
1789141180941853200,5.616853271484375,-5.553247290357947,-8.072673997551203,-0.40467356431931256
1789141180951825400,5.626825439453125,-5.553087131360173,-8.072706146255134,-0.40624253066908567
1789141180961797400,5.63679736328125,-5.552146635639668,-8.073281900316477,-0.40764260672535746
1789141180971770400,5.646770263671875,-5.549892719233036,-8.074891673600673,-0.40644638267811384
1789141180981742300,5.656742431640625,-5.5479877623945475,-8.076233151337505,-0.4057932159990072
1789141180991714600,5.666714599609375,-5.547586780378222,-8.076568082380295,-0.4046171214243397
1789141181001686300,5.676686279296875,-5.546286803695559,-8.077371799978613,-0.40638760169558225
1789141181011658500,5.686658447265625,-5.545975253528356,-8.07739751894176,-0.4101099101543426
1789141181021631500,5.696631591796875,-5.544892718988657,-8.077925926730035,-0.4143148510308936
1789141181031603500,5.706603515625,-5.543748225128651,-8.078568316286802,-0.41709158573523164
1789141181041575400,5.716575439453125,-5.542845138809085,-8.078990925613045,-0.42091366477403785
1789141181051547400,5.72654736328125,-5.540959471192956,-8.080164645567535,-0.42319622275326396
1789141181061519400,5.736519287109375,-5.5385313672631975,-8.081708367878198,-0.4254875850934535
1789141181071492400,5.746492431640625,-5.537757460281252,-8.082024594220519,-0.42954708961732685
1789141181081464300,5.75646435546875,-5.537481565949321,-8.081925810021161,-0.43491961296852677
1789141181091436300,5.766436279296875,-5.537673873651027,-8.081513722088932,-0.44010154565107074
1789141181101408500,5.776408447265625,-5.540736183831095,-8.07915108461082,-0.44491902893539514
1789141181111380200,5.786380126953125,-5.544183693936467,-8.076461114874482,-0.45076271346230057
1789141181121353500,5.796353515625,-5.546747991466522,-8.074460880967974,-0.4550410483686253
1789141181131325400,5.806325439453125,-5.549339761525392,-8.07243375905454,-0.45936877537462856
1789141181141297400,5.81629736328125,-5.549572985759377,-8.071952113017439,-0.46498124496154486
1789141181151269400,5.826269287109375,-5.545836721840501,-8.07416745097935,-0.47106195311471816
1789141181161241300,5.836241455078125,-5.54233075954616,-8.076198664546013,-0.47746283313296733
1789141181171214300,5.84621435546875,-5.538388743922114,-8.078463102346658,-0.4848465867087245
1789141181181186600,5.8561865234375,-5.532925802341103,-8.081840469825268,-0.4908802043171599
1789141181191158300,5.866158203125,-5.53043281648159,-8.083318725684284,-0.4946374744914472
1789141181201130000,5.8761298828125,-5.530170950675011,-8.083357304129004,-0.49691089931614696
1789141181211102000,5.88610205078125,-5.531735715773701,-8.082129223638772,-0.4994761101616546
1789141181221075000,5.896074951171875,-5.535960639992356,-8.079007876747847,-0.5031462500417605
1789141181231047000,5.906046875,-5.539172003254294,-8.076513721844554,-0.5078330561511218
1789141181241019100,5.91601904296875,-5.540948949798941,-8.074976429274678,-0.5128526378788054
1789141181250990800,5.925990966796875,-5.543023417985439,-8.073170256635546,-0.5188542894463986
1789141181260963800,5.9359638671875,-5.543697956246137,-8.07237998304069,-0.5239111709771678
1789141181270936000,5.94593603515625,-5.5404135277479885,-8.074261559003592,-0.5296260414926335
1789141181280907800,5.95590771484375,-5.537545863357186,-8.075876008462906,-0.5349828923506662
1789141181290880000,5.9658798828125,-5.534924282681942,-8.077455386608838,-0.5382389350045472
1789141181300851700,5.975851806640625,-5.534131086477637,-8.077759337991475,-0.5418344387458637
1789141181310825000,5.985824951171875,-5.533295804697275,-8.078056275111436,-0.5459204659504816
1789141181320797000,5.995796875,-5.533655870181322,-8.077427914080022,-0.5515327163416892
1789141181330769000,6.005768798828125,-5.535183225879073,-8.075964855790138,-0.557597642403841
1789141181340740900,6.015740966796875,-5.536614135465026,-8.074635068491101,-0.5626396916916594
1789141181350713000,6.025713134765625,-5.537772073328495,-8.07340464991331,-0.5688696721224114
1789141181360685800,6.035685791015625,-5.536825147867202,-8.073579421958327,-0.575569096695818
1789141181370658000,6.045657958984375,-5.536038965925574,-8.073672945460677,-0.5817734677612781
1789141181380630000,6.055630126953125,-5.534823744916916,-8.074143485581875,-0.5867953510439023
1789141181390602000,6.06560205078125,-5.534366648799181,-8.074146992713212,-0.5910303217325359
1789141181400574000,6.075573974609375,-5.532904759553075,-8.074888750991224,-0.5945765795046464
1789141181410546700,6.085546630859375,-5.532116824045777,-8.075218421337008,-0.5974239682924002
1789141181420519000,6.095518798828125,-5.53352844440937,-8.074048793035745,-0.6001619053563103
1789141181430491000,6.105490966796875,-5.536062931323051,-8.072035699647664,-0.60385144405663
1789141181440462800,6.115462890625,-5.538808430638909,-8.069756648799776,-0.6091031175071373
1789141181450434800,6.125434814453125,-5.541972447627782,-8.067188259616493,-0.6143245419498533
1789141181460408000,6.135407958984375,-5.54494298787117,-8.06453043858409,-0.6223633984334767
1789141181470379800,6.1453798828125,-5.5467170118063684,-8.06253429633081,-0.6323444750260562
1789141181480352000,6.15535205078125,-5.54788897819519,-8.06106188569069,-0.6407805141337215
1789141181490323700,6.16532373046875,-5.547511961576342,-8.060697728553414,-0.6485810318168252
1789141181500296000,6.1752958984375,-5.547742263200878,-8.060020852205156,-0.654978623899445
1789141181510269000,6.18526904296875,-5.548153766611218,-8.059217719128727,-0.6613518121931702
1789141181520241000,6.195240966796875,-5.549945910724997,-8.057472336766123,-0.6675405838306993
1789141181530212900,6.205212890625,-5.551192111393809,-8.056161254167556,-0.672990665930137
1789141181540185000,6.21518505859375,-5.553631321239471,-8.053820828521252,-0.6808360456682742
1789141181550156800,6.22515673828125,-5.556382081252337,-8.051067145898937,-0.6908905528232455
1789141181560129800,6.2351298828125,-5.556867818942666,-8.04979171913564,-0.7017671169508248
1789141181570102000,6.24510205078125,-5.556601861482858,-8.049033009722828,-0.7124743889261037
1789141181580073700,6.25507373046875,-5.5556321396678685,-8.048763545131683,-0.723013391662389
1789141181590046000,6.2650458984375,-5.552667444643378,-8.04983088210225,-0.7338119951829314
1789141181600017700,6.275017578125,-5.55232783742547,-8.049120103484391,-0.7441118554010987
1789141181609991000,6.284990966796875,-5.552191643825173,-8.048495834106207,-0.751843253370747
1789141181619963000,6.294962890625,-5.550989866819977,-8.048585265955328,-0.7597091644402593
1789141181629934800,6.304934814453125,-5.553938195231557,-8.045864316558838,-0.7669550439152866
1789141181639906800,6.31490673828125,-5.557608408176899,-8.042524943003057,-0.7753554271876811
1789141181649879000,6.324879150390625,-5.55863132148385,-8.041089941763877,-0.7828657297525554
1789141181659851800,6.334851806640625,-5.559053346288204,-8.039871213623881,-0.7923326462779193
1789141181669824000,6.344823974609375,-5.561152364394069,-8.037346663582325,-0.8031377526044845
1789141181679796000,6.3547958984375,-5.5603235123544925,-8.036800720137357,-0.8142639075789601
1789141181689768000,6.364767822265625,-5.559087248557805,-8.03672122516036,-0.8234379055723547
1789141181699741000,6.374740966796875,-5.559513949537277,-8.035624662095309,-0.8312189879026264
1789141181709713000,6.384712890625,-5.560265060165524,-8.034329946109652,-0.8386832593686878
1789141181719684900,6.394684814453125,-5.563431415241956,-8.031377526044846,-0.8459324998445809
1789141181729656800,6.40465673828125,-5.567045514085889,-8.028091343981027,-0.8533063896134495
1789141181739628800,6.41462890625,-5.572025640586018,-8.023771142694354,-0.8613960995014757
1789141181749601800,6.424601806640625,-5.578343153169751,-8.018596954926847,-0.8686687939181923
1789141181759574000,6.434573974609375,-5.584096602129936,-8.013969295126198,-0.8743852718688547
1789141181769545700,6.444545654296875,-5.585571935379505,-8.012360106363893,-0.8797005486074835
1789141181779518000,6.45451806640625,-5.587767399597167,-8.010251151385903,-0.8849408604137599
1789141181789490000,6.464489990234375,-5.587256527465581,-8.010095084041357,-0.8895667666487396
1789141181799463000,6.474462890625,-5.58504002045989,-8.01124542312026,-0.8931197098899633
1789141181809435000,6.484434814453125,-5.581119047623872,-8.013752437505126,-0.8951298076033591
1789141181819407000,6.494406982421875,-5.5766258278578515,-8.016717132529616,-0.8965968844812363
1789141181829378800,6.50437890625,-5.573433753818273,-8.018656576159596,-0.899090016471222
1789141181839351000,6.51435107421875,-5.572080001121759,-8.019278507450222,-0.9019358343563973
1789141181849324000,6.524323974609375,-5.571136582791805,-8.019537450647354,-0.905449614631012
1789141181859295700,6.534295654296875,-5.5726744598835705,-8.017925923797488,-0.9102469319101423
1789141181869268000,6.54426806640625,-5.57513705060482,-8.015919260150193,-0.9128344641853123
1789141181879239700,6.55423974609375,-5.575832047131657,-8.015411895149946,-0.9130521255239844
1789141181889212000,6.5642119140625,-5.5751551707834,-8.01590581614673,-0.9128458623621613
1789141181899185000,6.574184814453125,-5.574288324820995,-8.01670894922316,-0.9110906161926686
1789141181909156900,6.584156982421875,-5.573391083720326,-8.017557090485095,-0.9091090869866311
1789141181919128800,6.59412890625,-5.572691411018371,-8.018155640900135,-0.9081153997741639
1789141181929101000,6.60410107421875,-5.571354609456658,-8.019196674385666,-0.90712492743209
1789141181939072800,6.61407275390625,-5.570779439917207,-8.01957953622341,-0.9072783644281327
1789141181949046000,6.6240458984375,-5.572174109145998,-8.018764128187298,-0.9059094141624867
1789141181959018000,6.63401806640625,-5.573312173265219,-8.018233382311463,-0.9036096127875148
1789141181968990000,6.643989990234375,-5.574326318743824,-8.01775348984003,-0.9016033144664019
1789141181978962000,6.6539619140625,-5.5754848411291835,-8.017377057743072,-0.8977908435061573
1789141181988934000,6.663933837890625,-5.57689003175199,-8.017035112437606,-0.8920936547778546
1789141181998907000,6.673906982421875,-5.576337658566236,-8.01823922753036,-0.8846901005230844
1789141182008878800,6.68387890625,-5.575096718594431,-8.019964736148715,-0.8768332495428621
1789141182018850800,6.693850830078125,-5.57340218963623,-8.021959124836325,-0.8693355872638523
1789141182028822800,6.70382275390625,-5.57122075394392,-8.024301304048299,-0.8616683405715971
1789141182038795000,6.713794921875,-5.5672764002323145,-8.02787974705696,-0.8537918350428342
1789141182048767700,6.723767822265625,-5.5655877164930105,-8.029846663215755,-0.8462724723886698
1789141182058740000,6.733739990234375,-5.563264241981506,-8.032399854829906,-0.837278653267771
1789141182068712000,6.7437119140625,-5.560834384486079,-8.035076965084672,-0.8276718898802995
1789141182078684000,6.753683837890625,-5.559170250666141,-8.037378812286256,-0.8164272961579263
1789141182088656000,6.76365576171875,-5.560335202792286,-8.037850521451235,-0.8037506238058209
1789141182098629000,6.773629150390625,-5.560837891617417,-8.038740163767338,-0.7912759037666023
1789141182108600800,6.783600830078125,-5.560894590240717,-8.040036048796772,-0.7775929769814014
1789141182118573000,6.793572998046875,-5.563147337603569,-8.03974144976437,-0.7644184381097555
1789141182128544800,6.803544677734375,-5.5637680998504155,-8.040406635674834,-0.7528179436217993
1789141182138517000,6.81351708984375,-5.56200810444057,-8.042793823072314,-0.740213386657834
1789141182148490000,6.823489990234375,-5.560735015764832,-8.044880566218495,-0.7269920860350132
1789141182158461700,6.833461669921875,-5.557180538153648,-8.04865657762587,-0.7122182222079485
1789141182168434000,6.843433837890625,-5.551779555892944,-8.053727889540792,-0.6968534798156469
1789141182178406000,6.853406005859375,-5.548741211110353,-8.057196442434192,-0.6807744516741484
1789141182188377900,6.8633779296875,-5.546866649410128,-8.059701118731498,-0.6662431644313037
1789141182198351400,6.873351318359375,-5.545108407565951,-8.061905935299396,-0.6540932924322783
1789141182208323600,6.883323486328125,-5.544566555774211,-8.063232215467094,-0.6422221643093973
1789141182218295300,6.89329541015625,-5.547060126155615,-8.062492795276642,-0.6298535349931568
1789141182228267500,6.903267578125,-5.549550773927569,-8.061783770224451,-0.6168600517768412
1789141182238239500,6.913239501953125,-5.551387341704964,-8.061589124435185,-0.6027141105897724
1789141182248212200,6.923212158203125,-5.552520145127177,-8.061976662448048,-0.586886061534658
1789141182258184400,6.933184326171875,-5.551670250299573,-8.063737242379784,-0.5705030820105225
1789141182268156400,6.943156494140625,-5.551747407189011,-8.064766585427522,-0.5549991868758574
1789141182278128400,6.95312841796875,-5.552052527615428,-8.065549260237812,-0.5403910350045189
1789141182288101400,6.963101318359375,-5.5509244003683325,-8.067370045924186,-0.5245620361013338
1789141182298073600,6.973073486328125,-5.549728468582034,-8.069285524156689,-0.5074678761005401
1789141182308045300,6.98304541015625,-5.550938428893685,-8.069498290124535,-0.49056967706326393
1789141182318017500,6.993017578125,-5.552556970006227,-8.069481923511624,-0.4721713025961071
1789141182327989200,7.0029892578125,-5.553173056077957,-8.070082812014222,-0.45431887157391754
1789141182337962500,7.01296240234375,-5.5531502597242595,-8.071069484964013,-0.43675314853861924
1789141182347934500,7.0229345703125,-5.552166509383916,-8.072692702251672,-0.41889216888379305
1789141182357906400,7.032906494140625,-5.550338709434866,-8.074820946452022,-0.4017519777841866
1789141182367878400,7.04287841796875,-5.545327018752694,-8.079068082502484,-0.38520788941420614
1789141182377850600,7.0528505859375,-5.540449768105149,-8.08327079488933,-0.3667770009169355
1789141182387823400,7.0628232421875,-5.536109693074226,-8.087019333767891,-0.34926501736287024
1789141182397795300,7.07279541015625,-5.533973850089311,-8.089231164598464,-0.3314529914163053
1789141182407767600,7.082767578125,-5.5320992883890865,-8.091198080757259,-0.3142810169389471
1789141182417739300,7.0927392578125,-5.531260499477386,-8.092361863839626,-0.2987123677386902
1789141182427711500,7.10271142578125,-5.5341877851009365,-8.09088185441494,-0.2842086991551332
1789141182437684500,7.1126845703125,-5.537037329313159,-8.089436916303635,-0.26945129327252504
1789141182447656400,7.122656494140625,-5.538580467101931,-8.08890383234024,-0.2532589957485907
1789141182457628400,7.13262841796875,-5.538896693444252,-8.08920310754776,-0.23622699599750338
1789141182467600400,7.142600341796875,-5.538610862240195,-8.089825623360277,-0.22111538811605422
1789141182477572400,7.152572265625,-5.538658793035149,-8.090213745895028,-0.2051125487496145
1789141182487545600,7.162545654296875,-5.536729286277294,-8.091915289115905,-0.18956041229274123
1789141182497517300,7.172517333984375,-5.534775229600071,-8.093568901541829,-0.17549184719081967
1789141182507489500,7.182489501953125,-5.533451287519932,-8.094781199941039,-0.16066252684947102
1789141182517461500,7.19246142578125,-5.530490099626779,-8.097076617401838,-0.14633707351018674
1789141182527433500,7.20243359375,-5.529681121331453,-8.097860461255907,-0.13295431698164903
1789141182537406500,7.212406494140625,-5.530109575876593,-8.09777979723513,-0.11926409280598163
1789141182547378400,7.22237841796875,-5.530833213976026,-8.097462986370921,-0.10662615416222251
1789141182557350400,7.232350341796875,-5.532374598199128,-8.096540026307105,-0.09624530112971551
1789141182567322400,7.242322265625,-5.533566438332199,-8.095833339342475,-0.08672535750917158
1789141182577294300,7.25229443359375,-5.533281191650032,-8.096141966900229,-0.07534080276025924
1789141182587267300,7.262267333984375,-5.5315352247655385,-8.097436098363994,-0.06355201915858778
1789141182597239600,7.272239501953125,-5.529397628214955,-8.098982743284106,-0.051288494184636504
1789141182607211300,7.282211181640625,-5.525833798253536,-8.101467545837163,-0.04202187687119003
1789141182617183500,7.29218359375,-5.521054747283459,-8.104769509992003,-0.0325687947916449
1789141182627155500,7.302155517578125,-5.518206956636905,-8.1067305809319,-0.026490509207709692
1789141182637128400,7.31212841796875,-5.514611562493443,-8.10919726330638,-0.01902718188149738
1789141182647100400,7.322100341796875,-5.515086194267869,-8.108886882182956,-0.012773488356661982
1789141182657072600,7.33207275390625,-5.517281073963642,-8.107401027539371,-0.007657727661950047
1789141182667044400,7.34204443359375,-5.51793690752387,-8.10695679090321,-0.00201816029096517
1789141182677016600,7.3520166015625,-5.519286568567156,-8.106037922492623,0.0024571111139448476
1789141182686989600,7.361989501953125,-5.520868869322538,-8.104957141518593,0.008212199189956299
1789141182696961300,7.371961181640625,-5.521323627352714,-8.104641499698161,0.01240240942990058
1789141182706933500,7.38193359375,-5.522646400389075,-8.103733737203479,0.01599036461900105
1789141182716905500,7.391905517578125,-5.5236991243124,-8.103014190757275,0.0172252424594888
1789141182726878500,7.40187841796875,-5.523619629335403,-8.103067382249236,0.017718527560390065
1789141182736850400,7.411850341796875,-5.521963094300031,-8.104200185671449,0.015561362084589199
1789141182746822400,7.421822509765625,-5.51907380259931,-8.106171778005361,0.01313919927185052
1789141182756794400,7.43179443359375,-5.517213269424438,-8.10744252859354,0.01117958849503193
1789141182766766600,7.4417666015625,-5.5169303608298295,-8.107637758904694,0.00810492344017839
1789141182776738300,7.45173828125,-5.5172834120512,-8.107398689451813,0.0072010391112358775
1789141182786711600,7.461711669921875,-5.518528443676233,-8.106550548189878,0.007244295443539158
1789141182796683500,7.47168359375,-5.520667209270596,-8.105096257728338,0.0062283501626690845
1789141182806655500,7.481655517578125,-5.522925801852345,-8.103559549680352,0.003074935909967462
1789141182816627500,7.49162744140625,-5.525675977343321,-8.101684403458238,-0.0012794841671944595
1789141182826600400,7.501600341796875,-5.528116940754652,-8.100015593463182,-0.007670501520199468
1789141182836572400,7.511572509765625,-5.529852386245131,-8.098824337852001,-0.013042446057731284
1789141182846544400,7.52154443359375,-5.5286114462733265,-8.099661373198032,-0.017758805913495598
1789141182856516400,7.531516357421875,-5.527260031664371,-8.100570889258384,-0.022868816145788878
1789141182866488600,7.541488525390625,-5.526711750131845,-8.100930370220542,-0.027750786350935232
1789141182876461600,7.551461669921875,-5.526216660091281,-8.101248934650421,-0.03295718447116669
1789141182886433300,7.561433349609375,-5.5267596809268,-8.100849706199766,-0.03937599743832834
1789141182896405500,7.571405517578125,-5.527801298934221,-8.100107363399863,-0.04550722563576419
1789141182906377500,7.58137744140625,-5.528037445777654,-8.09990804143548,-0.05175647702256683
1789141182916349400,7.591349365234375,-5.5280561504781245,-8.099844328549503,-0.05917638875709381
1789141182926322400,7.601322509765625,-5.52696426358819,-8.100538740554452,-0.06575350669166073
1789141182936294700,7.611294677734375,-5.52390370697379,-8.102575214818119,-0.07172965849181637
1789141182946266400,7.621266357421875,-5.522492671132087,-8.103497590360044,-0.07607508098471444
1789141182956238600,7.631238525390625,-5.521394939023256,-8.10423350341916,-0.07741029794411733
1789141182966210300,7.641210205078125,-5.519055097898841,-8.105835677918792,-0.0764368543686578
1789141182976183300,7.651183349609375,-5.516086311221122,-8.107863384354115,-0.0757029871361563
1789141182986155500,7.661155517578125,-5.51448705933094,-8.10897222237885,-0.07337204170424956
1789141182996127500,7.67112744140625,-5.51388967795968,-8.109395416226983,-0.07152074214860331
1789141183006099500,7.681099365234375,-5.514904992482066,-8.10871152561605,-0.07082720235991291
1789141183016071700,7.69107177734375,-5.516570295345783,-8.10758865906596,-0.0695223348730011
1789141183026044400,7.70104443359375,-5.5193420981466765,-8.105718773540854,-0.06751609135081525
1789141183036016400,7.711016357421875,-5.522417852330207,-8.103644889876247,-0.06498377812791149
1789141183045988400,7.72098828125,-5.523790894249081,-8.102715500071644,-0.06422987732095643
1789141183055960300,7.730960205078125,-5.524099521806836,-8.102493966275453,-0.06562703533435706
1789141183065932500,7.7409326171875,-5.5231853295713655,-8.103114144000411,-0.0659864797638962
1789141183075905300,7.7509052734375,-5.521581401506066,-8.104218890371918,-0.06459665567358024
1789141183085877500,7.76087744140625,-5.521284464386105,-8.104417043292521,-0.06509273666141088
1789141183095849500,7.770849365234375,-5.520729753112793,-8.10481276461184,-0.06273667962113395
1789141183105821400,7.780821533203125,-5.520406512507796,-8.105058263805509,-0.05947458168580196
1789141183115793400,7.79079345703125,-5.519660078054666,-8.10559427037835,-0.055598831664421595
1789141183125766400,7.800766357421875,-5.517593793174624,-8.107021672832966,-0.05230641165606212
1789141183135738400,7.81073828125,-5.515392483738064,-8.108539091658592,-0.049248553888825694
1789141183145710600,7.820710693359375,-5.511199708223343,-8.111391558480262,-0.048838018592866135
1789141183155682300,7.830682373046875,-5.508077776810526,-8.113526232421398,-0.04643704926520586
1789141183165654500,7.840654541015625,-5.506902887812257,-8.114333457151055,-0.0446897717730375
1789141183175627500,7.85062744140625,-5.507565735635161,-8.113904418084024,-0.04065350199427921
1789141183185599200,7.86059912109375,-5.509032885578274,-8.112931189137697,-0.03580954626156017
1789141183195571500,7.870571533203125,-5.514677028945088,-8.10912127546072,-0.0295071650315891
1789141183205543200,7.880543212890625,-5.5205316001921885,-8.105155294439196,-0.0236459242983954
1789141183215515400,7.890515380859375,-5.52427838550508,-8.102618469437957,-0.017953659482026704
1789141183225488400,7.90048828125,-5.527621266192197,-8.100346432852744,-0.013801477414241526
1789141183235460400,7.91046044921875,-5.530491853192448,-8.098390038087963,-0.011618070102197816
1789141183245432300,7.920432373046875,-5.5293041047126055,-8.099203108036518,-0.00975923797735595
1789141183255404300,7.930404296875,-5.527176445034146,-8.100656813976169,-0.008857834441511659
1789141183265376300,7.940376220703125,-5.525470225638151,-8.101821766102313,-0.007725414040967007
1789141183275349500,7.950349609375,-5.523265409070253,-8.103323987358808,-0.008369806041862465
1789141183285321200,7.9603212890625,-5.522457599818706,-8.103874606978893,-0.008226643273839726
1789141183295293400,7.97029345703125,-5.524065619537234,-8.102777459391952,-0.00938777888303739
1789141183305265400,7.980265380859375,-5.526612965932488,-8.101037337726353,-0.01138725587936351
1789141183315238100,7.990238037109375,-5.531702398025989,-8.09755826343894,-0.01435561444046325
1789141183325210400,8.00021044921875,-5.535417034634947,-8.095006240868567,-0.020309888910595326
1789141183335182300,8.010182373046876,-5.53707123158276,-8.093859408921002,-0.025950593644729812
1789141183345154300,8.020154296875,-5.539761785840988,-8.0920006293118,-0.030770570280239915
1789141183355126300,8.030126220703124,-5.54281708175838,-8.089881152939796,-0.03714284525851253
1789141183365099500,8.040099609375,-5.543800832098722,-8.089173296931385,-0.04385784186038654
1789141183375071200,8.0500712890625,-5.542627696666121,-8.089933759909869,-0.051414846810931336
1789141183385043500,8.06004345703125,-5.543602679178118,-8.089235840773583,-0.05591064212652854
1789141183395015200,8.07001513671875,-5.546102094778418,-8.087488704845308,-0.060561340309469955
1789141183404987400,8.0799873046875,-5.546818134093284,-8.0869620506227,-0.06512815960124134
1789141183414960400,8.08996044921875,-5.547390381023288,-8.086524828249216,-0.07049325313123408
1789141183424932400,8.099932373046874,-5.5487505634605885,-8.085533479124306,-0.07682233285517431
1789141183434904300,8.109904296875,-5.549575323846936,-8.084872384867072,-0.08623311701281927
1789141183444876500,8.11987646484375,-5.5512680992394685,-8.08356948557496,-0.09860771027896553
1789141183454848300,8.12984814453125,-5.550685915437341,-8.083803294330835,-0.11139792600814252
1789141183464821200,8.1398212890625,-5.5497413280636065,-8.084294292718171,-0.1222317743720021
1789141183474793200,8.149793212890625,-5.549471863472461,-8.084322934290766,-0.13214102783738635
1789141183484765200,8.15976513671875,-5.549453158771992,-8.084205445390939,-0.13993275942583566
1789141183494737400,8.1697373046875,-5.548073687112331,-8.084991627332567,-0.14890606548166832
1789141183504709000,8.179709228515625,-5.547379275107383,-8.08526693714261,-0.15943797175688668
1789141183514682400,8.189682373046875,-5.549271956986188,-8.083705679175257,-0.17222672618133947
1789141183524654300,8.199654296875,-5.551076960581541,-8.082173062780498,-0.18546296864496542
1789141183534626300,8.209626220703125,-5.552183460518718,-8.08110631033182,-0.19838442780468613
1789141183544598300,8.219598388671875,-5.555072167697548,-8.078842457053065,-0.20943269523736088
1789141183554570200,8.2295703125,-5.55754937146604,-8.076937500214576,-0.2170498191775754
1789141183564543200,8.239543212890625,-5.556810535797476,-8.07717130897045,-0.2270553360916674
1789141183574515500,8.249515380859375,-5.555770671355724,-8.07758339690268,-0.23758094962341708
1789141183584487200,8.259487060546874,-5.55363307480514,-8.078697495624423,-0.24937433633496983
1789141183594459400,8.26945947265625,-5.550671302390098,-8.080393193626403,-0.2601433667011559
1789141183604431400,8.279431396484375,-5.549021197095513,-8.081190481483937,-0.2703711480638012
1789141183614404000,8.289404052734374,-5.549498166957497,-8.080637523776293,-0.2770226235759444
1789141183624376300,8.299376220703126,-5.550192578962445,-8.079917392808198,-0.2840292509349994
1789141183634348300,8.309348388671875,-5.552135529723763,-8.078331000399588,-0.2911225884631276
1789141183644320300,8.3193203125,-5.554052761521935,-8.076680895105003,-0.30017168143521994
1789141183654292200,8.329292236328126,-5.554312289240956,-8.076189312195778,-0.30847890653144566
1789141183664265500,8.339265380859375,-5.554018859252333,-8.076057794770598,-0.31709439385924487
1789141183674237200,8.3492373046875,-5.552162417730688,-8.077031023716927,-0.3247528361905366
1789141183684209400,8.35920947265625,-5.551099172413349,-8.077499225750564,-0.33118272310756147
1789141183694181000,8.36918115234375,-5.552790778762102,-8.076158332535623,-0.33549532560966905
1789141183704153300,8.3791533203125,-5.554944157403707,-8.074529854550958,-0.33903398459721357
1789141183714126300,8.389126220703124,-5.5577001781135795,-8.072443695926665,-0.34350309283528474
1789141183724098300,8.399098388671876,-5.557973734357953,-8.071956789192557,-0.35045926864873617
1789141183734070300,8.4090703125,-5.55773641847074,-8.071735255396366,-0.35922815643996
1789141183744042500,8.41904248046875,-5.556557437819242,-8.072179492032527,-0.3673844652907923
1789141183754014200,8.42901416015625,-5.555789960578084,-8.07241680791974,-0.37373288446944203
1789141183763987200,8.4389873046875,-5.5544198412686585,-8.073114727056026,-0.37899317961782214
1789141183773959400,8.44895947265625,-5.55298074837625,-8.073951762402057,-0.3822146989475935
1789141183783931100,8.45893115234375,-5.552260032886267,-8.07435858963728,-0.3840792141778394
1789141183793903400,8.4689033203125,-5.551678433606028,-8.074678323110938,-0.3857591666214168
1789141183803875300,8.478875244140625,-5.549261435592174,-8.07620567880869,-0.38855175648201257
1789141183813848300,8.488848388671874,-5.548005298051238,-8.076953866827488,-0.39094749251212924
1789141183823820300,8.4988203125,-5.546224844375252,-8.077876242369413,-0.3971086089577526
1789141183833792300,8.508792236328125,-5.546342917796969,-8.077431421211362,-0.40443595617115496
1789141183843764200,8.51876416015625,-5.546425919905305,-8.077063172420859,-0.4106012008026242
1789141183853736400,8.528736328125,-5.546718180850148,-8.076602569171786,-0.4156857740579173
1789141183863709200,8.538709228515625,-5.550438078156113,-8.073844210374356,-0.41959516605399544
1789141183873681400,8.548681396484374,-5.553723675698041,-8.071573342832922,-0.41981118342485274
1789141183883653400,8.5586533203125,-5.555455614057183,-8.07033064929545,-0.4207968699939549
1789141183893625300,8.568625244140625,-5.556411307346821,-8.06956551014185,-0.4228372532477602
1789141183903597300,8.578597412109374,-5.556937961569428,-8.068902077797055,-0.4285301311271265
1789141183913570300,8.5885703125,-5.554473617282509,-8.070306099376081,-0.43401762262750415
1789141183923542300,8.598542236328125,-5.5505830395847555,-8.072671659463644,-0.43975810250826175
1789141183933514200,8.60851416015625,-5.545886406201124,-8.075726370859146,-0.4429184297027066
1789141183943486200,8.618486328125,-5.542091105571389,-8.07823630785346,-0.4446507699206471
1789141183953459200,8.628459228515625,-5.539976305374503,-8.079813347911834,-0.4423419815216213
1789141183963431400,8.638431396484375,-5.5413353187680245,-8.079033011189102,-0.43958099237568676
1789141183973403100,8.648403076171874,-5.545118928959965,-8.076533595588803,-0.4377656135167926
1789141183983375400,8.658375244140625,-5.550290778639912,-8.072964504930377,-0.43807774820588524
1789141183993347300,8.668347412109375,-5.556967772185802,-8.068355549830198,-0.43832405111715195
1789141184003320300,8.6783203125,-5.5619151654601096,-8.064819776919483,-0.44064905999861653
1789141184013292300,8.688292236328126,-5.561995244958997,-8.064663125053048,-0.4425052457919344
1789141184023264500,8.698264404296875,-5.559619163477421,-8.066191065272688,-0.44449561589155345
1789141184033236200,8.708236328125,-5.557663937756419,-8.06753195848763,-0.44461321438923473
1789141184043208400,8.71820849609375,-5.555142310324311,-8.069424640366435,-0.44177035564612593
1789141184053181400,8.728181396484375,-5.550400084233283,-8.072896115869284,-0.43792467653602357
1789141184063153200,8.738153076171875,-5.548798494255543,-8.074304229101537,-0.43224016462620346
1789141184073125400,8.74812548828125,-5.548275347164273,-8.075016761285067,-0.425588268988952
1789141184083097300,8.758097412109375,-5.548770437204838,-8.074922653260826,-0.4209084040770307
1789141184093069300,8.7680693359375,-5.55081626381874,-8.07353675186038,-0.42052389827147124
1789141184103042300,8.778042236328124,-5.552351218301057,-8.072431420966982,-0.4214793723654002
1789141184113014300,8.78801416015625,-5.554225195479392,-8.071115662193298,-0.4219819515926763
1789141184122986200,8.797986328125,-5.5544186722248785,-8.070954918673634,-0.42251967519856987
1789141184132958500,8.80795849609375,-5.554117643451691,-8.071224383264779,-0.42131566970366985
1789141184142930200,8.81793017578125,-5.553982034373283,-8.071423705229163,-0.41925965048931535
1789141184152903400,8.8279033203125,-5.554441468578577,-8.071250686749815,-0.416508452085033
1789141184162875400,8.83787548828125,-5.554421010312438,-8.071421951663494,-0.41345768621228635
1789141184172847400,8.847847412109376,-5.553957484453917,-8.071771495753525,-0.4128642138311639
1789141184182819300,8.8578193359375,-5.553520262080431,-8.072092398270964,-0.4124570943349972
1789141184192791300,8.867791259765625,-5.55109741884768,-8.073780497488379,-0.41202418281044806
1789141184202765000,8.87776513671875,-5.549625008207559,-8.074685337373614,-0.4141256486017257
1789141184212736800,8.88773681640625,-5.546538148108125,-8.076679726061224,-0.416590577410534
1789141184222709000,8.897708984375,-5.544427439564466,-8.07810479042828,-0.41705202090982346
1789141184232681000,8.907680908203124,-5.543066088083386,-8.078956438821553,-0.4186449526570737
1789141184242653000,8.91765283203125,-5.539111212977767,-8.081585618281364,-0.4202560776481405
1789141184252626000,8.9276259765625,-5.534492905527353,-8.084531024083494,-0.42443212122377005
1789141184262598100,8.93759814453125,-5.534298259738088,-8.084348653253912,-0.4303791199946776
1789141184272569900,8.94756982421875,-5.533258979818225,-8.084861863473057,-0.43409708107188344
1789141184282542000,8.9575419921875,-5.534268449121713,-8.083902078530192,-0.4390733351144939
1789141184292513800,8.967513671875,-5.536753251674771,-8.08191295053959,-0.44433425131738186
1789141184302486800,8.97748681640625,-5.536667911478877,-8.081746361801027,-0.4484069441163912
1789141184312459000,8.987458984375,-5.537087013673782,-8.081285758551955,-0.4515344284871593
1789141184322431000,8.997430908203125,-5.537431881588697,-8.080877177751065,-0.45459440057966854
1789141184332403000,9.00740283203125,-5.536487878736853,-8.081325506040454,-0.45810529477745293
1789141184342375200,9.017375244140625,-5.535110160642862,-8.082131561726332,-0.4605417646767571
1789141184352348000,9.027347900390625,-5.535969992342591,-8.081378697532415,-0.4634058854036033
1789141184362320000,9.03731982421875,-5.535887574756146,-8.081189312440156,-0.4676543731609359
1789141184372292000,9.0472919921875,-5.534052176022529,-8.082193521046637,-0.47202433187346904
1789141184382263800,9.057263916015625,-5.534188369622826,-8.081823518690467,-0.47674270216487347
1789141184392236000,9.067236083984374,-5.537064217320085,-8.079573693937062,-0.4814625337610021
1789141184402209000,9.077208984375,-5.540094378796219,-8.077188844627141,-0.4865668711626902
1789141184412181000,9.087180908203125,-5.541788907754421,-8.075596606999635,-0.4936474405407905
1789141184422153000,9.097153076171875,-5.541906396654248,-8.075025529113411,-0.5016077518954872
1789141184432125000,9.107125,-5.543270086222886,-8.07360981709659,-0.5092725143697112
1789141184442097000,9.117096923828125,-5.544579415255785,-8.072160787332058,-0.5179241324568167
1789141184452070000,9.12706982421875,-5.5426855643332,-8.072987885805963,-0.5252574710195884
1789141184462041900,9.137041748046874,-5.541887691953778,-8.073134016278386,-0.5313883749900385
1789141184472013800,9.147013916015625,-5.542987177628278,-8.071975493893026,-0.5374898702029138
1789141184481986000,9.156986083984375,-5.54520368463397,-8.0701237285465,-0.5424024844247848
1789141184491958000,9.1669580078125,-5.545418788689375,-8.069629223027825,-0.5475405414329841
1789141184501931000,9.176930908203126,-5.5459758380502455,-8.068861745786666,-0.5531674048714339
1789141184511903000,9.186903076171875,-5.549881028795242,-8.065809957000612,-0.5584899516010656
1789141184521875000,9.196875,-5.553008220905065,-8.063212341722846,-0.564876328169927
1789141184531847000,9.206846923828126,-5.554130502933264,-8.061990690973401,-0.5712535350516438
1789141184541819000,9.21681884765625,-5.553117526498436,-8.062356601676344,-0.575924011080712
1789141184551791900,9.2267919921875,-5.553115772932768,-8.062082460910082,-0.5797508028272539
1789141184561764000,9.23676416015625,-5.553132724067568,-8.06182351771295,-0.5831838460158556
1789141184571735800,9.24673583984375,-5.551827486687898,-8.062416222909093,-0.5874039844615384
1789141184581708000,9.2567080078125,-5.550262721589207,-8.063138107442855,-0.5922583291575312
1789141184591680000,9.266679931640626,-5.549407566064596,-8.063401726815105,-0.596675634143129
1789141184601652700,9.27665283203125,-5.548897278454899,-8.06344965761006,-0.6007462811155244
1789141184611625000,9.286625,-5.54796379699707,-8.06376179229915,-0.6051670932324603
1789141184621597000,9.296596923828124,-5.54723548272252,-8.063934810778498,-0.6095280649209395
1789141184631569000,9.30656884765625,-5.54723606724441,-8.063716784113645,-0.6124008804108947
1789141184641541000,9.316541015625,-5.54717936862111,-8.063601048779487,-0.6144442228067666
1789141184651514000,9.32651416015625,-5.548561178368329,-8.062618467482924,-0.6148528036076575
1789141184661485800,9.33648583984375,-5.548853439313173,-8.062503316670655,-0.6137237265124916
1789141184671458000,9.3464580078125,-5.549261435592174,-8.062275353133678,-0.6130321640517562
1789141184681429800,9.3564296875,-5.547679134836793,-8.063375423330069,-0.6128871295578777
1789141184691402000,9.366402099609376,-5.54518614897728,-8.065210237541795,-0.6112878776676952
1789141184701375000,9.376375,-5.540770086100697,-8.068348535567521,-0.6099194753913209
1789141184711347000,9.386346923828125,-5.536099756202101,-8.072016410425304,-0.603763035120815
1789141184721319000,9.39631884765625,-5.5307724236994975,-8.076172945582867,-0.5969733019154518
1789141184731291100,9.406291015625,-5.527303286284208,-8.078973389956355,-0.5911752831611782
1789141184741262800,9.416262939453125,-5.525399498489499,-8.08065856656432,-0.5859146592192351
1789141184751235800,9.42623583984375,-5.526239456444978,-8.080477364778519,-0.5804608507927507
1789141184761208000,9.4362080078125,-5.526591923144459,-8.080520619398355,-0.5765112729167565
1789141184771180000,9.446179931640625,-5.527330174291134,-8.080375073447824,-0.5714477789821103
1789141184781152000,9.456152099609374,-5.528827719372511,-8.079585968896746,-0.5680956920752301
1789141184791124700,9.466124755859376,-5.530198423203825,-8.078945332905649,-0.5638525380801409
1789141184801097000,9.476096923828125,-5.530669547846913,-8.078985664916038,-0.5586467861305922
1789141184811069000,9.48606884765625,-5.530370272639393,-8.079540376189351,-0.5535508512310683
1789141184821041000,9.496041015625,-5.530221219557523,-8.079960062906146,-0.5488936365423723
1789141184831012900,9.506012939453125,-5.529516870680451,-8.080757350763678,-0.5442395271262154
1789141184840984800,9.51598486328125,-5.529509271895885,-8.080933876374363,-0.5416882717408239
1789141184850957800,9.525957763671874,-5.528365947079658,-8.081863266178965,-0.5394921134034172
1789141184860930000,9.535929931640625,-5.52772998726368,-8.082416808408498,-0.5376984349196776
1789141184870901800,9.54590185546875,-5.5300172214180225,-8.080802358949184,-0.5384464768080041
1789141184880874000,9.5558740234375,-5.532667443665861,-8.079030088579655,-0.5378165814066306
1789141184890846000,9.565845947265625,-5.535082103592157,-8.077515592363476,-0.5357120468754321
1789141184900819000,9.57581884765625,-5.538577544492483,-8.075145940622686,-0.5353073750646784
1789141184910791000,9.585791015625,-5.5441153048753735,-8.07135414712429,-0.535173117693141
1789141184920763100,9.59576318359375,-5.547504947313666,-8.068938902676106,-0.5364744095500559
1789141184930734800,9.60573486328125,-5.5500633996248245,-8.067048558884858,-0.5384293064774945
1789141184940707000,9.61570703125,-5.551099756935239,-8.066293356603383,-0.5390606997162103
1789141184950680000,9.62568017578125,-5.550752550932764,-8.066465206038952,-0.540049674220942
1789141184960651800,9.63565185546875,-5.551192111393809,-8.06615014874041,-0.5402622940583154
1789141184970624000,9.6456240234375,-5.549864077660441,-8.06717949178815,-0.5385279810789972
1789141184980595700,9.655595703125,-5.546544577848911,-8.069521671000123,-0.5376373889148235
1789141184990569000,9.66556884765625,-5.549014767354726,-8.067965673729777,-0.5354935818191617
1789141185000541000,9.675541015625,-5.552114486935735,-8.06594439703524,-0.5338098665159196
1789141185010513000,9.685512939453124,-5.554113551798462,-8.06463974417746,-0.5327369400547817
1789141185020484900,9.69548486328125,-5.559086079514026,-8.061042011946439,-0.5353052927054465
1789141185030457000,9.70545703125,-5.5670192106008525,-8.055546337139607,-0.5355867765279486
1789141185040429800,9.715429931640625,-5.573482853657007,-8.051078836336732,-0.5355474674308672
1789141185050402000,9.725402099609376,-5.576681357437372,-8.048839532977341,-0.5358992034779861
1789141185060374000,9.7353740234375,-5.576886524620652,-8.04848823532164,-0.5390296104582026
1789141185070346000,9.745345947265625,-5.575471397125721,-8.04923583881855,-0.5425068581147119
1789141185080318000,9.75531787109375,-5.572706608587503,-8.050892373853921,-0.5463220324886963
1789141185090291000,9.765291015625,-5.569314628061652,-8.053148628348112,-0.5476418463829904
1789141185100263000,9.775262939453125,-5.566641024938225,-8.055002731782198,-0.5475614015579223
1789141185110235000,9.78523486328125,-5.566106187409162,-8.055531139570475,-0.5452131944639608
1789141185120206800,9.795206787109375,-5.567217948043346,-8.055040141183138,-0.5411124811468646
1789141185130178800,9.8051787109375,-5.568760501310229,-8.054164527392388,-0.5382547901608049
1789141185140152000,9.815152099609374,-5.56967177093625,-8.053443227380514,-0.5396203063603491
1789141185150123800,9.825123779296876,-5.568405112001299,-8.054033594489097,-0.5438749315975233
1789141185160096000,9.835095947265625,-5.5672267158716915,-8.054486598953604,-0.549192254162766
1789141185170068000,9.84506787109375,-5.56657614300847,-8.054634482991695,-0.553596480471082
1789141185180040000,9.8550400390625,-5.566698892605304,-8.054483091822267,-0.5545733626792207
1789141185190013000,9.865012939453125,-5.56627745232284,-8.054813931211829,-0.5539861008431762
1789141185199984400,9.874984375,-5.566475605243444,-8.054740865975617,-0.5530601816372945
1789141185209956000,9.8849560546875,-5.565985191377997,-8.055234202450514,-0.550805899904482
1789141185219928300,9.89492822265625,-5.562918789544701,-8.057337896731495,-0.5510314522886648
1789141185229900300,9.904900390625,-5.55702856246233,-8.06130270870924,-0.5524637866467237
1789141185239873300,9.914873291015626,-5.551273359936475,-8.065183934056758,-0.5536701302291825
1789141185249845200,9.92484521484375,-5.544191877242922,-8.06990102570653,-0.555887988941744
1789141185259817500,9.9348173828125,-5.538981449118256,-8.07342393913567,-0.5566883820718154
1789141185269789200,9.9447890625,-5.5371396206438535,-8.074850172546505,-0.5543037884902209
1789141185279761400,9.954761474609375,-5.537275229722261,-8.07489751881957,-0.5522631495080887
1789141185289734400,9.964734375,-5.539071465489268,-8.073861161509155,-0.5493968002915383
1789141185299706000,9.9747060546875,-5.539565971007943,-8.073588774308561,-0.5484039167966693
1789141185309678300,9.98467822265625,-5.538130385246872,-8.07471105633676,-0.5463858549725265
1789141185319650000,9.994650146484375,-5.53655100710094,-8.075874254897236,-0.54520530341845
1789141185329622300,10.004622314453124,-5.533554163372516,-8.078148045048117,-0.5419351591739803
1789141185339595300,10.01459521484375,-5.529867583814263,-8.080895882451534,-0.5385786883529275
1789141185349567200,10.024567138671875,-5.527133774936199,-8.083146876248717,-0.5328327285794541
1789141185359539200,10.034539306640625,-5.526161130511761,-8.084268573755025,-0.5258707075471059
1789141185369511400,10.044511474609376,-5.523323276737332,-8.086676803940534,-0.5185857381707057
1789141185379483100,10.054483154296875,-5.52140546041727,-8.088464271879195,-0.5110881489569321
1789141185389456400,10.064456298828125,-5.524419839802384,-8.086745193001628,-0.5056969574378803
1789141185399428400,10.074428466796874,-5.526714672741294,-8.085429434227944,-0.5016477916449308
1789141185409400300,10.084400390625,-5.5291550516307355,-8.084011384123563,-0.49759186731763183
1789141185419372300,10.094372314453125,-5.531106185698509,-8.08301009812653,-0.49214945706799623
1789141185429344300,10.10434423828125,-5.533548902675509,-8.081721227359772,-0.4857914298107847
1789141185439317200,10.114317138671876,-5.536217829623818,-8.080382672232389,-0.4775832081096247
1789141185449289200,10.124289306640625,-5.538897862488031,-8.079061652761697,-0.46878622673507775
1789141185459261200,10.13426123046875,-5.538968589636683,-8.07939541476071,-0.4621458754051476
1789141185469233200,10.144233154296876,-5.539101276105642,-8.079586553418636,-0.45718887405227865
1789141185479205400,10.154205322265625,-5.538547733876109,-8.080216668015717,-0.4527428909614682
1789141185489178000,10.16417822265625,-5.535894004496932,-8.082256064888835,-0.4487711377862841
1789141185499150300,10.174150390625,-5.53455369580388,-8.083490575119853,-0.44302601826302707
1789141185509122300,10.184122314453125,-5.534938311207294,-8.083601634278892,-0.43615167551413175
1789141185519094300,10.19409423828125,-5.53507567385137,-8.08388629643917,-0.42908601144421843
1789141185529066200,10.204066162109376,-5.534787504559755,-8.08442814823091,-0.4225338498543948
1789141185539039500,10.21403955078125,-5.5341316709995265,-8.085221344435215,-0.415902997005172
1789141185549011200,10.22401123046875,-5.5346027956426145,-8.085211992084979,-0.409783235483244
1789141185558983400,10.2339833984375,-5.535429894116521,-8.084834390944241,-0.40601219251193105
1789141185568955100,10.243955078125,-5.535756057330966,-8.0848934276551,-0.4003694008519873
1789141185578927400,10.25392724609375,-5.533711984282732,-8.086593217310309,-0.394250917971693
1789141185588900400,10.263900390625,-5.53472145358622,-8.086221461388469,-0.3876423500195145
1789141185598872000,10.2738720703125,-5.535135879606008,-8.086226722085476,-0.3815547372015193
1789141185608844300,10.28384423828125,-5.5342538360744715,-8.08707427882552,-0.3763473047515377
1789141185618816300,10.293816162109374,-5.532205671373009,-8.088739581689238,-0.37062352027725426
1789141185628788200,10.303788330078126,-5.531072867950797,-8.089791136568785,-0.36455501401852813
1789141185638761200,10.31376123046875,-5.530042940381169,-8.090755013164877,-0.35873441810626533
1789141185648733400,10.3237333984375,-5.529508102852105,-8.091269976949691,-0.355375316936709
1789141185658705200,10.333705078125,-5.530159260237217,-8.090851459276676,-0.35475214353706686
1789141185668677400,10.343677490234375,-5.5314580678761,-8.090001564449071,-0.35388054833430793
1789141185678649000,10.353649169921875,-5.532918203556537,-8.089007877236604,-0.35377062168642875
1789141185688622300,10.363622314453124,-5.535976422083378,-8.086786694055796,-0.3567059444859624
1789141185698594300,10.37359423828125,-5.536719933927059,-8.086192235293984,-0.3586358896352351
1789141185708566300,10.383566162109375,-5.535311236172914,-8.087051482471823,-0.3609963351562619
1789141185718538200,10.393538330078124,-5.534416333159804,-8.087494550064205,-0.3647756344992667
1789141185728510500,10.403510498046876,-5.532773242127895,-8.088508695542812,-0.3671923402521759
1789141185738483200,10.413483154296875,-5.528610861751437,-8.091193404582143,-0.37074488163460045
1789141185748455200,10.423455078125,-5.526214322003722,-8.092606778511405,-0.37556642003953455
1789141185758427400,10.433427490234376,-5.525628046548366,-8.092766937509179,-0.38071149131041016
1789141185768399400,10.4433994140625,-5.525404174664616,-8.092702055579423,-0.3853082445161417
1789141185778371300,10.453371337890625,-5.523558254536986,-8.09369691183567,-0.3908433745505288
1789141185788344300,10.46334423828125,-5.525256875148416,-8.092325038960576,-0.39522637540772554
1789141185798316300,10.47331640625,-5.525294284549355,-8.092077786201239,-0.3997275958171114
1789141185808288300,10.483288330078125,-5.524426269543171,-8.092343159139157,-0.40629579522628334
1789141185818260200,10.49326025390625,-5.524579998800158,-8.091836963182688,-0.414210331210494
1789141185828232200,10.503232177734375,-5.5251884860873215,-8.09106714785397,-0.4210795228602364
1789141185838205400,10.513205322265625,-5.523988462647796,-8.091510799968242,-0.42824839157629757
1789141185848177200,10.52317724609375,-5.524769968414306,-8.090752675077319,-0.43247419257778674
1789141185858149400,10.5331494140625,-5.523782710942625,-8.091137290480733,-0.43783162795770914
1789141185868121300,10.543121337890625,-5.522491502088308,-8.091705445757508,-0.44358489425480363
1789141185878093300,10.55309326171875,-5.522154232957959,-8.091455270388723,-0.45226062386985866
1789141185888066300,10.56306640625,-5.522887223407626,-8.09039494768083,-0.462164360909909
1789141185898038300,10.573038330078125,-5.52267445743978,-8.089904533815384,-0.47318643445540215
1789141185908010200,10.58301025390625,-5.5244765384256835,-8.088112974223494,-0.48267011945247645
1789141185917982500,10.592982421875,-5.526037211871147,-8.086577435219287,-0.49046943155918266
1789141185927954200,10.6029541015625,-5.5268005974590775,-8.085723448738456,-0.4959255415406078
1789141185937927200,10.61292724609375,-5.527669196987151,-8.084847834947706,-0.5005046129591763
1789141185947899400,10.6228994140625,-5.528638334280252,-8.08392545940578,-0.504668929564394
1789141185957871000,10.63287109375,-5.529997932195663,-8.082724266922474,-0.5089989215927199
1789141185967843300,10.64284326171875,-5.530081518825888,-8.082195274612307,-0.5164286697346717
1789141185977815300,10.652815185546874,-5.527125007107854,-8.083780497977138,-0.5232260017246008
1789141185987788300,10.662788330078126,-5.524657155689597,-8.085003902292252,-0.5303366374474019
1789141185997760300,10.67276025390625,-5.524111212244629,-8.084864786082505,-0.5380969692505896
1789141186007732500,10.682732421875,-5.523043290752172,-8.085327142897247,-0.5420852717017755
1789141186017704200,10.6927041015625,-5.521960756212472,-8.08595491940677,-0.5437491497933864
1789141186027676400,10.702676513671875,-5.523842916697263,-8.084646174895763,-0.5441018356885761
1789141186037649200,10.712649169921875,-5.52623594931364,-8.083013605257868,-0.5440517129365354
1789141186047621400,10.722621337890626,-5.526208476784825,-8.083001330298185,-0.5444991279104724
1789141186057593300,10.73259326171875,-5.527415514487028,-8.081893076795339,-0.548687994435057
1789141186067565300,10.7425654296875,-5.529451988750695,-8.080297332036494,-0.551656708047539
1789141186077537300,10.752537353515624,-5.530939596959948,-8.079162190526723,-0.5533875504281371
1789141186087510300,10.76251025390625,-5.5325131298869845,-8.078018865710497,-0.5543436821091919
1789141186097482200,10.772482177734375,-5.530475486579537,-8.079493029916286,-0.5531873151483014
1789141186107454200,10.7824541015625,-5.528560008347034,-8.080999927347898,-0.5503142804626375
1789141186117426200,10.79242626953125,-5.5294122412621975,-8.080636939254402,-0.54707398336716
1789141186127398100,10.802398193359375,-5.529885119470953,-8.080521788442134,-0.543995781498216
1789141186137371400,10.812371337890625,-5.529886873036623,-8.080788914945721,-0.539995971272327
1789141186147343000,10.822343017578126,-5.532549370244145,-8.079196677318215,-0.5365195638660342
1789141186157315300,10.8323154296875,-5.536538732141256,-8.076645823791623,-0.5337630316995085
1789141186167287300,10.842287353515625,-5.540651428157091,-8.073897401866317,-0.5326699392331764
1789141186177259300,10.85225927734375,-5.542002258244157,-8.073134016278386,-0.5301812276899814
1789141186187232300,10.862232177734375,-5.541725194868445,-8.0732748860538,-0.5309327401770279
1789141186197204200,10.872204345703125,-5.541411891135573,-8.073578252914547,-0.5295937831908464
1789141186207176000,10.882176025390624,-5.541232442915439,-8.073802124798297,-0.5280533853484317
1789141186217148000,10.89214794921875,-5.541740976959467,-8.073709185817837,-0.5241217084553093
1789141186227119900,10.902119873046875,-5.543851100981235,-8.072630158409476,-0.5184009561883285
1789141186237092900,10.9120927734375,-5.545540953764319,-8.071810658720135,-0.5130702992174774
1789141186247064800,10.92206494140625,-5.548961575862765,-8.069906870925426,-0.5059880128063261
1789141186257036800,10.932036865234375,-5.552488580945134,-8.067928264328836,-0.4987819904176518
1789141186267008800,10.9420087890625,-5.555662534806132,-8.066165930831431,-0.49189661481808866
1789141186276981000,10.95198095703125,-5.556211985382437,-8.066201586666702,-0.48506530749332155
1789141186286954000,10.9619541015625,-5.556119630923867,-8.0666551756531,-0.4785252382000908
1789141186296925700,10.97192578125,-5.555790545099973,-8.06717949178815,-0.4734911530230194
1789141186306898000,10.98189794921875,-5.55275746101439,-8.069573108926415,-0.4682556269897148
1789141186316870000,10.991869873046875,-5.552075323969126,-8.070302592244744,-0.46375342019964005
1789141186326841900,11.001841796875,-5.550464966163039,-8.071699015039204,-0.4586899627976119
1789141186336814800,11.01181494140625,-5.5499260369807475,-8.072425575748085,-0.45238008553106335
1789141186346787000,11.021787109375,-5.550718648663163,-8.072279445275663,-0.44521687937080856
1789141186356758800,11.0317587890625,-5.553511494252086,-8.070704743304848,-0.4388874206209555
1789141186366731000,11.04173095703125,-5.553586313053965,-8.070915171185135,-0.43404052857905623
1789141186376702700,11.05170263671875,-5.555366766729951,-8.069950125545263,-0.42917171696629375
1789141186386675700,11.06167578125,-5.557806561097502,-8.068528568309546,-0.42427517709638923
1789141186396648000,11.07164794921875,-5.5581344778776165,-8.06857591458261,-0.41905302200131117
1789141186406620000,11.081619873046876,-5.5586821748882524,-8.068525645700097,-0.4127215904900804
1789141186416592000,11.091591796875,-5.559347945320606,-8.068343274870514,-0.4072905053520575
1789141186426564000,11.101564208984374,-5.559399967768788,-8.068566562232375,-0.40210232559181747
1789141186436536800,11.111536865234376,-5.5600318359315395,-8.068285991725325,-0.39897513348199426
1789141186446508800,11.1215087890625,-5.559554866069555,-8.068701002267003,-0.39722887433655557
1789141186456481000,11.13148095703125,-5.5587979102224105,-8.069312412163615,-0.39540045333299784
1789141186466452700,11.14145263671875,-5.560001440793275,-8.068620922768115,-0.3926008126771077
1789141186476425000,11.151425048828125,-5.560522249796986,-8.06844498167932,-0.3888175678113475
1789141186486398000,11.16139794921875,-5.5603018850445745,-8.068727890273928,-0.3860705706581473
1789141186496370000,11.171369873046874,-5.5613370733112095,-8.068045753228663,-0.3854090014768764
1789141186506342000,11.181341796875,-5.562694333139062,-8.067105257508159,-0.38551987797282633
1789141186516313900,11.19131396484375,-5.562942754942179,-8.067069601672888,-0.38266178512796756
1789141186526285800,11.201285888671874,-5.560182642579078,-8.069032426178454,-0.3814231832437217
1789141186536258800,11.2112587890625,-5.556052995428443,-8.071931070229411,-0.3802722961755469
1789141186546230800,11.221230712890625,-5.552702515956759,-8.074297799360751,-0.3789221602082252
1789141186556203000,11.231203125,-5.549125826513767,-8.076760390082,-0.3788315958479419
1789141186566175000,11.241175048828126,-5.546013831973076,-8.0789652066499,-0.3774024398276582
1789141186576147000,11.25114697265625,-5.54346882366538,-8.08071701875329,-0.37728794660251586
1789141186586120000,11.261119873046875,-5.545463796874881,-8.079397168326377,-0.37623500348348166
1789141186596092000,11.271091796875,-5.54913868599534,-8.076882555156946,-0.376064944146201
1789141186606063900,11.28106396484375,-5.5511891887843605,-8.075447553917765,-0.3766149061791599
1789141186616035800,11.291035888671875,-5.549721454319357,-8.0763354426682,-0.3791745640667155
1789141186626007800,11.3010078125,-5.54908374093771,-8.076644070225953,-0.3819511891731992
1789141186635980800,11.310980712890625,-5.549302352124452,-8.076408507904409,-0.3837232768796384
1789141186645953000,11.320953125,-5.547425452336669,-8.077724266678095,-0.3831831421209499
1789141186655924700,11.3309248046875,-5.541949651274085,-8.08155580766499,-0.3816212996317073
1789141186665897000,11.34089697265625,-5.537552293097972,-8.08469001403749,-0.37907340524718164
1789141186675869000,11.350868896484375,-5.534044577237963,-8.087201120075584,-0.37670411883257326
1789141186685842000,11.360842041015625,-5.530392484471202,-8.089732684379815,-0.3759825996249914
1789141186695814000,11.37081396484375,-5.5273646610826255,-8.091818843004107,-0.3756236666521057
1789141186705786000,11.3807861328125,-5.524195967918634,-8.094024244093895,-0.37471784038618206
1789141186715757800,11.3907578125,-5.523273007854819,-8.094731515580415,-0.37304702109713106
1789141186725730000,11.40072998046875,-5.525220050269365,-8.09347245543003,-0.3715121396800503
1789141186735703000,11.410703125,-5.527528911733627,-8.091958543735743,-0.3701445045886561
1789141186745674800,11.4206748046875,-5.528815444412827,-8.091004604011774,-0.3717949752094224
1789141186755647000,11.43064697265625,-5.52955544912517,-8.090498992577194,-0.3717870476312935
1789141186765618700,11.44061865234375,-5.52828762114644,-8.091434227600693,-0.3702787984928116
1789141186775591000,11.4505908203125,-5.525427555540204,-8.09330528216958,-0.3720833636967465
1789141186785564000,11.46056396484375,-5.5219169170707465,-8.095740984883903,-0.3712227648120373
1789141186795536000,11.470535888671876,-5.516932114395499,-8.099243440046905,-0.36890334542114284
1789141186805507800,11.4805078125,-5.514309364676476,-8.101157749235629,-0.3660749535948038
1789141186815480000,11.49047998046875,-5.5122033323079345,-8.10274238807857,-0.3627290041677654
1789141186825451800,11.50045166015625,-5.509412824806571,-8.104724501806498,-0.3608373452022671
1789141186835425000,11.510425048828125,-5.510206021010875,-8.104161022704838,-0.3613729864489287
1789141186845397000,11.52039697265625,-5.511906979709863,-8.102994317013025,-0.36160705093313006
1789141186855369000,11.530368896484376,-5.513561761179566,-8.101737010428309,-0.3645338981652632
1789141186865341000,11.5403408203125,-5.519568308117986,-8.097545988479256,-0.36675928259715435
1789141186875313000,11.55031298828125,-5.524771137458086,-8.093914353978633,-0.36857988562043753
1789141186885286000,11.560285888671874,-5.52770952899754,-8.091855667883157,-0.3697129447709769
1789141186895257900,11.5702578125,-5.529632606014609,-8.09050600683987,-0.3704791433705017
1789141186905229800,11.580229736328125,-5.531861387979984,-8.088920783475041,-0.37182979079447687
1789141186915201800,11.590201904296874,-5.531232442426681,-8.089265066868066,-0.37369200446978207
1789141186925174000,11.600174072265625,-5.530734429776668,-8.089510566061735,-0.3757437128352001
1789141186935146800,11.610146728515625,-5.532436557519436,-8.08824975234568,-0.3778385296899825
1789141186945119000,11.620118896484374,-5.534326901310682,-8.086824103456735,-0.3806246898097917
1789141186955091000,11.630091064453126,-5.538474668639898,-8.083863500085473,-0.3831959650699049
1789141186965063000,11.64006298828125,-5.540294869804382,-8.082381737095117,-0.38809257800504565
1789141186975035000,11.650034912109374,-5.5408489965558045,-8.081766820067166,-0.392963070118241
1789141186985008000,11.660008056640624,-5.5426610144138335,-8.080190364530683,-0.39976913340389725
1789141186994979800,11.669979736328125,-5.5437868035733695,-8.079103153815865,-0.40607053510304536
1789141187004952000,11.6799521484375,-5.541164638376236,-8.080689546224475,-0.4102976147461682
1789141187014923800,11.689923828125,-5.539439129757881,-8.081661021605134,-0.41443602972514926
1789141187024896000,11.69989599609375,-5.54225710978806,-8.079415873026848,-0.42048553902246055
1789141187034869000,11.709868896484375,-5.5441012763500215,-8.077837663924694,-0.42645668585393576
1789141187044840700,11.7198408203125,-5.544611563959718,-8.077019917801023,-0.4352364968979731
1789141187054813000,11.72981298828125,-5.5452767498701805,-8.07599700449407,-0.4456144638536498
1789141187064785000,11.739784912109375,-5.545365012675523,-8.075223097512126,-0.4583589772775769
1789141187074756900,11.7497568359375,-5.545485424184799,-8.07435800511539,-0.4719430833308026
1789141187084729900,11.759729736328126,-5.544692227980494,-8.07415283793211,-0.48459995500389486
1789141187094702000,11.7697021484375,-5.541971278584003,-8.075371566072105,-0.4952822752010077
1789141187104673800,11.779673828125,-5.5439791112750765,-8.073298851451277,-0.5064869022391736
1789141187114646000,11.78964599609375,-5.546570296812058,-8.071001680424809,-0.5146573492132127
1789141187124617700,11.79961767578125,-5.547223207762837,-8.069984027814865,-0.5235119425265118
1789141187134591000,11.809591064453125,-5.54760957673192,-8.069199014917016,-0.5314642167052254
1789141187144563000,11.81956298828125,-5.546921594467759,-8.06898566442728,-0.5417775209268555
1789141187154535000,11.829534912109375,-5.547430713033676,-8.067854614570736,-0.5532691116802394
1789141187164507000,11.8395068359375,-5.545965316656232,-8.068059197232127,-0.564879798768647
1789141187174479000,11.84947900390625,-5.543398681038617,-8.069055222532153,-0.5757256024317815
1789141187184451800,11.859451904296876,-5.541181004989147,-8.069812762901186,-0.5863559732459486
1789141187194423800,11.869423828125,-5.5410693613082165,-8.069304813379048,-0.5943476661195978
1789141187204397000,11.87939697265625,-5.539760616797208,-8.069718654876947,-0.6008973800240084
1789141187214368800,11.88936865234375,-5.5397945190668105,-8.06922531840205,-0.6071804423488676
1789141187224341000,11.899341064453125,-5.5387096464395515,-8.069419964191317,-0.6144543788745999
1789141187234314000,11.90931396484375,-5.536697137573361,-8.07040371453166,-0.6196309777949005
1789141187244285700,11.91928564453125,-5.536597768852114,-8.06991680779755,-0.6268192087985575
1789141187254258000,11.9292578125,-5.536687200701237,-8.069331116864085,-0.6335457405745982
1789141187264230000,11.93922998046875,-5.534491736483574,-8.070269859018921,-0.640722792597115
1789141187274201900,11.949201904296874,-5.533186499103904,-8.070742737227677,-0.6460176110696048
1789141187284174800,11.9591748046875,-5.53201803984642,-8.071217953523993,-0.6500798190072179
1789141187294147000,11.96914697265625,-5.529122902926803,-8.072956321623922,-0.6531129761580378
1789141187304118800,11.979118896484374,-5.52776622762084,-8.073860576987267,-0.6534293486308306
1789141187314091000,11.989091064453126,-5.526420658230781,-8.074829714280366,-0.6528421233274042
1789141187324062700,11.999062744140625,-5.526918670880794,-8.074512903416156,-0.6525277966812253
1789141187334036000,12.009035888671875,-5.526866063910722,-8.074632730403541,-0.6514950926326215
1789141187344008000,12.019008056640626,-5.5285909880071875,-8.073550195863843,-0.6502757069054991
1789141187353980000,12.02897998046875,-5.52884759311676,-8.073138692453503,-0.6531950284183025
1789141187363951900,12.038951904296875,-5.526567957746982,-8.074710471814871,-0.6530654106892645
1789141187373923800,12.048923828125,-5.5242702021986245,-8.076227890640498,-0.6537393644280731
1789141187383896800,12.058896728515625,-5.52655334469974,-8.074851926112174,-0.6514380286831408
1789141187393868800,12.068868896484375,-5.526383248829841,-8.075504252541064,-0.6447553360488265
1789141187403840800,12.0788408203125,-5.527564567568898,-8.075456906268,-0.6351344710707664
1789141187413813000,12.08881298828125,-5.532430127778649,-8.072709653386474,-0.627676117888838
1789141187423785000,12.098784912109375,-5.53712734568417,-8.070222512745858,-0.6181630241341889
1789141187433757700,12.1087578125,-5.540686499470472,-8.068451995941997,-0.6093180388994515
1789141187443730000,12.11872998046875,-5.543922412651777,-8.066978416258097,-0.599307845810242
1789141187453702000,12.128701904296875,-5.544091339477896,-8.067597424939274,-0.5893387153837829
1789141187463673900,12.138673828125,-5.543888510382176,-8.068559547969699,-0.5779481007868423
1789141187473645800,12.148645751953126,-5.543740041822195,-8.069501212733984,-0.5661030204206705
1789141187483617800,12.15861767578125,-5.540206606999039,-8.072934109792113,-0.5515730483520775
1789141187493590800,12.1685908203125,-5.537691409307718,-8.075744491037726,-0.5354557340268046
1789141187503563000,12.17856298828125,-5.540134126284718,-8.075064692080021,-0.5202241530274972
1789141187513534700,12.18853466796875,-5.543073102346062,-8.074086786958574,-0.5038292638698593
1789141187523507000,12.1985068359375,-5.544929543867707,-8.073769391572474,-0.4882561394238844
1789141187533480000,12.20847998046875,-5.54809472990036,-8.072336728420852,-0.4758174770787358
1789141187543452000,12.218451904296876,-5.549428608852624,-8.072190597948431,-0.4625539812820032
1789141187553424000,12.228423828125,-5.5489989852637045,-8.073319894239306,-0.44776985178925094
1789141187563396000,12.23839599609375,-5.54611612330377,-8.076212693071366,-0.4310057639930397
1789141187573367800,12.248367919921876,-5.5426253585785625,-8.079534530970454,-0.41329993836730716
1789141187583340000,12.258340087890625,-5.539883366394043,-8.082379399007559,-0.3939723932912573
1789141187593313000,12.26831298828125,-5.537611329808831,-8.084811594590544,-0.37557204606272276
1789141187603284700,12.27828466796875,-5.53584139752686,-8.086828779631853,-0.3578244636544958
1789141187613257000,12.288257080078125,-5.534192461276054,-8.088750687605142,-0.3394272582311183
1789141187623228700,12.298228759765625,-5.535061645326018,-8.088943579828738,-0.32012495719417927
1789141187633201000,12.308200927734376,-5.537797207769751,-8.087795578837394,-0.3012390001394786
1789141187643174000,12.318173828125,-5.5391527140319345,-8.087636588883399,-0.27982586269471793
1789141187653145900,12.328145751953125,-5.540073336008191,-8.087643018624187,-0.2607610602080822
1789141187663117800,12.338117919921874,-5.5399155150979755,-8.088312296187878,-0.2427361952284351
1789141187673090000,12.348090087890625,-5.538987878859043,-8.089418211603164,-0.22651540226237846
1789141187683061800,12.358061767578125,-5.535270319640636,-8.092380568540095,-0.21104161000503227
1789141187693035000,12.368034912109374,-5.531800597703456,-8.095192118829488,-0.19345935596004127
1789141187703007000,12.378007080078126,-5.528149673980474,-8.09810069975257,-0.1752391328050755
1789141187712979000,12.38797900390625,-5.526565619659424,-8.099549729517102,-0.15730994675224647
1789141187722951000,12.397950927734374,-5.525196669393778,-8.100787162357568,-0.14088163938219658
1789141187732923000,12.4079228515625,-5.5265293793022625,-8.100098595571518,-0.12751503027086145
1789141187742895900,12.417895751953125,-5.526559189918637,-8.100270445007085,-0.11465963121782988
1789141187752867800,12.427867919921875,-5.52765341489613,-8.09970112068653,-0.10139066466153598
1789141187762839800,12.43783984375,-5.528823627719283,-8.099036519297957,-0.09002412505992688
1789141187772811800,12.447811767578125,-5.529114135098457,-8.098962869539857,-0.07796717377505265
1789141187782784000,12.457783935546875,-5.527811820328235,-8.099958310317993,-0.065913286663522
1789141187792756700,12.4677568359375,-5.526995243248344,-8.10061706648767,-0.052055779629549936
1789141187802729000,12.47772900390625,-5.5271366975456475,-8.100598361787199,-0.03822370843093376
1789141187812701000,12.487700927734375,-5.525058722227811,-8.10206960338354,-0.024474869952804873
1789141187822673000,12.4976728515625,-5.525815093553066,-8.101579189518093,-0.013226561319828033
1789141187832644900,12.507644775390625,-5.526657389596104,-8.101014541372656,-0.0038004734201298558
1789141187842618000,12.5176181640625,-5.526275112280249,-8.101274069091676,0.00593553609115479
1789141187852589800,12.52758984375,-5.5277773335367435,-8.100237711781263,0.014697885114559902
1789141187862562000,12.53756201171875,-5.529606887051463,-8.098966376671195,0.024047474853589663
1789141187872533800,12.54753369140625,-5.5291322552770374,-8.0992551304847,0.03403142382326769
1789141187882506000,12.557506103515625,-5.528019325599074,-8.099987536412478,0.03978987090226728
1789141187892479000,12.56747900390625,-5.528823627719283,-8.09940359904468,0.046396507192263375
1789141187902450700,12.57745068359375,-5.528320354372263,-8.09971865634322,0.051165890718274744
1789141187912423000,12.5874228515625,-5.530646751493215,-8.098092516446114,0.056802558598108586
