time,seconds_elapsed,z,y,x
1789997782257251300,1.576251220703125,0.11549446412055464,-9.804968128762933,-0.14015460960642936
1789997782267322400,1.586322265625,0.1192815947773637,-9.80490495826754,-0.14141158578322438
1789997782277394200,1.596394287109375,0.1248913009557801,-9.80482112057189,-0.14235632252373132
1789997782287465200,1.60646533203125,0.13008634028236712,-9.804734428848418,-0.1436643743650378
1789997782297536300,1.616536376953125,0.13238051549735916,-9.804677155207123,-0.14551214577380223
1789997782307607300,1.626607177734375,0.1361117492329464,-9.80460833733522,-0.1466706306706983
1789997782317678300,1.63667822265625,0.14139305929003326,-9.80455889954162,-0.1449919053657053
1789997782327750100,1.646750244140625,0.14425357682406914,-9.804607763764572,-0.13871276388089163
1789997782337821200,1.6568212890625,0.14558452183412174,-9.804732524859245,-0.1280808408835751
1789997782347892200,1.666892333984375,0.14843120222235742,-9.804839429302858,-0.11611428980816423
1789997782357963300,1.67696337890625,0.15223738609134294,-9.804925236507462,-0.10319774988508516
1789997782368034300,1.687034423828125,0.15776005033094942,-9.804979503630648,-0.08869785523627619
1789997782378106400,1.6971064453125,0.16197938883236024,-9.80504728358753,-0.07209040625795397
1789997782388177400,1.707177490234375,0.16487386838333323,-9.805104765643728,-0.055811996768804675
1789997782398248200,1.717248291015625,0.16936843297697388,-9.805102124000284,-0.040816771452146704
1789997782408319200,1.7273193359375,0.17354929066275143,-9.805076856137108,-0.02696764595617878
1789997782418390300,1.737390380859375,0.17806225591947156,-9.805023422884227,-0.013589296771648005
1789997782428462300,1.74746240234375,0.1801491059811951,-9.804995625914,-0.001128332414082884
1789997782438533400,1.757533447265625,0.1818237361804858,-9.804959709449697,0.009653781561715742
1789997782448604400,1.7676044921875,0.18186944400740182,-9.804942326441575,0.020569897962604115
1789997782458675500,1.777675537109375,0.18052215792358395,-9.804932595880418,0.03302642339864076
1789997782468746500,1.78774658203125,0.17610205505371393,-9.80496298002988,0.04554615893433591
1789997782478818300,1.797818359375,0.17174433434772332,-9.80497765349313,0.05748507950445787
1789997782488889300,1.807889404296875,0.16877232411994023,-9.80497509739973,0.06603575099332604
1789997782498960400,1.81796044921875,0.1684843799778002,-9.804952239215268,0.07002651125498538
1789997782509031200,1.82803125,0.17132095448766363,-9.804908093746334,0.06937043500642312
1789997782519103200,1.838103271484375,0.17450416708946404,-9.804875792625309,0.0659397199153337
1789997782529174300,1.84817431640625,0.17798468339296655,-9.804837508821912,0.06227536733670181
1789997782539245300,1.858245361328125,0.179221185416488,-9.804844415573397,0.057339482708036855
1789997782549316400,1.86831640625,0.17960410017521825,-9.804875810344683,0.05033865214508881
1789997782559387100,1.87838720703125,0.17706106077089329,-9.804961280502635,0.04193064866147021
1789997782569459200,1.888459228515625,0.1740157190234944,-9.805045907320803,0.03429487499227416
1789997782579530200,1.8985302734375,0.16680901626210676,-9.805189909915311,0.028253952944944788
1789997782589601300,1.908601318359375,0.15891776000754898,-9.805334234867226,0.023273104971204356
1789997782599672300,1.91867236328125,0.15303561153473036,-9.805443649291202,0.015864311890398657
1789997782609743400,1.928743408203125,0.1493041589847197,-9.805512206738412,0.00623046081532614
1789997782619815400,1.9388154296875,0.14631635826438805,-9.805558096927232,-0.0020147253021426644
1789997782629886500,1.948886474609375,0.14138727223612868,-9.805626935882989,-0.008992174483639929
1789997782639957500,1.95895751953125,0.13653141018842307,-9.805683881251534,-0.017688485296772603
1789997782650028300,1.9690283203125,0.13489910975379008,-9.805679312776205,-0.02892361811812462
1789997782660099300,1.979099365234375,0.13644760806763184,-9.80561049374791,-0.04199874758320379
1789997782670171100,1.989171142578125,0.13644138663004823,-9.805556748468197,-0.05317572214880029
1789997782680242200,1.9992421875,0.1318593133774981,-9.80555791718144,-0.06354653000347091
1789997782690313200,2.009313232421875,0.12599838263299695,-9.805558105082666,-0.07443336580921475
1789997782700384500,2.019384521484375,0.12176896567407387,-9.805528305452944,-0.08469332554615766
1789997782710455600,2.02945556640625,0.11753937049340948,-9.80549738506808,-0.09377332259309437
1789997782720527600,2.039527587890625,0.11187625799870422,-9.805480406239973,-0.10212466206635279
1789997782730598700,2.0495986328125,0.1054853302371453,-9.805474957554631,-0.10923852223589202
1789997782740669700,2.059669677734375,0.1034616842502871,-9.805437138075762,-0.11442546920881158
1789997782750740500,2.069740478515625,0.10663522287967772,-9.805353343094273,-0.11860453605374052
1789997782760812800,2.079812744140625,0.11087874961955896,-9.80525727880877,-0.12253686230199691
1789997782770883600,2.089883544921875,0.11048712493815097,-9.805243685727419,-0.12396417040062202
1789997782780954600,2.09995458984375,0.10708981377068869,-9.805293767489609,-0.12301211416056784
1789997782791025700,2.110025634765625,0.10580204922369459,-9.805322166098279,-0.12186018685187879
1789997782801096700,2.1200966796875,0.10386843073756905,-9.805374229759304,-0.11930272439394757
1789997782811168800,2.130168701171875,0.10139641403946505,-9.805487892645617,-0.11188585094881026
1789997782821239800,2.14023974609375,0.09920193399946556,-9.805616570332118,-0.1021200614774335
1789997782831310800,2.150310791015625,0.10010611269880669,-9.805708630158646,-0.09190350692244388
1789997782841381600,2.160381591796875,0.09856165475621449,-9.805825872716575,-0.08024417284253685
1789997782851452700,2.17045263671875,0.09819308106934035,-9.80593693879084,-0.06582938802311301
1789997782861524500,2.1805244140625,0.10001853891361782,-9.805998753905202,-0.05256366207006567
1789997782871595500,2.190595458984375,0.10218039126792094,-9.806030236644832,-0.04129726568707297
1789997782881666600,2.20066650390625,0.10594831101418697,-9.806031431710089,-0.029969518247224047
1789997782891737600,2.210737548828125,0.11070983785545063,-9.806006686258446,-0.01911166444832895
1789997782901808600,2.22080859375,0.11646366203759617,-9.805953532827495,-0.009844158070587685
1789997782911880700,2.230880615234375,0.12520318530298039,-9.805851079276,-0.0007765485413048188
1789997782921951500,2.240951416015625,0.13343558180817672,-9.805737497333345,0.009909277174073364
1789997782932022500,2.2510224609375,0.14082057773683984,-9.805614877669276,0.021791617524480462
1789997782942093600,2.261093505859375,0.1505183659713377,-9.805432608382098,0.034982604245290275
1789997782952164600,2.27116455078125,0.15854184367249574,-9.80523847797017,0.05045887310709557
1789997782962236700,2.281236572265625,0.1656036399085819,-9.805027415591427,0.06628209543709318
1789997782972307700,2.2913076171875,0.16939888816066853,-9.804846696426456,0.08168496678143647
1789997782982378800,2.301378662109375,0.1708880388886302,-9.804670898441202,0.09809338589042746
1789997782992449800,2.31144970703125,0.1693425627951573,-9.804497072331314,0.11640673264358815
1789997783002520600,2.3215205078125,0.16702353085001082,-9.804312140122615,0.13403542746823865
1789997783012592600,2.331592529296875,0.1655404635924336,-9.804084472092732,0.151330729245779
1789997783022663700,2.34166357421875,0.16704506083182663,-9.803769862841303,0.1690411826954003
1789997783032734700,2.351734619140625,0.16898048871295976,-9.803412831546941,0.1868632154526675
1789997783042805800,2.3618056640625,0.16875346383787457,-9.803071760980616,0.2041909027304419
1789997783052877600,2.371877685546875,0.16825303617126916,-9.802704240024664,0.22151944959185543
1789997783062948600,2.381948486328125,0.16804928633635088,-9.8022800161713,0.23968677489800644
1789997783073019600,2.39201953125,0.16962927525846136,-9.801736201806607,0.25996514866328024
1789997783083090400,2.40209033203125,0.17219586372465104,-9.801035440087144,0.28360472537458725
1789997783093161500,2.412161376953125,0.17327575945961196,-9.800288058470576,0.3077681257006821
1789997783103233500,2.422233642578125,0.17694553989908726,-9.799438268823499,0.3317816627494949
1789997783113304600,2.4323046875,0.18286937095038194,-9.798529791500874,0.35460572032521936
1789997783123375600,2.442375732421875,0.1862403412205324,-9.7977505224851,0.3738749167978819
1789997783133446700,2.45244677734375,0.1893016983023228,-9.796962585863811,0.39250325312261497
1789997783143517700,2.462517578125,0.18980217437203456,-9.796202539297047,0.41081907593098427
1789997783153589800,2.47258984375,0.18856786999000047,-9.795593092304669,0.4256461609961549
1789997783163660800,2.482660888671875,0.18512845988654641,-9.795018807545267,0.44012140648597575
1789997783173731600,2.492731689453125,0.18216046485166273,-9.794382254626107,0.4552817373945018
1789997783183802600,2.502802734375,0.17880902868063098,-9.793759112577513,0.4697817787635392
1789997783193873700,2.512873779296875,0.17433173874395197,-9.793151716091408,0.48391057734842213
1789997783203945700,2.52294580078125,0.1721165422038063,-9.792458858456357,0.49850468743868176
1789997783214016800,2.533016845703125,0.17103101752189864,-9.791824764868295,0.5111733972446852
1789997783224087800,2.543087890625,0.16983037011605723,-9.79122993315745,0.5228500908280607
1789997783234158800,2.553158935546875,0.16732711416159193,-9.790659462917962,0.5342000963520315
1789997783244229600,2.563229736328125,0.16523834842540217,-9.790211577271114,0.5429829152360347
1789997783254301400,2.573301513671875,0.16262323696491848,-9.789806924143091,0.5510166582487038
1789997783264372500,2.58337255859375,0.15860276386342345,-9.789488794014673,0.5577925805920414
1789997783274443500,2.593443603515625,0.1536165090765868,-9.789167933480444,0.5647806690061499
1789997783284514600,2.6035146484375,0.14894297111177934,-9.788899414642229,0.5706503359191365
1789997783294585600,2.613585693359375,0.1463733980131959,-9.788639823792087,0.5757493673123077
1789997783304657700,2.62365771484375,0.1445372199473322,-9.788366257203288,0.5808512383029402
1789997783314728700,2.633728759765625,0.14379014717564115,-9.788021396053608,0.5868162465281395
1789997783324799500,2.643799560546875,0.14432935432245092,-9.787538240909138,0.594682235391567
1789997783334870500,2.65387060546875,0.14546197068982733,-9.786961733842842,0.6038205190024524
1789997783344942600,2.663942626953125,0.1456793018522156,-9.786277222477885,0.6147701773836013
1789997783355013600,2.674013671875,0.14528250012315613,-9.785479670035587,0.627426365773504
1789997783365084700,2.684084716796875,0.14531887252721815,-9.78459250935753,0.6411114792103605
1789997783375155700,2.69415576171875,0.1439776439461498,-9.783835815075177,0.6528576846530493
1789997783385226800,2.704226806640625,0.14020851253733402,-9.783217118435685,0.6628712073632573
1789997783395298800,2.714298828125,0.1369645995699963,-9.782729215597268,0.6707035761290346
1789997783405369900,2.724369873046875,0.13470799651305806,-9.782373250473643,0.6763173723750692
1789997783415440600,2.734440673828125,0.13311603345465095,-9.781899672540634,0.6834429904435729
1789997783425511700,2.74451171875,0.13123398243393083,-9.78134253182,0.691742511753212
1789997783435582700,2.754582763671875,0.1295642691769628,-9.780772783956648,0.7000657524888042
1789997783445654500,2.764654541015625,0.13015433526368644,-9.780268381399319,0.7069590264123826
1789997783455725600,2.7747255859375,0.13139320462200715,-9.779989157402996,0.7105847640992552
1789997783465796600,2.784796630859375,0.13098864187951864,-9.779852037490981,0.7125500528752048
1789997783475867600,2.79486767578125,0.1297906230552071,-9.779931820900094,0.7116712373253548
1789997783485938400,2.8049384765625,0.12966631419296024,-9.780210026421585,0.7078600303301885
1789997783496010500,2.815010498046875,0.1286293255832587,-9.780720434865993,0.700959244898852
1789997783506081500,2.82508154296875,0.12750131212395935,-9.781397827584843,0.6916532259501198
1789997783516152600,2.835152587890625,0.12925266615903733,-9.782194677083666,0.6799598844430803
1789997783526223600,2.8452236328125,0.12787418063005193,-9.783191844152736,0.6657179329860918
1789997783536295700,2.855295654296875,0.1262573261696436,-9.7842124345953,0.6508655430510952
1789997783546366700,2.86536669921875,0.1259165654358481,-9.785322489395588,0.6340198599694958
1789997783556437800,2.875437744140625,0.1244251775075634,-9.786508760946012,0.6157546412625358
1789997783566508500,2.885508544921875,0.12333324426435312,-9.78786514461085,0.5940328367194336
1789997783576579600,2.89557958984375,0.1240220103135699,-9.789259150000175,0.5704543468987694
1789997783586651600,2.905651611328125,0.12553381260243557,-9.79068862277591,0.5450227745755547
1789997783596722700,2.91572265625,0.12621417090030868,-9.792099880845791,0.5188833147154773
1789997783606793700,2.925793701171875,0.1268676119053798,-9.793500001740092,0.4915841345250473
1789997783616864800,2.93586474609375,0.12913563490997546,-9.794850892171059,0.46325659420788745
1789997783626935800,2.945935791015625,0.1291423644402886,-9.796296373569302,0.4316180651893296
1789997783637007600,2.956007568359375,0.13117157167369417,-9.797670155561883,0.3985390853869063
1789997783647078700,2.96607861328125,0.13378414798254126,-9.79896135228789,0.3644872202169309
1789997783657149400,2.9761494140625,0.13664443364997214,-9.800141200251524,0.3300713703309065
1789997783667220500,2.986220458984375,0.14142058809886712,-9.80118061999112,0.29537721308488935
1789997783677291500,2.99629150390625,0.14737514064625254,-9.802042395800973,0.2619814096254244
1789997783687363600,3.006363525390625,0.15137768324273884,-9.80274716612267,0.2315415358639151
1789997783697434600,3.0164345703125,0.15363207489620098,-9.803360371023173,0.20227477374994837
1789997783707505400,3.02650537109375,0.15699494530402489,-9.803865368532486,0.1730893336484351
1789997783717576400,3.036576416015625,0.15957498478866675,-9.804261900080595,0.1461958222046959
1789997783727648500,3.0466484375,0.15866697735001656,-9.804590528042562,0.12330361174202838
1789997783737719600,3.056719482421875,0.1557820190044298,-9.804867854435903,0.10341364342993371
1789997783747790600,3.06679052734375,0.151858185499348,-9.805110884502664,0.08446865819926787
1789997783757861600,3.076861572265625,0.14897341613891027,-9.805298480228451,0.06577541254833251
1789997783767932400,3.086932373046875,0.14875831974941553,-9.805401394318485,0.048575280736518706
1789997783778004500,3.09700439453125,0.14655932116961035,-9.805489257158085,0.03568646353936762
1789997783788075500,3.107075439453125,0.14256862352364397,-9.805577290726779,0.026861619263304028
1789997783798146600,3.117146484375,0.14186498317016144,-9.805606689233928,0.018529335536257643
1789997783808217600,3.127217529296875,0.14546212251249632,-9.805565457580162,0.010394505210003544
1789997783818288600,3.13728857421875,0.14872462354756164,-9.80552030277441,0.005642383267041514
1789997783828360400,3.1473603515625,0.14999536757027598,-9.805500723532658,0.0065359807969698576
1789997783838431500,3.157431396484375,0.1499984230873082,-9.805497999597764,0.009910807766717454
1789997783848502500,3.16750244140625,0.15128587235446725,-9.805471951681884,0.015071466624796935
1789997783858573300,3.1775732421875,0.15154113668195113,-9.8054559155805,0.021073150212037022
1789997783868644400,3.187644287109375,0.1504086209627584,-9.805459189124885,0.02699622108016972
1789997783878716400,3.19771630859375,0.15030235381981089,-9.805438116479744,0.03421429114847116
1789997783888787500,3.207787353515625,0.15234964437364942,-9.805370506410261,0.043353572118018914
1789997783898858500,3.2178583984375,0.15590530093452143,-9.805256278810207,0.055030419751505424
1789997783908929500,3.227929443359375,0.15876647660807808,-9.805137827495194,0.06668251114183568
1789997783919001600,3.238001708984375,0.15837207027976777,-9.805065496620287,0.07747102990075179
1789997783929072600,3.24807275390625,0.15810172474456127,-9.804994526818657,0.0864601827979763
1789997783939143400,3.258143310546875,0.156757334146282,-9.804945536165986,0.09412782681879915
1789997783949214500,3.26821435546875,0.1546168978262387,-9.80492046049566,0.10009356882853804
1789997783959285500,3.278285400390625,0.15400218009026823,-9.804874871533048,0.10536709960444657
1789997783969357600,3.288357666015625,0.1543343081061483,-9.804822197133257,0.10968751807375896
1789997783979428600,3.2984287109375,0.15435829418355748,-9.80479622592039,0.11195012985095328
1789997783989499600,3.308499755859375,0.15478209291573886,-9.804804496514654,0.11064815571300608
1789997783999570700,3.31857080078125,0.15807176912128235,-9.804805314209293,0.10582903155292907
1789997784009641500,3.328641357421875,0.15956056421872997,-9.804844441197954,0.09977167942731215
1789997784019713300,3.33871337890625,0.1578507449356858,-9.804923889317662,0.09452559209863459
1789997784029784300,3.348784423828125,0.15881827148855676,-9.80497685444259,0.08705882454089385
1789997784039855400,3.35885546875,0.16026593372301068,-9.80502881432368,0.07812499394547465
1789997784049926400,3.368926513671875,0.16278477600714547,-9.805062654363303,0.06816865323377795
1789997784059998500,3.37899853515625,0.16432154050742073,-9.805116166540927,0.0556059157173552
1789997784070069500,3.389069580078125,0.16721811525574792,-9.80513797924437,0.041211571717165996
1789997784080140500,3.399140625,0.16932231814709708,-9.805153551017296,0.026035594679356778
1789997784090211600,3.409211669921875,0.1674252688568419,-9.805213700908523,0.01186696234991626
1789997784100282400,3.419282470703125,0.16106843247848154,-9.805326061102763,-0.003796229656506547
1789997784110354400,3.4293544921875,0.155394341772703,-9.805396875719401,-0.021023053319327172
1789997784120425500,3.439425537109375,0.14986761993832784,-9.805410470785905,-0.04313133265810341
1789997784130496500,3.44949658203125,0.1491197162429103,-9.80528905535733,-0.06667448251289419
1789997784140567600,3.459567626953125,0.15136883695205255,-9.805060036035552,-0.09098911727615114
1789997784150638600,3.469638671875,0.151128970065022,-9.80481544439625,-0.11462419495538403
1789997784160710700,3.479710693359375,0.14861603945031715,-9.804576017898174,-0.13631147304830799
1789997784170781700,3.48978173828125,0.14419521103549388,-9.804320224840028,-0.15777257507211243
1789997784180852500,3.4998525390625,0.14024775537532957,-9.803946340477394,-0.18261499441297632
1789997784190923500,3.509923583984375,0.1372398491185083,-9.803388588007248,-0.2124167465764312
1789997784200994600,3.51999462890625,0.13689963956904985,-9.802600236338812,-0.2462974845631424
1789997784211066400,3.53006640625,0.1362916932349016,-9.801606814713784,-0.2834112872098654
1789997784221137400,3.540137451171875,0.1348625651608903,-9.800499263690936,-0.32003605349945163
1789997784231208400,3.55020849609375,0.1318995825751523,-9.799453426855811,-0.3517132941247314
1789997784241279500,3.560279541015625,0.12588281284575115,-9.798572121036544,-0.3775164444497913
1789997784251351600,3.5703515625,0.12053340733024663,-9.797807239818091,-0.3985371004702487
1789997784261422600,3.580422607421875,0.11560498978361386,-9.797021841943952,-0.4187966334609317
1789997784271493400,3.590493408203125,0.11076460063188301,-9.796263977555451,-0.437423062930746
1789997784281564400,3.600564453125,0.11008093631351147,-9.795358533130921,-0.45739342386296333
1789997784291635500,3.610635498046875,0.10753560557109454,-9.794403606684783,-0.47799184246720655
1789997784301707500,3.62070751953125,0.10094715316700674,-9.793503397270795,-0.4974739900178145
1789997784311778600,3.630778564453125,0.09723269627969962,-9.792537248572346,-0.516859758158802
1789997784321849600,3.640849609375,0.09438526653762298,-9.791716168047733,-0.5327015252438638
1789997784331920600,3.650920654296875,0.08926862394992036,-9.791068391458493,-0.5453353998383703
1789997784341991400,3.660991455078125,0.08608991851957391,-9.790510896119919,-0.5557575835638896
1789997784352063500,3.6710634765625,0.08624801983160285,-9.78994216329299,-0.5656723963819812
1789997784362134500,3.681134521484375,0.08774213457736815,-9.789346120042664,-0.5756721027249534
1789997784372205600,3.69120556640625,0.0896606531612137,-9.78872817372169,-0.5857810768146858
1789997784382276600,3.701276611328125,0.09114815668705696,-9.788259649753174,-0.5933410863038442
1789997784392348400,3.711348388671875,0.09033887053063784,-9.788024290324186,-0.5973245863324915
1789997784402419500,3.72141943359375,0.09017686669810407,-9.787834205384979,-0.6004549672272457
1789997784412490500,3.731490478515625,0.09002086827972132,-9.787753035804592,-0.6018104617754579
1789997784422561300,3.741561279296875,0.09226502615477553,-9.787650771684437,-0.6031242145024737
1789997784432632300,3.75163232421875,0.09421838263939053,-9.78752770064437,-0.6048197028358725
1789997784442704400,3.761704345703125,0.0950808123989288,-9.787596423081062,-0.6035771229603728
1789997784452775400,3.771775390625,0.09409139887968895,-9.787825438661773,-0.6000053537271571
1789997784462846500,3.781846435546875,0.09123938566982387,-9.788251012195593,-0.5934635431391304
1789997784472917500,3.79191748046875,0.08782178928532929,-9.78883304036103,-0.5843203197537966
1789997784482988500,3.801988525390625,0.08467590684337009,-9.789443143480892,-0.574466248297719
1789997784493060600,3.812060546875,0.08353367081622964,-9.79006181148748,-0.5640010944640289
1789997784503131600,3.822131591796875,0.08594736063239895,-9.790633811916186,-0.5536145856807477
1789997784513202400,3.832202392578125,0.08957609046761399,-9.791156281986954,-0.543714790838216
1789997784523273500,3.8422734375,0.09299997831176934,-9.79174298657654,-0.5324625434627316
1789997784533345500,3.852345458984375,0.09547141597088218,-9.792430965716298,-0.5192079295450003
1789997784543416600,3.86241650390625,0.0958657116367646,-9.793168291069765,-0.505023027599878
1789997784553487600,3.872487548828125,0.09356070142873776,-9.793849627582631,-0.4920792068995841
1789997784563558700,3.88255859375,0.09194624604225118,-9.794396036089994,-0.48139625747258463
1789997784573629700,3.892629638671875,0.09141904690652679,-9.794793532061277,-0.47332814356398306
1789997784583701500,3.902701416015625,0.09060226236078642,-9.795229821435854,-0.46438315355749665
1789997784593772300,3.912772216796875,0.0872789970464817,-9.795683328674704,-0.45536906870595795
1789997784603843300,3.92284326171875,0.0877812918199552,-9.796026721163463,-0.44781108279219395
1789997784613914400,3.932914306640625,0.0910980222574968,-9.796246009464571,-0.4423394902859959
1789997784623986400,3.942986328125,0.09444442728776979,-9.7964015733356,-0.4381550459741109
1789997784634057500,3.953057373046875,0.09806615688977983,-9.796490467382224,-0.4353708206543991
1789997784644128500,3.96312841796875,0.10017729389429382,-9.79654972892658,-0.4335475067939742
1789997784654199600,3.973199462890625,0.0973299272644946,-9.79671641772743,-0.4304059068919439
1789997784664270600,3.9832705078125,0.09455514336653549,-9.796785946014385,-0.42946072457320805
1789997784674342700,3.9933427734375,0.0977848818583392,-9.79664273671093,-0.4319875811698923
1789997784684413400,4.003413330078125,0.10396676246882909,-9.796403928553977,-0.4359489925388481
1789997784694484500,4.013484375,0.10264393201960106,-9.796329714009095,-0.4379266066587266
1789997784704555000,4.023554931640625,0.09875552065737404,-9.796374111960366,-0.4378213634941353
1789997784714626000,4.0336259765625,0.09582328662284247,-9.796430708345898,-0.43720049848766296
1789997784724698000,4.043697998046875,0.09200846284047828,-9.796489087437388,-0.4367173860759306
1789997784734769200,4.05376904296875,0.09201514816405353,-9.796452520583856,-0.43753837466516854
1789997784744840200,4.063840087890625,0.09686921416162342,-9.796194444953965,-0.44224223137588675
1789997784754911200,4.0739111328125,0.10284654343288904,-9.795801234437418,-0.44953406087830433
1789997784764983300,4.0839833984375,0.10667471118697289,-9.795482509570997,-0.4555464126184268
1789997784775054300,4.094054443359375,0.10759778940568779,-9.795336282545982,-0.4584747760767652
1789997784785125400,4.10412548828125,0.10904387469283186,-9.795180103795037,-0.4614565823458146
1789997784795196200,4.114196044921875,0.10978053892843206,-9.794931046006122,-0.4665471559668588
1789997784805267200,4.12426708984375,0.10995829032238712,-9.794724623556093,-0.47081697210814066
1789997784815339000,4.134339111328125,0.10767564095444941,-9.794629333280694,-0.4733256860274538
1789997784825410000,4.14441015625,0.10538579966738248,-9.794671774868707,-0.47295605132285334
1789997784835481000,4.154481201171875,0.10177928402021792,-9.794749096598352,-0.4721347396111016
1789997784845552000,4.16455224609375,0.10304398108101763,-9.79468779208154,-0.47313709303902474
1789997784855623200,4.174623046875,0.11055115789023146,-9.794450715798439,-0.47633701981144183
1789997784865695200,4.1846953125,0.11808338508135556,-9.794338860981926,-0.4768380732353972
1789997784875766000,4.19476611328125,0.1240322329915201,-9.794511456958121,-0.4717429635612992
1789997784885837000,4.204837158203125,0.12735905264191474,-9.794813627162426,-0.464534852466703
1789997784895908000,4.214908203125,0.12908876372880032,-9.795184915413857,-0.4561444667468337
1789997784905980200,4.224980224609375,0.13081507876961573,-9.795484013644355,-0.4491928928290115
1789997784916051200,4.23505126953125,0.13174238291335924,-9.795783507685872,-0.4423237030817525
1789997784926122200,4.245122314453125,0.13171946037616597,-9.79613240406875,-0.43455317284366235
1789997784936193300,4.255193359375,0.1307599292959937,-9.796485122910045,-0.42680089943695837
1789997784946264000,4.26526416015625,0.1301510075801661,-9.796834422427011,-0.41890187803441026
1789997784956336400,4.27533642578125,0.12899336065057707,-9.797159430331648,-0.4116076572737741
1789997784966407200,4.2854072265625,0.1251444301653937,-9.797413463914223,-0.4067183268858147
1789997784976478200,4.295478271484375,0.12068330574368413,-9.797600378922445,-0.4035530642635675
1789997784986549200,4.30554931640625,0.11989412214610294,-9.797632460946808,-0.402990501031886
1789997784996621000,4.31562109375,0.12324195182046563,-9.797534391881188,-0.4043764012535069
1789997785006692000,4.325692138671875,0.12920847405957045,-9.797404546509583,-0.4056446978968422
1789997785016763100,4.33576318359375,0.13410062462023642,-9.79730719526956,-0.40641863616571894
1789997785026834200,4.345834228515625,0.13420391423736444,-9.797274748847407,-0.4071677192218298
1789997785036905000,4.355905029296875,0.1314763838723735,-9.797268763373713,-0.40821210090021237
1789997785046977000,4.36597705078125,0.12668661242732618,-9.797286243788161,-0.4092924425233262
1789997785057048000,4.376048095703125,0.12071258510594181,-9.797174544456992,-0.41375080747915827
1789997785067119000,4.386119140625,0.11736949317457535,-9.796965679244899,-0.41960947721917485
1789997785077190100,4.396190185546875,0.11699281494164192,-9.79661005250189,-0.42793861475111605
1789997785087261200,4.40626123046875,0.1174593973276194,-9.796142230040385,-0.43837857271930947
1789997785097333200,4.416333251953125,0.11789202685499774,-9.795678521638147,-0.44850658142273453
1789997785107404300,4.426404296875,0.11861426776766042,-9.795147882835202,-0.4597819899463003
1789997785117475000,4.43647509765625,0.11732812220283023,-9.794700262430483,-0.46953087331576165
1789997785127546000,4.446546142578125,0.11417112087236328,-9.794361230668727,-0.47732437880978157
1789997785137618200,4.4566181640625,0.10933626957849307,-9.794143330277407,-0.4829003672375173
1789997785147689200,4.466689208984375,0.10556800941050568,-9.793988169501425,-0.48686028011264637
1789997785157760300,4.47676025390625,0.10310145742562789,-9.793774864549077,-0.49166408528063815
1789997785167831300,4.486831298828125,0.10181147256515284,-9.79351258100589,-0.4971270136295587
1789997785177902300,4.49690234375,0.1008311722575826,-9.79326995371156,-0.5020881365450429
1789997785187974100,4.50697412109375,0.09951809699751517,-9.793092860492335,-0.5057760630148436
1789997785198045200,4.517045166015625,0.09816742522429461,-9.792928265784424,-0.5092186267423948
1789997785208116000,4.527115966796875,0.09964466321127897,-9.792782813177187,-0.5117232299127579
1789997785218187000,4.53718701171875,0.10168394248145998,-9.79277381655399,-0.5115051350391506
1789997785228259000,4.547259033203125,0.1030346233017887,-9.792934787460114,-0.508132589508343
1789997785238330000,4.557330078125,0.10370629340281966,-9.793235339304596,-0.5021727906416422
1789997785248401200,4.567401123046875,0.10369231132969091,-9.7936003281454,-0.4950039044850913
1789997785258472200,4.57747216796875,0.10453363375564727,-9.794042823410239,-0.48599675878662574
1789997785268543200,4.587543212890625,0.10526516389561105,-9.794601798740635,-0.47442887150217605
1789997785278615300,4.597615234375,0.10752411162669337,-9.79523314710591,-0.46068726661944903
1789997785288686000,4.60768603515625,0.10858305108963452,-9.795962809892666,-0.44465353829883836
1789997785298757000,4.617757080078125,0.10970364770120848,-9.79685126707684,-0.42433680898440956
1789997785308828200,4.627828125,0.10995624841277532,-9.797904258788215,-0.39919867333852976
1789997785318899200,4.637899169921875,0.11037091498980679,-9.799020199341992,-0.37069307867041684
1789997785328971300,4.64797119140625,0.11133853128227657,-9.800180906270649,-0.33831539051193404
1789997785339042300,4.658042236328125,0.11208371100276253,-9.80131130728124,-0.30350203128697967
1789997785349113300,4.66811328125,0.11266774854627573,-9.802446189678728,-0.26407388810852833
1789997785359184400,4.678184326171875,0.11269029598987151,-9.80351432890678,-0.22087789295910612
1789997785369256200,4.688256103515625,0.11250291111636741,-9.804408940545224,-0.17691467817437928
1789997785379327000,4.698326904296875,0.11426753963987994,-9.805097104841666,-0.13191614696188608
1789997785389398000,4.70839794921875,0.11730026052167028,-9.805575353665338,-0.08557866812024166
1789997785399469000,4.718468994140625,0.12130372854088133,-9.805816909160232,-0.040249407572774995
1789997785409540000,4.7285400390625,0.12552498451906807,-9.805845173678694,0.0051762764260103065
1789997785419612200,4.738612060546875,0.13111945273946993,-9.805642341040219,0.05079263546207223
1789997785429683200,4.74868310546875,0.13593847307613713,-9.805271681281628,0.09253131988401395
1789997785439754200,4.758754150390625,0.14163515658678164,-9.804758896329544,0.13049903519583064
1789997785449825000,4.768824951171875,0.1464192085232613,-9.80414489989968,0.16636060122904237
1789997785459897000,4.77889697265625,0.14663196433878367,-9.803517639449726,0.19983639301497258
1789997785469968100,4.788968017578125,0.14672173145143702,-9.802898471668916,0.22814821733001078
1789997785480039200,4.7990390625,0.14429312730358881,-9.802325076325712,0.25296360143469787
1789997785490110200,4.809110107421875,0.1426544404467781,-9.80173682773441,0.2756603405586068
1789997785500181200,4.81918115234375,0.13931187503866527,-9.80130142858824,0.2923344131389374
1789997785510253300,4.82925341796875,0.1365933723268706,-9.80098543674559,0.3039825685909
1789997785520324400,4.839324462890625,0.13808512245659738,-9.800762757142422,0.31043491386488126
1789997785530395100,4.84939501953125,0.1418362448146047,-9.800648553143622,0.3123419565843121
1789997785540466200,4.859466064453125,0.14469627176355662,-9.800589613695847,0.31287605075286823
1789997785550538000,4.8695380859375,0.1465100464182714,-9.800612081932352,0.3113038005800774
1789997785560609000,4.879609130859375,0.14751006209306058,-9.800745511934936,0.306607014511505
1789997785570680000,4.88968017578125,0.14952802697379494,-9.800893784835486,0.3008250281506177
1789997785580751000,4.899751220703125,0.15173805590974512,-9.801154338930155,0.2911015026017292
1789997785590823200,4.9098232421875,0.15399990954408987,-9.801482024684962,0.2785999058295073
1789997785600894200,4.919894287109375,0.15564604809830263,-9.801792919672513,0.266485312364024
1789997785610965200,4.92996533203125,0.15430073511690176,-9.802136273362606,0.2543623582606609
1789997785621036000,4.9400361328125,0.15101836556982642,-9.802467628447086,0.24335152028771595
1789997785631107000,4.950107177734375,0.1477592342191024,-9.802763944437842,0.23315916616006263
1789997785641179100,4.96017919921875,0.14601434855038134,-9.803064255497747,0.22136503655617315
1789997785651250200,4.970250244140625,0.1481840307154994,-9.80332767435422,0.20785126054794745
1789997785661321200,4.9803212890625,0.15059717727466598,-9.803555561418522,0.19493941438301307
1789997785671392300,4.990392333984375,0.15037139646952277,-9.803729354413312,0.18618214222019627
1789997785681464300,5.00046435546875,0.15016971437414534,-9.803811887998341,0.18192402356137435
1789997785691535400,5.010535400390625,0.15146849004730165,-9.803789325279112,0.18205929926955455
1789997785701606000,5.02060595703125,0.15369887378941535,-9.803678845485134,0.18610458481187014
1789997785711677000,5.030677001953125,0.15713526586539026,-9.803459019475563,0.19462332432665647
1789997785721748000,5.040748046875,0.1586769433500689,-9.803180363955994,0.20700939830109272
1789997785731819800,5.05081982421875,0.1569442404474496,-9.802883658198335,0.2218552712808837
1789997785741890800,5.060890869140625,0.15565710460547744,-9.802513002443312,0.23852181540463716
1789997785751961600,5.070961669921875,0.15705431254293825,-9.802036054076675,0.2565379067094323
1789997785762032600,5.08103271484375,0.15786690475344808,-9.801493915843924,0.27600333089000106
1789997785772104700,5.091104736328125,0.15858090983130807,-9.800828991061195,0.29830480448976937
1789997785782175700,5.10117578125,0.15849777072437346,-9.800015849153592,0.3239672174495904
1789997785792246800,5.111246826171875,0.15858800935932674,-9.799020155994354,0.35277027176305265
1789997785802317800,5.12131787109375,0.15937597455052593,-9.797803571556214,0.38473487804023226
1789997785812388900,5.131388916015625,0.15925982146772447,-9.796474100433944,0.4172502158222089
1789997785822461000,5.1414609375,0.15629526320393,-9.79510472890162,0.44931535660530025
1789997785832532000,5.151531982421875,0.14909034912517502,-9.793710711571265,0.4810291113995261
1789997785842602800,5.161602783203125,0.14307670183590612,-9.792148914289037,0.5135493484583138
1789997785852673800,5.171673828125,0.13847377458017432,-9.790523326926307,0.5448524495232113
1789997785862745900,5.181745849609375,0.13339147569217158,-9.789048671492106,0.571939011519773
1789997785872817000,5.19181689453125,0.13006915118310652,-9.787666932295073,0.5958561725330619
1789997785882888000,5.201887939453125,0.1285746891841436,-9.786477080081246,0.6154082664415884
1789997785892959000,5.211958984375,0.1281832161513748,-9.785632259755374,0.6287788453077828
1789997785903030000,5.222030029296875,0.12934418259019784,-9.785031340768407,0.6378252641469495
1789997785913101800,5.232101806640625,0.13432693485766986,-9.784641109003914,0.6427525022473005
1789997785923172600,5.242172607421875,0.13700139808995318,-9.784513970513542,0.6441369595055931
1789997785933243600,5.25224365234375,0.13826232701576163,-9.784605376427152,0.6424801053475035
1789997785943314700,5.262314697265625,0.14103436724339818,-9.784909669293539,0.6372136765039272
1789997785953386800,5.27238671875,0.14259440421724456,-9.785501536482487,0.6277022889318591
1789997785963457800,5.282457763671875,0.1455461819812368,-9.786377751279755,0.613193444879134
1789997785973528800,5.29252880859375,0.1468108777173832,-9.787467695017218,0.5952293955038467
1789997785983599900,5.302599853515625,0.145296013032375,-9.788672366173865,0.5754759549859682
1789997785993670700,5.312670654296875,0.14430890848624722,-9.790144426586568,0.5501189671136111
1789997786003742700,5.32274267578125,0.1455742857489802,-9.791887586643545,0.517825253589791
1789997786013813800,5.332813720703125,0.1458633623835418,-9.79370363535064,0.4821662319727109
1789997786023884800,5.342884765625,0.14730374240466107,-9.795383393049915,0.44624980940879544
1789997786033955800,5.352955810546875,0.14769516067113395,-9.797052286787396,0.4078325204205534
1789997786044028000,5.36302783203125,0.15020260699847604,-9.798664505148395,0.36604878231542076
1789997786054099000,5.373098876953125,0.15451981672687948,-9.800185380623244,0.32074159929825863
1789997786064170000,5.383169921875,0.15787604041162037,-9.801513875183847,0.2752758026472939
1789997786074241000,5.393240966796875,0.15904439986315477,-9.802650901434514,0.23047987194008673
1789997786084311800,5.403311767578125,0.15222933534101535,-9.803672632101271,0.1876590870207913
1789997786094383600,5.413383544921875,0.14424401286843716,-9.804514603294807,0.1451764994059815
1789997786104454700,5.42345458984375,0.1433052701662559,-9.80508742178217,0.10059027147267552
1789997786114525700,5.433525634765625,0.145051080221802,-9.805425169165305,0.05457533749297161
1789997786124596700,5.4435966796875,0.15181051072298732,-9.805473027891237,0.006171052762197175
1789997786134668800,5.453668701171875,0.1663469228293697,-9.805156961182824,-0.040191231654624314
1789997786144739800,5.46373974609375,0.1847811743719152,-9.804563292675518,-0.08232944950464566
1789997786154811000,5.473810791015625,0.20787804410881108,-9.803655427966204,-0.12456147424411662
1789997786164881700,5.483881591796875,0.230510846805616,-9.80249419145223,-0.1683631430062345
1789997786174952700,5.49395263671875,0.24591541518586105,-9.801318669705875,-0.20990047585973126
1789997786185024800,5.504024658203125,0.24843518492346905,-9.800502215703466,-0.2425244076667289
1789997786195095800,5.514095703125,0.24056636982822535,-9.800117160173523,-0.2649622591385143
1789997786205166800,5.524166748046875,0.24870181041854195,-9.799163997012675,-0.29143293835819767
1789997786215238000,5.53423779296875,0.2840733013757749,-9.797072720977392,-0.32720235878904375
1789997786225310000,5.54431005859375,0.33445964394753747,-9.794186225687666,-0.3639284733555858
1789997786235381000,5.554381103515625,0.3688695918743875,-9.791838300870468,-0.3927241856082696
1789997786245452000,5.5644521484375,0.38715750259016335,-9.790183628104026,-0.41570304864616947
1789997786255522800,5.574522705078125,0.4018357347229468,-9.789035935050936,-0.4285976098773455
1789997786265593900,5.58459375,0.42371044155131304,-9.788001933115952,-0.4311387538680908
1789997786275665700,5.594665771484375,0.4496574570015088,-9.786572682088785,-0.43726026117822125
1789997786285736700,5.60473681640625,0.4731424091753303,-9.785098115378139,-0.445412365495262
1789997786295807700,5.614807861328125,0.49645881176665624,-9.783623757250679,-0.4523587428115413
1789997786305878800,5.624878662109375,0.5214981063339275,-9.782011909602103,-0.4589776631105045
1789997786315950800,5.634950927734375,0.5489411813646353,-9.780186105379142,-0.4658308299550545
1789997786326022000,5.64502197265625,0.574430952587794,-9.77835895089144,-0.4733929631866161
1789997786336092700,5.6550927734375,0.5976600327899064,-9.776700704416834,-0.4788596480537304
1789997786346163700,5.665163818359375,0.6239172827876212,-9.774983734471896,-0.48040939533690863
1789997786356235800,5.67523583984375,0.6500017023951833,-9.773335478282581,-0.4793787377079328
1789997786366306800,5.685306884765625,0.6723461091030156,-9.772044534660555,-0.4748412241771767
1789997786376377900,5.6953779296875,0.6887062262912867,-9.771144878225732,-0.46990028870062756
1789997786386449000,5.705448974609375,0.6984535036004158,-9.77055083224677,-0.46785179337417593
1789997786396520000,5.71552001953125,0.6967827707810579,-9.770732226787024,-0.46655723514847414
1789997786406592000,5.725592041015625,0.6898267632804024,-9.77140720988483,-0.46272690108416137
1789997786416662800,5.735662841796875,0.6817212580620159,-9.772216089817908,-0.45764362874899667
1789997786426733800,5.74573388671875,0.6720597326079881,-9.773030317931223,-0.45452442208505334
1789997786436804900,5.755804931640625,0.6642164028913541,-9.77356515498011,-0.45456343080800954
1789997786446876700,5.765876708984375,0.6641439065734123,-9.773416176269421,-0.45785171798925267
1789997786456947700,5.77594775390625,0.6546913169242305,-9.774130153262261,-0.4562233101812419
1789997786467018800,5.786018798828125,0.6268177261683954,-9.776466705129488,-0.44518150944430424
1789997786477089800,5.79608984375,0.59967857650857,-9.778833232432689,-0.4303471076916231
1789997786487160800,5.806160888671875,0.5762558102021037,-9.780601701866575,-0.4220696814442553
1789997786497233000,5.81623291015625,0.5490676848683474,-9.782401100461108,-0.41657512477516234
1789997786507303700,5.8263037109375,0.5246082255906811,-9.784095164537357,-0.4082230372111779
1789997786517374700,5.836374755859375,0.49785000410011837,-9.785910099799578,-0.39810298225501967
1789997786527445800,5.84644580078125,0.46309752630598017,-9.788046625199254,-0.3873875552012264
1789997786537517800,5.856517822265625,0.43437675547377935,-9.789801957108812,-0.37612985723664266
1789997786547588900,5.8665888671875,0.41392677662441674,-9.79112867292399,-0.364495180689977
1789997786557660000,5.876659912109375,0.3798911151043452,-9.793056123200728,-0.34945050061713795
1789997786567731000,5.88673095703125,0.33027560669400574,-9.795588845688993,-0.32825178014141443
1789997786577803000,5.896802978515625,0.2737501514939777,-9.797961810160173,-0.3088595155012847
1789997786587873800,5.906873779296875,0.219300257792869,-9.799746539756349,-0.2953935954293957
1789997786597944800,5.91694482421875,0.17514351544421677,-9.800886338886125,-0.28694114259544934
1789997786608016000,5.927015869140625,0.13586659189870312,-9.801763275355434,-0.27812303547374706
1789997786618087000,5.9370869140625,0.09254579100221147,-9.802719471449123,-0.2617593012378202
1789997786628158700,5.94715869140625,0.049156434342051435,-9.803586805913628,-0.24012928268192238
1789997786638229800,5.957229736328125,0.009664592990169174,-9.804244300989097,-0.21699197883595786
1789997786648300800,5.96730078125,-0.02961389715776741,-9.80468595055622,-0.19402383844187762
1789997786658371800,5.977371826171875,-0.0670600752504257,-9.804871370265642,-0.1743234635551175
1789997786668444000,5.98744384765625,-0.09700466351671783,-9.804870308741911,-0.15967723665559808
1789997786678514700,5.9975146484375,-0.12023413709458335,-9.804784402406167,-0.14878505693647565
1789997786688585700,6.007585693359375,-0.14452405148635344,-9.804597644208553,-0.13918406629399846
1789997786698656800,6.01765673828125,-0.1754919888153239,-9.804218216645248,-0.1299918629254535
1789997786708727800,6.027727783203125,-0.20872807242312927,-9.803655357327361,-0.12317043153942515
1789997786718800000,6.0377998046875,-0.24264065442609858,-9.802938851622246,-0.1178848563182691
1789997786728871000,6.047870849609375,-0.2752166726305535,-9.802152075685393,-0.11161671211216691
1789997786738941700,6.057941650390625,-0.3009813101601989,-9.801471353047214,-0.10465242668411832
1789997786749012700,6.0680126953125,-0.31872969811182517,-9.800968618492742,-0.09901647541766104
1789997786759084800,6.078084716796875,-0.33416519942260864,-9.800488124398745,-0.0955808631203987
1789997786769155800,6.08815576171875,-0.3575940736849599,-9.799695130786562,-0.09214803422297696
1789997786779227000,6.098226806640625,-0.38507079159050606,-9.79868136751007,-0.08906705716932642
1789997786789298000,6.1082978515625,-0.4117563438814241,-9.797626977423382,-0.0857446107386586
1789997786799369000,6.118368896484375,-0.44108571767752347,-9.796390001730447,-0.08109907652860007
1789997786809440800,6.128440673828125,-0.46662625913313294,-9.79525180187191,-0.07537320120626553
1789997786819511600,6.138511474609375,-0.48411777099611947,-9.794445092570594,-0.06964464749822681
1789997786829582600,6.14858251953125,-0.4945072638388407,-9.79394677790365,-0.06673867202419702
1789997786839653600,6.158653564453125,-0.496531450266919,-9.793833806540997,-0.06821923377886181
1789997786849725700,6.1687255859375,-0.4870961395898396,-9.794267778800748,-0.07374014624765911
1789997786859796700,6.178796630859375,-0.4727899587465308,-9.794929808634674,-0.07882061961136645
1789997786869867800,6.18886767578125,-0.45515802917259957,-9.795763706893768,-0.07897541428034019
1789997786879938800,6.198938720703125,-0.4550819602456508,-9.795810626436786,-0.07336912092002114
1789997786890011000,6.209010986328125,-0.46529123529956984,-9.79539959027544,-0.06350843832716471
1789997786900082000,6.21908203125,-0.46827934250317654,-9.795287011934155,-0.058725591336758684
1789997786910152700,6.229152587890625,-0.44386705860813186,-9.796364496420262,-0.06785291343381031
1789997786920223700,6.2392236328125,-0.40564971525991245,-9.797924661745128,-0.08067212248316354
1789997786930294800,6.249294677734375,-0.37322602881541295,-9.799174365563916,-0.08529984409804668
1789997786940366800,6.259366943359375,-0.35914606022955253,-9.799734356268647,-0.08121097266970441
1789997786950438000,6.26943798828125,-0.3462110496939403,-9.800246466430316,-0.07550308711468708
1789997786960509000,6.279509033203125,-0.32556670056716613,-9.800997444018762,-0.06957491743355061
1789997786970580000,6.289580078125,-0.29866235343547376,-9.801857005686102,-0.06912974357809629
1789997786980651800,6.29965185546875,-0.2735353847019273,-9.802552053537008,-0.07439567447438843
1789997786990722600,6.30972265625,-0.2490275266633247,-9.803177202601905,-0.07798813752226356
1789997787000793600,6.319793701171875,-0.21528120199232492,-9.804002047550702,-0.07476406378633367
1789997787010864600,6.32986474609375,-0.1804810534954111,-9.804772669013925,-0.06507702988286997
1789997787020936700,6.339936767578125,-0.15403886641867587,-9.805301167973614,-0.052247606595557335
1789997787031007700,6.3500078125,-0.13778342593254198,-9.80559446064333,-0.041447936920103075
1789997787041078800,6.360078857421875,-0.11728663601224609,-9.805882687840086,-0.03590544514917135
1789997787051149800,6.37014990234375,-0.08866501312981775,-9.80618646079134,-0.03511807239515983
1789997787061220900,6.380220947265625,-0.05587992907427543,-9.806426088357997,-0.03559130537773733
1789997787071293000,6.39029296875,-0.01746871401506592,-9.806575984452834,-0.0337745657913406
1789997787081363700,6.40036376953125,0.013208488770724084,-9.806599395635924,-0.0284915723056598
1789997787091434800,6.410434814453125,0.035486664888654706,-9.806563513796634,-0.020915066723876295
1789997787101505800,6.420505859375,0.055261466465864155,-9.806484033131769,-0.014306509018936021
1789997787111577900,6.430577880859375,0.07450912951863058,-9.806360520403564,-0.011629543195730207
1789997787121649000,6.44064892578125,0.08688110104677517,-9.806254315335273,-0.01490496519004777
1789997787131720000,6.450719970703125,0.10057345513930785,-9.80610764842496,-0.02269445972813348
1789997787141791000,6.460791015625,0.12045759735905043,-9.8058520884141,-0.03388500397520952
1789997787151862800,6.47086279296875,0.13910776213189735,-9.805556280614708,-0.0457698333358327
1789997787161933600,6.48093359375,0.15196107598926742,-9.80530512363657,-0.057347178423058705
1789997787172004600,6.491004638671875,0.1531964353868452,-9.805217080317762,-0.06812969160901573
1789997787182075600,6.50107568359375,0.14912096897595917,-9.805156067248383,-0.08395510985807803
1789997787192146700,6.511146728515625,0.14350955821553812,-9.805031614405985,-0.10554246841088914
1789997787202218800,6.52121875,0.13657694839777265,-9.804823076289669,-0.13103807178731988
1789997787212289800,6.531289794921875,0.13717564646451916,-9.804457974400906,-0.15548815159921286
1789997787222360800,6.54136083984375,0.14017332465309273,-9.804041301582652,-0.17752726222125698
1789997787232431900,6.551431884765625,0.1410438067740865,-9.803712535873597,-0.19422975785858249
1789997787242504000,6.56150390625,0.1453743980335107,-9.803326650375057,-0.2098609111763271
1789997787252574700,6.57157470703125,0.14848592385039044,-9.80288373638601,-0.22762067435351566
1789997787262645800,6.581645751953125,0.14826708567419788,-9.80246154508779,-0.24524554887015068
1789997787272716800,6.591716796875,0.14542575414471903,-9.802114764583465,-0.2603402263630464
1789997787282788900,6.601788818359375,0.14143398968291723,-9.801875325871984,-0.2713146081316058
1789997787292860000,6.61185986328125,0.13685192082205294,-9.801732934324066,-0.2787174003963882
1789997787302931000,6.621930908203125,0.1316430050401335,-9.801717698433572,-0.2817470254960463
1789997787313002000,6.632001953125,0.1266251499511214,-9.801825361923408,-0.2803067887437356
1789997787323072800,6.64207275390625,0.1222014336437363,-9.80200500604909,-0.27594217836894297
1789997787333144600,6.65214453125,0.1213817990158773,-9.802171671160767,-0.27036069519922495
1789997787343215600,6.662215576171875,0.12175536629259187,-9.802368217522476,-0.26293051946868706
1789997787353286700,6.67228662109375,0.1192124676704865,-9.80269373680898,-0.2517302906790865
1789997787363357700,6.682357666015625,0.1139035192270214,-9.80315914974551,-0.23553826833741073
1789997787373429800,6.6924296875,0.10789865317700902,-9.803624080891879,-0.2183917993931777
1789997787383500800,6.702500732421875,0.10341771293600138,-9.804040014424988,-0.20122027796641517
1789997787393571800,6.71257177734375,0.10367664462941162,-9.804334555549415,-0.18616494291907182
1789997787403642600,6.722642578125,0.10600579958751803,-9.804548799991517,-0.1731109780870965
1789997787413713700,6.732713623046875,0.11100424696113978,-9.804714255568278,-0.1601444204146285
1789997787423785700,6.74278564453125,0.12015781813581493,-9.804818363926506,-0.14656790444135226
1789997787433856800,6.752856689453125,0.12733481004704855,-9.804937035279904,-0.13184919364137418
1789997787443927800,6.762927734375,0.13304311226718357,-9.805049594766121,-0.11698379907662375
1789997787453998800,6.772998779296875,0.13704050179978,-9.805155797306558,-0.1025576493259853
1789997787464071000,6.78307080078125,0.14185343014782095,-9.805204948986937,-0.09060708894872191
1789997787474142000,6.793141845703125,0.14717285542780664,-9.80519996585524,-0.08227304796081326
1789997787484213000,6.803212890625,0.15173845581549814,-9.805175557188708,-0.07670975232423921
1789997787494283800,6.81328369140625,0.1533075736810411,-9.805182162745474,-0.07272473821226612
1789997787504355600,6.82335546875,0.15172158039658115,-9.805229072728686,-0.06959004566306155
1789997787514426600,6.833426513671875,0.1485433445999175,-9.805294556325807,-0.06720764679363779
1789997787524497700,6.84349755859375,0.1438913075502319,-9.805374195094602,-0.06571592258775852
1789997787534568700,6.853568603515625,0.1414888451869435,-9.8053989055331,-0.06714459602022238
1789997787544640800,6.863640869140625,0.14168494743592439,-9.805368792776212,-0.0710658400452625
1789997787554711800,6.8737119140625,0.1450142118081834,-9.805281339110378,-0.07626518136644718
1789997787564782800,6.883782958984375,0.14946875771467397,-9.805155651417857,-0.08344909368440628
1789997787574853600,6.893853515625,0.14845483642041601,-9.805099261630058,-0.09148853541211197
1789997787584924700,6.903924560546875,0.1450509125267507,-9.805068781788002,-0.09985401677613603
1789997787594996700,6.913996826171875,0.14236194458655346,-9.8050205535555,-0.10813625449831081
1789997787605067800,6.92406787109375,0.14009965731072635,-9.804935867841088,-0.11831972526710062
1789997787615138800,6.934138916015625,0.13634509948266377,-9.804831543483042,-0.13071718245134292
1789997787625209900,6.9442099609375,0.1359051817784893,-9.804615091090348,-0.14637815071474863
1789997787635282000,6.954281982421875,0.13495396264042214,-9.804347104716088,-0.16413471817975966
1789997787645353000,6.96435302734375,0.13352982856809117,-9.804071453243193,-0.18091106076699845
1789997787655424000,6.974424072265625,0.13557586461936105,-9.803740661121205,-0.19667911348054098
1789997787665494800,6.984494873046875,0.13824438110881482,-9.803448341276015,-0.2089903170699499
1789997787675566600,6.994566650390625,0.13946072479903185,-9.80323953280623,-0.21778656897402696
1789997787685637600,7.0046376953125,0.14343022710835263,-9.803043586893384,-0.22394331486424165
1789997787695708700,7.014708740234375,0.1492703128057246,-9.802846856601168,-0.22869084840064366
1789997787705780500,7.024780517578125,0.1530474553573999,-9.802784519631446,-0.22887702111961092
1789997787715851300,7.034851318359375,0.15582705733052107,-9.802816133080816,-0.22561871979704212
1789997787725923300,7.04492333984375,0.16087148395463172,-9.802857308892756,-0.22021213504955206
1789997787735994400,7.054994384765625,0.16348685649508396,-9.803008761538548,-0.21137305641638432
1789997787746065400,7.0650654296875,0.16668392763051695,-9.803232835897685,-0.19803686581675206
1789997787756136400,7.075136474609375,0.17078203389796878,-9.803510700319297,-0.17998389591979258
1789997787766208500,7.08520849609375,0.17392309517067775,-9.80382712625473,-0.15842007016485066
1789997787776279600,7.095279541015625,0.17611300359921478,-9.804159141123042,-0.13354000041065223
1789997787786350600,7.1053505859375,0.17807445918451975,-9.80445278109128,-0.10665792618481178
1789997787796421400,7.11542138671875,0.17990245802004687,-9.80469117108266,-0.07773287316170163
1789997787806493200,7.1254931640625,0.1769088270025292,-9.804949105072415,-0.04546238246673217
1789997787816564200,7.135564208984375,0.17249006259286967,-9.80512464769484,-0.012443221393427234
1789997787826635300,7.14563525390625,0.17140079833774366,-9.805132148103345,0.019465557052468947
1789997787836706300,7.155706298828125,0.17402958419317383,-9.804976088102835,0.05035449642245542
1789997787846778400,7.1657783203125,0.1772914453002937,-9.804723001227911,0.07973743516891031
1789997787856849400,7.175849365234375,0.18276764603436715,-9.804363964157348,0.10694218778172956
1789997787866920400,7.18592041015625,0.1853194314713758,-9.803948162325062,0.1365510818838088
1789997787876991500,7.195991455078125,0.18684290942923845,-9.803481564867216,0.16498279802296892
1789997787887062300,7.206062255859375,0.1904953347775795,-9.802977302702228,0.18905344179672348
1789997787897134300,7.21613427734375,0.19203785189312814,-9.802514283444616,0.2102977959438536
1789997787907205400,7.226205322265625,0.19366616722807187,-9.802089773036597,0.22783832144612495
1789997787917276400,7.2362763671875,0.19531866253160207,-9.80169767528675,0.2427883423589427
1789997787927347500,7.246347412109375,0.19641611500391878,-9.801407337356336,0.25341555371314767
1789997787937419500,7.25641943359375,0.19976428311759203,-9.801194273512667,0.2589762420721578
1789997787947490600,7.266490478515625,0.20583976445482446,-9.80092242310377,0.26445298983312576
1789997787957561600,7.2765615234375,0.21130410781036374,-9.800658310906883,0.26985759520534125
1789997787967632400,7.28663232421875,0.21310204160610952,-9.800466567848314,0.27536102515960204
1789997787977704200,7.2967041015625,0.21290544859408148,-9.800374338445403,0.2787637302668463
1789997787987775200,7.306775146484375,0.21084596297441954,-9.800471049238164,0.27692050435269744
1789997787997846300,7.31684619140625,0.20593293661414963,-9.800732552491365,0.2713427627455544
1789997788007917300,7.326917236328125,0.19623282841494277,-9.801125591591147,0.2642363793563163
1789997788017989400,7.3369892578125,0.1864817244676789,-9.801562431338107,0.25492727616635735
1789997788028060400,7.347060302734375,0.18194980554140322,-9.80196130678984,0.2425761238804339
1789997788038131500,7.35713134765625,0.18503524210769415,-9.802247875985694,0.22823901332021793
1789997788048202500,7.367202392578125,0.19020227594906147,-9.802466776776113,0.21413379459872084
1789997788058273300,7.377273193359375,0.19364877013583998,-9.802665137039792,0.2015897706265483
1789997788068345300,7.387345458984375,0.19292073185162573,-9.802911740118896,0.18998215049892583
1789997788078416400,7.39741650390625,0.1903844003232533,-9.803192374058199,0.17764712494119872
1789997788088487400,7.4074873046875,0.18966131191395172,-9.803447594219174,0.1637645878032965
1789997788098558500,7.417558349609375,0.18677104356210214,-9.803731321835453,0.14950813221427006
1789997788108630500,7.427630615234375,0.18196595270902002,-9.804016792000473,0.13606886491117698
1789997788118701600,7.43770166015625,0.17678789829021296,-9.804254543017514,0.1254138168867675
1789997788128772600,7.447772705078125,0.17015130284296826,-9.804479179234924,0.1166811314660911
1789997788138843400,7.457843505859375,0.1629180788709393,-9.804674303734307,0.11045347759113011
1789997788148915200,7.467915283203125,0.15654916459596713,-9.804842254729756,0.104601466697593
1789997788158986200,7.477986328125,0.15318810803068716,-9.804969105121579,0.09749895379337149
1789997788169057300,7.488057373046875,0.1510370853907536,-9.805086807849879,0.08864424435673995
1789997788179128300,7.49812841796875,0.14900790558243016,-9.805207775128784,0.07796725155711305
1789997788189199400,7.508199462890625,0.14821869757530184,-9.80528798614526,0.06881503366250345
1789997788199271400,7.518271484375,0.14750819417538721,-9.80535373998688,0.06043795632310144
1789997788209342500,7.528342529296875,0.1477944825433883,-9.80539370902017,0.052856204156180794
1789997788219413200,7.538413330078125,0.1475323717048698,-9.805431581858574,0.046105877816287576
1789997788229484300,7.548484375,0.1454872003868503,-9.805483541316212,0.04149096248257241
1789997788239556400,7.558556396484375,0.14201652584454325,-9.805549893975417,0.03741040933298891
1789997788249627400,7.56862744140625,0.14073521136984055,-9.80558233464813,0.03380084752886102
1789997788259698400,7.578698486328125,0.14130744123199332,-9.80559189441917,0.028201485697921722
1789997788269769500,7.58876953125,0.14359249727084336,-9.805574651447955,0.021670809625969928
1789997788279841500,7.598841552734375,0.14895062968277067,-9.805507607651219,0.015092383848261752
1789997788289912600,7.60891259765625,0.15129164108182616,-9.805478817404143,0.009696391963755649
1789997788299983600,7.618983642578125,0.15323653387813646,-9.80545107571086,0.0065224393460929075
1789997788310054400,7.629054443359375,0.15433130042511214,-9.805435585645833,0.0029943984616633466
1789997788320126200,7.639126220703125,0.1515477928057799,-9.805478375725913,-0.0020063393571788666
1789997788330197200,7.649197265625,0.1510077257959547,-9.805482561628725,-0.009052076569185592
1789997788340268300,7.659268310546875,0.1525055595601399,-9.805447942361866,-0.01767201718127339
1789997788350339300,7.66933935546875,0.15599725510530327,-9.805368445131542,-0.028253179453854648
1789997788360410400,7.679410400390625,0.15862770596812664,-9.805287966788837,-0.039227199059283645
1789997788370482400,7.689482421875,0.1591882112583357,-9.805247226722315,-0.04670625588350732
1789997788380553500,7.699553466796875,0.1583089705677315,-9.805232096576617,-0.05246741843216302
1789997788390624300,7.709624267578125,0.16169644101710776,-9.805138500280497,-0.05918480150828661
1789997788400695300,7.7196953125,0.16544518170918063,-9.805010558004563,-0.06918675725124965
1789997788410767400,7.729767333984375,0.170433778314204,-9.80485625981764,-0.07830839143803053
1789997788420838400,7.73983837890625,0.1749556904729961,-9.804732605663704,-0.08365748344434765
1789997788430909400,7.749909423828125,0.17812157604830176,-9.804647880086147,-0.0868021387437262
1789997788440980500,7.75998046875,0.17930180224382591,-9.80458962674915,-0.0909665786374053
1789997788451052500,7.770052490234375,0.17743391624019023,-9.80459543873862,-0.09386708737379224
1789997788461123600,7.78012353515625,0.1749891958826403,-9.804608018280097,-0.09712373774733435
1789997788471194600,7.790194580078125,0.1762513722535883,-9.804557343367998,-0.09982501905227419
1789997788481265400,7.800265380859375,0.17984881702027744,-9.804480129525645,-0.10110611181210988
1789997788491337200,7.810337158203125,0.18490755051638247,-9.804398401919682,-0.0997863572061862
1789997788501408300,7.820408203125,0.19034003729476234,-9.804343525936728,-0.09491416244578726
1789997788511479300,7.830479248046875,0.1897633064821712,-9.804414930325077,-0.08844326508540054
1789997788521550300,7.84055029296875,0.1856204059264657,-9.80455988200733,-0.08092105850520837
1789997788531622400,7.850622314453125,0.1808666271726498,-9.804707429232264,-0.07333205852400314
1789997788541693400,7.860693359375,0.17615900830152123,-9.80485176110378,-0.06513472310581295
1789997788551764500,7.870764404296875,0.17382411273888082,-9.804945983298305,-0.05657064868635511
1789997788561835300,7.880835205078125,0.17475593758775088,-9.804978265014277,-0.04730546890345323
1789997788571906300,7.89090625,0.1746510193145504,-9.805023311348517,-0.03740687822343544
1789997788581978400,7.900978271484375,0.17485446088942902,-9.805055543478586,-0.026493585858499622
1789997788592049400,7.91104931640625,0.1732576019145146,-9.80511132894173,-0.012668029370804657
1789997788602120400,7.921120361328125,0.1688911808769717,-9.805194699480335,0.0038462002548279176
1789997788612191500,7.93119140625,0.1654889333337071,-9.80523163701514,0.02064046070951959
1789997788622263600,7.941263671875,0.1659934658763259,-9.805176072903128,0.03675696368695227
1789997788632334600,7.95133447265625,0.1712357868145766,-9.805019352691188,0.05157048873253804
1789997788642405600,7.961405517578125,0.17649096029928898,-9.804842492045646,0.06566058055918786
1789997788652476400,7.971476318359375,0.1761664597980242,-9.804737054237819,0.08053049627172068
1789997788662548200,7.98154833984375,0.17540333335831731,-9.804637501534211,0.09328271564475635
1789997788672619300,7.991619384765625,0.17737202421443132,-9.804499969762315,0.10344764406221989
1789997788682690300,8.001690185546876,0.18259243173707232,-9.804325346808554,0.11070646829120157
1789997788692761300,8.01176123046875,0.18891695304373857,-9.804138180738656,0.11649061838505578
1789997788702833400,8.02183349609375,0.1950537035688107,-9.803952880246849,0.12180491710571667
1789997788712904400,8.031904541015624,0.19783561358188892,-9.80384094922357,0.12627179106714811
1789997788722975500,8.0419755859375,0.199586088466641,-9.80379444095178,0.12715403390205937
1789997788733046500,8.052046630859374,0.20065270598501106,-9.803822683569958,0.12317631869205546
1789997788743118600,8.06211865234375,0.2007301931252428,-9.80389764164461,0.116953778465005
1789997788753189600,8.072189697265625,0.20025394130668292,-9.80398868169501,0.11000025143749392
1789997788763260700,8.0822607421875,0.19750434574237208,-9.804133620305429,0.10173994559557095
1789997788773331500,8.09233154296875,0.19794935071853978,-9.804229826094113,0.09104256639106105
1789997788783403500,8.102403564453125,0.19966533066453174,-9.804305818863279,0.07807368109974445
1789997788793474600,8.112474609375,0.1984896140170254,-9.804421231907412,0.06574704421417193
1789997788803545600,8.122545654296875,0.19459035209480008,-9.804561753009896,0.055580484948028724
1789997788813616600,8.13261669921875,0.19465865368816193,-9.80460942323034,0.04615055446618218
1789997788823687700,8.142687744140625,0.19713016880701945,-9.804602383178096,0.03598746759668045
1789997788833759500,8.152759521484375,0.19830107682534517,-9.80461118293748,0.025452430528551423
1789997788843830500,8.16283056640625,0.19707536442070328,-9.804658915131565,0.014683366262597515
1789997788853901600,8.172901611328125,0.1971028510619314,-9.804668003997236,0.005111862687111792
1789997788863972400,8.182972412109375,0.19779574613861156,-9.804654893420448,-0.0021175047542765935
1789997788874044400,8.19304443359375,0.1996481651719642,-9.80461340902063,-0.00957293248028616
1789997788884115500,8.203115478515626,0.19771718624302528,-9.80464680676741,-0.014246164871167151
1789997788894186500,8.2131865234375,0.1927340490559637,-9.804743997585158,-0.015524703962851358
1789997788904257500,8.223257568359376,0.1899465280361869,-9.804798366628953,-0.015374332274463469
1789997788914329600,8.23332958984375,0.19140114002074618,-9.804772276819886,-0.01369412024668842
1789997788924400600,8.243400634765624,0.1954113454689214,-9.80469837428012,-0.009413532892323911
1789997788934471700,8.2534716796875,0.20069773435014648,-9.804595919360539,-0.00025529573243179333
1789997788944542500,8.26354248046875,0.202229074456246,-9.804554837322392,0.013667494977980622
1789997788954614500,8.273614501953125,0.20096443031173689,-9.804541696147206,0.03092190230061595
1789997788964685600,8.283685546875,0.20174936798384965,-9.804433686680438,0.05249281921364098
1789997788974756400,8.29375634765625,0.20827824211541,-9.80413081993414,0.0776495163820438
1789997788984827400,8.303827392578125,0.2103898806713482,-9.803842668394127,0.10388326088870425
1789997788994898400,8.3138984375,0.20880458832297197,-9.803556940870354,0.13059590271851854
1789997789004970500,8.323970458984375,0.20282622659717986,-9.80332195939137,0.15534038021643862
1789997789015041500,8.33404150390625,0.1965039622656717,-9.80302750526683,0.18009326427011893
1789997789025112600,8.344112548828125,0.1894752614432542,-9.80268552176323,0.20455097143841527
1789997789035183400,8.354183349609375,0.18974389702602526,-9.802201093265452,0.22633184515313096
1789997789045255400,8.36425537109375,0.19259463386916031,-9.80158136847423,0.24957735360863717
1789997789055326500,8.374326416015625,0.19470794154952958,-9.800764556343186,0.2783535592502483
1789997789065397500,8.3843974609375,0.19507034580555893,-9.79976658186999,0.3113093553859499
1789997789075468500,8.394468505859376,0.19484880160006393,-9.798787806779153,0.3408330470333974
1789997789085540600,8.40454052734375,0.19100787913090508,-9.797962817690978,0.36580788417227533
1789997789095611600,8.414611572265626,0.18778085828621033,-9.797182446260205,0.38774452991268565
1789997789105682700,8.4246826171875,0.18452818871884946,-9.796446057355709,0.40742155645899764
1789997789115753500,8.43475341796875,0.18195376572613656,-9.79579088678491,0.4239756082213647
1789997789125825300,8.4448251953125,0.17996662875475394,-9.79514320512809,0.4394995471091853
1789997789135896300,8.454896240234374,0.18114728102940741,-9.794510288300193,0.45291484143253796
1789997789145967400,8.46496728515625,0.1817925501624567,-9.793941650478578,0.46479267869488
1789997789156038400,8.475038330078124,0.17875881351162076,-9.793546696461402,0.4742156038554603
1789997789166110500,8.4851103515625,0.17739299453341156,-9.793409506236467,0.4775270682307923
1789997789176181500,8.495181396484375,0.18026435724031728,-9.793415850794057,0.47634304590673443
1789997789186252500,8.50525244140625,0.17964713656520775,-9.793678038603968,0.4711546669993775
1789997789196323600,8.515323486328125,0.17803374695450364,-9.794146663674947,0.4619437864645462
1789997789206395600,8.525395751953125,0.17737755233911814,-9.794789528062132,0.44835641747189725
1789997789216466400,8.535466552734375,0.17819479733139168,-9.795615890888659,0.42959429770539254
1789997789226537500,8.545537353515625,0.1808726171788143,-9.796553132913264,0.40646720658471935
1789997789236608500,8.5556083984375,0.18129703465822716,-9.797484411881126,0.3831766999610067
1789997789246679600,8.565679443359375,0.18024995160563206,-9.798445305244854,0.35827243632227523
1789997789256751600,8.575751708984376,0.17990834776603118,-9.799470761518068,0.32922736310804945
1789997789266822700,8.58582275390625,0.18190389873941487,-9.800483736354133,0.29633751097722644
1789997789276893700,8.595893798828126,0.18398343766312,-9.801472186489608,0.2601619277593057
1789997789286964500,8.605964599609376,0.18304082885078202,-9.802435663091233,0.2216871055981966
1789997789297036300,8.616036376953126,0.1816444575942064,-9.803243444409402,0.18388628392808037
1789997789307107300,8.626107421875,0.1798568744703318,-9.803873659700491,0.1487010440033442
1789997789317178400,8.636178466796874,0.17791731288575777,-9.804367519419868,0.11446934669466484
1789997789327249400,8.64624951171875,0.17684622786659945,-9.804725584594129,0.0804513656873116
1789997789337321500,8.656321533203124,0.1749424370566353,-9.804976703652294,0.04694776404842128
1789997789347392500,8.666392578125,0.1727004713916867,-9.805118831193925,0.014619301623534966
1789997789357463600,8.676463623046875,0.1706550677309437,-9.805153249921744,-0.015354437373853143
1789997789367534600,8.68653466796875,0.16849900904053292,-9.80510776380933,-0.04314907417293653
1789997789377606700,8.696606689453125,0.16432718566595766,-9.805038381459628,-0.06787657873702692
1789997789387677400,8.706677490234375,0.16271513254032807,-9.804880725315527,-0.09061418410642656
1789997789397748500,8.71674853515625,0.16320334476467113,-9.804629460762923,-0.11396399917177034
1789997789407819500,8.726819580078125,0.16486883432766405,-9.804310072758513,-0.13678627834662913
1789997789417891600,8.7368916015625,0.1691812659443664,-9.80392165582536,-0.15771891505651717
1789997789427962600,8.746962646484375,0.1695027940592516,-9.803641926232578,-0.17393921938595924
1789997789438033700,8.75703369140625,0.16685056959549496,-9.80344479652954,-0.18715312374375262
1789997789448104700,8.767104736328125,0.16449801007499534,-9.80325630675527,-0.19875494741775498
1789997789458176500,8.777176513671876,0.16285813510051586,-9.803062812166461,-0.20931506319142967
1789997789468247300,8.787247314453126,0.16443507293679038,-9.80275706537371,-0.2220367184263182
1789997789478318300,8.797318359375,0.1655351236333755,-9.802444377766852,-0.23468920108714159
1789997789488389400,8.807389404296876,0.16115091780130728,-9.80226124808333,-0.2451537630827699
1789997789498461400,8.81746142578125,0.15564051757475206,-9.802080737566058,-0.25569314093011103
1789997789508532500,8.827532470703124,0.15016895307344408,-9.801761993475024,-0.27074265572904793
1789997789518603500,8.837603515625,0.14324811977931673,-9.801356666313731,-0.288549952452108
1789997789528674600,8.847674560546874,0.13867063323172593,-9.800868992523677,-0.3067783360357549
1789997789538746600,8.85774658203125,0.1361313147931919,-9.800345557663048,-0.32417185334293286
1789997789548817700,8.867817626953125,0.13452904418352998,-9.799777025618413,-0.34155263310192296
1789997789558888400,8.877888427734375,0.13490565345852729,-9.79908217975797,-0.36080545082137394
1789997789568959500,8.88795947265625,0.13075472962202134,-9.798378905563629,-0.3808518276951098
1789997789579030500,8.898030517578125,0.12333009548448422,-9.797736521882955,-0.39940988975392544
1789997789589102600,8.9081025390625,0.11878533466170357,-9.796938878364953,-0.4198551836613001
1789997789599173600,8.918173583984375,0.11152607023059626,-9.796128945913022,-0.44024009295895206
1789997789609244700,8.92824462890625,0.10479680562199144,-9.795281947197129,-0.46027886242656807
1789997789619315700,8.938315673828125,0.10070685208075808,-9.79427778555704,-0.48202757662970447
1789997789629387500,8.948387451171875,0.09416191914928154,-9.793304887382892,-0.5026906752733774
1789997789639458300,8.958458251953125,0.08532669971866058,-9.792356636717843,-0.5223502304753477
1789997789649529300,8.968529296875,0.07950225376473087,-9.79133986184616,-0.5419686012721006
1789997789659600400,8.978600341796875,0.07790386773673671,-9.790322540562308,-0.5602677809537598
1789997789669672400,8.98867236328125,0.07564847044209726,-9.789438272013802,-0.5758081664963454
1789997789679743500,8.998743408203126,0.07259391713903188,-9.788669624146024,-0.5891143596256531
1789997789689814500,9.008814453125,0.06917565045031457,-9.788103239279085,-0.5988674646557749
1789997789699885600,9.018885498046876,0.06556428121280876,-9.787684117590464,-0.6060676940405869
1789997789709956900,9.028956787109376,0.06280829130397497,-9.787495243296506,-0.6094069436389272
1789997789720028000,9.03902783203125,0.06406403457765508,-9.787511420625057,-0.6090190517281707
1789997789730099000,9.049098876953124,0.0617705142270989,-9.787782095966348,-0.6048915267880952
1789997789740170000,9.059169921875,0.05800660604612106,-9.78816185323936,-0.599085275927222
1789997789750242000,9.069241943359376,0.05711791878217891,-9.788647954411045,-0.5911803204083838
1789997789760312800,9.079312744140625,0.058266660075577355,-9.789181918062127,-0.5821565048281909
1789997789770384000,9.0893837890625,0.058188720302374104,-9.789825157362973,-0.5712428503755449
1789997789780455000,9.099454833984376,0.05783354171508191,-9.790581854914766,-0.5581595111470657
1789997789790527000,9.10952685546875,0.059099347680202204,-9.791480487831235,-0.5420294233029715
1789997789800598000,9.119597900390623,0.05872895254076639,-9.792511658045115,-0.5231200205859151
1789997789810669000,9.1296689453125,0.06080096037765352,-9.793579283270322,-0.5024793351955364
1789997789820740000,9.139739990234377,0.06454517653763986,-9.794635368875177,-0.48097564137290477
1789997789830812000,9.14981201171875,0.06723475882543577,-9.795670205208028,-0.4590378322686448
1789997789840882700,9.159882568359375,0.06830564748294735,-9.79674756121132,-0.43527546753926116
1789997789850953700,9.16995361328125,0.07224485842052625,-9.797811287608656,-0.4099558948655931
1789997789861024800,9.180024658203124,0.07656803876193592,-9.798814982458639,-0.3843735831707779
1789997789871096800,9.190096923828126,0.08244468541038691,-9.799740324079321,-0.3587334764928749
1789997789881168000,9.20016796875,0.09020361464759385,-9.800615200306112,-0.33195076220475067
1789997789891239000,9.210239013671876,0.0984158004453559,-9.801442542493266,-0.3040174609410392
1789997789901310000,9.22031005859375,0.10342690892391475,-9.802242760909124,-0.27518437385228395
1789997789911382000,9.230382080078124,0.10843464416762148,-9.802969907810775,-0.24578971440356734
1789997789921453000,9.240453125,0.10963422294733909,-9.803617077580427,-0.21785900987390253
1789997789931523800,9.25052392578125,0.1097680524507885,-9.804221591161388,-0.1885983779023292
1789997789941595000,9.260594970703124,0.11034181458974071,-9.804732727871563,-0.15945345554264967
1789997789951666000,9.270666015625,0.11190618718098524,-9.80509169085902,-0.13428039369449454
1789997789961738000,9.280738037109376,0.118914375084915,-9.805285685302078,-0.11236994868768885
1789997789971809000,9.29080908203125,0.12318580398837857,-9.805449989704119,-0.09145755359277456
1789997789981880000,9.300880126953125,0.1258871159850228,-9.805585600754485,-0.07091206944781231
1789997789991951000,9.310951171875,0.12921231089603719,-9.805655950745878,-0.05289381675663873
1789997790002023000,9.32102294921875,0.12932171529034361,-9.805724372061341,-0.03785962128101446
1789997790012093700,9.33109375,0.13172093410144226,-9.805729421035235,-0.02644020729907339
1789997790022164700,9.341164794921877,0.13408142090235803,-9.80572017510939,-0.016190394768355248
1789997790032235800,9.35123583984375,0.13690834151528436,-9.805691799205412,-0.006952391436646326
1789997790042307800,9.361307861328124,0.13980456744828906,-9.805653226368268,0.00016570253237031175
1789997790052379000,9.37137890625,0.140271751554303,-9.805645893069777,0.004913397250982235
1789997790062450000,9.381449951171875,0.13647199533499246,-9.805697671665024,0.007485628722104612
1789997790072521000,9.39152099609375,0.13279794061524133,-9.805748220828999,0.008052850556637587
1789997790082593000,9.401593017578126,0.13231508723707516,-9.805751443426583,0.010436601871543598
1789997790092664000,9.4116640625,0.13179733236243332,-9.805754925123344,0.013981969987427414
1789997790102734800,9.42173486328125,0.13239598394401786,-9.805744138417998,0.015848822507025764
1789997790112806000,9.431805908203126,0.13339728772180567,-9.80572463227638,0.018786362924660197
1789997790122878000,9.4418779296875,0.1339880253254451,-9.805707152579226,0.023349598054053903
1789997790132949000,9.451948974609374,0.13164715220919973,-9.805728838266665,0.02722840514192639
1789997790143020000,9.46202001953125,0.13258897430868796,-9.805712139298143,0.028532168650829373
1789997790153091000,9.472091064453124,0.13657201347150513,-9.805651336584107,0.030609680838519712
1789997790163163000,9.482162841796876,0.13896422153666313,-9.805607152727154,0.03386691407119344
1789997790173234000,9.49223388671875,0.14243442515632498,-9.805542056878194,0.0379683905361983
1789997790183304700,9.5023046875,0.1474940711901696,-9.805465049909634,0.03861612045267617
1789997790193375700,9.512375732421877,0.15368895812436084,-9.805379835023798,0.03593673272408149
1789997790203447800,9.52244775390625,0.1588778461192776,-9.805307629632706,0.03295147893705439
1789997790213518800,9.532518798828123,0.1600669223441066,-9.805290803106796,0.03220520823060258
1789997790223590000,9.54258984375,0.15900335017256442,-9.805312525704611,0.030781244607637172
1789997790233661000,9.552660888671875,0.1582258171758952,-9.805333940492952,0.027928259309994832
1789997790243733000,9.56273291015625,0.15646451940049289,-9.805373019621468,0.023691482099139925
1789997790253804000,9.572803955078124,0.15360221328748083,-9.805429246493933,0.01847886103085069
1789997790263875000,9.582875,0.15153355376058736,-9.805473241300335,0.010918360515211632
1789997790273945900,9.59294580078125,0.14880548468294813,-9.805521133210856,0.0001485459666732572
1789997790284018000,9.603017822265626,0.1471491542831094,-9.805536123218486,-0.014014367498204821
1789997790294089000,9.6130888671875,0.14623856864692356,-9.805513672694746,-0.030127388766504618
1789997790304160000,9.623159912109376,0.1441368918794108,-9.805484751857444,-0.045709809815470834
1789997790314231000,9.63323095703125,0.14093479515978885,-9.80544187655686,-0.061865648758511076
1789997790324302000,9.643302001953124,0.13773083423139437,-9.805368614632936,-0.0785598049417931
1789997790334374000,9.653373779296874,0.13678974967890667,-9.805228087636905,-0.09580109843625377
1789997790344445000,9.66344482421875,0.1376139117676362,-9.805039551668944,-0.11246470176569853
1789997790354515700,9.673515625,0.13873837869610858,-9.804820436947992,-0.12892782275172296
1789997790364586800,9.683586669921874,0.14068417345646345,-9.804583872360384,-0.14399326788906347
1789997790374658800,9.693658935546877,0.14246698872746416,-9.804357780240563,-0.1570327128980331
1789997790384729900,9.703729736328125,0.14151980832228067,-9.804174561139178,-0.1688629562765296
1789997790394801000,9.71380078125,0.1392652746001373,-9.804005513252749,-0.18017626358720695
1789997790404872000,9.723871826171877,0.13599556565492638,-9.803885802994452,-0.18900843780272905
1789997790414944000,9.733944091796875,0.13387985613173747,-9.803742956170115,-0.19771801465664735
1789997790425015000,9.74401513671875,0.13462133396799608,-9.803555963171993,-0.20626457973518894
1789997790435086000,9.754086181640623,0.13790506752658108,-9.803407959948489,-0.2110703777163326
1789997790445156900,9.764156982421875,0.14139118190548652,-9.803338175785996,-0.212009328719154
1789997790455229000,9.77422900390625,0.14176893546525218,-9.803351615542184,-0.21116891619781641
1789997790465300000,9.784300048828126,0.1395794791410834,-9.803417215449246,-0.2095442758704102
1789997790475371000,9.79437109375,0.13765070084809305,-9.803435059463554,-0.20998590786303514
1789997790485442000,9.804442138671876,0.13653375582282262,-9.803412341187888,-0.21176958767650733
1789997790495513900,9.814513916015626,0.13941619909396452,-9.80331920176734,-0.214216078138113
1789997790505585000,9.8245849609375,0.14256123735786033,-9.803216933642744,-0.2168151182353156
1789997790515656000,9.834656005859374,0.1471894312786913,-9.803119821387018,-0.21811632463238265
1789997790525726700,9.844726806640624,0.1493414341755216,-9.80306961621361,-0.21886962322298617
1789997790535798800,9.854798828125,0.14772429260325207,-9.803070368253316,-0.21994938745534537
1789997790545869800,9.864869873046874,0.14497183337093528,-9.803080145496113,-0.22135358570739572
1789997790555940900,9.87494091796875,0.13977522054121008,-9.80306228791218,-0.22542280287324964
1789997790566012000,9.885011962890625,0.13593172193742417,-9.802995675077186,-0.23063495160612962
1789997790576084000,9.895083984375,0.13769744632487071,-9.802835563052048,-0.23634326080211282
1789997790586155000,9.905155029296877,0.13872008368254518,-9.802700607773556,-0.24123889444627997
1789997790596226000,9.91522607421875,0.13917428319498795,-9.802582413255788,-0.2457234669204048
1789997790606296800,9.925296875,0.14036883330228148,-9.802461247174701,-0.2498594384606503
1789997790616369000,9.935368896484375,0.1439266485808132,-9.802259633208612,-0.25570492571415815
1789997790626440000,9.94543994140625,0.14528417398151153,-9.802045303213937,-0.2630487662293061
1789997790636511000,9.955510986328123,0.1474594800956837,-9.801785677005176,-0.2713811447412892
1789997790646582000,9.96558203125,0.15015916058268264,-9.801530447377342,-0.2789771075995981
1789997790656653800,9.97565380859375,0.15180880498911137,-9.801312141851179,-0.28569388740639684
1789997790666724900,9.985724853515626,0.15656454684771853,-9.800987928500897,-0.2941212540059605
1789997790676796000,9.9957958984375,0.15847327448457096,-9.800777213476852,-0.300052634152152
1789997790686867000,10.005866943359376,0.1544306638180335,-9.800708054677115,-0.30439192942471066
1789997790696939000,10.01593896484375,0.15048073759925673,-9.800625630063166,-0.3089937838459121
1789997790707010600,10.026010498046874,0.1469940008316317,-9.80050931044691,-0.31431845044858264
1789997790717081600,10.03608154296875,0.14586262158397373,-9.800342203176779,-0.32001373109445413
1789997790727152600,10.046152587890624,0.14552036478294317,-9.80016020530697,-0.32568439226412355
1789997790737224700,10.056224609375,0.1442348453450298,-9.80000136971324,-0.3309822740969253
1789997790747295700,10.066295654296876,0.14085770463439198,-9.799885551347481,-0.3358502574903988
1789997790757366500,10.076366455078125,0.1370649578981061,-9.79981937108197,-0.33931297261831456
1789997790767437600,10.0864375,0.1357509995930652,-9.79973027384408,-0.34242165809520564
1789997790777509400,10.09650927734375,0.1364517598003308,-9.79956024250359,-0.3469640171892931
1789997790787580400,10.106580322265623,0.1364663327783499,-9.79938041132834,-0.3519981653970781
1789997790797651500,10.1166513671875,0.13435137021243396,-9.799263895489657,-0.35604272368922607
1789997790807722500,10.126722412109377,0.1325615599274613,-9.799118205475436,-0.36070364003234057
1789997790817794600,10.136794677734375,0.13319628563383906,-9.798834145305664,-0.3680855513649256
1789997790827865600,10.146865478515624,0.13516723026432317,-9.798506663717479,-0.37602308434788967
1789997790837936400,10.156936279296875,0.1377184432000742,-9.798280086762496,-0.38096465328918716
1789997790848007400,10.16700732421875,0.13867671537935827,-9.798135766002725,-0.3843081386347203
1789997790858079500,10.17707958984375,0.14062907225126386,-9.798046033669724,-0.38587530745610626
1789997790868150500,10.187150634765626,0.14261899753112073,-9.797956490368257,-0.3874261298829409
1789997790878221600,10.1972216796875,0.14528118338422552,-9.797812922518458,-0.3900509365519596
1789997790888292600,10.207292724609376,0.14594677625894834,-9.797761866034156,-0.39107527394500335
1789997790898364400,10.217364501953124,0.1447559171292371,-9.797806555810611,-0.3904014399988533
1789997790908435500,10.227435546875,0.1418129058955921,-9.797905752761311,-0.3889863339922493
1789997790918506500,10.237506591796874,0.13992168729590412,-9.797994649536971,-0.3874202833944128
1789997790928577500,10.24757763671875,0.14157254610360714,-9.798054925255855,-0.38531181106262286
1789997790938649300,10.2576494140625,0.14408058954146594,-9.798172229001814,-0.38137937320054577
1789997790948720400,10.267720458984376,0.14713416689982048,-9.798249147166885,-0.37822569079778534
1789997790958791400,10.27779150390625,0.15288632258469464,-9.7982830549015,-0.3750560571449213
1789997790968862500,10.287862548828125,0.1579537616242347,-9.798414315545157,-0.36947219129781866
1789997790978934500,10.2979345703125,0.15740273816931313,-9.798775278927145,-0.36003083473581887
1789997790989005600,10.308005615234377,0.15350550825863252,-9.79919444572133,-0.3501599331698343
1789997790999076600,10.31807666015625,0.14975494049331278,-9.79955827777362,-0.3414929530015262
1789997791009147400,10.3281474609375,0.14943115827965225,-9.799895295016562,-0.331821813689468
1789997791019219700,10.3382197265625,0.15044044079704635,-9.800176050415903,-0.3229602167212238
1789997791029290500,10.34829052734375,0.1513634033568914,-9.800424036508835,-0.314894496283695
1789997791039361500,10.358361572265624,0.1497769909674413,-9.800718507044872,-0.30636994884359364
1789997791049432600,10.3684326171875,0.14759348105957273,-9.801022887946775,-0.29755206098879217
1789997791059504400,10.37850439453125,0.14962133895244484,-9.801280159867353,-0.28795042997242765
1789997791069575400,10.388575439453126,0.14970751068050245,-9.801545365192823,-0.27872175661970316
1789997791079646500,10.398646484375,0.1544648015510927,-9.801639153604999,-0.2727483926325222
1789997791089717500,10.408717529296876,0.16271865430869636,-9.801611078480393,-0.26892408260597955
1789997791099788500,10.41878857421875,0.16900521287675518,-9.801528656571612,-0.26804559319546434
1789997791109860400,10.4288603515625,0.17024762401350332,-9.801531692419386,-0.26716810328570995
1789997791119931400,10.438931396484374,0.16778007852639676,-9.801639773064858,-0.2647387046385603
1789997791130002400,10.44900244140625,0.16780735693677942,-9.801666786948589,-0.2637259921987032
1789997791140073500,10.459073486328125,0.16869172642680358,-9.80160624338878,-0.26540957903829404
1789997791150145500,10.4691455078125,0.17208226411431263,-9.801473591414622,-0.2681322344463433
1789997791160216600,10.479216552734377,0.17502738349036082,-9.801332380021572,-0.27133814525799343
1789997791170287600,10.48928759765625,0.17558380403304708,-9.801259519172367,-0.27361875454554635
1789997791180358400,10.4993583984375,0.17427897025502284,-9.801184007530216,-0.2771160473061842
1789997791190430500,10.509430419921877,0.17010484728619094,-9.801037379618972,-0.28481818366533723
1789997791200501500,10.51950146484375,0.16669956982031353,-9.800769950442987,-0.2958032532209959
1789997791210572500,10.529572509765623,0.16332580708053973,-9.800464611594988,-0.30758174948472616
1789997791220643600,10.5396435546875,0.16035319533980946,-9.800120598730139,-0.3198548700634539
1789997791230715400,10.54971533203125,0.1570794531867205,-9.799759841294033,-0.33228595180915305
1789997791240786400,10.559786376953124,0.15290504388045353,-9.799308477414538,-0.34720310727274206
1789997791250857500,10.569857421875,0.1484197487777556,-9.798774239932964,-0.3638391933388684
1789997791260928500,10.579928466796876,0.14602709046291418,-9.798106420976088,-0.38233074995767075
1789997791271000600,10.59000048828125,0.1445214425489927,-9.797395739849454,-0.4006747859230301
1789997791281071400,10.6000712890625,0.14446813680572085,-9.796655358824312,-0.4184082552378678
1789997791291142400,10.610142333984374,0.14349644519920116,-9.795940488205382,-0.4351258383464882
1789997791301213400,10.62021337890625,0.1423626700801248,-9.795141748967572,-0.4531183084106047
1789997791311285500,10.630285400390624,0.14070896268152677,-9.794240314735653,-0.47268814898782796
1789997791321356500,10.6403564453125,0.1367126658773554,-9.793390326009707,-0.4911268019197001
1789997791331427600,10.650427490234376,0.1311569254766893,-9.79260158150242,-0.5080715653893476
1789997791341498600,10.66049853515625,0.12347444430037066,-9.791862214355513,-0.5240026204126019
1789997791351570700,10.67057080078125,0.11606105126900997,-9.791105090848083,-0.5396155321720043
1789997791361641500,10.680641357421877,0.10876508974188119,-9.790294189082633,-0.5556049814807071
1789997791371712500,10.69071240234375,0.10467774038110661,-9.789352188591531,-0.5727323197978106
1789997791381783600,10.700783447265623,0.1028004642818312,-9.788200118223285,-0.5924077013286181
1789997791391855400,10.71085546875,0.09821602704201202,-9.787146265590856,-0.6103321359852107
1789997791401926400,10.720926513671875,0.0934949276846625,-9.786259600013386,-0.6251240090691499
1789997791411997400,10.73099755859375,0.08885777226704995,-9.785351991924902,-0.639836190393338
1789997791422068500,10.741068359375,0.08432912158435439,-9.784356356572868,-0.6554653024398561
1789997791432140500,10.751140625,0.0792012817799863,-9.783424478063603,-0.6698645136249612
1789997791442211600,10.761211669921876,0.07593159260410254,-9.782652386141802,-0.6814180287877799
1789997791452282400,10.771282470703126,0.07054103874324248,-9.781958472498312,-0.6918811211235477
1789997791462353400,10.781353515625,0.06323127401239546,-9.781359211903709,-0.7009988844437373
1789997791472425500,10.791425537109374,0.05985038027476821,-9.780761889603717,-0.7095750301270448
1789997791482496500,10.80149658203125,0.06084238849119378,-9.780167961990731,-0.7176308914219823
1789997791492567600,10.811567626953124,0.062236770454361545,-9.779590425526616,-0.7253479656577676
1789997791502639600,10.8216396484375,0.06055459036099785,-9.77931296121084,-0.7292151585052776
1789997791512710700,10.831710693359376,0.057518870761863454,-9.77922640283972,-0.7306269201932829
1789997791522781700,10.84178173828125,0.05382955095882527,-9.779137026003822,-0.732094342506341
1789997791532852500,10.8518525390625,0.05077146120308148,-9.779068366988087,-0.7332361593642581
1789997791542923500,10.861923583984376,0.04930298333166033,-9.779067959074686,-0.7333429044562529
1789997791552995300,10.871995361328125,0.043815723578559625,-9.779212115519856,-0.7317668947144316
1789997791563066400,10.88206640625,0.04494918274177823,-9.779295377205974,-0.7305789054808017
1789997791573137400,10.892137451171877,0.05099904871581294,-9.779290166397143,-0.730246064748289
1789997791583208400,10.90220849609375,0.05655145854411305,-9.779457978841126,-0.7275859271292604
1789997791593280500,10.912280517578123,0.06387347873669551,-9.77991281301761,-0.7208418413563479
1789997791603351600,10.9223515625,0.06524887214796432,-9.78074288011928,-0.7093546262121418
1789997791613422600,10.932422607421875,0.06366276165150273,-9.78178461395142,-0.6949982012864077
1789997791623493400,10.942493408203124,0.06453621682762975,-9.782608819206896,-0.6832171187635303
1789997791633565400,10.9525654296875,0.06594118813485172,-9.783249654152224,-0.6738403748904336
1789997791643636500,10.962636474609376,0.07214201138374274,-9.78384117384126,-0.6645563273481394
1789997791653707500,10.97270751953125,0.07659365273149836,-9.784613402442572,-0.6525805181010802
1789997791663778600,10.982778564453126,0.07942736595813431,-9.785759807602282,-0.6348119287127915
1789997791673850600,10.9928505859375,0.08241601563012904,-9.786949772728885,-0.6157954798460066
1789997791683921700,11.002921630859374,0.08449095942247949,-9.787946383546846,-0.5994579955940171
1789997791693992700,11.01299267578125,0.08516421936474358,-9.788921222884,-0.583232446512858
1789997791704063500,11.0230634765625,0.0866297184001142,-9.789775843857374,-0.5684860002999753
1789997791714135300,11.03313525390625,0.0870497992055181,-9.790573842910609,-0.5544987798716263
1789997791724206300,11.043206298828125,0.0863620372309827,-9.791481714910187,-0.53833570972781
1789997791734277400,11.05327734375,0.08439505677408116,-9.792373638183275,-0.5221864136667516
1789997791744348200,11.06334814453125,0.0832210189093272,-9.793196155698771,-0.5067148242650706
1789997791754420000,11.073419921875,0.08514401609867871,-9.793879263606701,-0.49301210173704785
1789997791764491000,11.083490966796877,0.08702672954817894,-9.794493528549545,-0.4803220137565876
1789997791774562000,11.09356201171875,0.08819239186422109,-9.795109418643506,-0.4673869348500582
1789997791784633000,11.103633056640623,0.08784824154264571,-9.795713868718346,-0.4546048489235077
1789997791794705200,11.113705078125,0.08873917028717399,-9.796249023323316,-0.44274690480610945
1789997791804776200,11.123776123046875,0.09130242445854968,-9.796755513476157,-0.43084930873754834
1789997791814847200,11.13384716796875,0.09338902434296988,-9.797212633757994,-0.4198737255208363
1789997791824918000,11.14391796875,0.09341401123702929,-9.797723044011223,-0.4077805271510264
1789997791834990300,11.153990234375,0.09250483023251477,-9.798301060522052,-0.39384190529652663
1789997791845061000,11.16406103515625,0.09229960622356155,-9.798773729425585,-0.38197901664074646
1789997791855132200,11.174132080078126,0.09414064473902746,-9.799102147424396,-0.37298868888227005
1789997791865203200,11.184203125,0.10231267837414844,-9.79931925241663,-0.3650523466206395
1789997791875275000,11.19427490234375,0.10878650450558165,-9.79959146245366,-0.35576129876544843
1789997791885346000,11.204345947265624,0.11019713745616769,-9.80008093190866,-0.34154051465903507
1789997791895417000,11.2144169921875,0.11005177548603416,-9.800613942650578,-0.3259445975460188
1789997791905488100,11.224488037109374,0.10862137323107267,-9.801119532564115,-0.31088280594053536
1789997791915560200,11.234560302734376,0.1046945170442027,-9.801575222023038,-0.2975859007032272
1789997791925631000,11.244630859375,0.10207458255144346,-9.801906280843918,-0.28739721922769956
1789997791935702000,11.254701904296876,0.10048521815677915,-9.802159983678926,-0.27917899539979474
1789997791945774000,11.264774169921877,0.10038166771616813,-9.802426549399666,-0.26971880325730707
1789997791955845000,11.27484521484375,0.10454590839224447,-9.802643193587494,-0.2600592805998455
1789997791965916200,11.284916259765623,0.1098952583946836,-9.802823751718847,-0.25089418494718596
1789997791975987200,11.2949873046875,0.1119235045445096,-9.803064221523993,-0.24040418073541936
1789997791986058200,11.305058349609377,0.11284863111932728,-9.803342042415997,-0.22831154943852588
1789997791996130300,11.31513037109375,0.110510059025776,-9.803639059392768,-0.21641090493307513
1789997792006201000,11.325201171875,0.10749917973654163,-9.803974598510013,-0.20226003230025483
1789997792016272100,11.335272216796875,0.10762971838981604,-9.80424535827949,-0.18860938117814083
1789997792026344000,11.345343994140626,0.11055499332822112,-9.804444894357315,-0.17614636355904165
1789997792036415000,11.3554150390625,0.11096819706471499,-9.804662263914615,-0.16330894879631383
1789997792046486000,11.365486083984376,0.11531631676453086,-9.804809714379884,-0.1510092635178051
1789997792056557000,11.37555712890625,0.12055215592882827,-9.80491878114548,-0.13937322310994613
1789997792066629000,11.385629150390624,0.11924644700194356,-9.80512027248675,-0.1256545549984665
1789997792076700200,11.3957001953125,0.11914417630487377,-9.805296588434874,-0.1111283749219648
1789997792086771200,11.405771240234374,0.11919163428317488,-9.805441209440986,-0.09751902356036944
1789997792096842000,11.415842041015624,0.12160496742202005,-9.805535748143042,-0.08400648372211698
1789997792106914000,11.4259140625,0.12740275903885445,-9.805563091010809,-0.07138445398060597
1789997792116985000,11.435985107421876,0.13158913668527797,-9.80559709405219,-0.05785465562288327
1789997792127056100,11.44605615234375,0.13352972774989053,-9.805655096832588,-0.04108851021535224
1789997792137127200,11.456127197265625,0.13294084879534776,-9.805721129382745,-0.023401376892887512
1789997792147199200,11.46619921875,0.1342828919110589,-9.80572734588751,-0.008426889721048872
1789997792157270300,11.476270263671877,0.1363743358474412,-9.805700473162412,0.0061976616047558645
1789997792167341300,11.48634130859375,0.14013331776240456,-9.805630151721093,0.01888077535226962
1789997792177412000,11.496412109375,0.14545131994419577,-9.805527158784598,0.029479149658064894
1789997792187484200,11.506484130859375,0.14952330938172717,-9.805433199064497,0.03901210544661845
1789997792197555000,11.516554931640623,0.1487753708807951,-9.805406241013923,0.047479993922537114
1789997792207626000,11.5266259765625,0.1454781904057824,-9.805404669801067,0.05707017855352258
1789997792217697000,11.536697021484375,0.14374879035823565,-9.805375401252652,0.0658695389681017
1789997792227769000,11.54676904296875,0.14314431559406812,-9.80535654136696,0.06990103953794646
1789997792237840100,11.556840087890626,0.14480908262136685,-9.805318881192068,0.07167245249416129
1789997792247911200,11.5669111328125,0.14426160521786463,-9.805316064807796,0.07317312560789108
1789997792257982200,11.576982177734376,0.14783132576948532,-9.805268550968476,0.07242383747482525
1789997792268054300,11.58705419921875,0.15472276757467734,-9.8051727639707,0.07096493859601113
1789997792278125000,11.597125,0.158539239963741,-9.805125433412167,0.06903829364919764
1789997792288196000,11.607196044921874,0.16038182617141813,-9.80510223155004,0.06808106222080702
1789997792298267100,11.61726708984375,0.15831496280180285,-9.805131099871005,0.06874879612551674
1789997792308339200,11.627339111328125,0.15529577826399701,-9.8051877962645,0.06756536145795822
1789997792318410200,11.63741015625,0.15611337040673698,-9.80520678922598,0.06275887589278822
1789997792328481300,11.647481201171876,0.15726397805962072,-9.805227773947363,0.056181240026095744
1789997792338552300,11.65755224609375,0.15517903546526007,-9.805294186806641,0.05011238652926192
1789997792348624100,11.6676240234375,0.1551140366702042,-9.805329499335098,0.04295686453248661
1789997792358695000,11.67769482421875,0.15572077021082445,-9.805351956173869,0.03467967898855282
1789997792368766000,11.687765869140623,0.15457788501569766,-9.80539922418254,0.024922121982153746
1789997792378837000,11.6978369140625,0.15134352440352364,-9.805466058310575,0.017487490178527295
1789997792388909000,11.707908935546875,0.1468073949611671,-9.805544623676328,0.011888144766713961
1789997792398980000,11.71797998046875,0.14222203935058778,-9.805618211806175,0.003593131345229692
1789997792409051100,11.728051025390624,0.14038283454155284,-9.805641803512428,-0.008272278930421852
1789997792419122200,11.7381220703125,0.1386740674538138,-9.805649812529081,-0.019590186865006652
1789997792429194200,11.7481943359375,0.1372023271233036,-9.805644613117293,-0.030050705529857023
1789997792439265300,11.758265380859376,0.1375568143841121,-9.80560492021463,-0.039628652155433965
1789997792449336000,11.768336181640626,0.13925498560139626,-9.805541594202161,-0.04846779097728936
1789997792459407000,11.778406982421876,0.1440143581761782,-9.805436141583309,-0.05533324491745402
1789997792469479200,11.788479248046874,0.14550361168087506,-9.805385858560458,-0.060179530277450155
1789997792479550200,11.79855029296875,0.14493001665611505,-9.805392846870829,-0.06044464566242922
1789997792489621200,11.808621337890624,0.14324784143230074,-9.805427052669451,-0.05882508628969251
1789997792499692300,11.8186923828125,0.14264499372917488,-9.805435571235803,-0.05885403369018441
1789997792509764000,11.82876416015625,0.1421043576725835,-9.805432719384262,-0.060697674052547335
1789997792519835100,11.838835205078125,0.14301722677084971,-9.80540972955522,-0.06209586185185335
1789997792529906000,11.848906005859376,0.14301154647382325,-9.80540932957572,-0.06232182167167269
1789997792539977000,11.85897705078125,0.14423848933695535,-9.805398498877866,-0.061085435355951644
1789997792550049000,11.869049072265623,0.14825174274592093,-9.805354574533895,-0.058542064981694855
1789997792560120000,11.8791201171875,0.15086843000177835,-9.805326772081031,-0.056481275976270395
1789997792570191000,11.889191162109377,0.15332305629813098,-9.805302357514659,-0.05415605398376064
1789997792580262100,11.89926220703125,0.1560535044607112,-9.805265474882484,-0.05304616481339543
1789997792590334200,11.909334228515624,0.15754185884000624,-9.805245015593595,-0.05242069697949276
1789997792600405200,11.9194052734375,0.15806554914515752,-9.805243146168937,-0.05111532801413398
1789997792610476300,11.929476318359375,0.15755561989960318,-9.805250489781027,-0.05134063883024558
1789997792620547000,11.939547119140624,0.15502064306087132,-9.805295580373107,-0.05029038285726527
1789997792630619100,11.949619140625,0.15381445016391307,-9.805314751338077,-0.05037334116306042
1789997792640690200,11.959690185546876,0.1525961877744915,-9.805320466289553,-0.05279177556101971
1789997792650761200,11.96976123046875,0.15525593512583613,-9.80525123082467,-0.05776785565690225
1789997792660832300,11.979832275390624,0.15825530173221622,-9.805160952809208,-0.06456118695313508
1789997792670904000,11.989904052734374,0.15699245687777094,-9.805146318512044,-0.06957474463894485
1789997792680975000,11.99997509765625,0.15204089735286627,-9.80518295850367,-0.07519182834583345
1789997792691046100,12.010046142578124,0.14611760550983618,-9.805211603154898,-0.08281428382134091
1789997792701117000,12.020116943359374,0.13926698014652614,-9.805232392989366,-0.09168250377049508
1789997792711188700,12.030188720703125,0.1328223215729156,-9.805213879883532,-0.10261402619952871
1789997792721259800,12.040259765625,0.12526632104421828,-9.805196581269604,-0.11317909774224495
1789997792731330800,12.050330810546876,0.12324641856710662,-9.805074170226947,-0.12535084116106998
1789997792741401900,12.06040185546875,0.12821873014055313,-9.80482234696786,-0.13933626332389576
1789997792751474000,12.070473876953123,0.13133343000448636,-9.804570390929964,-0.1534026160627735
1789997792761545000,12.080544921875,0.13265315951672974,-9.80436832215762,-0.16479460973486773
1789997792771616000,12.090615966796875,0.12957659274856548,-9.804229514453453,-0.17513761317463117
1789997792781686800,12.100686767578123,0.12549106062210316,-9.804101094366041,-0.18501940098943379
1789997792791759000,12.110759033203124,0.12326130403487133,-9.803860675994844,-0.19876580799793464
1789997792801830000,12.120829833984375,0.1212549606766812,-9.803571765397248,-0.2136971775546107
1789997792811901000,12.13090087890625,0.11871451130897767,-9.803315942676653,-0.22645403010833848
1789997792821972000,12.140971923828126,0.1170311513643671,-9.803047069211933,-0.23865139895296994
1789997792832043800,12.151043701171876,0.11451834585387574,-9.802810517535175,-0.2493600330450974
1789997792842114800,12.16111474609375,0.11419753440576569,-9.80255045789204,-0.25953629575399395
1789997792852185900,12.171185791015626,0.11261409777427368,-9.802286929103921,-0.2699447688580714
1789997792862257000,12.1812568359375,0.10793950897028078,-9.802086216413446,-0.2789895144552263
1789997792872329000,12.191328857421874,0.10712949422476152,-9.801806375013333,-0.2889588864757149
1789997792882399700,12.201399658203124,0.10577750901977459,-9.801526636817227,-0.29878856381755553
1789997792892470800,12.211470703125,0.10157902569280916,-9.801364645759211,-0.3054759420041517
1789997792902541800,12.221541748046874,0.0984166196054695,-9.801181828436064,-0.31227994307830653
1789997792912614000,12.23161376953125,0.09645376805610725,-9.80096648756888,-0.3195955203651823
1789997792922685000,12.241684814453125,0.09702629497897455,-9.800603857535515,-0.3303485157203515
1789997792932756000,12.251755859375,0.09674196642933836,-9.800183682583807,-0.34267628445337467
1789997792942828000,12.261828125,0.09264007019776284,-9.799887677854555,-0.3521315872139859
1789997792952899000,12.271899169921875,0.08627474936840866,-9.799709169694786,-0.3586734112836246
1789997792962969900,12.281969970703123,0.08034383499733773,-9.799581542242636,-0.3634952529407782
1789997792973041000,12.292041015625,0.07663434945448148,-9.799360945107109,-0.37016886102868574
1789997792983112700,12.30211279296875,0.07374683299514219,-9.798993725445445,-0.3803555577237363
1789997792993183700,12.312183837890624,0.07359360238122126,-9.798518773304023,-0.39242012289106515
1789997793003254800,12.3222548828125,0.07666673673259877,-9.798048340083769,-0.40343269150959277
1789997793013325800,12.332325927734376,0.08044759013793495,-9.797706923225814,-0.4109115182763407
1789997793023398000,12.34239794921875,0.08474610148867388,-9.797507292082202,-0.4147875776336141
1789997793033469000,12.352468994140626,0.08887339050265827,-9.797401004597093,-0.4164404079178657
1789997793043540000,12.3625400390625,0.09107049552604446,-9.797372675796257,-0.41661505618265937
1789997793053610800,12.37261083984375,0.09147709588508707,-9.797422265212262,-0.41536132274623655
1789997793063682800,12.382682861328124,0.09354937745983954,-9.797490709668093,-0.4132734327777872
1789997793073753900,12.39275390625,0.09780761694417708,-9.797423059645434,-0.4139151492037068
1789997793083825000,12.402824951171874,0.09982027166176598,-9.797334217438035,-0.41553183091649915
1789997793093896000,12.41289599609375,0.09720558483433465,-9.797406198272684,-0.4144544294209604
1789997793103968000,12.422968017578125,0.09363005037262688,-9.797467691388528,-0.41382681644544306
1789997793114039000,12.4330390625,0.09153857804325888,-9.797356416687355,-0.4169184888344635
1789997793124110000,12.443110107421877,0.0921560130933778,-9.797081763025913,-0.4231870263150486
1789997793134180900,12.453180908203125,0.09392481979709646,-9.796739047780187,-0.4306657754212064
1789997793144252700,12.463252685546877,0.09415529328932307,-9.79646907190416,-0.43672028621974385
1789997793154323700,12.47332373046875,0.08986103947680298,-9.796417533072797,-0.43877566843051363
1789997793164394800,12.483394775390623,0.08777732521441765,-9.796466326357667,-0.43811399535712514
1789997793174465800,12.4934658203125,0.08706662637292849,-9.796543659942358,-0.43650670240234085
1789997793184537900,12.503537841796875,0.08842023249966441,-9.79659453214698,-0.4351018734185651
1789997793194609000,12.51360888671875,0.09131888529850433,-9.796547035323968,-0.43556634598006205
1789997793204680000,12.523679931640626,0.09458630529608819,-9.796505917597676,-0.4357921935189387
1789997793214751000,12.5337509765625,0.10159538362647287,-9.79641293217451,-0.43629015476676686
1789997793224823000,12.543822998046876,0.10803865681148964,-9.796392542107476,-0.4352148323258044
1789997793234893800,12.553893798828126,0.11355945172043774,-9.796533631371886,-0.4306037523915956
1789997793244964900,12.56396484375,0.1176869499785415,-9.79669200783899,-0.4258735298331373
1789997793255036000,12.574035888671874,0.11705765634224455,-9.796881673755676,-0.42164638953946904
1789997793265108000,12.58410791015625,0.11610718038088463,-9.796977120171636,-0.419683626530742
1789997793275179000,12.594178955078124,0.11336689020485177,-9.796980481793803,-0.4203729178609709
1789997793285250000,12.60425,0.10684359924333918,-9.796943800691686,-0.4229045399757062
1789997793295321000,12.614321044921876,0.10323050355002028,-9.796904254018488,-0.4247399514450697
1789997793305393000,12.624392822265625,0.10377636379753084,-9.796863348177409,-0.4255374471548883
1789997793315463700,12.634463623046877,0.10589810407550437,-9.796930686127249,-0.42345971362040347
1789997793325534700,12.64453466796875,0.10841248793168629,-9.797122775532886,-0.4183411937573251
1789997793335605800,12.654605712890625,0.10734041375178807,-9.797362448584813,-0.4129836915548471
1789997793345677800,12.664677734375,0.10445078355650772,-9.797616950514175,-0.40765790402204055
1789997793355748900,12.674748779296875,0.10250869932142434,-9.79783612381346,-0.4028477660827574
1789997793365820000,12.68481982421875,0.0984179212338123,-9.797994951652727,-0.4000095340330839
1789997793375891000,12.694890869140623,0.0937787592503948,-9.798175326219903,-0.3966630867510034
1789997793385963000,12.704962890625,0.09099302976649347,-9.798379027539587,-0.39226130533649783
1789997793396034000,12.715033935546876,0.08912276440579155,-9.798530116407422,-0.3889238611577454
1789997793406104800,12.725104736328126,0.08823129915366007,-9.798597661777737,-0.3874118057606379
1789997793416175900,12.73517578125,0.08486822811141276,-9.798734835607474,-0.38467911659515847
1789997793426248000,12.745248046875,0.07894598076848665,-9.799039133366783,-0.3781381397359162
1789997793436319000,12.755319091796874,0.07163920690966837,-9.799470198227294,-0.36829355725461527
1789997793446390000,12.76539013671875,0.06881484879350354,-9.799844182076534,-0.3587579266398943
1789997793456461800,12.7754619140625,0.07053695631972579,-9.800112830696255,-0.35101957741367473
1789997793466532900,12.785532958984374,0.07466971244045799,-9.800384684668458,-0.34243897036928905
1789997793476604000,12.79560400390625,0.07645383303843374,-9.80076257596381,-0.3310270900182007
1789997793486674700,12.8056748046875,0.07575973831811364,-9.801344886152478,-0.313514955756932
1789997793496746800,12.815746826171877,0.07629147867153131,-9.802054978112693,-0.2903005198949981
1789997793506817800,12.82581787109375,0.07833727865874528,-9.802705238751455,-0.266859862096604
1789997793516888800,12.835888916015625,0.08060804483339103,-9.803251610969737,-0.2452434629281997
1789997793526959900,12.8459599609375,0.08764019500959482,-9.803661304727463,-0.22567231399151147
1789997793537032000,12.856031982421875,0.09274128072442071,-9.804036146259804,-0.2065155396630362
1789997793547103000,12.86610302734375,0.09382224525822247,-9.804493079130985,-0.18304957881258668
1789997793557174000,12.876174072265623,0.09501589355410697,-9.804923294283912,-0.15759466606398706
1789997793567245000,12.8862451171875,0.09504846686769983,-9.805301894047243,-0.13194347773513054
1789997793577317000,12.896317138671876,0.09499798736613871,-9.805619810452601,-0.10571545653001416
1789997793587388000,12.906387939453126,0.09583420660836477,-9.805854513503132,-0.08010908743705278
1789997793597459000,12.916458984375,0.09834852338079791,-9.805995639097793,-0.056165368029761305
1789997793607530000,12.926530029296876,0.10138858714745741,-9.80607192081406,-0.0323779507634207
1789997793617601800,12.936601806640626,0.10311641495973967,-9.806103861358862,-0.008789400870173195
1789997793627672800,12.9466728515625,0.10082415284283015,-9.806121614350383,0.0138139100839713
1789997793637743900,12.956743896484374,0.09926625378244636,-9.806087472088613,0.0343712537236187
1789997793647815000,12.96681494140625,0.09770182254837921,-9.806025565348254,0.05196361997484676
1789997793657887000,12.976886962890624,0.09995933509689513,-9.805911027545791,0.06710358213690276
1789997793667957800,12.986957763671874,0.10232638088416943,-9.80577874338336,0.08138178192570868
1789997793678028800,12.99702880859375,0.10607932346377077,-9.805610369919421,0.09560478777260753
1789997793688099800,13.007099853515625,0.10970595668607701,-9.805442502437346,0.10793109207272332
1789997793698172000,13.017171875,0.11476421592571584,-9.805249356025048,0.11960588528032247
1789997793708243000,13.027242919921877,0.11827216020343297,-9.805075617133737,0.12997927963595274
1789997793718314500,13.037314453125,0.12131678589978732,-9.80487928373442,0.14146669916277804
1789997793728385500,13.047385498046877,0.12407381458062014,-9.80467231763796,0.15296513981830845
1789997793738457300,13.057457275390624,0.12572738385980511,-9.804456866063024,0.1649196454104699
1789997793748528400,13.0675283203125,0.12479006397071875,-9.804271752941965,0.17625763344503445
1789997793758599200,13.07759912109375,0.1232769148896268,-9.804090060467152,0.18713085665230164
1789997793768670200,13.087670166015624,0.12464018927601785,-9.803898928260868,0.19601695060060054
1789997793778742300,13.0977421875,0.12676102906021597,-9.803658982012026,0.206368867762597
1789997793788813300,13.107813232421876,0.1320824654823763,-9.80334109357792,0.21780831412548604
1789997793798884400,13.11788427734375,0.13847803126116742,-9.802958620128416,0.23067689006144035
1789997793808955400,13.127955322265626,0.14108961237149997,-9.802534932974124,0.24654544251196014
1789997793819027500,13.13802734375,0.1421187539723478,-9.80211150140189,0.2622891575800496
1789997793829098500,13.148098388671874,0.13895056876171416,-9.80174552937181,0.27724946038498444
1789997793839169500,13.15816943359375,0.13123189357274234,-9.801378335017166,0.29351348466548793
1789997793849241600,13.16824169921875,0.1266910206058722,-9.80095513610689,0.3092162549418885
1789997793859312400,13.1783125,0.12238282978008097,-9.800559898728267,0.32315123184672606
1789997793869383400,13.188383544921876,0.12164284868581773,-9.800062648134015,0.3381677764325663
1789997793879454500,13.198454345703125,0.12181986510756629,-9.799426471768435,0.3560756272426158
1789997793889526300,13.2085263671875,0.1168744238088109,-9.798696230178331,0.3772085808048308
1789997793899597300,13.218597412109377,0.11171305696026018,-9.797875283669127,0.3994354243693614
1789997793909668400,13.22866845703125,0.1069378095652417,-9.797043205279607,0.4205701264022669
1789997793919739400,13.238739501953123,0.10671297619218019,-9.796194085967645,0.43996527153318266
1789997793929811500,13.2488115234375,0.10813500017979506,-9.79524873673393,0.4602193935564934
1789997793939882200,13.25888232421875,0.10855281286404689,-9.79428036159414,0.48029239652562067
1789997793949953300,13.268953369140624,0.10885953373279428,-9.793352411197802,0.4987820591183557
1789997793960024300,13.2790244140625,0.1089984443639141,-9.792389203631936,0.5173113283500701
1789997793970096400,13.289096435546876,0.10657384534929011,-9.791505276159446,0.5342736477557444
1789997793980167400,13.29916748046875,0.10109800062370672,-9.790829793325202,0.5475593679940178
1789997793990238500,13.309238525390626,0.09681525093273637,-9.790366701656506,0.5565337499672687
1789997794000309500,13.3193095703125,0.09553341244650254,-9.7899687308488,0.5637070086993918
1789997794010381600,13.329381591796874,0.0947241789113519,-9.789653473522717,0.5692877947883177
1789997794020452600,13.33945263671875,0.09183369353094206,-9.789459905617052,0.5730839729450367
1789997794030523400,13.3495234375,0.08951967872532521,-9.789421784180046,0.5741007145805442
1789997794040594400,13.359594482421874,0.08554369524056074,-9.789549137405688,0.5725279167010006
1789997794050666200,13.369666259765625,0.08073436336052674,-9.789902251446314,0.5671758290906486
1789997794060737300,13.3797373046875,0.0803030947534019,-9.790535678395495,0.5561920493262333
1789997794070808300,13.389808349609376,0.08479591085297815,-9.791373267199173,0.5405538483320865
1789997794080879400,13.39987939453125,0.08839359740158612,-9.7921877192413,0.5250054526082424
1789997794090951400,13.409951416015623,0.0889063295935906,-9.792804314301312,0.5132793481101717
1789997794101022500,13.4200224609375,0.08851473259444512,-9.79330050251291,0.5037910085458754
1789997794111093200,13.43009326171875,0.08887768296808228,-9.79386876874119,0.4925543791012428
1789997794121164300,13.440164306640623,0.09009582385267495,-9.794713398399171,0.4752496881961728
1789997794131236400,13.450236328125,0.09336513143865428,-9.795753994296405,0.4526334440047967
1789997794141307400,13.460307373046875,0.09667185243441667,-9.79677551326328,0.4292336379262989
1789997794151378400,13.47037841796875,0.0983841173770224,-9.797634877474422,0.40874253868287164
1789997794161450500,13.480450439453126,0.09939012370070585,-9.79839058817865,0.3899353011722381
1789997794171521500,13.490521484375,0.09925585868530255,-9.799084914798199,0.3721162585602757
1789997794181592600,13.500592529296876,0.098206168439183,-9.79968197417368,0.3563331606122431
1789997794191663600,13.51066357421875,0.09185518970199244,-9.800204743106121,0.3434030155483771
1789997794201735400,13.5207353515625,0.08736636050453739,-9.80073031964518,0.32929763090532627
1789997794211806200,13.53080615234375,0.08574479193412346,-9.801324598133059,0.3115731057708525
1789997794221877200,13.540877197265624,0.09054135475217127,-9.801816771120837,0.29423731098280104
1789997794231948300,13.5509482421875,0.09750982263048258,-9.802199739289382,0.2788317325933424
1789997794242020400,13.561020263671876,0.10403122610762475,-9.802470420984154,0.26672290264934057
1789997794252091400,13.57109130859375,0.11094084034802017,-9.802690662249624,0.2556115465698548
1789997794262162400,13.581162353515625,0.11653514083492122,-9.802910148664024,0.24443946786860563
1789997794272233500,13.5912333984375,0.11820813275736693,-9.803149418294602,0.23381208932964953
1789997794282305500,13.601305419921877,0.11709765172744417,-9.80336518837456,0.22515988800835818
1789997794292376300,13.611376220703123,0.11397159309747344,-9.803574549081954,0.2175303126014494
1789997794302447400,13.621447265625,0.1127550257852661,-9.803740385215798,0.21058568311846915
1789997794312518400,13.631518310546875,0.1148100552946195,-9.803862805583465,0.20365435966314682
1789997794322590500,13.641590576171875,0.11482458785788592,-9.803969148641727,0.19846074277364792
1789997794332661500,13.65166162109375,0.11622388520751592,-9.804031694631272,0.19451098599581207
1789997794342732500,13.661732666015626,0.11756263309531018,-9.804079421396203,0.1912974916544695
1789997794352803600,13.671803466796876,0.11363381532184708,-9.804112983492573,0.1919117610269688
1789997794362875400,13.68187548828125,0.1095206906255282,-9.804075299123415,0.1962084872361007
1789997794372946400,13.691946533203126,0.1077452746596394,-9.804000350583598,0.20089071277363438
1789997794383017200,13.702017333984376,0.1036559760891313,-9.803929235494566,0.20643307439518133
1789997794393088300,13.712088134765626,0.09897236065985057,-9.803850441434328,0.21237990639837193
1789997794403160300,13.722160400390624,0.09795989837350393,-9.803724914001187,0.21855460680263813
1789997794413231400,13.7322314453125,0.09744401468564254,-9.803567067094834,0.22576248612685734
1789997794423302400,13.742302490234374,0.09696533251081597,-9.803354454015752,0.2349888638716919
1789997794433373400,13.75237353515625,0.09770009715552218,-9.803035895872881,0.24762082955449144
1789997794443445500,13.762445556640625,0.09973203459366585,-9.802672877192409,0.2608281159559754
1789997794453516500,13.7725166015625,0.10076302707380826,-9.802318887999416,0.2734464604089244
1789997794463587300,13.78258740234375,0.0987258120617517,-9.80193235608487,0.28769113422625353
1789997794473659400,13.792659423828123,0.09692696164643823,-9.801491501798672,0.30291947675364006
1789997794483730400,13.80273046875,0.09417622377013372,-9.801067179416718,0.31715987623820924
1789997794493801500,13.812801513671875,0.09363134205558961,-9.800696726253557,0.32856628842022106
1789997794503872500,13.82287255859375,0.09685406475325144,-9.800245315047313,0.34087913738142533
1789997794513944300,13.8329443359375,0.09998972277574922,-9.79967210989386,0.3561066323251995
1789997794524015400,13.843015380859375,0.10381836525945697,-9.798955056050351,0.3742883881386708
1789997794534086400,13.85308642578125,0.10673579661940176,-9.798204812185702,0.39264732436241045
1789997794544157400,13.863157470703126,0.10864065656835684,-9.797513365404651,0.40904016563723006
1789997794554229500,13.8732294921875,0.1090054424847194,-9.796846245374743,0.42462643736545375
1789997794564300300,13.88330029296875,0.10671813193355599,-9.796247471538157,0.4387759909994125
1789997794574371300,13.893371337890626,0.10432141170830042,-9.795696576320418,0.45146952743837154
1789997794584442400,13.9034423828125,0.10492494044547522,-9.795254537261911,0.4608266622083781
1789997794594514400,13.913514404296874,0.1084020295582061,-9.79490141886849,0.467476243576215
1789997794604585500,13.92358544921875,0.11222636997003471,-9.79455087957345,0.47389114675835675
1789997794614656500,13.933656494140624,0.11652168547240603,-9.794161173173908,0.4808489380600957
1789997794624727600,13.9437275390625,0.12265508093431049,-9.793797420284985,0.48668931178445973
1789997794634799400,13.95379931640625,0.12799434534917747,-9.793462587079215,0.49202659173501717
1789997794644870400,13.963870361328125,0.1312501605030096,-9.7931250699402,0.4978585088292534
1789997794654941400,13.97394140625,0.13129170114203007,-9.792663853056931,0.5068440996239274
1789997794665012500,13.984012451171877,0.12917186034254052,-9.792108108937263,0.518008183773072
1789997794675084300,13.994084228515623,0.12744600118790175,-9.79172868411806,0.5255358417451624
1789997794685155300,14.0041552734375,0.1295608931597045,-9.79152709112314,0.5287671189906811
1789997794695226400,14.014226318359375,0.13491202209976422,-9.791383563883011,0.53008110094127
1789997794705297400,14.02429736328125,0.13830122217870067,-9.791213882886625,0.5323491906857943
1789997794715368700,14.03436865234375,0.14274440130657753,-9.790983802648968,0.5353950271461669
1789997794725439500,14.044439453125,0.14845642511901794,-9.790692811028604,0.5391463035528561
1789997794735510500,14.054510498046875,0.1515238787077236,-9.790382806966887,0.5439064671602846
1789997794745582600,14.06458251953125,0.15279183372042351,-9.789891957550921,0.552321279023232
1789997794755653600,14.074653564453126,0.15109834098653518,-9.789291182321838,0.5633327145514255
1789997794765724700,14.084724609375,0.1454102288939044,-9.788726523785352,0.574522632916626
1789997794775795700,14.094795654296876,0.14294891025283568,-9.788145086722363,0.5849597566025613
1789997794785867800,14.10486767578125,0.14022416879666594,-9.787669017849614,0.5935060924851316
1789997794795938800,14.114938720703124,0.1393331310766517,-9.787086484145014,0.6032580058153982
1789997794806009600,14.125009521484374,0.13635763540638154,-9.78649007093759,0.6135241295107313
