time,seconds_elapsed,z,y,x
1789141052134402000,0.039402099609375,-0.694244384765625,-0.7444915771484375,-0.1362762451171875
1789141052144375000,0.049375,-0.4945220947265625,-0.978424072265625,0.0491180419921875
1789141052154347000,0.059346923828125,-0.59149169921875,-0.9087982177734375,-0.019927978515625
1789141052164320000,0.069320068359375,-0.6402130126953125,-0.7658233642578125,0.00909423828125
1789141052174292000,0.0792919921875,-0.675018310546875,-0.7964630126953125,0.0022430419921875
1789141052184264000,0.089263916015625,-0.470550537109375,-0.89349365234375,-0.0184326171875
1789141052194237000,0.09923681640625,-0.4684906005859375,-0.7902984619140625,-0.0709075927734375
1789141052204209000,0.109208984375,-0.5229644775390625,-0.8336029052734375,-0.0755462646484375
1789141052214180900,0.119180908203125,-0.456024169921875,-0.94891357421875,-0.1043243408203125
1789141052224154000,0.129154052734375,-0.6707305908203125,-0.7449951171875,-0.111053466796875
1789141052234125800,0.139125732421875,-0.8419342041015625,-0.735382080078125,-0.1252288818359375
1789141052244098000,0.14909814453125,-0.6190643310546875,-0.9750518798828125,-0.064208984375
1789141052254071000,0.159071044921875,-0.7180328369140625,-0.8860015869140625,0.0311279296875
1789141052264042800,0.169042724609375,-0.6754608154296875,-0.7925262451171875,-0.1100921630859375
1789141052274016000,0.17901611328125,-0.4037017822265625,-0.80401611328125,-0.0396270751953125
1789141052283988000,0.188988037109375,-0.2315216064453125,-0.927001953125,-0.07489013671875
1789141052293960000,0.1989599609375,-0.2666168212890625,-0.9243316650390625,-0.024993896484375
1789141052303933000,0.208932861328125,-0.61065673828125,-0.663848876953125,0.01031494140625
1789141052313905000,0.21890478515625,-0.5945892333984375,-0.8323516845703125,-0.0804901123046875
1789141052323876900,0.228876953125,-0.5839691162109375,-0.837005615234375,-0.1442413330078125
1789141052333849900,0.238849853515625,-0.6588592529296875,-0.7378692626953125,-0.0714111328125
1789141052343822000,0.248822021484375,-0.8055267333984375,-0.8623504638671875,-0.0859832763671875
1789141052353793800,0.258793701171875,-0.5211639404296875,-0.9900665283203125,-0.0698699951171875
1789141052363766800,0.268766845703125,-0.5170745849609375,-0.836029052734375,-0.042236328125
1789141052373739000,0.278739013671875,-0.700347900390625,-0.6378021240234375,-0.0522308349609375
1789141052383711000,0.2887109375,-0.5953216552734375,-0.7588348388671875,0.0311431884765625
1789141052393684000,0.29868408203125,-0.2580718994140625,-1.018646240234375,0.081085205078125
1789141052403656000,0.308656005859375,-0.4703216552734375,-0.790924072265625,0.060089111328125
1789141052413629000,0.31862890625,-0.70916748046875,-0.635498046875,-0.0889129638671875
1789141052423601000,0.328600830078125,-0.6846466064453125,-0.789276123046875,-0.0102386474609375
1789141052433573000,0.338572998046875,-0.4990997314453125,-0.993560791015625,-0.003173828125
1789141052443546000,0.348546142578125,-0.703521728515625,-0.8015594482421875,0.057342529296875
1789141052453517800,0.358517822265625,-0.708831787109375,-0.7589263916015625,-0.0221099853515625
1789141052463490000,0.368489990234375,-0.546173095703125,-0.9822235107421875,0.1614227294921875
1789141052473463000,0.378463134765625,-0.5098419189453125,-0.8795166015625,0.1061248779296875
1789141052483435000,0.38843505859375,-0.5896759033203125,-0.6904449462890625,0.0856475830078125
1789141052493407000,0.398406982421875,-0.4373779296875,-0.868804931640625,0.065460205078125
1789141052503380000,0.4083798828125,-0.3660736083984375,-0.942626953125,-0.00921630859375
1789141052513352000,0.41835205078125,-0.65679931640625,-0.7137298583984375,-0.0541229248046875
1789141052523325000,0.428324951171875,-0.6634063720703125,-0.7916717529296875,-0.0768280029296875
1789141052533297200,0.438297119140625,-0.498260498046875,-0.79534912109375,-0.1565704345703125
1789141052543268900,0.448268798828125,-0.46209716796875,-0.945709228515625,-0.03765869140625
1789141052553241900,0.458241943359375,-0.5361480712890625,-0.8050384521484375,-0.1688385009765625
1789141052563214000,0.468214111328125,-0.7423095703125,-0.686614990234375,-0.197052001953125
1789141052573186000,0.47818603515625,-0.6402130126953125,-0.795867919921875,-0.189178466796875
1789141052583159000,0.488158935546875,-0.4671630859375,-1.0424041748046875,-0.0761260986328125
1789141052593131000,0.498131103515625,-0.7737274169921875,-0.714874267578125,-0.1147003173828125
1789141052603103000,0.50810302734375,-0.6340179443359375,-0.7493896484375,-0.2067413330078125
1789141052613076000,0.518075927734375,-0.5556640625,-0.7669677734375,-0.1244659423828125
1789141052623048200,0.528048095703125,-0.585906982421875,-0.74810791015625,0.0152740478515625
1789141052633021000,0.53802099609375,-0.6948394775390625,-0.8001861572265625,0.0561065673828125
1789141052642993000,0.547992919921875,-0.7254180908203125,-0.801300048828125,0.0408935546875
1789141052652965000,0.557965087890625,-0.597503662109375,-0.8023223876953125,0.0170440673828125
1789141052662937900,0.567937744140625,-0.45654296875,-0.892578125,0.0102386474609375
1789141052672910000,0.57791015625,-0.4617767333984375,-0.8445281982421875,0.0163116455078125
1789141052682882000,0.587882080078125,-0.60015869140625,-0.7363433837890625,-0.10076904296875
1789141052692854800,0.597854736328125,-0.501556396484375,-0.814300537109375,-0.131317138671875
1789141052702827000,0.607826904296875,-0.66534423828125,-0.8149566650390625,0.0524749755859375
1789141052712799000,0.617799072265625,-0.671966552734375,-0.72039794921875,0.0200653076171875
1789141052722772000,0.62777197265625,-0.5683135986328125,-0.97021484375,0.0537109375
1789141052732744000,0.637743896484375,-0.6100311279296875,-0.8182525634765625,0.0590057373046875
1789141052742717000,0.647717041015625,-0.5969390869140625,-0.75634765625,-0.011810302734375
1789141052752689000,0.65768896484375,-0.57904052734375,-0.79638671875,0.0176849365234375
1789141052762660900,0.667660888671875,-0.4532470703125,-0.855987548828125,0.1300048828125
1789141052772634000,0.677634033203125,-0.5404510498046875,-0.811248779296875,0.088653564453125
1789141052782605800,0.687605712890625,-0.6072998046875,-0.7294921875,-0.0621185302734375
1789141052792578000,0.697578125,-0.485107421875,-0.8750457763671875,-0.0514068603515625
1789141052802551000,0.707551025390625,-0.57867431640625,-0.8981475830078125,-0.07135009765625
1789141052812523000,0.71752294921875,-0.6542510986328125,-0.7795562744140625,-0.1229095458984375
1789141052822495000,0.727494873046875,-0.6363983154296875,-0.81451416015625,-0.0616302490234375
1789141052832468000,0.737468017578125,-0.625732421875,-0.898895263671875,-0.09063720703125
1789141052842440000,0.74743994140625,-0.565032958984375,-0.943084716796875,-0.1146240234375
1789141052852413000,0.757412841796875,-0.48443603515625,-0.7954864501953125,-0.1862945556640625
1789141052862385200,0.76738525390625,-0.5467987060546875,-0.7154998779296875,-0.2176971435546875
1789141052872356900,0.77735693359375,-0.2907562255859375,-0.8930206298828125,-0.1125640869140625
1789141052882329900,0.787329833984375,-0.48455810546875,-0.8359832763671875,-0.0699920654296875
1789141052892302000,0.797302001953125,-1.0082550048828125,-0.6503448486328125,-0.0798797607421875
1789141052902273800,0.807273681640625,-0.7415618896484375,-1.016326904296875,0.0549774169921875
1789141052912247000,0.8172470703125,-0.622650146484375,-0.98828125,0.0851287841796875
1789141052922219000,0.827218994140625,-0.6153411865234375,-0.70672607421875,-0.14361572265625
1789141052932191000,0.83719091796875,-0.07440185546875,-1.0345306396484375,-0.0772705078125
1789141052942164000,0.8471640625,-0.26922607421875,-0.79541015625,-0.1598968505859375
1789141052952136000,0.857135986328125,-0.4923095703125,-0.6295623779296875,-0.2065887451171875
1789141052962108000,0.86710791015625,-1.039276123046875,-0.6201019287109375,-0.0007476806640625
1789141052972081000,0.877080810546875,-0.8336944580078125,-0.8926239013671875,-0.035308837890625
1789141052982053000,0.88705322265625,-0.03173828125,-0.9857635498046875,-0.136749267578125
1789141052992025900,0.89702587890625,-0.49700927734375,-0.5415802001953125,-0.3177032470703125
1789141053001997800,0.906997802734375,-0.667694091796875,-0.844696044921875,-0.249237060546875
1789141053011970000,0.916969970703125,-0.5476531982421875,-1.166351318359375,0.0736541748046875
1789141053021942800,0.92694287109375,-0.5592193603515625,-0.8645477294921875,-0.1581268310546875
1789141053031915000,0.9369150390625,-0.695404052734375,-0.561981201171875,-0.1222991943359375
1789141053041887000,0.946886962890625,-0.528778076171875,-0.83441162109375,0.1240081787109375
1789141053051860000,0.95685986328125,-0.46826171875,-1.0080413818359375,0.0233306884765625
1789141053061832000,0.96683203125,-0.537017822265625,-0.7752227783203125,-0.0832061767578125
1789141053071804200,0.97680419921875,-0.521453857421875,-0.730926513671875,-0.0938720703125
1789141053081777000,0.98677685546875,-0.945648193359375,-0.7931671142578125,-0.0282745361328125
1789141053091748900,0.996748779296875,-0.6997222900390625,-1.0045013427734375,-0.038665771484375
1789141053101721900,1.006721923828125,-0.79608154296875,-0.7879791259765625,0.094512939453125
1789141053111693800,1.01669384765625,-0.1032867431640625,-0.877410888671875,-0.1580352783203125
1789141053121666000,1.026666015625,0.16644287109375,-0.695587158203125,-0.3020477294921875
1789141053131638800,1.036638671875,0.3479156494140625,-0.7740325927734375,-0.1422882080078125
1789141053141610800,1.04661083984375,-0.630828857421875,-0.3559722900390625,-0.1578216552734375
1789141053151583000,1.0565830078125,-1.488006591796875,-0.5255279541015625,-0.035888671875
1789141053161555700,1.0665556640625,-1.0677032470703125,-1.2076873779296875,0.0771942138671875
1789141053171528000,1.07652783203125,-1.20654296875,-0.93804931640625,0.0786590576171875
1789141053181500000,1.0865,-0.2649688720703125,-0.9706268310546875,-0.0891571044921875
1789141053191473000,1.096472900390625,-0.938720703125,-0.692230224609375,-0.250457763671875
1789141053201444900,1.10644482421875,-0.6301116943359375,-1.017333984375,-0.125091552734375
1789141053211416800,1.116416748046875,-0.68792724609375,-0.7835693359375,-0.0851593017578125
1789141053221389800,1.126389892578125,-0.7416839599609375,-0.644866943359375,-0.12408447265625
1789141053231361800,1.13636181640625,-0.37255859375,-0.9961090087890625,0.131256103515625
1789141053241335000,1.1463349609375,-0.5148162841796875,-0.869049072265625,0.0024871826171875
1789141053251306800,1.156306640625,-0.381744384765625,-0.8847503662109375,-0.0160064697265625
1789141053261279000,1.166279052734375,-0.3974456787109375,-0.725799560546875,-0.09942626953125
1789141053271252000,1.176251953125,-0.4869537353515625,-0.7755126953125,-0.1629638671875
1789141053281223700,1.1862236328125,-0.7180938720703125,-0.8234405517578125,-0.1175384521484375
1789141053291196000,1.19619580078125,-0.7677001953125,-1.005615234375,-0.0928497314453125
1789141053301169000,1.2061689453125,-0.984344482421875,-0.760467529296875,-0.1097412109375
1789141053311140900,1.216140869140625,-0.8609619140625,-0.79571533203125,-0.0641021728515625
1789141053321112800,1.22611279296875,-0.6862640380859375,-0.7863006591796875,0.0539398193359375
1789141053331085800,1.2360859375,-0.7540435791015625,-0.515716552734375,0.053253173828125
1789141053341057800,1.246057861328125,-0.567626953125,-0.5363616943359375,0.0675811767578125
1789141053351030800,1.25603076171875,-0.2682037353515625,-0.814239501953125,-0.0046844482421875
1789141053361003000,1.2660029296875,-0.3760986328125,-0.7256317138671875,-0.0872650146484375
1789141053370974700,1.275974609375,-0.380828857421875,-0.8853607177734375,-0.020843505859375
1789141053380947700,1.28594775390625,-0.2404632568359375,-1.2125396728515625,0.0615692138671875
1789141053390920000,1.295919921875,-0.7161102294921875,-0.77520751953125,0.0770416259765625
1789141053400892000,1.305891845703125,-0.9827423095703125,-0.3740997314453125,-0.0214080810546875
1789141053410865000,1.315864990234375,-0.348602294921875,-0.9217987060546875,-0.0417022705078125
1789141053420836900,1.3258369140625,-0.35809326171875,-0.8888702392578125,0.115692138671875
1789141053430808800,1.335808837890625,-0.89605712890625,-0.474853515625,0.08984375
1789141053440781800,1.34578173828125,-0.61474609375,-0.9365234375,-0.0097808837890625
1789141053450754000,1.355754150390625,-0.4632720947265625,-1.060943603515625,-0.041961669921875
1789141053460726800,1.365726806640625,-0.606170654296875,-0.8435821533203125,-0.1367034912109375
1789141053470698800,1.37569873046875,-0.69921875,-0.7188568115234375,-0.1001129150390625
1789141053480671000,1.3856708984375,-0.761016845703125,-0.5871429443359375,0.0009307861328125
1789141053490643700,1.395643798828125,-0.3579559326171875,-0.8926239013671875,-0.0453643798828125
1789141053500616000,1.405615966796875,-0.279327392578125,-1.1642913818359375,0.01544189453125
1789141053510588000,1.415587890625,-0.4730224609375,-1.01800537109375,-0.0640716552734375
1789141053520560600,1.425560546875,-0.5166778564453125,-0.92987060546875,-0.049652099609375
1789141053530532900,1.435532958984375,-0.4074554443359375,-1.012786865234375,-0.1028594970703125
1789141053540504800,1.4455048828125,-0.5082244873046875,-0.8381805419921875,-0.0635223388671875
1789141053550477800,1.455477783203125,-0.6377105712890625,-0.7060699462890625,-0.0943145751953125
1789141053560449800,1.46544970703125,-0.762054443359375,-0.7174224853515625,-0.04931640625
1789141053570422000,1.475422119140625,-0.66314697265625,-0.930877685546875,-0.14044189453125
1789141053580394800,1.485394775390625,-0.5630035400390625,-0.9848175048828125,-0.1004638671875
1789141053590366700,1.49536669921875,-0.686553955078125,-0.8695831298828125,-0.0928192138671875
1789141053600340000,1.505340087890625,-0.511077880859375,-0.92047119140625,-0.089324951171875
1789141053610311700,1.515311767578125,-0.4678802490234375,-0.879180908203125,-0.033050537109375
1789141053620284000,1.525283935546875,-0.5489349365234375,-0.7700958251953125,0.04296875
1789141053630257000,1.5352568359375,-0.590576171875,-0.757904052734375,-0.078704833984375
1789141053640228900,1.545228759765625,-0.481414794921875,-0.8846282958984375,-0.02288818359375
1789141053650200800,1.555200927734375,-0.59307861328125,-0.86749267578125,-0.117919921875
1789141053660173800,1.565173828125,-0.7472686767578125,-0.7267303466796875,-0.0832977294921875
1789141053670145800,1.575145751953125,-0.6940765380859375,-0.7686920166015625,-0.0684051513671875
1789141053680117800,1.58511767578125,-0.6447601318359375,-0.762664794921875,-0.041656494140625
1789141053690091000,1.595091064453125,-0.5285186767578125,-0.771484375,0.046600341796875
1789141053700062700,1.605062744140625,-0.5541839599609375,-0.718048095703125,0.0203857421875
1789141053710035700,1.61503564453125,-0.4624481201171875,-0.766082763671875,-0.03106689453125
1789141053720008000,1.625008056640625,-0.439300537109375,-0.8524627685546875,0.08807373046875
1789141053729979600,1.634979736328125,-0.4794921875,-0.890289306640625,0.0468902587890625
1789141053739953000,1.644952880859375,-0.602935791015625,-0.8401336669921875,0.0149078369140625
1789141053749924900,1.6549248046875,-0.6419677734375,-0.8418426513671875,0.135589599609375
1789141053759896800,1.664896728515625,-0.6658477783203125,-0.8140106201171875,0.042724609375
1789141053769869800,1.674869873046875,-0.6456451416015625,-0.8236083984375,0.019287109375
1789141053779841800,1.684841796875,-0.77545166015625,-0.7848052978515625,0.0978851318359375
1789141053789813800,1.694813720703125,-0.6425323486328125,-0.8180389404296875,0.0595550537109375
1789141053799786800,1.704786865234375,-0.6115875244140625,-0.8624267578125,0.0014801025390625
1789141053809759000,1.714759033203125,-0.6254425048828125,-0.8300933837890625,0.0359344482421875
1789141053819730700,1.724730712890625,-0.5184478759765625,-0.844268798828125,0.001983642578125
1789141053829703700,1.73470361328125,-0.542266845703125,-0.8389739990234375,-0.0052490234375
1789141053839676000,1.744676025390625,-0.5418243408203125,-0.852569580078125,0.0159454345703125
1789141053849649000,1.75464892578125,-0.4771270751953125,-0.857757568359375,-0.0865325927734375
1789141053859620900,1.764620849609375,-0.4900360107421875,-0.8168487548828125,-0.10205078125
1789141053869592800,1.7745927734375,-0.4858856201171875,-0.8222503662109375,-0.041046142578125
1789141053879566000,1.784566162109375,-0.522125244140625,-0.813262939453125,-0.088348388671875
1789141053889537800,1.794537841796875,-0.67156982421875,-0.7912445068359375,-0.022003173828125
1789141053899510000,1.804510009765625,-0.7032012939453125,-0.8054656982421875,-0.0158233642578125
1789141053909483000,1.81448291015625,-0.761810302734375,-0.8190765380859375,-0.0064239501953125
1789141053919454700,1.824454833984375,-0.7330322265625,-0.84423828125,0.02191162109375
1789141053929427000,1.834427001953125,-0.600738525390625,-0.9070587158203125,-0.021759033203125
1789141053939400000,1.84439990234375,-0.6143951416015625,-0.81109619140625,-0.0800628662109375
1789141053949372000,1.854371826171875,-0.535675048828125,-0.8014984130859375,-0.02056884765625
1789141053959345000,1.864344970703125,-0.4685516357421875,-0.84112548828125,0.0122222900390625
1789141053969316900,1.87431689453125,-0.471923828125,-0.80126953125,0.0006256103515625
1789141053979288800,1.884288818359375,-0.5148773193359375,-0.733734130859375,0.0086669921875
1789141053989261800,1.89426171875,-0.6877593994140625,-0.6833038330078125,-0.008819580078125
1789141053999233800,1.90423388671875,-0.5527801513671875,-0.8478851318359375,-0.017120361328125
1789141054009205800,1.914205810546875,-0.6356048583984375,-0.804290771484375,-0.03228759765625
1789141054019178800,1.9241787109375,-0.6815643310546875,-0.783782958984375,-0.0970458984375
1789141054029150700,1.934150634765625,-0.61962890625,-0.89813232421875,-0.0401763916015625
1789141054039123000,1.944123046875,-0.491424560546875,-0.8701019287109375,-0.0326385498046875
1789141054049096000,1.954095947265625,-0.5297698974609375,-0.83038330078125,-0.0440216064453125
1789141054059067600,1.964067626953125,-0.4644775390625,-0.8922271728515625,-0.060394287109375
1789141054069039900,1.974039794921875,-0.4345550537109375,-0.856536865234375,0.01922607421875
1789141054079012900,1.984012939453125,-0.612335205078125,-0.7751617431640625,0.0049285888671875
1789141054088984800,1.99398486328125,-0.54156494140625,-0.8360443115234375,0.0824432373046875
1789141054098957800,2.003957763671875,-0.4879150390625,-0.9023590087890625,0.027557373046875
1789141054108929800,2.0139296875,-0.562408447265625,-0.859161376953125,-0.0092010498046875
1789141054118901800,2.02390185546875,-0.5623931884765625,-0.8291778564453125,-0.0350341796875
1789141054128874800,2.033874755859375,-0.5797119140625,-0.8790740966796875,-0.0314483642578125
1789141054138847000,2.043846923828125,-0.6163787841796875,-0.866607666015625,-0.1247711181640625
1789141054148818700,2.053818603515625,-0.67047119140625,-0.8229522705078125,-0.068634033203125
1789141054158791700,2.063791748046875,-0.643646240234375,-0.8675079345703125,-0.0553131103515625
1789141054168764000,2.073763916015625,-0.6021270751953125,-0.8617401123046875,0.045013427734375
1789141054178735600,2.083735595703125,-0.52362060546875,-0.8446502685546875,-0.0109405517578125
1789141054188708900,2.093708984375,-0.382110595703125,-0.8818206787109375,-0.0750579833984375
1789141054198680800,2.103680908203125,-0.42364501953125,-0.860626220703125,-0.05718994140625
1789141054208653800,2.11365380859375,-0.5066070556640625,-0.796661376953125,-0.0841217041015625
1789141054218625800,2.123625732421875,-0.601287841796875,-0.8149871826171875,-0.141998291015625
1789141054228597800,2.13359765625,-0.4980926513671875,-0.9069061279296875,0.00970458984375
1789141054238571000,2.143571044921875,-0.59454345703125,-0.8296356201171875,-0.072784423828125
1789141054248542700,2.153542724609375,-0.6361083984375,-0.7662506103515625,-0.103851318359375
1789141054258515000,2.163514892578125,-0.56231689453125,-0.8161163330078125,-0.0107879638671875
1789141054268488000,2.173488037109375,-0.4981231689453125,-0.8466033935546875,-0.0634307861328125
1789141054278460000,2.1834599609375,-0.4945526123046875,-0.8208770751953125,-0.1016387939453125
1789141054288431900,2.193431884765625,-0.5358734130859375,-0.81292724609375,-0.052093505859375
1789141054298404900,2.20340478515625,-0.595123291015625,-0.859832763671875,-0.026885986328125
1789141054308376800,2.213376953125,-0.5411224365234375,-0.91546630859375,-0.0718231201171875
1789141054318349800,2.223349853515625,-0.62982177734375,-0.92864990234375,-0.033294677734375
1789141054328322000,2.233322021484375,-0.8306427001953125,-0.6854248046875,0.0224456787109375
1789141054338293800,2.243293701171875,-0.678436279296875,-0.8535308837890625,-0.0516815185546875
1789141054348266800,2.253266845703125,-0.48870849609375,-0.9169921875,-0.064453125
1789141054358239000,2.263239013671875,-0.6658782958984375,-0.7105560302734375,-0.096435546875
1789141054368210700,2.273210693359375,-0.599090576171875,-0.7349090576171875,-0.0766143798828125
1789141054378184000,2.283183837890625,-0.279327392578125,-0.977569580078125,-0.07696533203125
1789141054388156000,2.293156005859375,-0.4368133544921875,-0.82061767578125,-0.0395355224609375
1789141054398127900,2.3031279296875,-0.617919921875,-0.6867218017578125,-0.12738037109375
1789141054408100900,2.313100830078125,-0.5113677978515625,-0.7802886962890625,0.016998291015625
1789141054418072800,2.32307275390625,-0.530181884765625,-0.778289794921875,-0.0030364990234375
1789141054428044800,2.333044921875,-0.5938568115234375,-0.787384033203125,0.0535888671875
1789141054438017800,2.343017822265625,-0.638580322265625,-0.8131561279296875,-0.0010223388671875
1789141054447990000,2.352989990234375,-0.6753387451171875,-0.7780914306640625,0.0210113525390625
1789141054457962800,2.362962646484375,-0.760284423828125,-0.7479400634765625,-0.0003204345703125
1789141054467934700,2.372934814453125,-0.699127197265625,-0.7975006103515625,0.042572021484375
1789141054477907000,2.382906982421875,-0.7395477294921875,-0.8026123046875,-0.01092529296875
1789141054487879700,2.392879638671875,-0.660186767578125,-0.807037353515625,0.0294952392578125
1789141054497852000,2.402851806640625,-0.647674560546875,-0.7865142822265625,-0.0194091796875
1789141054507823900,2.412823974609375,-0.5480804443359375,-0.818267822265625,-0.042449951171875
1789141054517796900,2.422796875,-0.4762115478515625,-0.8498382568359375,-0.0087432861328125
1789141054527768800,2.432768798828125,-0.644927978515625,-0.712738037109375,-0.039215087890625
1789141054537741000,2.442740966796875,-0.591064453125,-0.71484375,-0.1609344482421875
1789141054547713800,2.4527138671875,-0.53082275390625,-0.789825439453125,-0.1051025390625
1789141054557685800,2.462685791015625,-0.56298828125,-0.77386474609375,-0.1320648193359375
1789141054567658000,2.472657958984375,-0.548309326171875,-0.7946929931640625,-0.1834564208984375
1789141054577630700,2.482630615234375,-0.5066375732421875,-0.8486175537109375,-0.14532470703125
1789141054587603000,2.49260302734375,-0.5490875244140625,-0.8525848388671875,-0.0817413330078125
1789141054597576000,2.502575927734375,-0.5889739990234375,-0.7781524658203125,-0.099151611328125
1789141054607547600,2.512547607421875,-0.582916259765625,-0.869171142578125,-0.07244873046875
1789141054617519900,2.522519775390625,-0.5382080078125,-0.899322509765625,-0.0428009033203125
1789141054627492900,2.532492919921875,-0.49334716796875,-0.749603271484375,-0.08734130859375
1789141054637464800,2.54246484375,-0.6382293701171875,-0.657135009765625,-0.1645355224609375
1789141054647436800,2.552436767578125,-0.5810699462890625,-0.837982177734375,-0.0570526123046875
1789141054657409800,2.562409912109375,-0.690643310546875,-0.809417724609375,-0.0654296875
1789141054667381800,2.5723818359375,-0.7045440673828125,-0.83477783203125,-0.1173553466796875
1789141054677354000,2.58235400390625,-0.8308258056640625,-0.9006195068359375,-0.030487060546875
1789141054687327000,2.592326904296875,-0.646728515625,-0.96380615234375,-0.0565948486328125
1789141054697298700,2.602298583984375,-0.66717529296875,-0.850799560546875,-0.0972442626953125
1789141054707272000,2.61227197265625,-0.6627655029296875,-0.8236236572265625,-0.028594970703125
1789141054717244000,2.622243896484375,-0.518341064453125,-0.8611602783203125,-0.0149688720703125
1789141054727215900,2.6322158203125,-0.5238800048828125,-0.834930419921875,0.01422119140625
1789141054737188900,2.64218896484375,-0.603729248046875,-0.8486175537109375,0.0223846435546875
1789141054747160800,2.652160888671875,-0.5235137939453125,-0.85675048828125,0.055999755859375
1789141054757132800,2.6621328125,-0.4062347412109375,-0.9001007080078125,-0.014190673828125
1789141054767105800,2.672105712890625,-0.4506378173828125,-0.8347930908203125,-0.0222015380859375
1789141054777078000,2.682078125,-0.464202880859375,-0.7767333984375,-0.0070037841796875
1789141054787049700,2.6920498046875,-0.4091949462890625,-0.80902099609375,-0.0196533203125
1789141054797022700,2.702022705078125,-0.51202392578125,-0.7740020751953125,0.023834228515625
1789141054806995000,2.711994873046875,-0.6158294677734375,-0.775390625,0.0386199951171875
1789141054816966700,2.721966552734375,-0.5540008544921875,-0.833282470703125,0.0399627685546875
1789141054826940000,2.73193994140625,-0.772064208984375,-0.8502349853515625,-0.0156707763671875
1789141054836911900,2.741911865234375,-0.777679443359375,-0.90032958984375,-0.051361083984375
1789141054846884600,2.751884521484375,-0.859710693359375,-0.95684814453125,-0.0159912109375
1789141054856856800,2.76185693359375,-0.77349853515625,-0.946258544921875,-0.0512542724609375
1789141054866828800,2.771828857421875,-0.75677490234375,-0.88134765625,-0.031768798828125
1789141054876801800,2.7818017578125,-0.646514892578125,-0.8610992431640625,0.006561279296875
1789141054886773800,2.791773681640625,-0.389129638671875,-0.9197235107421875,0.0147247314453125
1789141054896746000,2.80174609375,-0.3949737548828125,-0.7906494140625,-0.018585205078125
1789141054906718700,2.81171875,-0.2618408203125,-0.7779693603515625,-0.0434112548828125
1789141054916691000,2.82169091796875,-0.2266998291015625,-0.6777191162109375,-0.0273895263671875
1789141054926663000,2.831662841796875,-0.0696563720703125,-0.8607330322265625,-0.0402374267578125
1789141054936635600,2.8416357421875,-0.05902099609375,-0.825927734375,-0.078948974609375
1789141054946607900,2.85160791015625,-0.3424530029296875,-0.6468048095703125,-0.0598602294921875
1789141054956580900,2.861580810546875,-0.42864990234375,-0.7802276611328125,-0.1294097900390625
1789141054966552800,2.871552734375,-0.6902618408203125,-0.8127899169921875,-0.0470428466796875
1789141054976524800,2.88152490234375,-1.0868988037109375,-0.65875244140625,-0.033966064453125
1789141054986497800,2.891497802734375,-0.9524383544921875,-0.846343994140625,-0.0765533447265625
1789141054996469800,2.9014697265625,-0.8489990234375,-1.0270233154296875,-0.1003875732421875
1789141055006441700,2.911441650390625,-0.9659423828125,-0.8811798095703125,-0.043060302734375
1789141055016415000,2.9214150390625,-0.7486114501953125,-1.001739501953125,-0.0035247802734375
1789141055026386700,2.93138671875,-0.54443359375,-0.9591217041015625,-0.145751953125
1789141055036359000,2.94135888671875,-0.2401580810546875,-0.9230804443359375,0.0041046142578125
1789141055046332000,2.951331787109375,-0.2258148193359375,-0.7408447265625,-0.0410003662109375
1789141055056303600,2.9613037109375,-0.3359222412109375,-0.695709228515625,-0.019744873046875
1789141055066275800,2.97127587890625,-0.45703125,-0.679473876953125,0.0349884033203125
1789141055076248800,2.981248779296875,-0.6366424560546875,-0.747467041015625,-0.00689697265625
1789141055086220800,2.991220703125,-0.8947601318359375,-0.7500152587890625,-0.0592193603515625
1789141055096193800,3.00119384765625,-0.9944610595703125,-0.834716796875,-0.0606689453125
1789141055106166800,3.011166748046875,-1.0195770263671875,-0.90374755859375,-0.0986175537109375
1789141055116139000,3.021138916015625,-0.7796173095703125,-0.99737548828125,-0.094329833984375
1789141055126111700,3.03111181640625,-0.5961151123046875,-0.9832000732421875,-0.06890869140625
1789141055136084000,3.041083984375,-0.3380889892578125,-0.86773681640625,-0.016265869140625
1789141055146056000,3.051055908203125,-0.126617431640625,-0.7990570068359375,-0.011474609375
1789141055156028700,3.061028564453125,-0.12933349609375,-0.7469635009765625,0.05419921875
1789141055166001000,3.0710009765625,-0.365234375,-0.73724365234375,0.1242218017578125
1789141055175972900,3.080972900390625,-0.645538330078125,-0.665069580078125,0.113433837890625
1789141055185945900,3.09094580078125,-0.914031982421875,-0.55426025390625,-0.001983642578125
1789141055195917800,3.100917724609375,-0.8425445556640625,-0.623687744140625,-0.05804443359375
1789141055205890000,3.11089013671875,-0.5257110595703125,-0.775299072265625,-0.1001739501953125
1789141055215862800,3.12086279296875,-0.54833984375,-0.6311187744140625,-0.178131103515625
1789141055225834800,3.130834716796875,-0.6378631591796875,-0.523101806640625,-0.2174835205078125
1789141055235808000,3.14080810546875,-0.395172119140625,-0.6369476318359375,-0.08013916015625
1789141055245779700,3.15077978515625,-0.3500518798828125,-0.614959716796875,-0.0859222412109375
1789141055255752000,3.160751953125,-0.313201904296875,-0.676239013671875,-0.0193939208984375
1789141055265725000,3.170724853515625,-0.5214691162109375,-0.806365966796875,0.0626373291015625
1789141055275696600,3.180696533203125,-0.6217041015625,-0.9829864501953125,0.075775146484375
1789141055285668900,3.1906689453125,-0.7352142333984375,-1.0697174072265625,-0.0224609375
1789141055295641900,3.200641845703125,-0.690460205078125,-1.1285552978515625,-0.0461578369140625
1789141055305613800,3.21061376953125,-0.8156280517578125,-0.99383544921875,-0.0735626220703125
1789141055315585800,3.220585693359375,-0.8020782470703125,-0.9157562255859375,-0.0477142333984375
1789141055325558800,3.230558837890625,-0.7325439453125,-0.8089752197265625,-0.1429443359375
1789141055335530800,3.24053076171875,-0.6044464111328125,-0.7260284423828125,-0.0894622802734375
1789141055345503000,3.2505029296875,-0.4391632080078125,-0.7094573974609375,-0.1222381591796875
1789141055355476000,3.26047607421875,-0.431884765625,-0.73516845703125,-0.0730438232421875
1789141055365447700,3.27044775390625,-0.34991455078125,-0.9182586669921875,-0.0675811767578125
1789141055375421000,3.2804208984375,-0.4442901611328125,-0.9311676025390625,0.0040740966796875
1789141055385393000,3.290392822265625,-0.3688507080078125,-0.99444580078125,-0.0667266845703125
1789141055395364900,3.30036474609375,-0.3261871337890625,-1.111419677734375,-0.060821533203125
1789141055405337900,3.310337890625,-0.4535064697265625,-0.9751739501953125,-0.02996826171875
1789141055415309800,3.320309814453125,-0.6649322509765625,-0.792236328125,-0.1048736572265625
1789141055425281800,3.33028173828125,-0.5457305908203125,-0.82586669921875,-0.0810089111328125
1789141055435254800,3.3402548828125,-0.637664794921875,-0.6999053955078125,-0.034027099609375
1789141055445227000,3.35022705078125,-0.7231292724609375,-0.61529541015625,-0.0886077880859375
1789141055455198700,3.36019873046875,-0.858795166015625,-0.6682281494140625,-0.128173828125
1789141055465171700,3.370171630859375,-0.8690338134765625,-0.8141937255859375,-0.06280517578125
1789141055475144000,3.38014404296875,-0.848663330078125,-0.916015625,-0.0451202392578125
1789141055485115600,3.39011572265625,-0.7679901123046875,-0.914306640625,-0.0781097412109375
1789141055495089000,3.4000888671875,-0.68408203125,-0.896514892578125,0.0455322265625
1789141055505060900,3.410060791015625,-0.340728759765625,-0.8574371337890625,-0.0565338134765625
1789141055515033900,3.420033935546875,-0.1847381591796875,-0.67010498046875,-0.0168914794921875
1789141055525005800,3.430005859375,0.030059814453125,-0.6515045166015625,-0.1194000244140625
1789141055534977800,3.439977783203125,-0.0415802001953125,-0.5662078857421875,-0.0178070068359375
1789141055544950800,3.44995068359375,-0.2571868896484375,-0.508758544921875,-0.0359649658203125
1789141055554922800,3.4599228515625,-0.371063232421875,-0.621978759765625,-0.00750732421875
1789141055564895000,3.46989501953125,-0.4695281982421875,-0.7246551513671875,0.0030670166015625
1789141055574867700,3.47986767578125,-0.7091827392578125,-0.807464599609375,-0.0321197509765625
1789141055584840000,3.48983984375,-0.8038482666015625,-0.9588775634765625,-0.0871124267578125
1789141055594812000,3.49981201171875,-0.6372528076171875,-0.97210693359375,-0.10235595703125
1789141055604784600,3.50978466796875,-0.7873992919921875,-0.83514404296875,-0.0993804931640625
1789141055614756900,3.5197568359375,-0.906341552734375,-0.7984466552734375,-0.136474609375
1789141055624728800,3.529728759765625,-0.7684783935546875,-0.9727020263671875,-0.0657958984375
1789141055634701800,3.539701904296875,-0.96551513671875,-0.8514862060546875,-0.091094970703125
1789141055644673800,3.549673828125,-0.769256591796875,-0.935272216796875,-0.088043212890625
1789141055654646800,3.559646728515625,-0.71282958984375,-0.92291259765625,-0.077301025390625
1789141055664618800,3.56961865234375,-0.58013916015625,-0.951141357421875,-0.1180877685546875
1789141055674590700,3.5795908203125,-0.5633697509765625,-0.88409423828125,-0.1039886474609375
1789141055684564000,3.58956396484375,-0.41400146484375,-0.9397125244140625,-0.1139678955078125
1789141055694535700,3.59953564453125,-0.40570068359375,-0.8741912841796875,-0.067169189453125
1789141055704508000,3.6095078125,-0.5662994384765625,-0.750579833984375,0.04217529296875
1789141055714481000,3.61948095703125,-0.54742431640625,-0.7884979248046875,0.033599853515625
1789141055724452600,3.62945263671875,-0.5563201904296875,-0.8552093505859375,-0.0059356689453125
1789141055734424800,3.6394248046875,-0.648956298828125,-0.8138275146484375,0.0230560302734375
1789141055744397800,3.649397705078125,-0.85333251953125,-0.72564697265625,-0.0805511474609375
1789141055754369800,3.659369873046875,-0.6619720458984375,-0.907501220703125,-0.1578521728515625
1789141055764341800,3.669341796875,-0.6295928955078125,-0.914581298828125,-0.0570831298828125
1789141055774315000,3.67931494140625,-0.4913330078125,-0.886199951171875,-0.0474853515625
1789141055784286700,3.68928662109375,-0.5631256103515625,-0.66741943359375,-0.1330108642578125
1789141055794259700,3.699259765625,-0.5532073974609375,-0.6457366943359375,-0.045501708984375
1789141055804232000,3.70923193359375,-0.467559814453125,-0.65875244140625,0.02044677734375
1789141055814203600,3.71920361328125,-0.5476531982421875,-0.57391357421875,0.0003662109375
1789141055824177000,3.729177001953125,-0.695709228515625,-0.5649261474609375,0.041168212890625
1789141055834148900,3.73914892578125,-0.6846923828125,-0.7457275390625,-0.0246124267578125
1789141055844120800,3.749120849609375,-0.678253173828125,-0.729766845703125,-0.058990478515625
1789141055854093800,3.75909375,-0.617462158203125,-0.7685089111328125,-0.087371826171875
1789141055864065800,3.769065673828125,-0.5625457763671875,-0.84539794921875,-0.1022186279296875
1789141055874037800,3.779037841796875,-0.430755615234375,-0.8540496826171875,-0.097076416015625
1789141055884010800,3.7890107421875,-0.4894561767578125,-0.864410400390625,-0.0184783935546875
1789141055893983000,3.79898291015625,-0.4237213134765625,-0.954864501953125,-0.0101776123046875
1789141055903954700,3.80895458984375,-0.46673583984375,-0.88751220703125,0.0413970947265625
1789141055913927700,3.818927734375,-0.485626220703125,-0.95574951171875,0.053802490234375
1789141055923900000,3.82889990234375,-0.4473876953125,-0.9964141845703125,0.0875244140625
1789141055933873000,3.838872802734375,-0.5074920654296875,-0.98492431640625,0.0562591552734375
1789141055943844900,3.848844970703125,-0.6941680908203125,-0.959808349609375,-0.032745361328125
1789141055953816800,3.85881689453125,-0.6290435791015625,-0.905914306640625,0.0005340576171875
1789141055963789800,3.868789794921875,-0.642974853515625,-0.862060546875,0.036712646484375
1789141055973761800,3.87876171875,-0.5218658447265625,-0.8946075439453125,-0.0540313720703125
1789141055983734000,3.888734130859375,-0.4996185302734375,-0.87103271484375,0.016204833984375
1789141055993707000,3.89870703125,-0.5182952880859375,-0.8488006591796875,-0.0398712158203125
1789141056003678700,3.9086787109375,-0.5087432861328125,-0.9499969482421875,-0.0229034423828125
1789141056013651000,3.91865087890625,-0.44915771484375,-1.0672454833984375,-0.019500732421875
1789141056023624000,3.9286240234375,-0.6554718017578125,-0.9312744140625,-0.0634765625
1789141056033596000,3.938595947265625,-0.7215576171875,-0.9189605712890625,-0.079254150390625
1789141056043569000,3.94856884765625,-0.68658447265625,-0.932373046875,-0.038177490234375
1789141056053540900,3.958540771484375,-0.6151123046875,-0.8787689208984375,-0.1030426025390625
1789141056063512800,3.968512939453125,-0.5017547607421875,-0.7740325927734375,-0.0623931884765625
1789141056073485800,3.97848583984375,-0.5056304931640625,-0.714263916015625,-0.1113128662109375
1789141056083458000,3.9884580078125,-0.487152099609375,-0.6892852783203125,-0.03814697265625
1789141056093429500,3.998429443359375,-0.455810546875,-0.734344482421875,0.0109710693359375
1789141056103402500,4.008402587890625,-0.5281829833984375,-0.73455810546875,0.02264404296875
1789141056113374700,4.018374755859375,-0.5318756103515625,-0.7384796142578125,-0.01318359375
1789141056123346700,4.0283466796875,-0.599212646484375,-0.7409820556640625,-0.0321197509765625
1789141056133319700,4.038319580078125,-0.6360626220703125,-0.83062744140625,0.001983642578125
1789141056143291400,4.04829150390625,-0.647857666015625,-0.8330078125,-0.0290374755859375
1789141056153263600,4.058263671875,-0.6538543701171875,-0.7928009033203125,0.05078125
1789141056163236600,4.068236572265625,-0.709564208984375,-0.7697906494140625,0.0101165771484375
1789141056173208600,4.07820849609375,-0.5591583251953125,-0.80615234375,0.0176239013671875
1789141056183180500,4.0881806640625,-0.5616607666015625,-0.8067474365234375,0.0217132568359375
1789141056193153500,4.098153564453125,-0.5638885498046875,-0.7885284423828125,0.020965576171875
1789141056203125500,4.10812548828125,-0.4756011962890625,-0.802947998046875,-0.0229949951171875
1789141056213098500,4.118098388671875,-0.48748779296875,-0.77294921875,-0.048431396484375
1789141056223070700,4.12807080078125,-0.4413909912109375,-0.8800811767578125,-0.021881103515625
1789141056233042400,4.13804248046875,-0.509368896484375,-0.930694580078125,-0.0294647216796875
1789141056243015400,4.148015380859375,-0.5565185546875,-0.848236083984375,-0.0479583740234375
1789141056252987600,4.157987548828125,-0.632232666015625,-0.801361083984375,-0.0491485595703125
1789141056262959400,4.16795947265625,-0.5448760986328125,-0.898956298828125,-0.1588592529296875
1789141056272932600,4.1779326171875,-0.5664825439453125,-0.835052490234375,0.0061187744140625
1789141056282904600,4.187904541015625,-0.7519683837890625,-0.744842529296875,-0.0459136962890625
1789141056292876500,4.19787646484375,-0.625,-0.8638458251953125,-0.1039581298828125
1789141056302849500,4.207849609375,-0.6634368896484375,-0.9133758544921875,-0.0006866455078125
1789141056312821500,4.217821533203125,-0.666839599609375,-0.898529052734375,-0.05859375
1789141056322793500,4.22779345703125,-0.5878143310546875,-0.8277130126953125,-0.1190185546875
1789141056332766500,4.237766357421875,-0.57568359375,-0.754486083984375,-0.0723724365234375
1789141056342738700,4.24773876953125,-0.4188385009765625,-0.8473663330078125,-0.081787109375
1789141056352711700,4.257711669921875,-0.441619873046875,-0.8004302978515625,0.02880859375
1789141056362683600,4.26768359375,-0.612579345703125,-0.719085693359375,-0.0067596435546875
1789141056372655600,4.277655517578125,-0.5908355712890625,-0.7853851318359375,0.0011138916015625
1789141056382628600,4.287628662109375,-0.616607666015625,-0.80780029296875,-0.0198822021484375
1789141056392600600,4.2976005859375,-0.68389892578125,-0.7410430908203125,-0.0767822265625
1789141056402572500,4.307572509765625,-0.667999267578125,-0.8159332275390625,-0.0525970458984375
1789141056412545800,4.3175458984375,-0.7186279296875,-0.8030853271484375,-0.0523223876953125
1789141056422517500,4.327517578125,-0.75445556640625,-0.7220001220703125,-0.0374755859375
1789141056432489700,4.33748974609375,-0.6168670654296875,-0.779205322265625,0.0168609619140625
1789141056442462700,4.347462646484375,-0.5456085205078125,-0.804229736328125,-0.0879669189453125
1789141056452434400,4.357434326171875,-0.503387451171875,-0.7621612548828125,-0.1049346923828125
1789141056462406700,4.36740673828125,-0.5835723876953125,-0.77313232421875,-0.034332275390625
1789141056472379600,4.377379638671875,-0.4609832763671875,-0.7963714599609375,-0.0833892822265625
1789141056482351600,4.3873515625,-0.522247314453125,-0.7397918701171875,-0.1257171630859375
1789141056492324600,4.39732470703125,-0.4611663818359375,-0.8412628173828125,-0.0841217041015625
1789141056502296600,4.407296630859375,-0.5580902099609375,-0.81591796875,-0.05584716796875
1789141056512268500,4.4172685546875,-0.609954833984375,-0.748809814453125,-0.161102294921875
1789141056522241500,4.427241455078125,-0.563323974609375,-0.849945068359375,0.0005950927734375
1789141056532213800,4.4372138671875,-0.502532958984375,-0.80706787109375,-0.1227569580078125
1789141056542185500,4.447185546875,-0.6253814697265625,-0.6954498291015625,-0.1684722900390625
1789141056552158700,4.45715869140625,-0.5697784423828125,-0.8076019287109375,-0.0688323974609375
1789141056562130700,4.467130615234375,-0.527496337890625,-0.912811279296875,-0.0582733154296875
1789141056572102700,4.4771025390625,-0.69110107421875,-0.9065093994140625,-0.1196136474609375
1789141056582075600,4.48707568359375,-0.656005859375,-0.9398193359375,0.021942138671875
1789141056592047600,4.497047607421875,-0.6434783935546875,-0.95172119140625,0.019012451171875
1789141056602019600,4.50701953125,-0.4384307861328125,-0.9874267578125,-0.0016937255859375
1789141056611992600,4.51699267578125,-0.5283050537109375,-0.8092803955078125,-0.0575714111328125
1789141056621964800,4.52696484375,-0.52374267578125,-0.76202392578125,-0.0684967041015625
1789141056631937500,4.5369375,-0.4890899658203125,-0.8066558837890625,-0.0921783447265625
1789141056641909500,4.546909423828125,-0.602508544921875,-0.786376953125,-0.1385040283203125
1789141056651881700,4.5568818359375,-0.6309051513671875,-0.805633544921875,-0.048583984375
1789141056661854500,4.5668544921875,-0.673187255859375,-0.7728271484375,-0.101165771484375
1789141056671826700,4.57682666015625,-0.5529022216796875,-0.8377227783203125,-0.0346832275390625
1789141056681798700,4.586798583984375,-0.531463623046875,-0.927703857421875,-0.1172332763671875
1789141056691771400,4.596771484375,-0.6647186279296875,-0.8437652587890625,-0.10345458984375
1789141056701743600,4.60674365234375,-0.7027587890625,-0.786224365234375,-0.042449951171875
1789141056711715600,4.616715576171875,-0.580322265625,-0.9059295654296875,-0.0054779052734375
1789141056721688600,4.6266884765625,-0.5715789794921875,-0.8901824951171875,-0.035919189453125
1789141056731660500,4.63666064453125,-0.55511474609375,-0.80279541015625,-0.0087432861328125
1789141056741632800,4.6466328125,-0.491546630859375,-0.7847747802734375,-0.037628173828125
1789141056751605500,4.65660546875,-0.49749755859375,-0.77252197265625,-0.0960540771484375
1789141056761577700,4.66657763671875,-0.458160400390625,-0.7966461181640625,-0.1112823486328125
1789141056771550700,4.67655078125,-0.4994049072265625,-0.8120880126953125,-0.1101837158203125
1789141056781522400,4.6865224609375,-0.4732513427734375,-0.785186767578125,-0.0233306884765625
1789141056791494700,4.69649462890625,-0.5282745361328125,-0.78167724609375,-0.017181396484375
1789141056801467600,4.706467529296875,-0.4163970947265625,-0.878448486328125,-0.129791259765625
1789141056811439600,4.716439697265625,-0.63092041015625,-0.747161865234375,-0.05621337890625
1789141056821411600,4.72641162109375,-0.7181854248046875,-0.7003326416015625,-0.0383148193359375
1789141056831384600,4.736384521484375,-0.7108154296875,-0.8225860595703125,-0.0770263671875
1789141056841356500,4.7463564453125,-0.659637451171875,-0.9105377197265625,0.0108184814453125
1789141056851328500,4.75632861328125,-0.645233154296875,-0.9441070556640625,-0.0811920166015625
1789141056861301800,4.7663017578125,-0.6029815673828125,-0.8618011474609375,-0.113067626953125
1789141056871273500,4.7762734375,-0.5873870849609375,-0.822052001953125,-0.0373687744140625
1789141056881245700,4.78624560546875,-0.4665679931640625,-0.860015869140625,-0.077545166015625
1789141056891218700,4.79621875,-0.5660400390625,-0.7993011474609375,-0.0145721435546875
1789141056901190400,4.8061904296875,-0.6259613037109375,-0.822601318359375,0.007781982421875
1789141056911163600,4.81616357421875,-0.6266632080078125,-0.90386962890625,0.0460662841796875
1789141056921135600,4.826135498046875,-0.6313629150390625,-0.894805908203125,0.0096588134765625
1789141056931107600,4.836107666015625,-0.658050537109375,-0.848236083984375,-0.0333709716796875
1789141056941080600,4.84608056640625,-0.52642822265625,-0.8708343505859375,-0.0632476806640625
1789141056951052500,4.856052490234375,-0.5380096435546875,-0.774505615234375,-0.096038818359375
1789141056961024500,4.8660244140625,-0.589599609375,-0.749755859375,-0.0649566650390625
1789141056970997500,4.87599755859375,-0.530975341796875,-0.837982177734375,0.0655670166015625
1789141056980969700,4.8859697265625,-0.568389892578125,-0.8477325439453125,0.0347900390625
1789141056990941400,4.89594140625,-0.6743316650390625,-0.790924072265625,0.02960205078125
1789141057000914700,4.905914794921875,-0.5737152099609375,-0.823089599609375,0.0726776123046875
1789141057010886700,4.91588671875,-0.55572509765625,-0.7843017578125,0.0014190673828125
1789141057020858600,4.925858642578125,-0.5950775146484375,-0.7276153564453125,0.0327301025390625
1789141057030831600,4.93583154296875,-0.4842529296875,-0.833038330078125,-0.0511627197265625
1789141057040803600,4.945803466796875,-0.5479736328125,-0.7665557861328125,0.0427398681640625
1789141057050776600,4.955776611328125,-0.5785064697265625,-0.74371337890625,-0.04547119140625
1789141057060748500,4.96574853515625,-0.58740234375,-0.76873779296875,-0.079742431640625
1789141057070720800,4.975720703125,-0.5941009521484375,-0.714599609375,-0.059722900390625
1789141057080693500,4.985693603515625,-0.632843017578125,-0.7278900146484375,-0.013092041015625
1789141057090665500,4.99566552734375,-0.4942474365234375,-0.9079437255859375,-0.0830230712890625
1789141057100637200,5.00563720703125,-0.560882568359375,-0.787841796875,-0.0272064208984375
1789141057110610000,5.01560986328125,-0.6463165283203125,-0.8318939208984375,-0.1520843505859375
1789141057120582100,5.02558203125,-0.5317840576171875,-0.9253082275390625,-0.080810546875
1789141057130554000,5.03555419921875,-0.545623779296875,-0.9098663330078125,-0.0983428955078125
1789141057140527000,5.045527099609375,-0.538909912109375,-0.8681640625,-0.067108154296875
1789141057150499000,5.0554990234375,-0.495758056640625,-0.810516357421875,-0.1202392578125
1789141057160471300,5.06547119140625,-0.3779449462890625,-0.8165740966796875,-0.070068359375
1789141057170444000,5.075444091796875,-0.4578399658203125,-0.8125762939453125,-0.070587158203125
1789141057180416000,5.085416015625,-0.487030029296875,-0.8052825927734375,-0.00811767578125
1789141057190388200,5.09538818359375,-0.5453338623046875,-0.8274688720703125,0.0008087158203125
1789141057200361000,5.10536083984375,-0.701171875,-0.854400634765625,-0.0278778076171875
1789141057210333200,5.115333251953125,-0.805145263671875,-0.9033966064453125,0.0284881591796875
1789141057220306200,5.12530615234375,-0.800140380859375,-0.877166748046875,0.0345458984375
1789141057230278000,5.13527783203125,-0.7520294189453125,-0.7999420166015625,0.01806640625
1789141057240250000,5.14525,-0.541717529296875,-0.8692474365234375,0.070526123046875
1789141057250223000,5.15522314453125,-0.4143218994140625,-0.898468017578125,-0.00372314453125
1789141057260195000,5.165195068359375,-0.460723876953125,-0.806549072265625,0.0376739501953125
1789141057270167000,5.1751669921875,-0.487091064453125,-0.7932281494140625,0.01953125
1789141057280140300,5.185140380859375,-0.4665679931640625,-0.82196044921875,0.0557861328125
1789141057290112000,5.195112060546875,-0.5621490478515625,-0.8194732666015625,-0.06341552734375
1789141057300084200,5.205084228515625,-0.6920623779296875,-0.7803802490234375,-0.0640106201171875
1789141057310057200,5.21505712890625,-0.8061065673828125,-0.752410888671875,-0.026336669921875
1789141057320029000,5.22502880859375,-0.6498260498046875,-0.8595733642578125,-0.096527099609375
1789141057330001200,5.235001220703125,-0.465362548828125,-0.9213714599609375,-0.1388092041015625
1789141057339974100,5.24497412109375,-0.51416015625,-0.8289337158203125,-0.077239990234375
1789141057349946000,5.254946044921875,-0.526702880859375,-0.736236572265625,-0.0993499755859375
1789141057359918000,5.26491796875,-0.47808837890625,-0.7259979248046875,-0.008209228515625
1789141057369891000,5.27489111328125,-0.452117919921875,-0.765106201171875,-0.022186279296875
1789141057379863000,5.284863037109375,-0.5721435546875,-0.7696380615234375,-0.0032806396484375
1789141057389836000,5.2948359375,-0.738372802734375,-0.804168701171875,-0.034454345703125
1789141057399808300,5.304808349609375,-0.7021942138671875,-0.8637542724609375,-0.0389556884765625
1789141057409780000,5.314780029296875,-0.6153717041015625,-0.8915557861328125,-0.06842041015625
1789141057419753000,5.3247529296875,-0.6420745849609375,-0.827301025390625,-0.015838623046875
1789141057429725200,5.33472509765625,-0.5717926025390625,-0.859283447265625,-0.0152587890625
1789141057439697200,5.344697265625,-0.5147552490234375,-0.834197998046875,0.032073974609375
1789141057449670100,5.354670166015625,-0.525390625,-0.7907867431640625,-0.0564727783203125
1789141057459642000,5.36464208984375,-0.4814910888671875,-0.804595947265625,0.0204315185546875
1789141057469614000,5.374614013671875,-0.4855804443359375,-0.8411865234375,0.0006256103515625
1789141057479587000,5.384587158203125,-0.4590301513671875,-0.85406494140625,-0.01165771484375
1789141057489559300,5.394559326171875,-0.585479736328125,-0.8229827880859375,-0.0757598876953125
1789141057499531000,5.404531005859375,-0.671142578125,-0.7727813720703125,-0.037841796875
1789141057509504000,5.41450390625,-0.628082275390625,-0.8111572265625,0.0106353759765625
1789141057519476200,5.424476318359375,-0.683502197265625,-0.8227386474609375,0.0458831787109375
1789141057529449000,5.434448974609375,-0.633056640625,-0.8602142333984375,-0.05859375
1789141057539421200,5.444421142578125,-0.693359375,-0.7704315185546875,-0.0543365478515625
1789141057549393200,5.45439306640625,-0.63189697265625,-0.871368408203125,-0.04052734375
1789141057559366000,5.464365966796875,-0.5450897216796875,-0.947967529296875,-0.0464019775390625
1789141057569338000,5.474338134765625,-0.6148681640625,-0.8289031982421875,-0.091522216796875
1789141057579310000,5.48431005859375,-0.5409088134765625,-0.803466796875,-0.0182342529296875
1789141057589283000,5.494282958984375,-0.53387451171875,-0.8452911376953125,-0.0657806396484375
1789141057599255000,5.504255126953125,-0.580535888671875,-0.774139404296875,-0.027130126953125
1789141057609227300,5.514227294921875,-0.590728759765625,-0.7942962646484375,-0.0681610107421875
1789141057619200000,5.524199951171875,-0.580902099609375,-0.771575927734375,-0.045989990234375
1789141057629172000,5.534171875,-0.7068634033203125,-0.6870574951171875,-0.08258056640625
1789141057639144200,5.544144287109375,-0.6597747802734375,-0.7683258056640625,-0.0316619873046875
1789141057649117000,5.554116943359375,-0.585357666015625,-0.877655029296875,-0.0715179443359375
1789141057659089200,5.564089111328125,-0.64935302734375,-0.8282470703125,0.043975830078125
1789141057669062100,5.574062255859375,-0.6259307861328125,-0.8894500732421875,-0.07952880859375
1789141057679034000,5.5840341796875,-0.588714599609375,-0.894134521484375,0.0095672607421875
1789141057689006000,5.594006103515625,-0.4835205078125,-0.8774261474609375,-0.0123748779296875
1789141057698979000,5.60397900390625,-0.4513397216796875,-0.811767578125,-0.05487060546875
1789141057708951000,5.613950927734375,-0.428131103515625,-0.810791015625,-0.0030670166015625
1789141057718923000,5.623923095703125,-0.36785888671875,-0.742889404296875,0.008148193359375
1789141057728896300,5.633896240234375,-0.3662567138671875,-0.6546783447265625,-0.1359100341796875
1789141057738868000,5.643867919921875,-0.45452880859375,-0.7285308837890625,-0.117462158203125
1789141057748840200,5.653840087890625,-0.6114044189453125,-0.72198486328125,-0.0251617431640625
1789141057758813200,5.663813232421875,-0.74755859375,-0.7985382080078125,-0.0134124755859375
1789141057768785000,5.673784912109375,-0.7424163818359375,-0.8992462158203125,-0.0354156494140625
1789141057778757000,5.683757080078125,-0.606475830078125,-0.9156646728515625,-0.033721923828125
1789141057788730000,5.693730224609375,-0.5127716064453125,-0.9488677978515625,-0.1058807373046875
1789141057798702000,5.7037021484375,-0.486968994140625,-0.9903106689453125,-0.06219482421875
1789141057808674000,5.713674072265625,-0.5502777099609375,-0.7342529296875,-0.0733184814453125
1789141057818647000,5.72364697265625,-0.402923583984375,-0.8321990966796875,-0.1047210693359375
1789141057828619000,5.733618896484375,-0.320831298828125,-0.8777313232421875,-0.1026763916015625
1789141057838592000,5.743592041015625,-0.4779510498046875,-0.767364501953125,0.0334625244140625
1789141057848564200,5.753564208984375,-0.6627655029296875,-0.716522216796875,-0.1049041748046875
1789141057858536000,5.763535888671875,-0.582763671875,-0.915008544921875,-0.139678955078125
1789141057868509000,5.773509033203125,-0.65753173828125,-0.8585052490234375,-0.090301513671875
1789141057878481200,5.783481201171875,-0.7883453369140625,-0.7233123779296875,-0.146453857421875
1789141057888453000,5.793453125,-0.75311279296875,-0.7644195556640625,-0.1749420166015625
1789141057898426000,5.803426025390625,-0.551483154296875,-0.922821044921875,0.021209716796875
1789141057908398000,5.813398193359375,-0.5638580322265625,-0.901580810546875,-0.06005859375
1789141057918370000,5.8233701171875,-0.6214752197265625,-0.7838592529296875,-0.07196044921875
1789141057928343000,5.833343017578125,-0.5359344482421875,-0.7335205078125,-0.0957183837890625
1789141057938315300,5.843315185546875,-0.2823028564453125,-0.8548126220703125,-0.1264801025390625
1789141057948287000,5.853286865234375,-0.3728485107421875,-0.8208770751953125,-0.1041259765625
1789141057958260000,5.863260009765625,-0.569244384765625,-0.790863037109375,-0.062530517578125
1789141057968232200,5.873232177734375,-0.64068603515625,-0.814727783203125,-0.0518341064453125
1789141057978204000,5.883203857421875,-0.7193450927734375,-0.7707672119140625,-0.0848388671875
1789141057988177200,5.89317724609375,-0.764984130859375,-0.7404022216796875,-0.0630950927734375
1789141057998149000,5.903149169921875,-0.7732086181640625,-0.7809600830078125,-0.105194091796875
1789141058008122000,5.9131220703125,-0.6979217529296875,-0.80792236328125,-0.1001739501953125
1789141058018094000,5.923093994140625,-0.5822906494140625,-0.81890869140625,-0.1113739013671875
1789141058028066000,5.933066162109375,-0.4429473876953125,-0.8470611572265625,-0.0848541259765625
1789141058038039300,5.943039306640625,-0.439849853515625,-0.807403564453125,-0.123565673828125
1789141058048011000,5.953010986328125,-0.39324951171875,-0.7893218994140625,-0.0585479736328125
1789141058057983200,5.962983154296875,-0.4664764404296875,-0.701934814453125,-0.037384033203125
1789141058067956200,5.972956298828125,-0.5274200439453125,-0.7042388916015625,-0.045501708984375
1789141058077928200,5.98292822265625,-0.6062469482421875,-0.7809600830078125,-0.0656585693359375
1789141058087900200,5.992900146484375,-0.6878509521484375,-0.7758026123046875,0.0197296142578125
1789141058097873200,6.002873046875,-0.7335052490234375,-0.7768402099609375,-0.019073486328125
1789141058107845400,6.012845458984375,-0.752410888671875,-0.815887451171875,0.0094146728515625
1789141058117817000,6.022817138671875,-0.72186279296875,-0.8182220458984375,-0.0767974853515625
1789141058127790300,6.032790283203125,-0.73663330078125,-0.783966064453125,-0.0485687255859375
1789141058137762300,6.04276220703125,-0.5559844970703125,-0.9001007080078125,-0.037567138671875
1789141058147735300,6.0527353515625,-0.467010498046875,-0.9459381103515625,-0.026275634765625
1789141058157707300,6.062707275390625,-0.5413818359375,-0.8057708740234375,0.0384063720703125
1789141058167679200,6.07267919921875,-0.5789642333984375,-0.7850799560546875,-0.024627685546875
1789141058177652500,6.082652587890625,-0.589996337890625,-0.7831573486328125,-0.06640625
1789141058187624200,6.092624267578125,-0.57403564453125,-0.8101043701171875,0.011016845703125
1789141058197596400,6.102596435546875,-0.6505889892578125,-0.7723541259765625,-0.055633544921875
1789141058207569400,6.1125693359375,-0.6825714111328125,-0.818145751953125,-0.089324951171875
1789141058217541000,6.122541015625,-0.59942626953125,-0.8737945556640625,-0.01470947265625
1789141058227513300,6.132513427734375,-0.5184326171875,-0.8708953857421875,-0.1022491455078125
1789141058237486300,6.142486328125,-0.5705413818359375,-0.760711669921875,-0.0926513671875
1789141058247458300,6.152458251953125,-0.5300445556640625,-0.7664642333984375,-0.0557861328125
1789141058257430300,6.16243017578125,-0.5343475341796875,-0.7374267578125,-0.033935546875
1789141058267403300,6.1724033203125,-0.5395050048828125,-0.8909454345703125,-0.0861663818359375
1789141058277375200,6.182375244140625,-0.6118011474609375,-0.839080810546875,-0.0508270263671875
1789141058287347200,6.19234716796875,-0.727874755859375,-0.7579803466796875,-0.127288818359375
1789141058297320400,6.202320556640625,-0.67218017578125,-0.87158203125,-0.0412139892578125
1789141058307292200,6.212292236328125,-0.5701904296875,-0.8696441650390625,-0.1072998046875
1789141058317265200,6.22226513671875,-0.59466552734375,-0.761688232421875,-0.1252288818359375
1789141058327237400,6.2322373046875,-0.527069091796875,-0.7985382080078125,-0.1254730224609375
1789141058337209300,6.242209228515625,-0.3855438232421875,-0.809326171875,-0.0388031005859375
1789141058347182300,6.252182373046875,-0.41070556640625,-0.82568359375,-0.032318115234375
1789141058357154300,6.262154296875,-0.4608306884765625,-0.9467010498046875,-0.07818603515625
1789141058367126300,6.272126220703125,-0.5786590576171875,-0.82037353515625,-0.054931640625
1789141058377099300,6.282099365234375,-0.614288330078125,-0.8765411376953125,-0.088958740234375
1789141058387071500,6.292071533203125,-0.5219268798828125,-0.9786529541015625,-0.0883331298828125
1789141058397043200,6.302043212890625,-0.5858001708984375,-0.8521575927734375,-0.0171966552734375
1789141058407016200,6.31201611328125,-0.76763916015625,-0.695404052734375,-0.0403289794921875
1789141058416988400,6.321988525390625,-0.56646728515625,-0.866455078125,0.0721435546875
1789141058426960100,6.331960205078125,-0.498626708984375,-0.846160888671875,0.0570220947265625
1789141058436933400,6.341933349609375,-0.6397552490234375,-0.748779296875,-0.0037689208984375
1789141058446905300,6.3519052734375,-0.63616943359375,-0.8109130859375,-0.042083740234375
1789141058456877300,6.361877197265625,-0.5144195556640625,-0.8905029296875,-0.0346527099609375
1789141058466850300,6.371850341796875,-0.374237060546875,-0.88140869140625,-0.015106201171875
1789141058476822300,6.381822265625,-0.5800323486328125,-0.7913055419921875,0.015472412109375
1789141058486795300,6.391795166015625,-0.5986328125,-0.824676513671875,0.0225067138671875
1789141058496767200,6.401767333984375,-0.4502716064453125,-0.90924072265625,0.086456298828125
1789141058506739200,6.4117392578125,-0.6143798828125,-0.800079345703125,-0.0259552001953125
1789141058516712200,6.421712158203125,-0.66217041015625,-0.80419921875,0.012725830078125
1789141058526684200,6.43168408203125,-0.5554046630859375,-0.8966522216796875,-0.0397186279296875
1789141058536656100,6.44165625,-0.543243408203125,-0.8588409423828125,-0.06292724609375
1789141058546629000,6.451629150390625,-0.59033203125,-0.7794036865234375,-0.0538787841796875
1789141058556601300,6.461601318359375,-0.511962890625,-0.8117523193359375,-0.0243072509765625
1789141058566573000,6.471572998046875,-0.50640869140625,-0.8290863037109375,-0.0528106689453125
1789141058576546300,6.48154638671875,-0.5409393310546875,-0.8204498291015625,-0.0023956298828125
1789141058586518300,6.491518310546875,-0.5612335205078125,-0.8662567138671875,-0.055938720703125
1789141058596490200,6.501490234375,-0.6565704345703125,-0.8336029052734375,-0.009368896484375
1789141058606463200,6.511463134765625,-0.6144866943359375,-0.8583221435546875,-0.0391082763671875
1789141058616435200,6.521435302734375,-0.5955047607421875,-0.83856201171875,-0.01226806640625
1789141058626407200,6.5314072265625,-0.51953125,-0.8502960205078125,-0.0352935791015625
1789141058636380200,6.541380126953125,-0.5871429443359375,-0.741729736328125,-0.035858154296875
1789141058646352400,6.551352294921875,-0.65374755859375,-0.7097320556640625,-0.0280609130859375
1789141058656325400,6.561325439453125,-0.566192626953125,-0.8199920654296875,0.0057525634765625
1789141058666297000,6.571297119140625,-0.594696044921875,-0.844940185546875,-0.0746002197265625
1789141058676269300,6.581269287109375,-0.6687774658203125,-0.7601318359375,-0.00579833984375
1789141058686242300,6.5912421875,-0.673004150390625,-0.8060302734375,-0.033416748046875
1789141058696214300,6.60121435546875,-0.6064453125,-0.845916748046875,-0.0456390380859375
1789141058706186200,6.611186279296875,-0.7201080322265625,-0.75146484375,-0.0210723876953125
1789141058716159200,6.6211591796875,-0.733001708984375,-0.7682647705078125,0.06927490234375
1789141058726131200,6.631131103515625,-0.6773834228515625,-0.806671142578125,0.0476226806640625
1789141058736103400,6.641103515625,-0.528106689453125,-0.868408203125,0.0291748046875
1789141058746076400,6.651076416015625,-0.487823486328125,-0.8198394775390625,-0.021575927734375
1789141058756048100,6.661048095703125,-0.5558624267578125,-0.7347564697265625,-0.107696533203125
1789141058766020400,6.671020263671875,-0.6016845703125,-0.7295379638671875,-0.0568389892578125
1789141058775993300,6.680993408203125,-0.500946044921875,-0.847625732421875,-0.109771728515625
1789141058785965300,6.69096533203125,-0.5846710205078125,-0.747833251953125,-0.004791259765625
1789141058795937300,6.700937255859375,-0.7042236328125,-0.6913299560546875,-0.0536651611328125
1789141058805910300,6.71091015625,-0.6599273681640625,-0.7925872802734375,-0.0733184814453125
1789141058815882200,6.72088232421875,-0.5377655029296875,-0.897705078125,-0.0352783203125
1789141058825855200,6.730855224609375,-0.59197998046875,-0.8205108642578125,0.007049560546875
1789141058835827500,6.740827392578125,-0.634674072265625,-0.8011627197265625,-0.064361572265625
1789141058845799200,6.750799072265625,-0.5615081787109375,-0.845794677734375,-0.0402679443359375
1789141058855772200,6.760772216796875,-0.4977264404296875,-0.7989044189453125,-0.0633087158203125
1789141058865744400,6.770744384765625,-0.4115142822265625,-0.8404388427734375,-0.085968017578125
1789141058875716000,6.780716064453125,-0.4806671142578125,-0.878143310546875,-0.0742950439453125
1789141058885689300,6.790689453125,-0.5200653076171875,-0.8243408203125,-0.03643798828125
1789141058895661300,6.800661376953125,-0.525390625,-0.830078125,-0.0748138427734375
1789141058905633300,6.81063330078125,-0.491485595703125,-0.8874969482421875,-0.0621337890625
1789141058915606300,6.820606201171875,-0.55657958984375,-0.7802276611328125,-0.048828125
1789141058925578200,6.830578125,-0.6100006103515625,-0.7240142822265625,-0.1366424560546875
1789141058935550200,6.84055029296875,-0.5959320068359375,-0.7952880859375,-0.041900634765625
1789141058945523200,6.850523193359375,-0.497955322265625,-0.8746795654296875,-0.05157470703125
1789141058955495400,6.860495361328125,-0.64227294921875,-0.79144287109375,-0.11395263671875
1789141058965468200,6.87046826171875,-0.7289581298828125,-0.8003692626953125,-0.0818634033203125
1789141058975440400,6.8804404296875,-0.55474853515625,-0.9273834228515625,-0.0364227294921875
1789141058985412400,6.890412353515625,-0.45794677734375,-0.8974151611328125,-0.066070556640625
1789141058995385000,6.900385009765625,-0.5670013427734375,-0.80206298828125,-0.035614013671875
1789141059005357300,6.910357421875,-0.53302001953125,-0.850250244140625,-0.0396270751953125
1789141059015329300,6.920329345703125,-0.4552459716796875,-0.8678131103515625,-0.075653076171875
1789141059025302300,6.93030224609375,-0.6127166748046875,-0.7706298828125,-0.0903167724609375
1789141059035274200,6.940274169921875,-0.700469970703125,-0.8269805908203125,-0.067138671875
1789141059045246500,6.95024658203125,-0.6358184814453125,-0.9139404296875,-0.113922119140625
1789141059055219200,6.96021923828125,-0.5995025634765625,-0.8949432373046875,-0.0343017578125
1789141059065191200,6.970191162109375,-0.5520477294921875,-0.81915283203125,-0.0435943603515625
1789141059075163400,6.980163330078125,-0.50384521484375,-0.8069305419921875,-0.113311767578125
1789141059085136100,6.99013623046875,-0.5636444091796875,-0.734954833984375,-0.095611572265625
1789141059095108000,7.000108154296875,-0.5089874267578125,-0.7994384765625,0.010040283203125
1789141059105080000,7.010080078125,-0.542388916015625,-0.8563995361328125,-0.08685302734375
1789141059115053000,7.020052978515625,-0.57781982421875,-0.8322906494140625,-0.104248046875
1789141059125025000,7.03002490234375,-0.704010009765625,-0.8114471435546875,-0.02825927734375
1789141059134997200,7.039997314453125,-0.4968719482421875,-0.9085845947265625,-0.0835723876953125
1789141059144970200,7.04997021484375,-0.5964202880859375,-0.822784423828125,-0.0801544189453125
1789141059154942000,7.05994189453125,-0.6493072509765625,-0.8260345458984375,-0.053955078125
1789141059164915200,7.069915283203125,-0.5958099365234375,-0.8327178955078125,-0.129058837890625
1789141059174887200,7.07988720703125,-0.635955810546875,-0.736358642578125,-0.1021881103515625
1789141059184859100,7.089859130859375,-0.47698974609375,-0.818603515625,-0.074493408203125
1789141059194832100,7.09983203125,-0.600494384765625,-0.7301177978515625,-0.1279296875
1789141059204804000,7.10980419921875,-0.6017303466796875,-0.73590087890625,0.03717041015625
1789141059214776000,7.119776123046875,-0.727325439453125,-0.782470703125,-0.08990478515625
1789141059224749000,7.1297490234375,-0.6734466552734375,-0.83905029296875,-0.0480804443359375
1789141059234721300,7.13972119140625,-0.7581634521484375,-0.829864501953125,-0.0641021728515625
1789141059244693000,7.14969287109375,-0.6204376220703125,-0.8843536376953125,-0.0657958984375
1789141059254666000,7.159666015625,-0.6052703857421875,-0.81402587890625,-0.0470123291015625
1789141059264638200,7.16963818359375,-0.4898681640625,-0.7954559326171875,-0.0202789306640625
1789141059274610000,7.17960986328125,-0.505615234375,-0.7218475341796875,-0.073211669921875
1789141059284583200,7.189583251953125,-0.4281463623046875,-0.7940673828125,-0.0528411865234375
1789141059294555100,7.19955517578125,-0.80047607421875,-0.802703857421875,0.0333709716796875
1789141059304527000,7.209527099609375,-0.8505706787109375,-0.851104736328125,0.0413360595703125
1789141059314500000,7.2195,-0.7852783203125,-0.8721160888671875,-0.0337982177734375
1789141059324472000,7.22947216796875,-0.4510345458984375,-0.8171539306640625,-0.12200927734375
1789141059334444000,7.239444091796875,-0.48150634765625,-0.82672119140625,-0.1120147705078125
1789141059344417000,7.2494169921875,-0.777099609375,-0.6898345947265625,-0.00970458984375
1789141059354389200,7.25938916015625,-0.399810791015625,-0.896514892578125,-0.074859619140625
1789141059364362200,7.2693623046875,-0.519500732421875,-0.7938079833984375,-0.056640625
1789141059374334200,7.279334228515625,-0.6358184814453125,-0.77752685546875,-0.0960235595703125
1789141059384306200,7.28930615234375,-0.450958251953125,-0.7768096923828125,-0.108428955078125
1789141059394279200,7.299279052734375,0.025054931640625,-0.8200225830078125,-0.1493072509765625
1789141059404251100,7.309251220703125,0.20098876953125,-0.666290283203125,-0.285400390625
1789141059414223000,7.31922314453125,-0.1309356689453125,-0.5996856689453125,-0.2422637939453125
1789141059424196400,7.3291962890625,-0.644561767578125,-0.6048431396484375,0.032012939453125
1789141059434168000,7.33916796875,-1.1357574462890625,-0.68853759765625,-0.0445556640625
1789141059444140300,7.349140380859375,-1.58367919921875,-0.703857421875,-0.019256591796875
1789141059454113300,7.35911328125,-0.7542266845703125,-1.1396026611328125,-0.0490570068359375
1789141059464085000,7.3690849609375,-0.7100067138671875,-0.8881378173828125,-0.2698822021484375
1789141059474057200,7.37905712890625,-0.9804229736328125,-0.7683868408203125,-0.259368896484375
1789141059484030200,7.3890302734375,-0.4866943359375,-1.1166534423828125,-0.10125732421875
1789141059494002200,7.399002197265625,-0.404876708984375,-0.85528564453125,-0.062896728515625
1789141059503974100,7.40897412109375,-0.2276458740234375,-0.7984161376953125,-0.0256805419921875
1789141059513947100,7.418947021484375,-0.14471435546875,-0.9186248779296875,0.12841796875
1789141059523919000,7.428919189453125,-0.37139892578125,-0.8604583740234375,0.206085205078125
1789141059533892000,7.43889208984375,-0.560333251953125,-0.8598785400390625,-0.018310546875
1789141059543864300,7.4488642578125,-0.7003326416015625,-0.86773681640625,0.096038818359375
1789141059553836000,7.4588359375,-0.636505126953125,-0.9105224609375,-0.094818115234375
1789141059563809300,7.468809326171875,-0.675994873046875,-0.8976287841796875,-0.09906005859375
1789141059573781200,7.47878125,-0.82757568359375,-0.844085693359375,-0.092803955078125
1789141059583753200,7.488753173828125,-0.9683685302734375,-0.6574859619140625,-0.0555877685546875
1789141059593726200,7.498726318359375,-0.51922607421875,-0.828399658203125,-0.0561370849609375
1789141059603698000,7.508697998046875,-0.2217254638671875,-0.8898468017578125,-0.0032501220703125
1789141059613670100,7.518670166015625,-0.3861083984375,-0.7522735595703125,0.003082275390625
1789141059623643100,7.52864306640625,-0.41607666015625,-0.825164794921875,-0.053253173828125
1789141059633615000,7.538614990234375,-0.33465576171875,-1.1405487060546875,0.0665130615234375
1789141059643587000,7.548587158203125,-0.641571044921875,-0.75030517578125,0.0577239990234375
1789141059653560000,7.55856005859375,-0.913604736328125,-0.5726165771484375,-0.0155181884765625
1789141059663532000,7.568531982421875,-0.9070587158203125,-0.4136810302734375,-0.023193359375
1789141059673504000,7.57850390625,-0.7957916259765625,-0.505096435546875,0.0020294189453125
1789141059683477200,7.588477294921875,-0.625579833984375,-0.59735107421875,-0.10504150390625
1789141059693449000,7.598448974609375,-0.424163818359375,-0.9146575927734375,0.0217132568359375
1789141059703422000,7.608421875,-0.3827667236328125,-1.105987548828125,-0.0582733154296875
1789141059713394200,7.618394287109375,-0.3955230712890625,-1.1454925537109375,-0.0181732177734375
1789141059723366100,7.6283662109375,-0.413330078125,-1.0702972412109375,-0.0216522216796875
1789141059733339100,7.638339111328125,-0.5013580322265625,-0.85894775390625,-0.0436859130859375
1789141059743311000,7.64831103515625,-0.5841522216796875,-0.69171142578125,-0.0600738525390625
1789141059753283000,7.658282958984375,-0.6898193359375,-0.57745361328125,0.0946807861328125
1789141059763256000,7.668256103515625,-0.70306396484375,-0.73675537109375,-0.0016021728515625
1789141059773228300,7.678228271484375,-0.7233734130859375,-0.8052825927734375,0.0052490234375
1789141059783200000,7.688199951171875,-0.6620635986328125,-0.95465087890625,-0.1255950927734375
1789141059793173000,7.698173095703125,-0.634918212890625,-0.9373626708984375,-0.0985565185546875
1789141059803145200,7.708145263671875,-0.5243377685546875,-0.9174346923828125,-0.1441192626953125
1789141059813117000,7.718116943359375,-0.5869293212890625,-0.7755889892578125,-0.0291900634765625
1789141059823090200,7.728090087890625,-0.5311737060546875,-0.8154144287109375,-0.01959228515625
1789141059833062100,7.738062255859375,-0.609100341796875,-0.867401123046875,0.01776123046875
1789141059843034000,7.7480341796875,-0.67889404296875,-0.8740692138671875,-0.0123748779296875
1789141059853007000,7.758007080078125,-0.8199462890625,-0.8099822998046875,-0.06201171875
1789141059862979000,7.76797900390625,-0.6952667236328125,-0.90081787109375,-0.07330322265625
1789141059872951000,7.777950927734375,-0.585113525390625,-0.8660125732421875,-0.0846099853515625
1789141059882924000,7.787924072265625,-0.5249481201171875,-0.7946624755859375,-0.026824951171875
1789141059892896300,7.797896240234375,-0.5243377685546875,-0.71990966796875,-0.0540008544921875
1789141059902869200,7.807869140625,-0.4654388427734375,-0.805908203125,-0.0233001708984375
1789141059912841000,7.817841064453125,-0.490936279296875,-0.7454833984375,-0.073883056640625
1789141059922813200,7.827813232421875,-0.4468994140625,-0.8195037841796875,-0.02618408203125
1789141059932786200,7.8377861328125,-0.5773162841796875,-0.6938323974609375,-0.0711822509765625
1789141059942758100,7.847758056640625,-0.6857452392578125,-0.7439117431640625,-0.0445709228515625
1789141059952730000,7.857730224609375,-0.693389892578125,-0.8589019775390625,-0.00787353515625
1789141059962703000,7.867703125,-0.7689208984375,-0.8614654541015625,0.0028533935546875
1789141059972675000,7.877675048828125,-0.829193115234375,-0.7540435791015625,-0.0366973876953125
1789141059982647300,7.887647216796875,-0.642547607421875,-0.924835205078125,-0.0288848876953125
1789141059992620300,7.897620361328125,-0.5677490234375,-0.817626953125,0.0255126953125
1789141060002592000,7.907592041015625,-0.530517578125,-0.7606964111328125,0.0805511474609375
1789141060012564200,7.917564208984375,-0.4352569580078125,-0.759613037109375,0.0365753173828125
1789141060022537200,7.927537109375,-0.32952880859375,-0.8072357177734375,0.0153961181640625
1789141060032509200,7.93750927734375,-0.43280029296875,-0.7764739990234375,-0.0597686767578125
1789141060042481200,7.947481201171875,-0.439605712890625,-0.9147186279296875,-0.0403289794921875
1789141060052454100,7.9574541015625,-0.591033935546875,-0.881134033203125,-0.0014801025390625
1789141060062426000,7.967426025390625,-0.717559814453125,-0.851593017578125,-0.0184783935546875
1789141060072398000,7.977398193359375,-0.752716064453125,-0.871246337890625,-0.032684326171875
1789141060082371300,7.987371337890625,-0.6975860595703125,-0.8736114501953125,0.0027923583984375
1789141060092343300,7.99734326171875,-0.580841064453125,-0.872100830078125,0.0800018310546875
1789141060102316000,8.00731591796875,-0.470489501953125,-0.9005584716796875,-0.065673828125
1789141060112288300,8.017288330078125,-0.4687652587890625,-0.8743896484375,0.010772705078125
1789141060122260200,8.02726025390625,-0.35760498046875,-0.9345703125,-0.0882415771484375
1789141060132233200,8.037233154296874,-0.417999267578125,-0.840850830078125,-0.0444793701171875
1789141060142205200,8.047205078125,-0.6678466796875,-0.8126373291015625,-0.0578460693359375
1789141060152177400,8.057177490234375,-0.4954376220703125,-0.8482208251953125,0.0103912353515625
1789141060162150100,8.067150146484375,-0.5494384765625,-0.791473388671875,-0.0035247802734375
1789141060172122400,8.077122314453124,-0.5423736572265625,-0.8460693359375,-0.054595947265625
1789141060182094300,8.08709423828125,-0.7207489013671875,-0.7869873046875,-0.12384033203125
1789141060192067000,8.097067138671875,-0.598388671875,-0.8333740234375,-0.04345703125
1789141060202039300,8.107039306640624,-0.5426177978515625,-0.8708343505859375,-0.13250732421875
1789141060212011000,8.117010986328125,-0.6233673095703125,-0.7876129150390625,-0.045166015625
1789141060221984300,8.126984375,-0.552215576171875,-0.8885498046875,0.0616302490234375
1789141060231956200,8.136956298828125,-0.6105804443359375,-0.9179534912109375,-0.0378875732421875
1789141060241928200,8.14692822265625,-0.694244384765625,-0.8026123046875,-0.070159912109375
1789141060251901200,8.156901123046875,-0.5765533447265625,-0.8492279052734375,-0.013397216796875
1789141060261873200,8.166873046875,-0.553497314453125,-0.89324951171875,-0.1287994384765625
1789141060271845000,8.17684521484375,-0.548248291015625,-0.8077850341796875,-0.0673675537109375
1789141060281818000,8.186818115234376,-0.4652099609375,-0.75958251953125,-0.02783203125
1789141060291790300,8.196790283203125,-0.4362335205078125,-0.8397369384765625,-0.0955047607421875
1789141060301763300,8.206763427734375,-0.53558349609375,-0.7955169677734375,-0.03173828125
1789141060311735000,8.216735107421876,-0.6530303955078125,-0.711669921875,0.0102081298828125
1789141060321707300,8.226707275390625,-0.695648193359375,-0.7738800048828125,-0.021087646484375
1789141060331680300,8.23668017578125,-0.7053070068359375,-0.8431396484375,0.034210205078125
1789141060341652200,8.24665234375,-0.638885498046875,-0.85858154296875,0.0479736328125
1789141060351624200,8.256624267578125,-0.6848907470703125,-0.7667999267578125,-0.032867431640625
1789141060361597200,8.26659716796875,-0.71343994140625,-0.7227630615234375,0.0683135986328125
1789141060371569200,8.276569091796874,-0.523773193359375,-0.841827392578125,-0.0121307373046875
1789141060381541400,8.286541259765626,-0.4809112548828125,-0.76708984375,0.004730224609375
1789141060391514400,8.296514404296875,-0.6737823486328125,-0.691131591796875,0.030181884765625
1789141060401486000,8.306486083984375,-0.569305419921875,-0.8343048095703125,-0.00970458984375
1789141060411458300,8.316458251953126,-0.5046539306640625,-0.898773193359375,-0.0111541748046875
1789141060421431300,8.326431396484375,-0.666351318359375,-0.7935333251953125,0.040130615234375
1789141060431403300,8.3364033203125,-0.635101318359375,-0.777496337890625,-0.0399169921875
1789141060441375200,8.346375244140624,-0.492218017578125,-0.78131103515625,-0.01751708984375
1789141060451348200,8.35634814453125,-0.50323486328125,-0.798858642578125,0.07147216796875
1789141060461320200,8.3663203125,-0.6349639892578125,-0.806549072265625,0.03778076171875
1789141060471292200,8.376292236328124,-0.6871337890625,-0.7864532470703125,-0.0312652587890625
1789141060481265400,8.386265380859374,-0.7030029296875,-0.860382080078125,0.003326416015625
1789141060491237000,8.396237060546875,-0.65423583984375,-0.88165283203125,-0.08673095703125
1789141060501210000,8.406210205078125,-0.5841827392578125,-0.8666229248046875,-0.08746337890625
1789141060511182300,8.416182373046874,-0.4840087890625,-0.8726654052734375,-0.046966552734375
1789141060521154000,8.426154052734375,-0.3740692138671875,-0.83001708984375,-0.05706787109375
1789141060531127300,8.436127197265625,-0.4485931396484375,-0.7282867431640625,-0.122650146484375
1789141060541099300,8.446099365234375,-0.5041046142578125,-0.771575927734375,0.0227508544921875
1789141060551071200,8.4560712890625,-0.581298828125,-0.7975616455078125,-0.0705718994140625
1789141060561044200,8.466044189453125,-0.754058837890625,-0.8061981201171875,-0.0308837890625
1789141060571016200,8.47601611328125,-0.6790618896484375,-0.8934173583984375,-0.084442138671875
1789141060580988200,8.48598828125,-0.631866455078125,-0.840057373046875,-0.0877532958984375
1789141060590961200,8.495961181640626,-0.5371856689453125,-0.8636474609375,-0.03302001953125
1789141060600933400,8.505933349609375,-0.4296722412109375,-0.8486480712890625,-0.068115234375
1789141060610905000,8.515905029296874,-0.4594268798828125,-0.749542236328125,-0.0390167236328125
1789141060620878300,8.52587841796875,-0.501556396484375,-0.7999420166015625,0.0355224609375
1789141060630850300,8.535850341796875,-0.5398101806640625,-0.872467041015625,0.012969970703125
1789141060640822300,8.545822265625,-0.5579681396484375,-0.8604736328125,-0.052734375
1789141060650795300,8.555795166015624,-0.655609130859375,-0.836212158203125,-0.0724945068359375
1789141060660767200,8.565767333984375,-0.694427490234375,-0.851898193359375,-0.03985595703125
1789141060670739200,8.5757392578125,-0.504119873046875,-0.9192657470703125,-0.0269622802734375
1789141060680712200,8.585712158203124,-0.5998992919921875,-0.8004608154296875,-0.0514678955078125
1789141060690684400,8.595684326171876,-0.530120849609375,-0.8224334716796875,-0.0600128173828125
1789141060700657200,8.6056572265625,-0.526641845703125,-0.8420867919921875,0.0334014892578125
1789141060710629000,8.615629150390625,-0.594512939453125,-0.81646728515625,-0.046356201171875
1789141060720601300,8.625601318359376,-0.597442626953125,-0.815093994140625,0.0450439453125
1789141060730574000,8.635573974609375,-0.599853515625,-0.9472808837890625,0.0770111083984375
1789141060740546300,8.64554638671875,-0.64031982421875,-0.9095001220703125,-0.00030517578125
1789141060750518300,8.655518310546874,-0.63262939453125,-0.8696136474609375,0.0119171142578125
1789141060760491000,8.665490966796876,-0.7328643798828125,-0.80572509765625,0.0706939697265625
1789141060770463200,8.675463134765625,-0.5400238037109375,-0.8381805419921875,-0.0184783935546875
1789141060780435200,8.685435302734374,-0.553497314453125,-0.7351837158203125,0.07611083984375
1789141060790408200,8.695408203125,-0.436309814453125,-0.8594970703125,-0.040740966796875
1789141060800380200,8.705380126953125,-0.4122467041015625,-0.820526123046875,0.0347900390625
1789141060810352400,8.715352294921875,-0.4536895751953125,-0.790985107421875,-0.0370330810546875
1789141060820325000,8.7253251953125,-0.5067596435546875,-0.7793731689453125,0.0778350830078125
1789141060830297300,8.73529736328125,-0.5205535888671875,-0.8672943115234375,-0.03704833984375
1789141060840269300,8.745269287109375,-0.8784942626953125,-0.709014892578125,0.0766143798828125
1789141060850242000,8.755241943359374,-0.844451904296875,-0.799285888671875,-0.0129241943359375
1789141060860214300,8.76521435546875,-0.702484130859375,-0.7763671875,0.00775146484375
1789141060870186200,8.775186279296875,-0.4927825927734375,-0.85748291015625,-0.1338653564453125
1789141060880159200,8.7851591796875,-0.5465850830078125,-0.7955474853515625,-0.04595947265625
1789141060890131200,8.795131103515626,-0.504058837890625,-0.8433990478515625,0.0075225830078125
1789141060900104200,8.805104248046876,-0.39056396484375,-0.8383331298828125,0.032958984375
1789141060910076200,8.815076171875,-0.3919677734375,-0.823028564453125,-0.0617218017578125
1789141060920048000,8.825048095703124,-0.534637451171875,-0.6849212646484375,-0.0367431640625
1789141060930021400,8.835021484375,-0.672149658203125,-0.67755126953125,0.0211944580078125
1789141060939993000,8.8449931640625,-0.729461669921875,-0.712158203125,-0.051788330078125
1789141060949965300,8.85496533203125,-0.63543701171875,-0.7999267578125,0.0205841064453125
1789141060959938300,8.864938232421874,-0.78094482421875,-0.75372314453125,-0.0175323486328125
1789141060969910300,8.87491015625,-0.8042449951171875,-0.7542877197265625,0.0136871337890625
1789141060979882200,8.88488232421875,-0.650604248046875,-0.844757080078125,-0.0659332275390625
1789141060989855200,8.894855224609374,-0.6314849853515625,-0.799896240234375,-0.08203125
1789141060999827200,8.9048271484375,-0.6536712646484375,-0.7767333984375,-0.1126251220703125
1789141061009799200,8.914799072265625,-0.612823486328125,-0.8561248779296875,-0.084747314453125
1789141061019772400,8.9247724609375,-0.5799407958984375,-0.8479461669921875,-0.1632232666015625
1789141061029744000,8.934744140625,-0.6206512451171875,-0.823028564453125,-0.1401214599609375
1789141061039716400,8.94471630859375,-0.530181884765625,-0.9334259033203125,-0.177490234375
1789141061049689300,8.954689453125,-0.6186676025390625,-0.820220947265625,-0.1078643798828125
1789141061059661000,8.9646611328125,-0.6883392333984375,-0.761138916015625,-0.199737548828125
1789141061069633300,8.97463330078125,-0.5929718017578125,-0.7916107177734375,-0.1363372802734375
1789141061079606300,8.984606201171875,-0.5129241943359375,-0.7830963134765625,-0.0694427490234375
1789141061089578200,8.994578125,-0.488739013671875,-0.834686279296875,-0.1852264404296875
1789141061099550700,9.00455078125,-0.4993743896484375,-0.827911376953125,-0.069244384765625
1789141061109523700,9.014523681640625,-0.4415435791015625,-0.868560791015625,-0.13177490234375
1789141061119495700,9.02449560546875,-0.46539306640625,-0.8659210205078125,-0.0902557373046875
1789141061129468700,9.03446875,-0.5453033447265625,-0.812164306640625,-0.090545654296875
1789141061139441000,9.04444091796875,-0.5360260009765625,-0.7722625732421875,-0.1062469482421875
1789141061149412600,9.05441259765625,-0.59527587890625,-0.840301513671875,-0.1036376953125
1789141061159385600,9.064385498046875,-0.6373748779296875,-0.807281494140625,-0.087005615234375
1789141061169357800,9.07435791015625,-0.6412506103515625,-0.799041748046875,-0.0860595703125
1789141061179329500,9.08432958984375,-0.58740234375,-0.8882293701171875,0.0098114013671875
1789141061189302800,9.094302734375,-0.5127410888671875,-0.84417724609375,0.0296173095703125
1789141061199274800,9.104274658203124,-0.4927978515625,-0.78570556640625,-0.113128662109375
1789141061209246700,9.114246826171875,-0.4860687255859375,-0.847076416015625,-0.01702880859375
1789141061219219700,9.1242197265625,-0.4819183349609375,-0.868865966796875,0.0366973876953125
1789141061229191700,9.134191650390624,-0.55377197265625,-0.870849609375,-0.0774993896484375
1789141061239163600,9.14416357421875,-0.7198333740234375,-0.828155517578125,0.0284271240234375
1789141061249136600,9.15413671875,-0.65728759765625,-0.93048095703125,0.0318756103515625
1789141061259108900,9.16410888671875,-0.57781982421875,-0.923126220703125,0.0163116455078125
1789141061269080600,9.17408056640625,-0.6332244873046875,-0.8279876708984375,0.0515594482421875
1789141061279053600,9.184053466796875,-0.4853363037109375,-0.880828857421875,0.00042724609375
1789141061289025800,9.19402587890625,-0.342559814453125,-0.934814453125,-0.1009063720703125
1789141061298997800,9.203997802734374,-0.4413909912109375,-0.8396759033203125,-0.0558319091796875
1789141061308970800,9.213970703125,-0.5923919677734375,-0.74456787109375,-0.0722808837890625
1789141061318942700,9.223942626953125,-0.5917816162109375,-0.7996978759765625,0.030120849609375
1789141061328914700,9.233914794921875,-0.5448150634765625,-0.91131591796875,-0.058441162109375
1789141061338887700,9.2438876953125,-0.7392730712890625,-0.80023193359375,-0.0858917236328125
1789141061348860000,9.25385986328125,-0.742950439453125,-0.7841033935546875,0.0145416259765625
1789141061358832600,9.26383251953125,-0.5964813232421875,-0.861358642578125,-0.0740814208984375
1789141061368804600,9.2738046875,-0.5296478271484375,-0.8802642822265625,-0.113800048828125
1789141061378776800,9.28377685546875,-0.6197967529296875,-0.8337554931640625,-0.0504913330078125
1789141061388749600,9.29374951171875,-0.596649169921875,-0.8076171875,-0.0998687744140625
1789141061398721800,9.3037216796875,-0.5173797607421875,-0.8285675048828125,-0.1002044677734375
1789141061408693800,9.31369384765625,-0.5004730224609375,-0.89288330078125,-0.0742950439453125
1789141061418666500,9.32366650390625,-0.50177001953125,-0.8350830078125,-0.10205078125
1789141061428638700,9.333638671875,-0.5992279052734375,-0.730316162109375,-0.0552215576171875
1789141061438610700,9.343610595703124,-0.4986572265625,-0.783477783203125,-0.083404541015625
1789141061448583700,9.353583740234376,-0.4346771240234375,-0.815643310546875,-0.0867919921875
1789141061458555600,9.3635556640625,-0.6295928955078125,-0.6664886474609375,-0.063446044921875
1789141061468527900,9.37352783203125,-0.700225830078125,-0.64874267578125,-0.09698486328125
1789141061478500600,9.38350048828125,-0.5562591552734375,-0.77447509765625,-0.0723419189453125
1789141061488472600,9.39347265625,-0.584564208984375,-0.8295745849609375,0.006744384765625
1789141061498444800,9.40344482421875,-0.72430419921875,-0.8413848876953125,-0.04217529296875
1789141061508417500,9.41341748046875,-0.7567901611328125,-0.852630615234375,-0.0525054931640625
1789141061518389800,9.4233896484375,-0.5902252197265625,-0.8185272216796875,-0.0687408447265625
1789141061528361700,9.43336181640625,-0.5442047119140625,-0.790863037109375,0.0131378173828125
1789141061538334700,9.443334716796874,-0.53631591796875,-0.7982330322265625,0.0446624755859375
1789141061548306700,9.453306640625,-0.4710845947265625,-0.81060791015625,0.0196075439453125
1789141061558279000,9.46327880859375,-0.6539306640625,-0.745758056640625,0.0357666015625
1789141061568251600,9.473251708984375,-0.7093505859375,-0.7791290283203125,-0.0006866455078125
1789141061578223600,9.4832236328125,-0.604095458984375,-0.86846923828125,0.0438079833984375
1789141061588196900,9.49319677734375,-0.5788116455078125,-0.9139251708984375,0.01434326171875
1789141061598168600,9.50316845703125,-0.67449951171875,-0.8396453857421875,-0.0283966064453125
1789141061608140800,9.513140869140624,-0.529296875,-0.869720458984375,-0.0654296875
1789141061618113800,9.52311376953125,-0.5080413818359375,-0.836883544921875,0.00494384765625
1789141061628085500,9.53308544921875,-0.5054473876953125,-0.831817626953125,-0.0631561279296875
1789141061638057700,9.5430576171875,-0.5446319580078125,-0.7779388427734375,-0.0555267333984375
1789141061648030700,9.55303076171875,-0.5758819580078125,-0.836578369140625,-0.0180511474609375
1789141061658002700,9.563002685546875,-0.563629150390625,-0.85150146484375,-0.072509765625
1789141061667974700,9.572974609375,-0.5957183837890625,-0.807159423828125,-0.0919952392578125
1789141061677947600,9.58294775390625,-0.5977783203125,-0.8011932373046875,-0.0442047119140625
1789141061687919600,9.592919677734375,-0.4564666748046875,-0.8372039794921875,-0.0677032470703125
1789141061697891800,9.602891845703125,-0.570220947265625,-0.748687744140625,-0.12213134765625
1789141061707864800,9.61286474609375,-0.6537322998046875,-0.8055877685546875,-0.080078125
1789141061717836500,9.62283642578125,-0.60137939453125,-0.80914306640625,-0.029022216796875
1789141061727808800,9.632808837890625,-0.603118896484375,-0.790740966796875,-0.028594970703125
1789141061737781800,9.64278173828125,-0.592041015625,-0.8570404052734375,-0.0317535400390625
1789141061747753700,9.652753662109374,-0.58245849609375,-0.82342529296875,0.056915283203125
1789141061757725700,9.6627255859375,-0.5560302734375,-0.778839111328125,-0.06427001953125
1789141061767698700,9.67269873046875,-0.56890869140625,-0.8045196533203125,0.00299072265625
1789141061777670700,9.682670654296874,-0.43975830078125,-0.789276123046875,-0.0902099609375
1789141061787643600,9.6926435546875,-0.4929046630859375,-0.8289642333984375,-0.0279388427734375
1789141061797615900,9.702615966796875,-0.4376220703125,-0.8809356689453125,-0.08099365234375
1789141061807587600,9.712587646484375,-0.580047607421875,-0.7654876708984375,0.0345306396484375
1789141061817560600,9.722560546875,-0.6723785400390625,-0.7479248046875,-0.0872344970703125
1789141061827532800,9.73253271484375,-0.5796966552734375,-0.894317626953125,0.007476806640625
1789141061837504500,9.74250439453125,-0.592132568359375,-0.86627197265625,-0.014801025390625
1789141061847477800,9.752477783203124,-0.731475830078125,-0.752227783203125,-0.01422119140625
1789141061857449700,9.76244970703125,-0.6748504638671875,-0.8208160400390625,-0.102752685546875
1789141061867421700,9.772421630859375,-0.50335693359375,-0.949066162109375,-0.002410888671875
1789141061877394700,9.782394775390625,-0.59320068359375,-0.84320068359375,-0.0243377685546875
1789141061887366700,9.79236669921875,-0.5481109619140625,-0.8489837646484375,-0.092254638671875
1789141061897338600,9.802338623046875,-0.4742279052734375,-0.9207916259765625,-0.1068267822265625
1789141061907311600,9.8123115234375,-0.4083404541015625,-0.94512939453125,-0.0336761474609375
1789141061917283800,9.822283935546874,-0.4982147216796875,-0.7763824462890625,-0.055511474609375
1789141061927255600,9.832255615234375,-0.5691070556640625,-0.71795654296875,-0.114410400390625
1789141061937228800,9.842228759765625,-0.5865325927734375,-0.7465667724609375,-0.0040130615234375
1789141061947200800,9.85220068359375,-0.5151519775390625,-0.8499908447265625,0.0030670166015625
1789141061957172700,9.8621728515625,-0.668121337890625,-0.7596282958984375,0.035736083984375
1789141061967145700,9.872145751953125,-0.7353973388671875,-0.827545166015625,-0.02386474609375
1789141061977117700,9.88211767578125,-0.6071319580078125,-0.8936614990234375,-0.0650177001953125
1789141061987089700,9.892089599609376,-0.60516357421875,-0.852752685546875,0.049652099609375
1789141061997062700,9.902062744140625,-0.6825714111328125,-0.7546844482421875,-0.0159912109375
1789141062007035000,9.912034912109375,-0.574493408203125,-0.7825469970703125,0.040771484375
1789141062017007900,9.9220078125,-0.50701904296875,-0.761016845703125,0.013763427734375
1789141062026979600,9.9319794921875,-0.4909515380859375,-0.7522735595703125,0.013153076171875
1789141062036951800,9.941951904296875,-0.5622711181640625,-0.7967529296875,-0.1074676513671875
1789141062046924800,9.9519248046875,-0.6132659912109375,-0.8320770263671875,-0.016693115234375
1789141062056896800,9.961896728515624,-0.604248046875,-0.8606414794921875,-0.09033203125
1789141062066868700,9.97186865234375,-0.727783203125,-0.789306640625,-0.018951416015625
1789141062076841700,9.981841796875,-0.6640777587890625,-0.825286865234375,-0.08685302734375
1789141062086813700,9.991813720703124,-0.6232147216796875,-0.896240234375,0.001617431640625
1789141062096785000,10.001784912109375,-0.6328582763671875,-0.8153533935546875,-0.0885009765625
1789141062106757600,10.011757568359375,-0.6573028564453125,-0.76458740234375,0.0417938232421875
1789141062116729900,10.021729736328124,-0.517486572265625,-0.89691162109375,-0.097808837890625
1789141062126701800,10.031701904296876,-0.5221710205078125,-0.8211669921875,0.020751953125
1789141062136674600,10.041674560546875,-0.58404541015625,-0.7470703125,-0.048736572265625
1789141062146646800,10.051646728515625,-0.5408172607421875,-0.790863037109375,-0.0600128173828125
1789141062156618800,10.06161865234375,-0.600433349609375,-0.7760162353515625,-0.0781402587890625
1789141062166591700,10.071591796875,-0.6445465087890625,-0.703338623046875,-0.0286102294921875
1789141062176563700,10.081563720703125,-0.5218505859375,-0.8114471435546875,0.0152435302734375
1789141062186536000,10.091535888671874,-0.58148193359375,-0.7690277099609375,-0.04522705078125
1789141062196508700,10.1015087890625,-0.55352783203125,-0.8189239501953125,-0.1298675537109375
1789141062206480600,10.111480712890625,-0.5792236328125,-0.8438262939453125,-0.067047119140625
1789141062216452600,10.12145263671875,-0.5542449951171875,-0.8744354248046875,-0.0100250244140625
1789141062226425600,10.131425537109376,-0.64471435546875,-0.8214569091796875,-0.1641998291015625
1789141062236397800,10.141397705078125,-0.6360321044921875,-0.8482208251953125,0.027008056640625
1789141062246369500,10.15136962890625,-0.631591796875,-0.87713623046875,-0.0016326904296875
1789141062256342500,10.161342529296874,-0.6272735595703125,-0.91619873046875,-0.0163116455078125
1789141062266314800,10.171314697265625,-0.5896148681640625,-0.7873687744140625,0.010101318359375
1789141062276287700,10.181287841796875,-0.4464263916015625,-0.8057861328125,-0.0475311279296875
1789141062286259700,10.191259765625,-0.30517578125,-0.900848388671875,-0.05877685546875
1789141062296231700,10.201231689453126,-0.3946380615234375,-0.822906494140625,-0.0172882080078125
1789141062306204700,10.21120458984375,-0.64776611328125,-0.6894378662109375,-0.0684661865234375
1789141062316176600,10.2211767578125,-0.6506805419921875,-0.8224029541015625,0.0126190185546875
1789141062326148900,10.23114892578125,-0.49493408203125,-0.92694091796875,-0.002288818359375
1789141062336121900,10.241121826171875,-0.7125396728515625,-0.8029327392578125,-0.101287841796875
1789141062346093600,10.251093505859375,-0.8519439697265625,-0.789764404296875,-0.01263427734375
1789141062356065800,10.261065673828124,-0.59613037109375,-0.960418701171875,-0.07623291015625
1789141062366038800,10.271038818359376,-0.4996337890625,-0.88726806640625,-0.0715179443359375
1789141062376010800,10.2810107421875,-0.6088409423828125,-0.7744598388671875,-0.0538482666015625
1789141062385982700,10.290982666015625,-0.4876556396484375,-0.8656463623046875,-0.10968017578125
1789141062395955700,10.300955810546874,-0.4306640625,-0.9407958984375,-0.0514678955078125
1789141062405927700,10.310927734375,-0.489105224609375,-0.8172149658203125,-0.179473876953125
1789141062415899600,10.320899658203125,-0.58660888671875,-0.71148681640625,-0.145355224609375
1789141062425873000,10.330872802734374,-0.5851287841796875,-0.7354278564453125,-0.1772918701171875
1789141062435844600,10.3408447265625,-0.5738525390625,-0.81817626953125,-0.0898590087890625
1789141062445816800,10.35081689453125,-0.511688232421875,-0.81561279296875,-0.173309326171875
1789141062455789800,10.360789794921875,-0.6505889892578125,-0.7177276611328125,-0.19219970703125
1789141062465761500,10.370761474609376,-0.6302642822265625,-0.774261474609375,-0.1962432861328125
1789141062475733800,10.380733642578125,-0.580169677734375,-0.8451995849609375,-0.175079345703125
1789141062485706800,10.390706787109375,-0.5382080078125,-0.8308868408203125,-0.0919189453125
1789141062495678700,10.4006787109375,-0.5562896728515625,-0.8541412353515625,-0.1724853515625
1789141062505650700,10.410650634765625,-0.555999755859375,-0.8307952880859375,-0.128692626953125
1789141062515623700,10.420623779296875,-0.6367645263671875,-0.7843017578125,-0.115966796875
1789141062525595600,10.430595703125,-0.6082000732421875,-0.8259429931640625,-0.0933074951171875
1789141062535568600,10.440568603515626,-0.582855224609375,-0.86151123046875,-0.1446380615234375
1789141062545540900,10.450540771484375,-0.7384490966796875,-0.768585205078125,-0.0598602294921875
1789141062555512600,10.4605126953125,-0.741729736328125,-0.7848663330078125,-0.1146392822265625
1789141062565485800,10.47048583984375,-0.557769775390625,-0.8556365966796875,-0.0340423583984375
1789141062575457800,10.480457763671875,-0.5123443603515625,-0.8220062255859375,-0.0751800537109375
1789141062585429800,10.4904296875,-0.55218505859375,-0.7481689453125,0.0385284423828125
1789141062595402800,10.50040283203125,-0.5113525390625,-0.83575439453125,0.036895751953125
1789141062605374700,10.510374755859376,-0.5488739013671875,-0.845245361328125,0.0460357666015625
1789141062615346700,10.5203466796875,-0.510406494140625,-0.8258056640625,0.0164337158203125
1789141062625319700,10.530319580078125,-0.547119140625,-0.764373779296875,0.0030975341796875
1789141062635292000,10.5402919921875,-0.6421661376953125,-0.7783966064453125,-0.0675811767578125
1789141062645263600,10.550263671875,-0.6898040771484375,-0.777618408203125,0.034637451171875
1789141062655236600,10.560236572265625,-0.5959320068359375,-0.851593017578125,-0.0153045654296875
1789141062665208800,10.570208740234374,-0.6373748779296875,-0.7961578369140625,-0.0380706787109375
1789141062675180800,10.580180908203126,-0.6366119384765625,-0.8325042724609375,-0.0401763916015625
1789141062685153800,10.59015380859375,-0.57342529296875,-0.815338134765625,-0.07403564453125
1789141062695125800,10.600125732421875,-0.474456787109375,-0.8371429443359375,-0.1484375
1789141062705097700,10.61009765625,-0.5815277099609375,-0.714569091796875,-0.0958709716796875
1789141062715070700,10.62007080078125,-0.586029052734375,-0.738739013671875,-0.0704498291015625
1789141062725043000,10.63004296875,-0.539031982421875,-0.8272857666015625,0.0424957275390625
1789141062735014700,10.6400146484375,-0.589141845703125,-0.8411712646484375,-0.060394287109375
1789141062744987600,10.649987548828125,-0.6953887939453125,-0.7432861328125,-0.0325469970703125
1789141062754960000,10.6599599609375,-0.6319732666015625,-0.860076904296875,-0.0989837646484375
1789141062764931600,10.669931640625,-0.6416778564453125,-0.83203125,-0.061981201171875
1789141062774904800,10.67990478515625,-0.60308837890625,-0.7954254150390625,-0.1149139404296875
1789141062784876800,10.689876708984375,-0.5010986328125,-0.849609375,-0.0031585693359375
1789141062794849500,10.699849609375,-0.470794677734375,-0.817840576171875,-0.050384521484375
1789141062804821800,10.70982177734375,-0.5629425048828125,-0.791351318359375,-0.017730712890625
1789141062814793700,10.719793701171875,-0.4549407958984375,-0.8726654052734375,-0.0215301513671875
1789141062824766700,10.7297666015625,-0.4926300048828125,-0.7666015625,-0.0155181884765625
1789141062834738700,10.73973876953125,-0.6109619140625,-0.7273406982421875,-0.07525634765625
1789141062844711000,10.7497109375,-0.6736602783203125,-0.8367767333984375,-0.0429229736328125
1789141062854683600,10.75968359375,-0.647247314453125,-0.847198486328125,-0.0015106201171875
1789141062864655600,10.769655517578125,-0.7231292724609375,-0.8907928466796875,-0.077728271484375
1789141062874627800,10.7796279296875,-0.7127685546875,-0.8451995849609375,-0.0617523193359375
1789141062884600600,10.7896005859375,-0.57562255859375,-0.86669921875,-0.0223541259765625
1789141062894572800,10.79957275390625,-0.477264404296875,-0.923004150390625,-0.0717926025390625
1789141062904544800,10.809544677734374,-0.3662109375,-0.883392333984375,-0.047393798828125
1789141062914517800,10.819517822265626,-0.4149627685546875,-0.7228851318359375,0.0305023193359375
1789141062924489700,10.82948974609375,-0.497833251953125,-0.687042236328125,0.0184326171875
1789141062934462000,10.8394619140625,-0.522857666015625,-0.8088531494140625,0.0433197021484375
1789141062944434700,10.8494345703125,-0.47796630859375,-0.8334197998046875,-0.0130615234375
1789141062954406700,10.85940673828125,-0.6899261474609375,-0.6734161376953125,0.0328826904296875
1789141062964379000,10.86937890625,-0.7549285888671875,-0.7763824462890625,-0.17608642578125
1789141062974351600,10.8793515625,-0.7519073486328125,-0.8671112060546875,-0.033538818359375
1789141062984323800,10.88932373046875,-0.6828765869140625,-0.9189910888671875,-0.0255279541015625
1789141062994295800,10.8992958984375,-0.6160430908203125,-0.8400115966796875,-0.04925537109375
1789141063004268500,10.9092685546875,-0.5592803955078125,-0.813507080078125,-0.054534912109375
1789141063014240800,10.91924072265625,-0.47296142578125,-0.819305419921875,-0.133087158203125
1789141063024213800,10.9292138671875,-0.3981781005859375,-0.86090087890625,-0.099578857421875
1789141063034185700,10.939185791015625,-0.48919677734375,-0.8219451904296875,0.041259765625
1789141063044157700,10.94915771484375,-0.5526123046875,-0.85369873046875,-0.026580810546875
1789141063054130700,10.959130615234375,-0.6576995849609375,-0.7951812744140625,0.0735321044921875
1789141063064102700,10.9691025390625,-0.764862060546875,-0.824310302734375,0.0064697265625
1789141063074074600,10.97907470703125,-0.709075927734375,-0.8565216064453125,0.0164337158203125
1789141063084048000,10.9890478515625,-0.6017913818359375,-0.8595733642578125,-0.0183563232421875
1789141063094019600,10.99901953125,-0.603057861328125,-0.791534423828125,0.028900146484375
1789141063103992000,11.008991943359375,-0.49505615234375,-0.8084869384765625,0.0004119873046875
1789141063113965000,11.018965087890624,-0.3835296630859375,-0.846893310546875,-0.024200439453125
1789141063123936800,11.028936767578125,-0.4617156982421875,-0.8173675537109375,0.033172607421875
1789141063133909000,11.038908935546875,-0.5769500732421875,-0.806640625,0.013671875
1789141063143882000,11.048882080078124,-0.687957763671875,-0.8279266357421875,0.1036376953125
1789141063153854000,11.05885400390625,-0.7271575927734375,-0.8285980224609375,-0.063201904296875
1789141063163826000,11.068825927734375,-0.7321014404296875,-0.7702484130859375,-0.0958709716796875
1789141063173799000,11.078798828125,-0.7045745849609375,-0.746337890625,-0.1209716796875
1789141063183771000,11.08877099609375,-0.6351470947265625,-0.790618896484375,-0.110076904296875
1789141063193743000,11.0987431640625,-0.6128997802734375,-0.79327392578125,-0.153076171875
1789141063203716000,11.108716064453125,-0.6538848876953125,-0.7664337158203125,0.028717041015625
1789141063213687800,11.118687744140624,-0.48065185546875,-0.854095458984375,-0.121246337890625
1789141063223660000,11.128659912109375,-0.4675750732421875,-0.828033447265625,-0.002532958984375
1789141063233633000,11.138633056640625,-0.6295318603515625,-0.79266357421875,-0.046844482421875
1789141063243605000,11.14860498046875,-0.680877685546875,-0.823516845703125,-0.1201629638671875
1789141063253577000,11.158576904296876,-0.7233123779296875,-0.7893829345703125,-0.1473388671875
1789141063263550000,11.168550048828125,-0.6797637939453125,-0.7846527099609375,-0.083251953125
1789141063273522000,11.17852197265625,-0.5559539794921875,-0.8234100341796875,-0.120086669921875
1789141063283494000,11.188493896484376,-0.471710205078125,-0.8079833984375,-0.0509796142578125
1789141063293467100,11.198467041015626,-0.5013275146484375,-0.7714996337890625,-0.0605010986328125
1789141063303438800,11.20843896484375,-0.420928955078125,-0.810760498046875,-0.0554351806640625
1789141063313411800,11.218411865234375,-0.4395904541015625,-0.805633544921875,-0.0213470458984375
1789141063323384000,11.228384033203126,-0.570892333984375,-0.770233154296875,-0.136260986328125
1789141063333355800,11.238355712890625,-0.619384765625,-0.85540771484375,0.002655029296875
1789141063343329000,11.2483291015625,-0.686614990234375,-0.852081298828125,-0.0993804931640625
1789141063353301000,11.258301025390624,-0.6833648681640625,-0.8942108154296875,-0.0297698974609375
1789141063363273000,11.26827294921875,-0.59033203125,-0.9339599609375,-0.0323486328125
1789141063373246000,11.278245849609375,-0.571533203125,-0.837738037109375,0.0261688232421875
1789141063383218200,11.28821826171875,-0.510650634765625,-0.9141998291015625,-0.077972412109375
1789141063393190000,11.29818994140625,-0.356903076171875,-1.0014801025390625,-0.0356903076171875
1789141063403163000,11.308162841796875,-0.4173736572265625,-0.8144989013671875,-0.10406494140625
1789141063413135000,11.318135009765625,-0.4701690673828125,-0.7855377197265625,-0.1256866455078125
1789141063423106800,11.32810693359375,-0.384033203125,-0.8260040283203125,-0.00567626953125
1789141063433080000,11.338080078125,-0.3825836181640625,-0.817413330078125,-0.159393310546875
1789141063443052000,11.348052001953125,-0.5893096923828125,-0.6976470947265625,-0.093353271484375
1789141063453024000,11.35802392578125,-0.4933929443359375,-0.8706207275390625,-0.121826171875
1789141063462997000,11.3679970703125,-0.625823974609375,-0.8460235595703125,-0.10858154296875
1789141063472969000,11.377968994140625,-0.7892608642578125,-0.8221435546875,-0.1014251708984375
1789141063482941000,11.38794091796875,-0.717376708984375,-0.894256591796875,-0.0062713623046875
1789141063492914000,11.397913818359376,-0.650421142578125,-0.865631103515625,-0.0998687744140625
1789141063502886100,11.40788623046875,-0.6805877685546875,-0.783355712890625,-0.057647705078125
1789141063512857900,11.41785791015625,-0.5191650390625,-0.8916778564453125,-0.0745849609375
1789141063522830800,11.427830810546874,-0.4032440185546875,-0.959930419921875,-0.0301971435546875
1789141063532803000,11.437802978515625,-0.575286865234375,-0.7713623046875,-0.123016357421875
1789141063542775000,11.447775146484375,-0.614227294921875,-0.676177978515625,-0.0546875
1789141063552748000,11.457748046875,-0.56951904296875,-0.8424835205078125,-0.0191802978515625
1789141063562720000,11.467719970703126,-0.594635009765625,-0.869842529296875,-0.0108489990234375
1789141063572693000,11.47769287109375,-0.666900634765625,-0.78448486328125,-0.052703857421875
1789141063582665000,11.4876650390625,-0.6038055419921875,-0.827606201171875,-0.108306884765625
1789141063592637200,11.49763720703125,-0.3547821044921875,-0.9340057373046875,0.024749755859375
1789141063602610000,11.50760986328125,-0.480682373046875,-0.8545989990234375,-0.029571533203125
1789141063612582000,11.517581787109375,-0.616912841796875,-0.8001251220703125,-0.008636474609375
1789141063622554000,11.52755419921875,-0.624847412109375,-0.795379638671875,-0.0640716552734375
1789141063632526800,11.53752685546875,-0.6399688720703125,-0.7899932861328125,-0.004852294921875
1789141063642499000,11.5474990234375,-0.657135009765625,-0.798431396484375,-0.02667236328125
1789141063652471000,11.557470947265625,-0.68389892578125,-0.83184814453125,-0.0214996337890625
1789141063662443800,11.56744384765625,-0.5812225341796875,-0.847198486328125,-0.0755462646484375
1789141063672416000,11.577416015625,-0.558258056640625,-0.7743682861328125,-0.0704345703125
1789141063682388000,11.587387939453125,-0.53424072265625,-0.7629852294921875,-0.0149688720703125
1789141063692361000,11.59736083984375,-0.5518035888671875,-0.7805938720703125,-0.0349273681640625
1789141063702333000,11.6073330078125,-0.5947113037109375,-0.7664337158203125,-0.0507354736328125
1789141063712305200,11.61730517578125,-0.6443634033203125,-0.7691497802734375,-0.0317230224609375
1789141063722278000,11.62727783203125,-0.613800048828125,-0.8536529541015625,0.050201416015625
1789141063732249900,11.637249755859376,-0.706390380859375,-0.8620147705078125,-0.0285797119140625
1789141063742222000,11.64722216796875,-0.73828125,-0.8320770263671875,-0.0860137939453125
1789141063752194800,11.65719482421875,-0.6044921875,-0.86859130859375,-0.06549072265625
1789141063762167000,11.6671669921875,-0.5943145751953125,-0.895233154296875,-0.0243072509765625
1789141063772139000,11.677138916015625,-0.5023345947265625,-0.8288421630859375,-0.075225830078125
1789141063782112000,11.687112060546875,-0.4188079833984375,-0.753387451171875,-0.048858642578125
1789141063792084000,11.697083984375,-0.3380126953125,-0.7905120849609375,-0.079742431640625
1789141063802056200,11.70705615234375,-0.45831298828125,-0.765228271484375,-0.09478759765625
1789141063812029000,11.71702880859375,-0.5836029052734375,-0.7065887451171875,-0.0102996826171875
1789141063822001000,11.7270009765625,-0.6870269775390625,-0.749847412109375,-0.0653076171875
1789141063831974100,11.73697412109375,-0.70782470703125,-0.792205810546875,-0.0738067626953125
1789141063841945900,11.74694580078125,-0.68194580078125,-0.82244873046875,-0.0736236572265625
1789141063851918000,11.75691796875,-0.7535552978515625,-0.8300933837890625,-0.0313720703125
1789141063861891000,11.76689111328125,-0.62579345703125,-0.86346435546875,-0.017059326171875
1789141063871862800,11.77686279296875,-0.4791259765625,-0.8712615966796875,-0.0444488525390625
1789141063881835000,11.7868349609375,-0.491455078125,-0.94024658203125,0.0013275146484375
1789141063891808000,11.79680810546875,-0.550567626953125,-0.8256378173828125,0.0441436767578125
1789141063901780000,11.806780029296876,-0.608154296875,-0.7204742431640625,-0.0163421630859375
1789141063911752000,11.816751953125,-0.4221038818359375,-0.8843841552734375,0.092193603515625
1789141063921725000,11.826724853515625,-0.345123291015625,-0.818023681640625,-0.00872802734375
1789141063931697000,11.83669677734375,-0.5244140625,-0.71087646484375,-0.032440185546875
1789141063941668900,11.8466689453125,-0.543060302734375,-0.8125152587890625,-0.00384521484375
1789141063951642000,11.85664208984375,-0.52215576171875,-0.805145263671875,-0.0264739990234375
1789141063961613800,11.86661376953125,-0.67047119140625,-0.8490142822265625,-0.0571136474609375
1789141063971586000,11.8765859375,-0.6030731201171875,-0.9335479736328125,0.011444091796875
1789141063981559000,11.88655908203125,-0.5985107421875,-0.82257080078125,0.0363311767578125
1789141063991531000,11.896531005859375,-0.6168975830078125,-0.85400390625,-0.0460205078125
1789141064001503000,11.9065029296875,-0.521484375,-0.887603759765625,-0.0250244140625
1789141064011476000,11.91647607421875,-0.4811553955078125,-0.815277099609375,-0.03204345703125
1789141064021448000,11.926447998046875,-0.6181793212890625,-0.748138427734375,-0.009552001953125
1789141064031420000,11.936419921875,-0.5990142822265625,-0.7706756591796875,0.040924072265625
1789141064041393200,11.94639306640625,-0.596527099609375,-0.7659759521484375,0.0854034423828125
1789141064051364900,11.95636474609375,-0.6015472412109375,-0.7587127685546875,-0.0319671630859375
1789141064061337000,11.966337158203125,-0.62506103515625,-0.8091583251953125,-0.048553466796875
1789141064071310000,11.97631005859375,-0.5142669677734375,-0.8939971923828125,-0.042449951171875
1789141064081281800,11.98628173828125,-0.5918121337890625,-0.8082733154296875,0.0319671630859375
1789141064091255000,11.996255126953125,-0.572265625,-0.80963134765625,-0.0439605712890625
1789141064101227500,12.0062275390625,-0.6219329833984375,-0.863494873046875,-0.0998687744140625
1789141064111199500,12.016199462890626,-0.62408447265625,-0.858489990234375,-0.0346221923828125
1789141064121172500,12.02617236328125,-0.67169189453125,-0.8068084716796875,0.0556182861328125
1789141064131144400,12.03614453125,-0.5684356689453125,-0.8227996826171875,-0.0076141357421875
1789141064141116400,12.046116455078124,-0.534210205078125,-0.8182525634765625,-0.08673095703125
1789141064151089400,12.05608935546875,-0.482086181640625,-0.83367919921875,0.042510986328125
1789141064161061600,12.0660615234375,-0.518157958984375,-0.830657958984375,-0.0594482421875
1789141064171033300,12.076033447265624,-0.5315093994140625,-0.79473876953125,-0.112579345703125
1789141064181006300,12.08600634765625,-0.570159912109375,-0.79901123046875,-0.009613037109375
1789141064190978600,12.095978515625,-0.6792755126953125,-0.77374267578125,0.0040130615234375
1789141064200950300,12.1059501953125,-0.666168212890625,-0.81732177734375,-0.0626678466796875
1789141064210923500,12.115923583984374,-0.615386962890625,-0.86376953125,0.0490875244140625
1789141064220895500,12.1258955078125,-0.6711578369140625,-0.876922607421875,0.0297088623046875
1789141064230867500,12.135867431640625,-0.69134521484375,-0.8254547119140625,0.0394287109375
1789141064240840400,12.14584033203125,-0.763092041015625,-0.716033935546875,-0.057830810546875
1789141064250812400,12.1558125,-0.56304931640625,-0.788604736328125,-0.0848846435546875
1789141064260784400,12.165784423828125,-0.5281524658203125,-0.8651885986328125,0.0690155029296875
1789141064270757400,12.17575732421875,-0.54888916015625,-0.8288421630859375,0.0301055908203125
1789141064280729600,12.1857294921875,-0.5362548828125,-0.791351318359375,-0.0134124755859375
1789141064290701300,12.195701416015625,-0.4613494873046875,-0.8376922607421875,-0.08111572265625
1789141064300674600,12.205674560546875,-0.5232696533203125,-0.7404022216796875,-0.0476226806640625
1789141064310646500,12.215646484375,-0.582977294921875,-0.66845703125,-0.0325469970703125
1789141064320618500,12.225618408203125,-0.6215972900390625,-0.7183837890625,-0.0279083251953125
1789141064330591500,12.235591552734375,-0.6624908447265625,-0.789642333984375,-0.1510162353515625
1789141064340563500,12.2455634765625,-0.706451416015625,-0.82440185546875,-0.01678466796875
1789141064350536700,12.25553662109375,-0.7165374755859375,-0.8593597412109375,-0.0877532958984375
1789141064360508400,12.26550830078125,-0.6331787109375,-0.8235321044921875,-0.12493896484375
1789141064370480600,12.275480712890625,-0.547515869140625,-0.8741302490234375,-0.1924896240234375
1789141064380453400,12.285453369140624,-0.5151519775390625,-0.8549957275390625,-0.190185546875
1789141064390425300,12.29542529296875,-0.6129913330078125,-0.705291748046875,-0.1521453857421875
1789141064400397600,12.3053974609375,-0.52923583984375,-0.7344970703125,-0.149444580078125
1789141064410370300,12.315370361328124,-0.3907470703125,-0.8580780029296875,-0.1526336669921875
1789141064420342500,12.325342529296876,-0.6002349853515625,-0.7346343994140625,-0.1428070068359375
1789141064430314500,12.335314453125,-0.6085052490234375,-0.77691650390625,-0.1853790283203125
1789141064440287200,12.345287353515625,-0.421630859375,-0.9088592529296875,-0.17083740234375
1789141064450259500,12.355259521484374,-0.55279541015625,-0.7952880859375,-0.1291961669921875
1789141064460231400,12.3652314453125,-0.658966064453125,-0.86529541015625,-0.09527587890625
1789141064470204400,12.375204345703125,-0.563568115234375,-0.877227783203125,-0.0490875244140625
1789141064480176400,12.38517626953125,-0.6950531005859375,-0.874114990234375,-0.0500946044921875
1789141064490148600,12.395148681640626,-0.6130218505859375,-0.8876495361328125,-0.0436553955078125
1789141064500121300,12.405121337890625,-0.448883056640625,-0.8831024169921875,-0.0494384765625
1789141064510093600,12.415093505859375,-0.5555419921875,-0.8292083740234375,-0.08697509765625
1789141064520065500,12.4250654296875,-0.4532623291015625,-0.857818603515625,-0.068389892578125
1789141064530038300,12.435038330078125,-0.567230224609375,-0.7425537109375,-0.056365966796875
1789141064540010500,12.445010498046875,-0.6190643310546875,-0.8084716796875,-0.0314788818359375
1789141064549982500,12.454982421875,-0.648895263671875,-0.78753662109375,-0.0068817138671875
1789141064559955500,12.46495556640625,-0.6355743408203125,-0.8039093017578125,-0.070709228515625
1789141064569927400,12.474927490234375,-0.69952392578125,-0.7760772705078125,-0.1265869140625
1789141064579899600,12.484899658203124,-0.50738525390625,-0.910186767578125,-0.0861663818359375
1789141064589872400,12.494872314453126,-0.43682861328125,-0.8969573974609375,-0.0200653076171875
1789141064599844400,12.50484423828125,-0.5403900146484375,-0.8052520751953125,-0.0949859619140625
1789141064609817600,12.514817626953125,-0.5628509521484375,-0.750152587890625,-0.082183837890625
1789141064619789300,12.524789306640624,-0.5510101318359375,-0.785308837890625,-0.03436279296875
1789141064629761500,12.534761474609375,-0.5335235595703125,-0.8038787841796875,-0.0670013427734375
1789141064639734500,12.544734619140625,-0.5660858154296875,-0.8085174560546875,-0.0659637451171875
1789141064649706200,12.554706298828124,-0.5513458251953125,-0.812103271484375,-0.093536376953125
1789141064659678500,12.564678466796876,-0.544036865234375,-0.8092803955078125,-0.108795166015625
1789141064669651500,12.5746513671875,-0.49993896484375,-0.84503173828125,-0.0812225341796875
1789141064679623400,12.58462353515625,-0.5825958251953125,-0.8227386474609375,-0.1216888427734375
1789141064689595400,12.594595458984376,-0.6756134033203125,-0.782806396484375,0.0003814697265625
1789141064699568400,12.604568359375,-0.6918182373046875,-0.8724365234375,-0.0945281982421875
1789141064709540400,12.614540283203125,-0.5405120849609375,-0.9567718505859375,-0.16619873046875
1789141064719512600,12.6245126953125,-0.6839752197265625,-0.812652587890625,-0.04736328125
1789141064729485600,12.634485595703126,-0.612274169921875,-0.8206634521484375,-0.12176513671875
1789141064739457300,12.644457275390625,-0.478912353515625,-0.9155120849609375,-0.143157958984375
1789141064749429500,12.654429443359374,-0.622161865234375,-0.779083251953125,-0.045166015625
1789141064759402500,12.664402587890624,-0.6297149658203125,-0.7586517333984375,-0.0724334716796875
1789141064769374500,12.67437451171875,-0.678863525390625,-0.7588653564453125,-0.07958984375
1789141064779346400,12.684346435546875,-0.5868072509765625,-0.8448638916015625,-0.039215087890625
1789141064789319400,12.6943193359375,-0.573516845703125,-0.811614990234375,-0.1230621337890625
1789141064799291400,12.70429150390625,-0.6631317138671875,-0.67132568359375,-0.1407623291015625
1789141064809263400,12.714263427734375,-0.517333984375,-0.719512939453125,-0.0625762939453125
1789141064819236600,12.724236572265625,-0.3590545654296875,-0.8436126708984375,-0.1110687255859375
1789141064829208300,12.734208251953126,-0.5590972900390625,-0.7723846435546875,-0.0287628173828125
1789141064839180500,12.7441806640625,-0.706024169921875,-0.745849609375,-0.0003814697265625
1789141064849153500,12.754153564453125,-0.636138916015625,-0.7928619384765625,-0.013092041015625
