time,seconds_elapsed,z,y,x
1789141052139389000,0.044388916015625,-0.15374398231506348,-0.01634303107857704,0.025982828810811043
1789141052149361000,0.05436083984375,-0.10062994062900543,-0.008652369491755962,-0.012501723133027554
1789141052159332900,0.064332763671875,-0.14913354814052582,-0.010269707068800926,-0.006755953188985586
1789141052169306000,0.07430615234375,-0.16238933801651,-0.0499429777264595,0.012324610725045204
1789141052179277800,0.08427783203125,-0.10353747755289078,-0.048573315143585205,0.0239181499928236
1789141052189250000,0.09425,-0.09432879835367203,-0.007453460246324539,0.0068490346893668175
1789141052199223000,0.10422314453125,-0.13816149532794952,-0.05968337506055832,0.019397316500544548
1789141052209195000,0.114195068359375,-0.11717213690280914,-0.03944101557135582,-0.029886584728956223
1789141052219168000,0.12416796875,-0.1288282722234726,-0.04721691459417343,-0.059812527149915695
1789141052229140000,0.134139892578125,-0.18405868113040924,-0.08810169994831085,0.03776886686682701
1789141052239112000,0.14411181640625,-0.13598676025867462,-0.053573284298181534,0.009993961080908775
1789141052249085000,0.1540849609375,-0.09210135042667389,-0.041761524975299835,0.005339836701750755
1789141052259057200,0.16405712890625,-0.1237008273601532,-0.054460275918245316,0.053421881049871445
1789141052269028900,0.17402880859375,-0.11786380410194397,-0.04897624999284744,0.0715055763721466
1789141052279001900,0.184001953125,-0.10070426017045975,-0.02712394669651985,0.0540887676179409
1789141052288974000,0.19397412109375,-0.04017038643360138,0.001794357318431139,-0.06273730844259262
1789141052298945800,0.20394580078125,-0.02903490886092186,-0.04100264236330986,-0.016310948878526688
1789141052308919000,0.2139189453125,0.00849149003624916,-0.03296063840389252,-0.0417509563267231
1789141052318891000,0.22389111328125,0.024209734052419662,-0.0019057835452258587,-0.02116605080664158
1789141052328863000,0.233863037109375,0.013964060693979263,0.0013029566034674644,-0.015523756854236126
1789141052338836000,0.2438359375,0.0321129709482193,0.005416474770754576,-0.005568061955273151
1789141052348808000,0.253807861328125,0.0592750608921051,0.03089599683880806,-0.01610339619219303
1789141052358781000,0.263781005859375,0.08849260210990906,0.04992534965276718,-0.02782529778778553
1789141052368753000,0.2737529296875,0.06727709621191025,0.05038289353251457,-0.0012429498601704836
1789141052378725000,0.28372509765625,0.03131376951932907,0.0211283341050148,0.07360944896936417
1789141052388697900,0.29369775390625,0.14414812624454498,0.04485240578651428,-0.003179192077368498
1789141052398670000,0.303670166015625,0.16707688570022583,0.08101786673069,-0.060341015458106995
1789141052408642000,0.31364208984375,0.13326512277126312,0.047277748584747314,-0.014971403405070305
1789141052418614800,0.32361474609375,0.11552022397518158,0.03870529681444168,0.022028427571058273
1789141052428587000,0.3335869140625,0.09320952743291855,0.06125342845916748,-0.039618268609046936
1789141052438559000,0.34355908203125,0.1312437355518341,0.03857048600912094,-0.05680364742875099
1789141052448532000,0.353531982421875,0.053332991898059845,0.018115710467100143,0.06009060516953468
1789141052458504000,0.36350390625,0.09761284291744232,0.024018075317144394,0.04098375514149666
1789141052468477000,0.373476806640625,0.12017816305160522,0.008915779180824757,0.003558856202289462
1789141052478449000,0.383448974609375,0.06402567028999329,-0.011845159344375134,0.05363054573535919
1789141052488420900,0.3934208984375,0.05914532393217087,-0.03583700954914093,0.05267409607768059
1789141052498394000,0.40339404296875,0.14402292668819427,0.0031431452371180058,-0.03881986811757088
1789141052508365800,0.41336572265625,0.09287115931510925,-0.012169810011982918,-0.006481935270130634
1789141052518338000,0.423338134765625,0.07740432024002075,-0.015805291011929512,-0.03994215652346611
1789141052528311000,0.43331103515625,0.03421403095126152,0.00173967145383358,-0.01573364809155464
1789141052538282800,0.44328271484375,0.1578313112258911,0.02972257137298584,-0.09817605465650558
1789141052548255000,0.4532548828125,0.1150774210691452,0.07691308856010437,-0.06984281539916992
1789141052558228000,0.46322802734375,0.11982477456331253,0.09720131009817123,-0.050233691930770874
1789141052568200000,0.473199951171875,0.10097669810056686,0.0877949669957161,0.048193834722042084
1789141052578173000,0.4831728515625,0.25122904777526855,0.13429881632328033,-0.027388274669647217
1789141052588145000,0.493144775390625,0.2526480257511139,0.14714112877845764,0.012126779183745384
1789141052598116900,0.503116943359375,0.21738988161087036,0.15587149560451508,0.008478248491883278
1789141052608089900,0.51308984375,0.21174819767475128,0.18817958235740662,0.039817824959754944
1789141052618062000,0.52306201171875,0.19108952581882477,0.2069695144891739,-0.005584544036537409
1789141052628033800,0.53303369140625,0.22224582731723785,0.19950494170188904,-0.022551946341991425
1789141052638007000,0.543007080078125,0.22816896438598633,0.18703468143939972,0.017651397734880447
1789141052647979000,0.55297900390625,0.1919965147972107,0.18049082159996033,0.024615874513983727
1789141052657951000,0.562950927734375,0.1951022893190384,0.18842411041259766,0.00899217464029789
1789141052667924000,0.572924072265625,0.2093849927186966,0.1948843002319336,-0.020172448828816414
1789141052677896000,0.58289599609375,0.17356973886489868,0.1708676517009735,-0.03132603317499161
1789141052687869200,0.592869140625,0.06247308850288391,0.1466265469789505,0.017647605389356613
1789141052697841000,0.6028408203125,0.11343187838792801,0.12127271294593811,-0.020854514092206955
1789141052707813000,0.612813232421875,0.012421578168869019,0.10913663357496262,0.08041448146104813
1789141052717786000,0.6227861328125,0.05547823756933212,0.07656989991664886,0.04827731102705002
1789141052727757800,0.6327578125,-0.009523196145892143,0.06786424666643143,0.08841156959533691
1789141052737730000,0.64272998046875,-0.03543708473443985,0.04301215335726738,0.03381491079926491
1789141052747703000,0.652703125,-0.10587196052074432,0.01643354445695877,0.06603802740573883
1789141052757675000,0.662675048828125,-0.08539331704378128,0.01878138817846775,-0.009551272727549076
1789141052767647000,0.67264697265625,-0.02413211017847061,-0.014139167964458466,-0.029807794839143753
1789141052777620000,0.682619873046875,-0.03876085579395294,-0.014331182464957237,0.010418187826871872
1789141052787592000,0.692592041015625,-0.06308034807443619,0.00377734936773777,-0.004084975458681583
1789141052797564000,0.70256396484375,-0.037139564752578735,0.012907198630273342,-0.04939839616417885
1789141052807537200,0.712537109375,-0.048829756677150726,0.002645779401063919,-0.009963501244783401
1789141052817508900,0.7225087890625,-0.007288705557584763,-0.009194901213049889,0.04535035416483879
1789141052827482000,0.732482177734375,0.003257353324443102,0.05504288151860237,0.03490399569272995
1789141052837454000,0.7424541015625,0.050862155854701996,-0.002059816848486662,0.05494508147239685
1789141052847426000,0.752426025390625,0.007342098280787468,0.03782273828983307,0.06696541607379913
1789141052857399000,0.76239892578125,-0.0031563490629196167,0.009624654427170753,0.08484161645174026
1789141052867371000,0.77237109375,-0.016526643186807632,0.07722511142492294,0.03769468888640404
1789141052877343000,0.782343017578125,0.045614223927259445,0.06312207132577896,-0.03729087486863136
1789141052887316000,0.79231591796875,-0.007621351629495621,0.06673208624124527,0.017899684607982635
1789141052897288200,0.8022880859375,-0.0506172850728035,0.038946256041526794,0.05212769657373428
1789141052907260000,0.812260009765625,0.06477727741003036,0.06263752281665802,-0.011882071383297443
1789141052917233000,0.82223291015625,-0.03388218954205513,0.029165318235754967,0.145579993724823
1789141052927205000,0.832205078125,0.02035324089229107,0.07456611841917038,0.040137141942977905
1789141052937177900,0.842177734375,0.014265520498156548,0.0908697247505188,-0.027573462575674057
1789141052947150000,0.852150146484375,-0.03313467279076576,0.13148419559001923,-0.09636802226305008
1789141052957121800,0.862121826171875,-0.028105027973651886,0.033919557929039,0.07811084389686584
1789141052967094800,0.8720947265625,-0.01418063510209322,0.05834227427840233,-0.011279146187007427
1789141052977067000,0.88206689453125,0.0662526860833168,0.04064130410552025,-0.031451258808374405
1789141052987039000,0.8920390625,0.10514479130506516,0.0975467711687088,0.03723014518618584
1789141052997012000,0.902011962890625,-0.05682999640703201,0.16587309539318085,0.06124839931726456
1789141053006984000,0.91198388671875,-0.006487672217190266,0.10386502742767334,-0.01704401709139347
1789141053016956000,0.921955810546875,-0.02567548304796219,0.1285032480955124,-0.1049637496471405
1789141053026929000,0.931928955078125,-0.0962543934583664,0.12142276763916016,-0.018393801525235176
1789141053036901000,0.941901123046875,-0.10554110258817673,0.09082411229610443,0.03578288480639458
1789141053046874000,0.9518740234375,0.0038284286856651306,0.08127684146165848,-0.03076532669365406
1789141053056845800,0.961845703125,-0.008506002835929394,0.09795595705509186,0.002918333513662219
1789141053066818000,0.971818115234375,-0.08188246935606003,0.09887488931417465,0.016296569257974625
1789141053076791000,0.981791015625,-0.07433027774095535,0.018995238468050957,0.06815044581890106
1789141053086763000,0.991762939453125,-0.1262509822845459,0.07203582674264908,-0.0028090765699744225
1789141053096734700,1.001734619140625,-0.1778033822774887,-0.025145580992102623,0.11589173972606659
1789141053106707700,1.011707763671875,-0.15138621628284454,0.051858220249414444,0.003138302592560649
1789141053116680000,1.021679931640625,-0.17187924683094025,-0.0006353501230478287,0.08717647939920425
1789141053126651600,1.031651611328125,-0.18076321482658386,0.0638590157032013,-0.21230000257492065
1789141053136625000,1.041625,-0.2565660774707794,0.0687834694981575,-0.3018117845058441
1789141053146596900,1.051596923828125,-0.2658469080924988,0.04159461334347725,-0.07721729576587677
1789141053156568800,1.06156884765625,-0.1818542778491974,0.03917353227734566,-0.09769673645496368
1789141053166541800,1.071541748046875,-0.09292775392532349,-0.03237670287489891,-0.06470900774002075
1789141053176513800,1.081513671875,-0.13991336524486542,-0.02719498798251152,0.02050761878490448
1789141053186487000,1.091487060546875,-0.10395075380802155,0.0038373260758817196,0.1305704116821289
1789141053196458800,1.101458740234375,-0.09923882782459259,0.03383836895227432,0.06363745033740997
1789141053206431000,1.111430908203125,-0.16677320003509521,0.04718831554055214,0.024675846099853516
1789141053216403700,1.12140380859375,-0.3627709448337555,0.0019907429814338684,0.1266147345304489
1789141053226376000,1.1313759765625,-0.28894704580307007,-0.003248486202210188,0.09358101338148117
1789141053236348000,1.141347900390625,-0.17147980630397797,-0.006365450099110603,0.08099251985549927
1789141053246320600,1.151320556640625,-0.11726056039333344,-0.03677945211529732,0.0348370186984539
1789141053256292900,1.16129296875,-0.13108263909816742,-0.04113931208848953,0.02199738472700119
1789141053266264800,1.171264892578125,-0.07499543577432632,0.026187743991613388,-0.05647049844264984
1789141053276237800,1.18123779296875,-0.1208161860704422,0.07626928389072418,-0.06207751855254173
1789141053286209800,1.191209716796875,-0.10662008076906204,0.07076358050107956,-0.1099095344543457
1789141053296182800,1.201182861328125,-0.07185997068881989,0.07192178815603256,-0.08900000154972076
1789141053306154800,1.21115478515625,-0.0942913070321083,0.05640482157468796,-0.009012594819068909
1789141053316126700,1.221126708984375,-0.09730733931064606,0.03952198103070259,0.024157077074050903
1789141053326100000,1.231099853515625,-0.10548590868711472,0.023489220067858696,0.09064182639122009
1789141053336071700,1.24107177734375,-0.1268569678068161,-0.006528601050376892,0.16682767868041992
1789141053346044000,1.2510439453125,-0.15104562044143677,-0.009079186245799065,0.14069874584674835
1789141053356017000,1.261016845703125,-0.18780656158924103,-0.026815306395292282,0.10939489305019379
1789141053365988600,1.270988525390625,-0.19828368723392487,-0.023002974689006805,0.07424070686101913
1789141053375960800,1.2809609375,-0.17804579436779022,-0.002820207504555583,-0.02668377384543419
1789141053385933800,1.290933837890625,-0.12153708189725876,0.01979551650583744,-0.10189951956272125
1789141053395905800,1.30090576171875,-0.09521307051181793,-0.013400519266724586,0.070211261510849
1789141053405878800,1.310878662109375,-0.10743474215269089,-0.03565511852502823,0.09895563870668411
1789141053415850800,1.320850830078125,-0.09939253330230713,-0.029611874371767044,-0.0589359849691391
1789141053425822700,1.33082275390625,-0.15453889966011047,-0.08518234640359879,0.06814154982566833
1789141053435795700,1.340795654296875,-0.17809349298477173,-0.12877057492733002,0.1439521610736847
1789141053445768000,1.350767822265625,-0.18958628177642822,-0.11144208163022995,0.05391808599233627
1789141053455739600,1.36073974609375,-0.26583659648895264,-0.12595950067043304,0.05032894387841225
1789141053465713000,1.370712890625,-0.2487204670906067,-0.12025122344493866,0.054797906428575516
1789141053475684900,1.380684814453125,-0.22329288721084595,-0.14659255743026733,0.16150064766407013
1789141053485656800,1.39065673828125,-0.2264215052127838,-0.14882448315620422,0.19861750304698944
1789141053495629800,1.4006298828125,-0.18574118614196777,-0.13909515738487244,0.09121407568454742
1789141053505601800,1.410601806640625,-0.22936686873435974,-0.14799320697784424,0.021124282851815224
1789141053515573800,1.42057373046875,-0.2378879189491272,-0.16459402441978455,0.012962493114173412
1789141053525546800,1.430546630859375,-0.2291753590106964,-0.1309778392314911,-0.05874473229050636
1789141053535519000,1.44051904296875,-0.23269446194171906,-0.12704116106033325,-0.10630346089601517
1789141053545492000,1.450491943359375,-0.23383717238903046,-0.12846563756465912,-0.08264157176017761
1789141053555463700,1.460463623046875,-0.22188064455986023,-0.1449042707681656,0.0036315335892140865
1789141053565436000,1.470435791015625,-0.23308345675468445,-0.14491529762744904,0.057329241186380386
1789141053575409000,1.480408935546875,-0.21685683727264404,-0.13156433403491974,-0.017944211140275
1789141053585380900,1.490380859375,-0.2432224452495575,-0.15127801895141602,0.03288622573018074
1789141053595352800,1.500352783203125,-0.2273460030555725,-0.13629108667373657,0.010846704244613647
1789141053605325800,1.510325927734375,-0.23718585073947906,-0.1320294886827469,-0.015247214585542679
1789141053615297800,1.5202978515625,-0.2221994549036026,-0.14128796756267548,-0.03993285447359085
1789141053625270000,1.53027001953125,-0.19392645359039307,-0.13452666997909546,-0.02175947092473507
1789141053635243000,1.540242919921875,-0.1400989145040512,-0.12009900063276291,-0.05685513839125633
1789141053645214700,1.550214599609375,-0.13254936039447784,-0.11749788373708725,-0.07523506879806519
1789141053655188000,1.56018798828125,-0.12291378527879715,-0.10661114752292633,-0.029695551842451096
1789141053665160000,1.570159912109375,-0.13316619396209717,-0.09162171185016632,-0.05456693470478058
1789141053675132000,1.5801318359375,-0.1258171796798706,-0.09818773716688156,-0.02937316708266735
1789141053685105000,1.59010498046875,-0.11880570650100708,-0.09826837480068207,-0.026600109413266182
1789141053695076900,1.600076904296875,-0.08349698036909103,-0.12375509738922119,0.028068194165825844
1789141053705048800,1.610048828125,-0.04980424791574478,-0.10710738599300385,0.060538001358509064
1789141053715021800,1.620021728515625,-0.0471019372344017,-0.10315365344285965,0.05611422657966614
1789141053724994000,1.629994140625,-0.005557647906243801,-0.1319046914577484,-0.014519786462187767
1789141053734965800,1.6399658203125,-0.0009831367060542107,-0.12169492989778519,-0.012414824217557907
1789141053744938800,1.649938720703125,-0.07005574554204941,-0.12123334407806396,0.005787923000752926
1789141053754911000,1.659910888671875,-0.06111151725053787,-0.13689911365509033,-0.04974671080708504
1789141053764883700,1.6698837890625,-0.07140053808689117,-0.1537962406873703,-0.05012080445885658
1789141053774856000,1.67985595703125,-0.10675346851348877,-0.1957673877477646,0.028813958168029785
1789141053784828000,1.689827880859375,-0.10285187512636185,-0.18845359981060028,0.06889582425355911
1789141053794800600,1.699800537109375,-0.08016333729028702,-0.19076868891716003,0.023101704195141792
1789141053804772900,1.70977294921875,-0.14320418238639832,-0.22980888187885284,0.08568631112575531
1789141053814744800,1.719744873046875,-0.1491033434867859,-0.20941811800003052,0.07977116852998734
1789141053824717800,1.7297177734375,-0.08371993154287338,-0.18728326261043549,0.04528502747416496
1789141053834689800,1.739689697265625,-0.05939089134335518,-0.22568923234939575,0.04299630597233772
1789141053844662000,1.749662109375,-0.02414264902472496,-0.2185332030057907,0.007743527181446552
1789141053854634800,1.759634765625,-0.011318462900817394,-0.16064487397670746,-0.0021554427221417427
1789141053864607000,1.76960693359375,-0.004979073069989681,-0.1381843090057373,-0.02184312790632248
1789141053874579000,1.779578857421875,0.003989387769252062,-0.12052275240421295,-0.01393620204180479
1789141053884551700,1.7895517578125,0.03864175081253052,-0.10313805192708969,-0.03424657881259918
1789141053894524000,1.79952392578125,0.04878706485033035,-0.10948676615953445,0.0006906318012624979
1789141053904497000,1.809496826171875,0.06415776908397675,-0.10776769369840622,0.03895413130521774
1789141053914468900,1.81946875,0.0582687184214592,-0.11062446236610413,0.05458129197359085
1789141053924440800,1.82944091796875,0.08839916437864304,-0.12250165641307831,0.03650534152984619
1789141053934413800,1.839413818359375,0.07919927686452866,-0.1180507093667984,0.04558299109339714
1789141053944385800,1.8493857421875,0.04188627749681473,-0.10884559899568558,0.03795701637864113
1789141053954357800,1.859357666015625,0.05242919921875,-0.11388350278139114,0.013845022767782211
1789141053964331000,1.8693310546875,0.09732457995414734,-0.10935282707214355,0.000968588050454855
1789141053974302700,1.879302734375,0.12692561745643616,-0.075705386698246,-0.030082538723945618
1789141053984275000,1.88927490234375,0.1113562285900116,-0.08016782999038696,0.011050675064325333
1789141053994248000,1.899248046875,0.12086637318134308,-0.06351827830076218,-0.008685479871928692
1789141054004219600,1.9092197265625,0.1442302018404007,-0.06971315294504166,-0.01484717521816492
1789141054014193000,1.91919287109375,0.1351645439863205,-0.07970985770225525,0.05102717876434326
1789141054024164900,1.929164794921875,0.1527094542980194,-0.06994763016700745,0.03583449125289917
1789141054034136800,1.93913671875,0.1311756670475006,-0.06096185743808746,0.028571518138051033
1789141054044109800,1.94910986328125,0.1298312246799469,-0.07647497951984406,0.05150430649518967
1789141054054081800,1.959081787109375,0.11953012645244598,-0.05963953584432602,0.02896730788052082
1789141054064053800,1.9690537109375,0.14184169471263885,-0.050446685403585434,-0.030815016478300095
1789141054074026800,1.97902685546875,0.12703026831150055,-0.023849695920944214,-0.004071819130331278
1789141054083999000,1.9889990234375,0.14552798867225647,-0.0306466706097126,0.013720653019845486
1789141054093970700,1.998970703125,0.18098531663417816,-0.03991340845823288,0.001939893700182438
1789141054103944000,2.00894384765625,0.17729611694812775,-0.0367371067404747,-0.017983388155698776
1789141054113916000,2.018916015625,0.15222619473934174,-0.035973310470581055,-0.0062114167958498
1789141054123887900,2.028887939453125,0.15703681111335754,-0.0331207774579525,-0.005020233802497387
1789141054133860900,2.03886083984375,0.15134963393211365,-0.030482914298772812,-0.026892241090536118
1789141054143832800,2.048832763671875,0.12848645448684692,-0.03850960358977318,0.00941402930766344
1789141054153805800,2.058805908203125,0.12352312356233597,-0.024237189441919327,0.03924356400966644
1789141054163777800,2.06877783203125,0.1444479078054428,-0.010035562328994274,0.057377398014068604
1789141054173750000,2.07875,0.17323747277259827,-0.018744366243481636,0.0665527880191803
1789141054183722800,2.08872265625,0.19427168369293213,0.0030389660969376564,0.06040501594543457
1789141054193694700,2.09869482421875,0.187764510512352,0.015096427872776985,0.006600640714168549
1789141054203667000,2.1086669921875,0.18405656516551971,0.006032202392816544,-0.028997553512454033
1789141054213639700,2.1186396484375,0.17416106164455414,0.05235123261809349,0.01447269320487976
1789141054223612000,2.12861181640625,0.2118939459323883,0.06319710612297058,-0.00016505527310073376
1789141054233583900,2.138583984375,0.2067476511001587,0.07686711102724075,-0.002010093303397298
1789141054243556900,2.148556884765625,0.24951526522636414,0.06156742572784424,0.03808678686618805
1789141054253528800,2.15852880859375,0.24146239459514618,0.09416451305150986,0.03525504469871521
1789141054263501800,2.168501708984375,0.22622811794281006,0.06540204584598541,0.04608607664704323
1789141054273473800,2.178473876953125,0.23877346515655518,0.09326031059026718,0.022293396294116974
1789141054283445800,2.18844580078125,0.20008523762226105,0.1243295967578888,0.013646084815263748
1789141054293419000,2.1984189453125,0.1878293752670288,0.11290304362773895,0.0065556843765079975
1789141054303390700,2.208390625,0.2010578215122223,0.09040717780590057,0.00930302869528532
1789141054313363000,2.218363037109375,0.22364115715026855,0.1335565149784088,-0.05414252355694771
1789141054323336000,2.2283359375,0.22060035169124603,0.13046707212924957,0.004361672326922417
1789141054333307600,2.2383076171875,0.18856677412986755,0.10773114114999771,0.062354400753974915
1789141054343279900,2.24827978515625,0.1824910193681717,0.09733042120933533,0.014760112389922142
1789141054353252900,2.2582529296875,0.17814554274082184,0.1309022307395935,0.012666335329413414
1789141054363224800,2.268224853515625,0.18062357604503632,0.1451769769191742,0.07512281835079193
1789141054373196800,2.27819677734375,0.15010401606559753,0.13526229560375214,0.055578943341970444
1789141054383169800,2.288169677734375,0.15726377069950104,0.12996819615364075,-0.048137400299310684
1789141054393141800,2.298141845703125,0.09355242550373077,0.15637876093387604,-0.007165467366576195
1789141054403114800,2.30811474609375,0.11229251325130463,0.141151562333107,-0.021187782287597656
1789141054413087000,2.3180869140625,0.11095747351646423,0.1237158477306366,-0.016079306602478027
1789141054423058700,2.32805859375,0.1399606317281723,0.1521245837211609,-0.0627024695277214
1789141054433031700,2.33803173828125,0.1125473752617836,0.10639064759016037,-0.05021171271800995
1789141054443004000,2.34800390625,0.05467062070965767,0.08366136997938156,-0.05099914222955704
1789141054452975900,2.357975830078125,0.012606257572770119,0.08329465240240097,-0.05385378375649452
1789141054462948900,2.367948974609375,0.016502441838383675,0.0623260922729969,-0.04561394825577736
1789141054472920800,2.3779208984375,-0.02438667044043541,0.03654269874095917,-0.004099263343960047
1789141054482892800,2.387892822265625,-0.045930370688438416,0.007980508729815483,0.010673184879124165
1789141054492865800,2.39786572265625,-0.0736600011587143,-0.008383285254240036,0.03071187436580658
1789141054502838000,2.407838134765625,-0.08081996440887451,-0.0132631566375494,0.02892104536294937
1789141054512811000,2.41781103515625,-0.11065827310085297,-0.006357579492032528,-0.017938073724508286
1789141054522782700,2.42778271484375,-0.11557135730981827,-0.040433093905448914,-0.026603680104017258
1789141054532755000,2.4377548828125,-0.09054642915725708,-0.02645895443856716,-0.011276123113930225
1789141054542728000,2.44772802734375,-0.06234048306941986,-0.023463960736989975,0.013954333029687405
1789141054552700000,2.457699951171875,-0.06958108395338058,-0.010912216268479824,-0.016340188682079315
1789141054562671900,2.467671875,-0.06468326598405838,-0.003533395938575268,-0.011717474088072777
1789141054572644900,2.477644775390625,-0.07436598837375641,0.030710062012076378,-0.032219819724559784
1789141054582616800,2.487616943359375,-0.08300384879112244,0.029339060187339783,-0.06561246514320374
1789141054592588800,2.4975888671875,-0.07151390612125397,0.02114824205636978,-0.04095665365457535
1789141054602562000,2.50756201171875,-0.054234087467193604,0.04625508561730385,-0.022255484014749527
1789141054612533800,2.51753369140625,-0.02641310915350914,0.026011599227786064,-0.045113127678632736
1789141054622506000,2.527506103515625,-0.01702067255973816,0.03588591516017914,-0.07295046746730804
1789141054632479000,2.53747900390625,-0.04121442511677742,0.05509902164340019,-0.012892726808786392
1789141054642450700,2.54745068359375,-0.06001646816730499,0.08359687030315399,-0.02690143510699272
1789141054652424000,2.557423828125,-0.04523272067308426,0.04283132776618004,-0.01678488589823246
1789141054662396000,2.56739599609375,-0.03858623281121254,0.07404453307390213,0.008624988608062267
1789141054672367900,2.577367919921875,-0.01860533282160759,0.060891181230545044,0.054177556186914444
1789141054682340900,2.5873408203125,-0.0033462652936577797,0.0444336012005806,0.04091770946979523
1789141054692312800,2.597312744140625,-0.007697070948779583,0.039665479212999344,0.08329526335000992
1789141054702284800,2.607284912109375,-0.04839953035116196,0.03943829983472824,0.11745376139879227
1789141054712257800,2.6172578125,-0.047913506627082825,0.024721937254071236,0.08005232363939285
1789141054722230000,2.62722998046875,-0.02654145285487175,0.03194672614336014,0.0645650327205658
1789141054732201700,2.63720166015625,-0.026764892041683197,0.04744232818484306,0.08124680817127228
1789141054742175000,2.647175048828125,-0.04255807399749756,0.024510541930794716,0.08737386018037796
1789141054752147000,2.65714697265625,-0.05848830193281174,-0.00009919749572873116,0.07578884065151215
1789141054762119000,2.667118896484375,-0.08763732016086578,0.004193385597318411,0.055804431438446045
1789141054772092000,2.677091796875,-0.0982886329293251,-0.014743020758032799,0.032879408448934555
1789141054782063600,2.687063720703125,-0.10047238320112228,-0.028951887041330338,0.010863706469535828
1789141054792036900,2.697036865234375,-0.113017737865448,-0.010568885132670403,0.009071133099496365
1789141054802008800,2.7070087890625,-0.10876931995153427,-0.0356098972260952,0.021395230665802956
1789141054811980800,2.716980712890625,-0.09774170070886612,-0.05199925974011421,0.01950332149863243
1789141054821953800,2.726953857421875,-0.08605930954217911,-0.06730987876653671,0.050195641815662384
1789141054831925800,2.73692578125,-0.09614976495504379,-0.050723712891340256,0.07406794279813766
1789141054841897700,2.746897705078125,-0.07721146941184998,-0.09321029484272003,0.10458163917064667
1789141054851870700,2.75687060546875,-0.09750769287347794,-0.08740167319774628,0.09738923609256744
1789141054861843000,2.766843017578125,-0.08290576189756393,-0.08934971690177917,0.1519177109003067
1789141054871814700,2.776814697265625,-0.12420660257339478,-0.0926528349518776,0.20835435390472412
1789141054881788000,2.786787841796875,-0.09695877134799957,-0.11023305356502533,0.18299613893032074
1789141054891759900,2.796759765625,-0.07880479842424393,-0.09220105409622192,0.16106341779232025
1789141054901731800,2.80673193359375,-0.059754736721515656,-0.08711953461170197,0.10858411341905594
1789141054911704800,2.816704833984375,-0.08329175412654877,-0.08222518116235733,0.1390589326620102
1789141054921676800,2.8266767578125,-0.07003497332334518,-0.0706789419054985,0.0771344006061554
1789141054931650000,2.836650146484375,-0.06970261037349701,-0.05063731595873833,-0.04646078124642372
1789141054941621800,2.846621826171875,-0.057673580944538116,-0.07418812811374664,-0.04833474010229111
1789141054951594000,2.856593994140625,-0.04409545287489891,-0.03320740908384323,-0.17005158960819244
1789141054961567000,2.86656689453125,0.03950316086411476,-0.012929989024996758,-0.1991719752550125
1789141054971538700,2.87653857421875,0.020444780588150024,-0.0006480226293206215,-0.15721680223941803
1789141054981511000,2.886510986328125,0.012330519035458565,-0.06469625234603882,-0.04521084204316139
1789141054991484000,2.89648388671875,0.054571449756622314,-0.017608366906642914,-0.14760644733905792
1789141055001455900,2.906455810546875,0.016712933778762817,-0.029835950583219528,0.012089107185602188
1789141055011427800,2.916427734375,0.0069915978237986565,-0.06854872405529022,0.05438010394573212
1789141055021400800,2.92640087890625,-0.038309819996356964,-0.07312057167291641,0.07193899154663086
1789141055031372800,2.936372802734375,-0.03714681416749954,-0.04157595708966255,0.014340146444737911
1789141055041345800,2.946345703125,-0.06443589925765991,-0.043205223977565765,-0.02695285528898239
1789141055051318000,2.956318115234375,-0.044004399329423904,-0.03677262365818024,-0.060013070702552795
1789141055061289700,2.966289794921875,-0.02849152311682701,-0.01883651316165924,-0.09284931421279907
1789141055071262700,2.9762626953125,0.03036699816584587,0.004190509673207998,-0.13702957332134247
1789141055081235000,2.98623486328125,0.0814511626958847,0.023265346884727478,-0.09470324963331223
1789141055091207700,2.996207763671875,0.09612517058849335,0.03363756090402603,-0.03334961459040642
1789141055101180700,3.0061806640625,0.10706392675638199,0.004487189929932356,-0.006700985133647919
1789141055111153000,3.01615283203125,0.09064554423093796,-0.029723243787884712,0.02078869566321373
1789141055121124900,3.026124755859375,0.03672496974468231,-0.04914030060172081,0.051890064030885696
1789141055131097900,3.036097900390625,-0.02273436076939106,-0.043692536652088165,0.017584020271897316
1789141055141069800,3.04606982421875,-0.09288915246725082,-0.04868841543793678,-0.05115087330341339
1789141055151041800,3.056041748046875,-0.09448971599340439,-0.05076514929533005,-0.12906672060489655
1789141055161014800,3.066014892578125,-0.062394674867391586,-0.045959945768117905,-0.19651108980178833
1789141055170987000,3.075987060546875,0.008951946161687374,-0.053237564861774445,-0.2309846431016922
1789141055180960000,3.0859599609375,0.058032505214214325,-0.057983968406915665,-0.1926121711730957
1789141055190931700,3.095931640625,0.08385584503412247,-0.04821815714240074,-0.14952994883060455
1789141055200904000,3.105904052734375,0.06637115776538849,-0.05158492550253868,-0.12709614634513855
1789141055210877000,3.115876953125,0.04809042066335678,-0.027034839615225792,-0.16476097702980042
1789141055220849000,3.125848876953125,-0.03545839712023735,-0.0367901474237442,-0.07616789638996124
1789141055230820900,3.13582080078125,-0.08963347971439362,-0.025855742394924164,-0.06291787326335907
1789141055240793900,3.1457939453125,-0.0651070773601532,-0.07034289091825485,-0.05123433470726013
1789141055250765800,3.155765869140625,-0.024649400264024734,-0.03198058903217316,-0.05184206739068031
1789141055260737800,3.16573779296875,0.01950671151280403,-0.027012621983885765,-0.035596173256635666
1789141055270711000,3.1757109375,0.04753781482577324,-0.039414431899785995,-0.056657515466213226
1789141055280682800,3.185682861328125,0.08649639785289764,-0.046334389597177505,-0.058329448103904724
1789141055290655000,3.195655029296875,0.12507706880569458,-0.03588121756911278,-0.10847330838441849
1789141055300628000,3.2056279296875,0.09016244113445282,-0.04291931912302971,-0.09489917010068893
1789141055310599700,3.215599609375,0.04839209094643593,-0.06683370471000671,-0.07821712642908096
1789141055320573000,3.225572998046875,-0.000014176592230796814,-0.044051580131053925,-0.04086940735578537
1789141055330545000,3.235544921875,0.027898147702217102,-0.031529396772384644,0.015309709124267101
1789141055340516900,3.245516845703125,0.0371846929192543,0.0005583367310464382,0.0497729554772377
1789141055350489900,3.25548974609375,0.06201440840959549,0.025634661316871643,0.1158643588423729
1789141055360461800,3.2654619140625,0.07905654609203339,0.0698326900601387,0.08737581968307495
1789141055370433800,3.275433837890625,0.12499154359102249,0.05258339270949364,0.048780761659145355
1789141055380406800,3.28540673828125,0.1137300506234169,0.040604133158922195,0.004048893228173256
1789141055390379000,3.29537890625,0.09494917094707489,0.031220484524965286,-0.06981015205383301
1789141055400350700,3.305350830078125,0.08906399458646774,0.03458261489868164,-0.15661637485027313
1789141055410324000,3.315323974609375,0.10085993260145187,0.034639872610569,-0.14011196792125702
1789141055420296000,3.3252958984375,0.1309492439031601,0.058816954493522644,-0.1780487447977066
1789141055430268700,3.3352685546875,0.10106192529201508,0.06404660642147064,-0.18489520251750946
1789141055440241000,3.345240966796875,0.11420412361621857,0.06829002499580383,-0.15855243802070618
1789141055450212900,3.355212890625,0.09998764097690582,0.07707526534795761,-0.0683000460267067
1789141055460185900,3.365185791015625,0.08479951322078705,0.08324474096298218,-0.008815748617053032
1789141055470157800,3.37515771484375,0.090463787317276,0.0425788052380085,0.04708053916692734
1789141055480130000,3.385130126953125,0.0884794220328331,0.060582906007766724,0.06711594760417938
1789141055490102800,3.395102783203125,0.08179328590631485,-0.0024514542892575264,0.16374368965625763
1789141055500074800,3.40507470703125,0.06477592140436172,0.033513568341732025,0.09349949657917023
1789141055510047000,3.415046875,0.03267364576458931,0.012091103941202164,0.08459974080324173
1789141055520019700,3.425019775390625,-0.05768849700689316,0.027615465223789215,0.02408619597554207
1789141055529992000,3.434991943359375,-0.027229387313127518,0.008778924122452736,-0.004392850212752819
1789141055539964000,3.4449638671875,-0.0010662069544196129,0.03559909015893936,-0.06474873423576355
1789141055549937000,3.45493701171875,0.03374423831701279,0.03031005524098873,-0.07665465772151947
1789141055559908900,3.464908935546875,0.021174076944589615,0.03230592980980873,-0.1167830303311348
1789141055569881900,3.4748818359375,0.02823704667389393,0.003973891027271748,-0.0971323624253273
1789141055579853800,3.484853759765625,0.015380676835775375,0.008265892043709755,-0.11282506585121155
1789141055589825800,3.49482568359375,-0.012541236355900764,-0.04104999452829361,-0.08468636870384216
1789141055599799000,3.504799072265625,-0.03120667301118374,-0.0007682396098971367,-0.1404402256011963
1789141055609770800,3.514770751953125,-0.08307013660669327,-0.027817167341709137,-0.03182746842503548
1789141055619743000,3.524742919921875,-0.030824702233076096,0.018527530133724213,-0.0018264802638441324
1789141055629716000,3.534716064453125,-0.05797269567847252,-0.0017383266240358353,0.0590701587498188
1789141055639687700,3.544687744140625,-0.09071054309606552,-0.01594846323132515,0.09815240651369095
1789141055649660000,3.554659912109375,-0.06485205143690109,-0.011617631651461124,0.1401272863149643
1789141055659633000,3.5646328125,-0.001933995634317398,0.011630421504378319,0.12200028449296951
1789141055669604900,3.57460498046875,-0.011588487774133682,0.02896307222545147,0.11717011034488678
1789141055679576800,3.584576904296875,-0.0018375897780060768,0.036574650555849075,0.06566537171602249
1789141055689549800,3.5945498046875,0.014663622714579105,0.05821869522333145,-0.0012721145758405328
1789141055699521800,3.604521728515625,0.015435190871357918,0.06580871343612671,0.007351198233664036
1789141055709494800,3.614494873046875,0.07720507681369781,0.07145221531391144,-0.006636789068579674
1789141055719467000,3.624467041015625,0.10526487976312637,0.06870590895414352,-0.017920443788170815
1789141055729438700,3.634438720703125,0.09963788837194443,0.06116862967610359,-0.07988208532333374
1789141055739411700,3.64441162109375,0.11663688719272614,0.06421294063329697,-0.01453186385333538
1789141055749384000,3.654384033203125,0.11632263660430908,0.0685749351978302,-0.010907834395766258
1789141055759356000,3.66435595703125,0.062475115060806274,0.07297500967979431,-0.029296427965164185
1789141055769329000,3.674328857421875,0.04495524242520332,0.06064537167549133,-0.06448717415332794
1789141055779300900,3.68430078125,0.022806670516729355,0.07369581609964371,-0.06024736538529396
1789141055789272800,3.69427294921875,-0.028517503291368484,0.0647774264216423,-0.05254736915230751
1789141055799245800,3.704245849609375,-0.03581724315881729,0.05078406259417534,-0.048447273671627045
1789141055809218000,3.714218017578125,0.026324160397052765,0.06211048737168312,-0.037246815860271454
1789141055819189800,3.724189697265625,0.03714900463819504,0.07172001898288727,0.034331537783145905
1789141055829162800,3.734162841796875,0.08025067299604416,0.06883954256772995,0.05740223452448845
1789141055839135000,3.744135009765625,0.08770297467708588,0.06661191582679749,0.11870475113391876
1789141055849107700,3.754107666015625,0.06047854200005531,0.06196922808885574,0.15923407673835754
1789141055859080000,3.764079833984375,0.03273860737681389,0.07180636376142502,0.1565888375043869
1789141055869052000,3.774052001953125,0.027475137263536453,0.09109590202569962,0.15387721359729767
1789141055879024600,3.784024658203125,0.019447609782218933,0.07263822853565216,0.19483621418476105
1789141055888996900,3.793996826171875,0.03996593505144119,0.08713807165622711,0.13961291313171387
1789141055898968800,3.80396875,0.08258040249347687,0.10922158509492874,0.14117568731307983
1789141055908941800,3.81394189453125,0.0987607017159462,0.09111794829368591,0.16213636100292206
1789141055918913800,3.823913818359375,0.07880803942680359,0.08403900265693665,0.10918181389570236
1789141055928886000,3.833885986328125,0.08322808146476746,0.06307193636894226,0.07641054689884186
1789141055938858800,3.843858642578125,0.08573977649211884,0.06252577900886536,0.03191375732421875
1789141055948830700,3.853830810546875,0.04435105621814728,0.04900650680065155,0.02811342664062977
1789141055958803000,3.863802978515625,0.01666153594851494,0.014790905639529228,0.08103328198194504
1789141055968775700,3.873775634765625,0.0061487071216106415,0.047442324459552765,0.06730575114488602
1789141055978748000,3.883747802734375,-0.006417592987418175,0.023530330508947372,0.06967245042324066
1789141055988721000,3.893720947265625,-0.04024959355592728,0.01647348701953888,0.03698534145951271
1789141055998692900,3.90369287109375,-0.05746341496706009,0.027187544852495193,0.08043573051691055
1789141056008664800,3.913664794921875,-0.016951411962509155,0.03500418737530708,0.010508043691515923
1789141056018637800,3.923637939453125,0.012099680490791798,0.023522501811385155,-0.020241880789399147
1789141056028609800,3.93360986328125,0.0073539274744689465,0.061978284269571304,0.014077478088438511
1789141056038581800,3.943581787109375,0.03727267310023308,0.0745805874466896,0.02958855964243412
1789141056048555000,3.953554931640625,0.08101802319288254,0.06793733686208725,0.01820647530257702
1789141056058526700,3.963526611328125,0.07546146959066391,0.06297681480646133,0.043657418340444565
1789141056068499000,3.9734990234375,0.06264340877532959,0.0842064693570137,0.007095946930348873
1789141056078472000,3.983471923828125,0.07956734299659729,0.0737825334072113,0.010564806871116161
1789141056088443400,3.993443359375,0.0547243133187294,0.09299750626087189,-0.004410946741700172
1789141056098415600,4.00341552734375,0.053021714091300964,0.09950243681669235,0.0017153871012851596
1789141056108388600,4.013388671875,0.04666741192340851,0.0801340639591217,-0.00975431501865387
1789141056118360600,4.023360595703125,0.01295443344861269,0.07674536108970642,0.003224911168217659
1789141056128333600,4.03333349609375,0.026497673243284225,0.08049429208040237,0.000565212219953537
1789141056138305800,4.043305908203125,0.012654144316911697,0.05613819882273674,0.00044798513408750296
1789141056148277500,4.053277587890625,-0.0033876728266477585,0.022454537451267242,0.007888590916991234
1789141056158250500,4.06325048828125,-0.0017000995576381683,0.00607709726318717,-0.012338098138570786
1789141056168222700,4.07322265625,-0.018453245982527733,0.008241182193160057,0.0022807917557656765
1789141056178194400,4.0831943359375,-0.030688676983118057,-0.007838617078959942,0.042882032692432404
1789141056188167700,4.093167724609375,-0.05223418399691582,-0.013280253857374191,0.05753474310040474
1789141056198139600,4.1031396484375,-0.022615857422351837,-0.024019915610551834,0.006894777528941631
1789141056208111600,4.113111572265625,-0.04820297658443451,-0.021784458309412003,0.014535119757056236
1789141056218084600,4.123084716796875,-0.10095974802970886,-0.013953874818980694,0.01461835391819477
1789141056228056600,4.133056640625,-0.08245157450437546,-0.01125316321849823,-0.029458560049533844
1789141056238028500,4.143028564453125,-0.057011768221855164,-0.014236487448215485,-0.03968134522438049
1789141056248001500,4.15300146484375,-0.03983224555850029,-0.03173531964421272,-0.008065895177423954
1789141056257973800,4.162973876953125,-0.036169297993183136,0.0026040631346404552,-0.05544435605406761
1789141056267946500,4.172946533203125,-0.03487100452184677,-0.004930552095174789,-0.040467269718647
1789141056277918500,4.18291845703125,-0.04716554656624794,-0.0017770472913980484,0.011952566914260387
1789141056287890700,4.192890625,-0.027054153382778168,0.021905645728111267,0.004126335494220257
1789141056297863400,4.202863525390625,-0.006302781403064728,0.00513466028496623,-0.0032954933121800423
1789141056307835600,4.212835693359375,0.02485433965921402,-0.008522029966115952,-0.010137421078979969
1789141056317807600,4.2228076171875,0.02697853371500969,0.014872832223773003,-0.023297855630517006
1789141056327780600,4.232780517578125,-0.0018978537991642952,0.004516330547630787,0.016553686931729317
1789141056337752600,4.242752685546875,-0.01485142856836319,0.02625538595020771,0.009003449231386185
1789141056347724800,4.252724853515625,-0.009270241484045982,0.030006445944309235,-0.027042701840400696
1789141056357697500,4.262697509765625,-0.017059948295354843,0.03613172844052315,-0.0391068197786808
1789141056367669500,4.27266943359375,0.00976634118705988,0.015482110902667046,-0.022271910682320595
1789141056377641700,4.282641845703125,0.0032392418943345547,0.00878739170730114,-0.07520906627178192
1789141056387614500,4.292614501953125,-0.02373697981238365,-0.0008428648579865694,-0.05921226367354393
1789141056397586700,4.302586669921875,-0.06087099760770798,-0.00424260413274169,-0.0772823691368103
1789141056407559700,4.3125595703125,-0.06302443146705627,-0.023658379912376404,-0.08647506684064865
1789141056417531400,4.322531494140625,-0.06891433149576187,-0.026426147669553757,-0.02704765647649765
1789141056427503600,4.332503662109375,-0.0890670046210289,-0.03685961291193962,-0.002469075843691826
1789141056437476600,4.3424765625,-0.06130398064851761,-0.057336822152137756,-0.011212686076760292
1789141056447448600,4.352448486328125,-0.08339729905128479,-0.03892479091882706,-0.020255982875823975
1789141056457420500,4.362420654296875,-0.1418295055627823,-0.048935666680336,0.00034852337557822466
1789141056467393500,4.3723935546875,-0.09777256846427917,-0.059695105999708176,-0.010940616019070148
1789141056477365500,4.382365478515625,-0.0853881761431694,-0.028669647872447968,-0.010874651372432709
1789141056487337500,4.39233740234375,-0.11534128338098526,-0.024744415655732155,-0.01755998469889164
1789141056497310700,4.402310791015625,-0.06905382126569748,-0.052271805703639984,-0.03594303876161575
1789141056507282400,4.412282470703125,-0.13223625719547272,-0.0316605344414711,0.00841750018298626
1789141056517254700,4.422254638671875,-0.13850700855255127,-0.054983917623758316,0.010149793699383736
1789141056527227600,4.4322275390625,-0.07452324032783508,-0.04139034450054169,-0.08579324930906296
1789141056537199600,4.44219970703125,-0.07532374560832977,-0.04474800452589989,-0.005659556016325951
1789141056547172600,4.452172607421875,-0.12398102134466171,-0.057545557618141174,0.043482955545186996
1789141056557144600,4.46214453125,-0.10918983072042465,-0.05645488202571869,-0.004586687311530113
1789141056567116500,4.472116455078125,-0.11609940230846405,-0.04239765554666519,0.03298491984605789
1789141056577089500,4.482089599609375,-0.11647583544254303,-0.039769597351551056,0.009572982788085938
1789141056587061800,4.492061767578125,-0.13944026827812195,-0.06114519387483597,0.022368142381310463
1789141056597033500,4.502033447265625,-0.07601924240589142,-0.06897158175706863,-0.02697303146123886
1789141056607006500,4.51200634765625,-0.12496068328619003,-0.08225490152835846,-0.008956214413046837
1789141056616978700,4.521978759765625,-0.14013391733169556,-0.11594085395336151,-0.0014727874659001827
1789141056626950400,4.531950439453125,-0.13218651711940765,-0.07227087020874023,-0.011118490248918533
1789141056636923600,4.541923583984375,-0.12449102848768234,-0.05861108750104904,-0.005750902462750673
1789141056646895600,4.5518955078125,-0.11408631503582001,-0.08979058265686035,-0.017960164695978165
1789141056656867600,4.56186767578125,-0.14355230331420898,-0.05435987934470177,0.0054480889812111855
1789141056666840600,4.571840576171875,-0.13369648158550262,-0.048741940408945084,0.011751791462302208
1789141056676812500,4.5818125,-0.08026019483804703,-0.09404049813747406,-0.01433650590479374
1789141056686785800,4.591785888671875,-0.06682135164737701,-0.07291337847709656,-0.011828873306512833
1789141056696757500,4.601757568359375,-0.07154981791973114,-0.03750133141875267,0.021950259804725647
1789141056706729700,4.611729736328125,-0.058770641684532166,-0.07883358746767044,0.030597809702157974
1789141056716702700,4.62170263671875,-0.06421014666557312,-0.0796719491481781,0.01944715529680252
1789141056726674400,4.63167431640625,-0.037023529410362244,-0.06836842745542526,0.017769362777471542
1789141056736646700,4.641646728515625,-0.044288553297519684,-0.04586690291762352,0.016075419262051582
1789141056746619600,4.65161962890625,-0.04613305628299713,-0.05163371190428734,0.013188553042709827
1789141056756591600,4.661591552734375,-0.048919033259153366,-0.06021244823932648,0.023928696289658546
1789141056766563600,4.6715634765625,-0.05749840289354324,-0.04676348343491554,0.023492470383644104
1789141056776536600,4.68153662109375,-0.051173336803913116,-0.027937278151512146,-0.018471118062734604
1789141056786508500,4.691508544921875,-0.02050197497010231,-0.04540042206645012,0.004833404906094074
1789141056796480800,4.701480712890625,0.0036200741305947304,-0.037149738520383835,-0.048227522522211075
1789141056806453800,4.711453857421875,-0.006561989895999432,-0.02670402266085148,-0.0345255583524704
1789141056816425500,4.721425537109375,0.0048872497864067554,-0.01787388324737549,-0.028801772743463516
1789141056826397700,4.731397705078125,0.023870795965194702,0.0010417504236102104,0.003458960447460413
1789141056836370700,4.74137060546875,0.028255341574549675,-0.017803257331252098,0.04016495123505592
1789141056846342700,4.7513427734375,0.03796709328889847,-0.02925485000014305,0.02190019190311432
1789141056856315600,4.761315673828125,0.03117736056447029,-0.004450966604053974,-0.0027734620962291956
1789141056866287600,4.77128759765625,-0.0006037373095750809,-0.01194856408983469,0.07632561028003693
1789141056876259600,4.781259521484375,0.013682296499609947,0.017086921259760857,0.04791084676980972
1789141056886232600,4.791232666015625,0.030201617628335953,0.010567501187324524,0.052317578345537186
1789141056896204800,4.801204833984375,0.03887898102402687,0.01737704500555992,0.06795886904001236
1789141056906176500,4.811176513671875,0.07821786403656006,0.043696798384189606,0.058107033371925354
1789141056916149500,4.8211494140625,0.11444832384586334,0.03400193527340889,0.035233017057180405
1789141056926121500,4.83112158203125,0.07511875778436661,0.016930539160966873,0.045470740646123886
1789141056936093700,4.84109375,0.06653077900409698,0.01246740110218525,0.005642008036375046
1789141056946066700,4.851066650390625,0.03203645348548889,0.023520585149526596,0.008423413150012493
1789141056956038400,4.861038330078125,-0.004067077301442623,0.04220132902264595,0.0006620956119149923
1789141056966010600,4.8710107421875,-0.001887812279164791,0.026303056627511978,-0.00921610090881586
1789141056975983600,4.880983642578125,0.061440180987119675,0.03304596245288849,-0.023912446573376656
1789141056985955600,4.89095556640625,0.09370384365320206,0.05051843076944351,-0.0014806401450186968
1789141056995928600,4.900928466796875,0.07445221394300461,0.01796746999025345,0.002008070470765233
1789141057005900500,4.910900634765625,0.07386817783117294,0.005570189096033573,-0.02269621007144451
1789141057015872500,4.92087255859375,0.04980264604091644,0.004397064913064241,0.030611552298069
1789141057025845500,4.930845458984375,0.006322815082967281,0.014210013672709465,0.0014568631304427981
1789141057035817700,4.940817626953125,0.04970156401395798,-0.02526899054646492,-0.007923223078250885
1789141057045789400,4.95078955078125,0.041506215929985046,-0.008443139493465424,-0.021333305165171623
1789141057055762400,4.960762451171875,0.0438431091606617,-0.0001639174297451973,-0.00983617827296257
1789141057065734700,4.970734619140625,0.03748108446598053,0.008073505945503712,-0.037970609962940216
1789141057075706400,4.980706298828125,0.019241247326135635,-0.0145204346626997,0.026239046826958656
1789141057085679000,4.99067919921875,0.026153482496738434,-0.00597941130399704,-0.003904475597664714
1789141057095651000,5.000651123046875,0.05141973868012428,-0.0189924668520689,-0.004525290336459875
1789141057105623000,5.010623046875,0.02304908260703087,0.005014598369598389,0.03520268201828003
1789141057115596000,5.020595947265625,0.025220975279808044,0.0038429670967161655,0.024399543181061745
1789141057125568300,5.030568359375,0.004839801695197821,0.027100885286927223,0.011308242566883564
1789141057135541200,5.040541259765625,0.029991455376148224,0.02894666977226734,0.029161833226680756
1789141057145513000,5.050512939453125,0.0037891468964517117,0.03386446461081505,0.009779081679880619
1789141057155485200,5.060485107421875,0.007630977779626846,0.025678012520074844,-0.03316690772771835
1789141057165458200,5.070458251953125,0.014887292869389057,0.032123662531375885,-0.0141905527561903
1789141057175430100,5.08043017578125,0.04794173315167427,0.05832032486796379,-0.0691719502210617
1789141057185402000,5.090402099609375,0.019554298371076584,0.04710974916815758,-0.0703679770231247
1789141057195375000,5.100375,0.03839338570833206,0.03381902724504471,-0.0743381679058075
1789141057205347000,5.11034716796875,-0.01441789511591196,0.027343550696969032,-0.06156112626194954
1789141057215319000,5.120319091796875,-0.030568651854991913,0.005315854214131832,-0.05926813185214996
1789141057225292300,5.130292236328125,-0.06326321512460709,-0.022271566092967987,0.022206753492355347
1789141057235264000,5.140263916015625,-0.08849946409463882,-0.058716438710689545,0.028975266963243484
1789141057245236200,5.150236328125,-0.10855546593666077,-0.0850234106183052,0.009448437951505184
1789141057255209200,5.160209228515625,-0.11629857122898102,-0.08318417519330978,-0.016411948949098587
1789141057265181200,5.17018115234375,-0.14866209030151367,-0.07941580563783646,-0.027824925258755684
1789141057275154200,5.180154296875,-0.15627022087574005,-0.11536208540201187,-0.018223963677883148
1789141057285126100,5.190126220703125,-0.13300511240959167,-0.12657585740089417,-0.03934362903237343
1789141057295098000,5.20009814453125,-0.0748768225312233,-0.07723760604858398,-0.07772430777549744
1789141057305071000,5.210071044921875,-0.07255294919013977,-0.10003426671028137,0.004359641578048468
1789141057315043000,5.22004296875,-0.06573058664798737,-0.12876231968402863,0.03284634277224541
1789141057325015000,5.23001513671875,-0.09294143319129944,-0.11205684393644333,-0.0001907011028379202
1789141057334988000,5.239988037109375,-0.08958212286233902,-0.12811554968357086,-0.0244852676987648
1789141057344960000,5.2499599609375,-0.1019144207239151,-0.11285749822854996,-0.012644588015973568
1789141057354932000,5.259931884765625,-0.10406316071748734,-0.09944740682840347,-0.009637545794248581
1789141057364905200,5.2699052734375,-0.0747007504105568,-0.10786592960357666,-0.017068563029170036
1789141057374877000,5.279876953125,-0.017584484070539474,-0.08222741633653641,-0.01983518898487091
1789141057384849200,5.28984912109375,-0.001419362612068653,-0.07204695045948029,0.015033844858407974
1789141057394822100,5.299822265625,0.009096849709749222,-0.09340273588895798,0.04748475179076195
1789141057404793900,5.3097939453125,0.0005885828286409378,-0.09885582327842712,0.03520677983760834
1789141057414766000,5.31976611328125,-0.02819589525461197,-0.10508788377046585,0.04951180890202522
1789141057424739000,5.329739013671875,-0.06467214226722717,-0.10380290448665619,0.04924895241856575
1789141057434711000,5.3397109375,-0.054012492299079895,-0.11502035707235336,0.02048412337899208
1789141057444684000,5.34968408203125,-0.025140363723039627,-0.13156257569789886,0.036461759358644485
1789141057454656000,5.359656005859375,-0.003523855470120907,-0.11902197450399399,0.024830175563693047
1789141057464628000,5.3696279296875,-0.011701091192662716,-0.11748426407575607,-0.014270354062318802
1789141057474601000,5.37960107421875,-0.008272153325378895,-0.12865516543388367,-0.03213929757475853
1789141057484573200,5.3895732421875,-0.01004182267934084,-0.10653041303157806,-0.032606419175863266
1789141057494545000,5.399544921875,0.02684357389807701,-0.107930488884449,-0.02402135729789734
1789141057504518100,5.40951806640625,0.02400783821940422,-0.08492450416088104,-0.026091964915394783
1789141057514490000,5.419489990234375,0.04095073044300079,-0.10587681829929352,0.01820087619125843
1789141057524462000,5.429462158203125,0.07950744032859802,-0.09131784737110138,-0.0004798678564839065
1789141057534435000,5.43943505859375,0.10129688680171967,-0.08765584230422974,0.03266089782118797
1789141057544407000,5.449406982421875,0.09067114442586899,-0.08371303975582123,0.03089549019932747
1789141057554379000,5.45937890625,0.13007548451423645,-0.08509010076522827,-0.011240209452807903
1789141057564352000,5.46935205078125,0.14353322982788086,-0.05582169443368912,-0.005089905578643084
1789141057574324200,5.47932421875,0.11793819069862366,-0.04504862055182457,0.012562165036797523
1789141057584296000,5.4892958984375,0.14666491746902466,-0.041825130581855774,-0.006074902601540089
1789141057594269000,5.49926904296875,0.20083372294902802,-0.007859708741307259,-0.018328038975596428
1789141057604241200,5.5092412109375,0.2271670699119568,-0.0028894511051476,0.0065458850003778934
1789141057614214100,5.519214111328125,0.26985687017440796,-0.006137973628938198,-0.031824741512537
1789141057624186000,5.52918603515625,0.2513396441936493,0.024297431111335754,-0.005522563122212887
1789141057634158000,5.539157958984375,0.25738397240638733,0.04563947394490242,0.02562856674194336
1789141057644131000,5.549131103515625,0.2483164668083191,0.06720282137393951,-0.020299511030316353
1789141057654103000,5.55910302734375,0.22132942080497742,0.04218721389770508,0.03402038663625717
1789141057664075300,5.5690751953125,0.2225712537765503,0.05681728944182396,0.03992115333676338
1789141057674048300,5.57904833984375,0.23703844845294952,0.041563719511032104,0.06650345772504807
1789141057684020000,5.58902001953125,0.25462862849235535,0.014569653198122978,0.028707072138786316
1789141057693992200,5.5989921875,0.2444785088300705,0.023102842271327972,-0.024324331432580948
1789141057703965200,5.608965087890625,0.2235034555196762,0.048500075936317444,-0.007954946719110012
1789141057713937200,5.618937255859375,0.22134262323379517,0.029991960152983665,-0.03507380932569504
1789141057723909000,5.6289091796875,0.19886714220046997,0.04891105368733406,-0.07759730517864227
1789141057733882000,5.638882080078125,0.16459143161773682,0.07295802235603333,-0.07433649897575378
1789141057743854000,5.64885400390625,0.14581213891506195,0.08097413927316666,-0.05595163628458977
1789141057753827000,5.6588271484375,0.19070151448249817,0.10316657274961472,-0.03683555871248245
1789141057763799300,5.66879931640625,0.24865828454494476,0.08007004112005234,-0.009352002292871475
1789141057773771000,5.67877099609375,0.23603715002536774,0.05417362228035927,0.01967531442642212
1789141057783744000,5.688743896484375,0.18737639486789703,0.06612269580364227,0.03465506434440613
1789141057793716200,5.69871630859375,0.17873738706111908,0.08021657168865204,-0.0077043878845870495
1789141057803688000,5.70868798828125,0.1511552929878235,0.05035267770290375,0.013061078265309334
1789141057813661200,5.7186611328125,0.17303615808486938,0.05338676646351814,0.003388036508113146
1789141057823633200,5.728633056640625,0.1651923507452011,0.12314160913228989,-0.06966273486614227
1789141057833605000,5.738605224609375,0.15587450563907623,0.11762391030788422,-0.07726193219423294
1789141057843578000,5.748578125,0.14873377978801727,0.09286423772573471,-0.05454995855689049
1789141057853550000,5.758550048828125,0.17974548041820526,0.12733672559261322,-0.06909561157226562
1789141057863522000,5.76852197265625,0.2194492220878601,0.13672755658626556,-0.09529925137758255
1789141057873495000,5.7784951171875,0.20205479860305786,0.12189637124538422,-0.04711643606424332
1789141057883467300,5.78846728515625,0.14152701199054718,0.1301092952489853,0.028004413470625877
1789141057893439000,5.79843896484375,0.16533008217811584,0.13907679915428162,0.047087162733078
1789141057903412200,5.808412109375,0.18058067560195923,0.16118423640727997,0.010249253362417221
1789141057913384200,5.81838427734375,0.1918075978755951,0.1457103043794632,0.023527055978775024
1789141057923357000,5.82835693359375,0.14506539702415466,0.1306850165128708,0.04824838042259216
1789141057933329200,5.8383291015625,0.14089183509349823,0.14312393963336945,-0.006875914055854082
1789141057943301000,5.848301025390625,0.11720380932092667,0.1653701215982437,-0.0715814083814621
1789141057953274000,5.858274169921875,0.09988982230424881,0.17150525748729706,-0.08549576252698898
1789141057963246000,5.86824609375,0.11517024040222168,0.17456816136837006,-0.10443057119846344
1789141057973218300,5.87821826171875,0.14101828634738922,0.18295322358608246,-0.11437186598777771
1789141057983191000,5.88819091796875,0.1486000418663025,0.1724851280450821,-0.062172576785087585
1789141057993163000,5.8981630859375,0.13251566886901855,0.17812976241111755,-0.028318634256720543
1789141058003135200,5.90813525390625,0.1247032880783081,0.15254344046115875,0.011347818188369274
1789141058013108000,5.91810791015625,0.08918722718954086,0.1584354192018509,0.05406765639781952
1789141058023080200,5.928080078125,0.04355023056268692,0.19212201237678528,0.04965746030211449
1789141058033052200,5.93805224609375,0.05818406865000725,0.17475105822086334,0.011808859184384346
1789141058043025000,5.94802490234375,0.051473699510097504,0.1735403835773468,-0.004046003334224224
1789141058052997000,5.9579970703125,0.03794385492801666,0.17095915973186493,-0.008463412523269653
1789141058062969000,5.967968994140625,0.035742755979299545,0.1682177037000656,-0.02432573214173317
1789141058072942000,5.977942138671875,0.02694416418671608,0.1912260204553604,-0.039466310292482376
1789141058082914000,5.9879140625,0.03637681528925896,0.16450679302215576,-0.009499088861048222
1789141058092887000,5.997886962890625,0.04395461827516556,0.17314326763153076,-0.033585429191589355
1789141058102859300,6.007859375,0.03275522589683533,0.13201606273651123,0.010522644966840744
1789141058112831200,6.017831298828125,0.012127973139286041,0.11853519827127457,0.008163116872310638
1789141058122804200,6.02780419921875,-0.037667278200387955,0.1103329285979271,0.05073268339037895
1789141058132776200,6.037776123046875,-0.08519216626882553,0.09317727386951447,0.05241871252655983
1789141058142748400,6.04774853515625,-0.08212687075138092,0.08108918368816376,-0.027282506227493286
1789141058152721200,6.05772119140625,-0.12698902189731598,0.07104457914829254,0.013166827149689198
1789141058162693400,6.067693359375,-0.09012367576360703,0.07279828190803528,-0.001544474740512669
1789141058172665300,6.077665283203125,-0.10225950926542282,0.07173264026641846,0.010014758445322514
1789141058182638000,6.08763818359375,-0.11973729729652405,0.04638068005442619,0.0046042799949646
1789141058192610300,6.0976103515625,-0.1394604593515396,0.037813663482666016,0.00548939686268568
1789141058202582300,6.107582275390625,-0.1008739024400711,0.04199988767504692,0.010197332128882408
1789141058212555300,6.11755517578125,-0.14114849269390106,0.04966062679886818,0.045838210731744766
1789141058222527200,6.12752734375,-0.11362126469612122,0.03858587145805359,0.0054135555401444435
1789141058232500200,6.137500244140625,-0.15348775684833527,0.033131133764982224,0.024204840883612633
1789141058242472200,6.14747216796875,-0.15920662879943848,0.012149684131145477,0.017671575769782066
1789141058252444200,6.157444091796875,-0.15368573367595673,0.034151818603277206,0.03368641063570976
1789141058262417400,6.16741748046875,-0.13022993505001068,0.027153829112648964,0.002369769848883152
1789141058272389000,6.17738916015625,-0.11419636756181717,0.013916697353124619,-0.032059963792562485
1789141058282361300,6.187361328125,-0.12165641784667969,0.028351031243801117,0.01604577898979187
1789141058292334300,6.197334228515625,-0.10537146031856537,0.04885593056678772,0.015099679119884968
1789141058302306000,6.20730615234375,-0.11177556216716766,0.015522206202149391,0.04300481453537941
1789141058312278300,6.2172783203125,-0.12404577434062958,0.009049445390701294,0.08464011549949646
1789141058322251300,6.227251220703125,-0.140228733420372,0.028815696015954018,0.08822739869356155
1789141058332223200,6.23722314453125,-0.10934484004974365,0.04472797363996506,0.059376563876867294
1789141058342195200,6.2471953125,-0.11082129925489426,0.022937726229429245,0.06707362830638885
1789141058352168400,6.25716845703125,-0.07069455087184906,0.03448284789919853,0.0062137083150446415
1789141058362140200,6.26714013671875,-0.07001198828220367,0.048876166343688965,-0.01715100184082985
1789141058372112400,6.2771123046875,-0.0985654965043068,0.03225480020046234,0.015850583091378212
1789141058382085400,6.28708544921875,-0.11416922509670258,0.029935719445347786,-0.022381490096449852
1789141058392057000,6.29705712890625,-0.1066664457321167,0.04154017195105553,-0.0670146718621254
1789141058402030300,6.3070302734375,-0.1160370409488678,0.019930485635995865,0.05031435191631317
1789141058412002300,6.317002197265625,-0.12006022036075592,0.01706758514046669,0.0560133270919323
1789141058421974300,6.326974365234375,-0.07496198266744614,-0.025227140635252,0.01982123591005802
1789141058431947300,6.336947265625,-0.08772708475589752,-0.0015773102641105652,0.03253480792045593
1789141058441919200,6.346919189453125,-0.09063871949911118,-0.026005953550338745,0.08689071983098984
1789141058451891200,6.35689111328125,-0.10324276983737946,-0.03378286585211754,0.06626591086387634
1789141058461864200,6.3668642578125,-0.12136638909578323,-0.030633145943284035,0.018861914053559303
1789141058471836400,6.37683642578125,-0.12970751523971558,-0.03687165305018425,0.05088113993406296
1789141058481808100,6.38680810546875,-0.13239224255084991,-0.04055427014827728,0.02020631916821003
1789141058491781000,6.396781005859375,-0.1268627643585205,-0.07934347540140152,-0.0027372948825359344
1789141058501753300,6.40675341796875,-0.08919873088598251,-0.0673573836684227,-0.03581907972693443
1789141058511725300,6.416725341796875,-0.06391126662492752,-0.07457855343818665,-0.0005875895149074495
1789141058521698300,6.4266982421875,-0.07123708724975586,-0.08283728361129761,0.012805713340640068
1789141058531670300,6.436670166015625,-0.08796367049217224,-0.08887418359518051,0.02175862342119217
1789141058541642200,6.446642333984375,-0.1176224946975708,-0.07011114805936813,-0.0035584494471549988
1789141058551615200,6.456615234375,-0.10167740285396576,-0.08170878887176514,0.024063507094979286
1789141058561587500,6.46658740234375,-0.058086514472961426,-0.052027322351932526,-0.02615891769528389
1789141058571560200,6.476560302734375,-0.023616770282387733,-0.07671088725328445,-0.025637444108724594
1789141058581532200,6.4865322265625,-0.0014049429446458817,-0.05228091776371002,-0.08873385190963745
1789141058591504400,6.49650439453125,-0.0019875364378094673,-0.04749366641044617,-0.057342417538166046
1789141058601477000,6.50647705078125,-0.032404035329818726,-0.02416837029159069,-0.05056121200323105
1789141058611449300,6.516449462890625,-0.010382027365267277,-0.04409819096326828,-0.04312463849782944
1789141058621421300,6.52642138671875,0.03139018639922142,-0.03602908179163933,-0.065301313996315
1789141058631394000,6.53639404296875,0.05252043902873993,-0.025432683527469635,-0.05467594042420387
1789141058641366300,6.5463662109375,0.014045486226677895,-0.05084536597132683,-0.006421591155230999
1789141058651338200,6.556338134765625,0.029307089745998383,-0.06549578905105591,-0.002818930661305785
1789141058661311200,6.566311279296875,0.03736421838402748,-0.013956693932414055,-0.026979394257068634
1789141058671283200,6.576283203125,0.04867258667945862,-0.02889425866305828,-0.04335331171751022
1789141058681255400,6.58625537109375,0.02989836595952511,-0.06498994678258896,-0.00010410870891064405
1789141058691228200,6.596228271484375,0.06206353008747101,-0.03566689044237137,-0.0462053157389164
1789141058701200100,6.6062001953125,0.04046129807829857,-0.012529882602393627,-0.03991040214896202
1789141058711172400,6.61617236328125,0.020478416234254837,-0.04206326976418495,-0.014266359619796276
1789141058721145000,6.62614501953125,0.031594984233379364,-0.057007599622011185,0.05586479231715202
1789141058731117300,6.636117431640625,0.10495810210704803,-0.05113309621810913,-0.0010063310619443655
1789141058741090300,6.64609033203125,0.10019902884960175,-0.07213904708623886,-0.036849815398454666
1789141058751062300,6.656062255859375,0.0648905411362648,-0.06765194237232208,-0.03134610131382942
1789141058761034200,6.6660341796875,0.03763148933649063,-0.07533888518810272,0.007759221363812685
1789141058771007200,6.67600732421875,0.048523448407649994,-0.01390359178185463,-0.07971104979515076
1789141058780979200,6.685979248046875,0.08492886275053024,-0.0184317659586668,-0.05476495623588562
1789141058790951200,6.695951171875,0.06822672486305237,-0.00706048309803009,-0.02801714837551117
1789141058800924400,6.70592431640625,0.1057559922337532,-0.02481790818274021,-0.0007812670664861798
1789141058810896100,6.715896240234375,0.1291494220495224,-0.007647721096873283,0.00097721500787884
1789141058820868400,6.725868408203125,0.10960555076599121,-0.001070245634764433,0.009800800122320652
1789141058830841300,6.73584130859375,0.11539726704359055,0.005055558867752552,0.012864699587225914
1789141058840813000,6.74581298828125,0.15646588802337646,-0.013918398879468441,0.04546685144305229
1789141058850785300,6.755785400390625,0.16257323324680328,-0.01750519871711731,0.03452860936522484
1789141058860758300,6.76575830078125,0.12785786390304565,0.012151230126619339,0.0006041991291567683
1789141058870730200,6.775730224609375,0.10392508655786514,0.025945713743567467,0.006952122785151005
1789141058880703200,6.785703125,0.12776170670986176,0.03619888424873352,-0.014976877719163895
1789141058890675200,6.79567529296875,0.14374840259552002,0.04292954131960869,-0.025215817615389824
1789141058900647200,6.805647216796875,0.17222025990486145,0.029678717255592346,-0.006421091966331005
1789141058910620200,6.8156201171875,0.1714663803577423,0.06022975221276283,-0.040915850549936295
1789141058920592400,6.82559228515625,0.1780742108821869,0.07631231844425201,-0.018351418897509575
1789141058930564000,6.835564208984375,0.17351557314395905,0.07439271360635757,0.05644205957651138
1789141058940537000,6.845537109375,0.174156054854393,0.08922838419675827,-0.03851987421512604
1789141058950509300,6.85550927734375,0.19746069610118866,0.08375824987888336,-0.043561965227127075
1789141058960481300,6.865481201171875,0.16805674135684967,0.10052710771560669,0.049456123262643814
1789141058970454300,6.875454345703125,0.15427783131599426,0.10702293366193771,0.048623230308294296
1789141058980426200,6.88542626953125,0.17988012731075287,0.10828447341918945,-0.013827631250023842
1789141058990398200,6.895398193359375,0.15082202851772308,0.10344305634498596,0.02149057202041149
1789141059000371200,6.90537109375,0.15759950876235962,0.11275293678045273,0.014571413397789001
1789141059010343400,6.915343505859375,0.18200194835662842,0.14572638273239136,-0.045597340911626816
1789141059020315100,6.925315185546875,0.15513038635253906,0.14041684567928314,-0.017123352736234665
1789141059030288100,6.9352880859375,0.15517950057983398,0.12878970801830292,0.0012857021065428853
1789141059040260400,6.94526025390625,0.16359083354473114,0.15364257991313934,-0.011908397078514099
1789141059050232000,6.955232177734375,0.16409435868263245,0.1510298103094101,0.022895563393831253
1789141059060205300,6.965205322265625,0.1478773057460785,0.14967931807041168,0.016110360622406006
1789141059070177300,6.97517724609375,0.14719820022583008,0.14527177810668945,0.017849938943982124
1789141059080150300,6.985150390625,0.11506263166666031,0.1668338030576706,0.02944161370396614
1789141059090122200,6.995122314453125,0.08732589334249496,0.1568339616060257,0.03777168691158295
1789141059100094000,7.005093994140625,0.11082003265619278,0.15506349503993988,-0.004098263569176197
1789141059110067200,7.015067138671875,0.11047358810901642,0.15102075040340424,-0.008849780075252056
1789141059120039200,7.0250390625,0.08868946135044098,0.16729453206062317,0.003839383367449045
1789141059130011100,7.03501123046875,0.09428418427705765,0.15859489142894745,-0.015073169954121113
1789141059139984100,7.044984130859375,0.05624332278966904,0.16494838893413544,0.028862597420811653
1789141059149956400,7.054956298828125,0.0504520945250988,0.14988203346729279,0.025828547775745392
1789141059159928000,7.064927978515625,0.0831192284822464,0.167033851146698,-0.026369674131274223
1789141059169901000,7.074901123046875,0.04720611125230789,0.13741520047187805,0.04968496412038803
1789141059179873300,7.084873291015625,0.02674024924635887,0.1650036871433258,0.010469385422766209
1789141059189845000,7.094844970703125,-0.0114895673468709,0.1770627796649933,0.05651935189962387
1789141059199818200,7.104818359375,0.013172635808587074,0.18423014879226685,0.05891939252614975
1789141059209790200,7.114790283203125,0.014917492866516113,0.16573387384414673,0.0872766450047493
1789141059219762200,7.12476220703125,0.000575837679207325,0.16070687770843506,0.05893261730670929
1789141059229735200,7.134735107421875,-0.056509777903556824,0.146219864487648,0.06317473948001862
1789141059239707100,7.14470703125,-0.02766881138086319,0.13508012890815735,0.11824890971183777
1789141059249679000,7.15467919921875,-0.056566834449768066,0.1413414478302002,0.11393342167139053
1789141059259652000,7.164652099609375,-0.04435117915272713,0.09118452668190002,0.0764949694275856
1789141059269624300,7.174624267578125,-0.09750577807426453,0.09914685040712357,0.09666535258293152
1789141059279597000,7.18459716796875,-0.1281915158033371,0.12064202129840851,0.02627614326775074
1789141059289569000,7.194569091796875,-0.13612821698188782,0.1181904748082161,0.0019658610690385103
1789141059299541200,7.204541259765625,-0.14317893981933594,0.04298520088195801,0.10962601006031036
1789141059309514000,7.214513916015625,-0.14405855536460876,0.10006900131702423,0.0007444005459547043
1789141059319486200,7.224486328125,-0.1805979311466217,0.013652083463966846,0.0918242409825325
1789141059329458200,7.234458251953125,-0.22441180050373077,0.11200667172670364,0.0546240508556366
1789141059339431200,7.24443115234375,-0.30422672629356384,-0.012539785355329514,0.19113609194755554
1789141059349403100,7.254403076171875,-0.26365944743156433,0.029379751533269882,0.007820102386176586
1789141059359375400,7.264375244140625,-0.22846443951129913,-0.04152744263410568,0.11832503974437714
1789141059369348000,7.27434814453125,-0.22134898602962494,0.04504675418138504,0.06814920902252197
1789141059379320000,7.284320068359375,-0.20401953160762787,-0.008556285873055458,0.06155415624380112
1789141059389292300,7.294292236328125,-0.18031936883926392,0.023285692557692528,0.031814560294151306
1789141059399265000,7.30426513671875,-0.2511676847934723,0.07207266986370087,-0.10203857719898224
1789141059409237200,7.3142373046875,-0.29784509539604187,0.056089818477630615,-0.18983173370361328
1789141059419209200,7.324209228515625,-0.30346277356147766,0.05707865208387375,-0.2147410809993744
1789141059429182000,7.334181884765625,-0.17760172486305237,0.10277119278907776,-0.2345314472913742
1789141059439154200,7.344154296875,-0.12264074385166168,0.1195986419916153,-0.016642790287733078
1789141059449127200,7.354127197265625,-0.11418349295854568,0.017216881737113,0.08982193470001221
1789141059459099100,7.36409912109375,-0.06970018148422241,0.04700993001461029,-0.15861263871192932
1789141059469071000,7.374071044921875,-0.23064443469047546,0.019512049853801727,0.11821074783802032
1789141059479044000,7.384044189453125,-0.2967877686023712,0.07357368618249893,0.08691354095935822
1789141059489016000,7.39401611328125,-0.328829288482666,0.027714010328054428,0.06364060193300247
1789141059498988000,7.403988037109375,-0.3524443507194519,0.01936393417418003,0.046141233295202255
1789141059508961300,7.413961181640625,-0.2962716221809387,0.03437350317835808,-0.03787470981478691
1789141059518933000,7.42393310546875,-0.223175048828125,0.005075800698250532,-0.036087196320295334
1789141059528905200,7.4339052734375,-0.25195103883743286,0.022247597575187683,-0.0435139536857605
1789141059538878200,7.443878173828125,-0.18747377395629883,-0.011292785406112671,-0.04526631534099579
1789141059548850200,7.45385009765625,-0.2010435163974762,-0.016906198114156723,-0.0568494014441967
1789141059558822100,7.463822265625,-0.25833213329315186,-0.030623607337474823,-0.07114604860544205
1789141059568795100,7.473795166015625,-0.35156580805778503,-0.008682997897267342,-0.1242586001753807
1789141059578767000,7.48376708984375,-0.31722915172576904,-0.09131956100463867,0.0258395504206419
1789141059588739000,7.493739013671875,-0.36646363139152527,-0.05052706599235535,0.06824017316102982
1789141059598712300,7.50371240234375,-0.3319304287433624,-0.06865227222442627,-0.010355831123888493
1789141059608684000,7.51368408203125,-0.3291570544242859,-0.10221246629953384,-0.039839908480644226
1789141059618657000,7.523656982421875,-0.368113249540329,-0.1280459314584732,-0.008008742704987526
1789141059628629200,7.533629150390625,-0.3982000946998596,-0.11272439360618591,-0.13537293672561646
1789141059638601000,7.54360107421875,-0.3148386478424072,-0.11147430539131165,-0.24634046852588654
1789141059648574200,7.55357421875,-0.2481573224067688,-0.10234978049993515,-0.13686604797840118
1789141059658546200,7.563546142578125,-0.27338436245918274,-0.10638394206762314,-0.052619606256484985
1789141059668518100,7.57351806640625,-0.35726070404052734,-0.179425448179245,0.09513086825609207
1789141059678491100,7.5834912109375,-0.3638024926185608,-0.19137771427631378,0.14720338582992554
1789141059688463000,7.593463134765625,-0.40232524275779724,-0.19667330384254456,0.2656383514404297
1789141059698435000,7.60343505859375,-0.31988656520843506,-0.20299032330513,0.13889187574386597
1789141059708408000,7.613407958984375,-0.33118554949760437,-0.2149425894021988,0.12517380714416504
1789141059718380300,7.62338037109375,-0.2919768989086151,-0.2038707584142685,0.008979815989732742
1789141059728352000,7.63335205078125,-0.31906750798225403,-0.22478078305721283,-0.02857017144560814
1789141059738325000,7.643324951171875,-0.3136407732963562,-0.1966191977262497,-0.11069779843091965
1789141059748297200,7.653297119140625,-0.2922426164150238,-0.2098393738269806,0.0110342837870121
1789141059758269200,7.663269287109375,-0.2616703510284424,-0.19549693167209625,0.013091576285660267
1789141059768242200,7.6732421875,-0.2522928714752197,-0.25503063201904297,0.0716669037938118
1789141059778214100,7.683214111328125,-0.2519485354423523,-0.21712851524353027,0.05892074480652809
1789141059788187100,7.693187255859375,-0.24988971650600433,-0.23618869483470917,0.10337480157613754
1789141059798159000,7.7031591796875,-0.3143368661403656,-0.2166360318660736,0.03209955245256424
1789141059808131300,7.71313134765625,-0.30519741773605347,-0.248327374458313,0.018616368994116783
1789141059818104000,7.72310400390625,-0.3628157079219818,-0.20833441615104675,0.021258225664496422
1789141059828076000,7.733075927734375,-0.26983413100242615,-0.22386400401592255,0.008703126572072506
1789141059838048300,7.74304833984375,-0.20480212569236755,-0.1961708515882492,-0.02475549839437008
1789141059848021000,7.75302099609375,-0.1878867894411087,-0.20370154082775116,0.07437442243099213
1789141059857993200,7.7629931640625,-0.14377684891223907,-0.19472669064998627,0.05893714353442192
1789141059867965200,7.772965087890625,-0.12140703201293945,-0.1956353634595871,0.03426477313041687
1789141059877938000,7.78293798828125,-0.1402001529932022,-0.20120908319950104,0.0009648709092289209
1789141059887910100,7.79291015625,-0.21392501890659332,-0.20525836944580078,0.06012941524386406
1789141059897882000,7.802882080078125,-0.17088088393211365,-0.17627838253974915,-0.00959853082895279
1789141059907855000,7.812855224609375,-0.14563822746276855,-0.1686236560344696,0.006715656258165836
1789141059917827000,7.8228271484375,-0.09696201980113983,-0.16437485814094543,-0.0297028049826622
1789141059927799300,7.83279931640625,-0.0814632773399353,-0.15706516802310944,-0.04681665450334549
1789141059937772000,7.84277197265625,-0.04879534989595413,-0.16452893614768982,-0.017439326271414757
1789141059947744300,7.852744140625,-0.050191257148981094,-0.14912927150726318,-0.013043563812971115
1789141059957716200,7.86271630859375,-0.03209427744150162,-0.15055033564567566,-0.02559530921280384
1789141059967689000,7.87268896484375,-0.049090247601270676,-0.1675254851579666,0.035641107708215714
1789141059977661200,7.8826611328125,-0.05574974790215492,-0.19247664511203766,0.07651131600141525
1789141059987634200,7.89263427734375,-0.07436391711235046,-0.18859663605690002,0.07177663594484329
1789141059997606100,7.902606201171875,-0.07941700518131256,-0.17527790367603302,0.06320977956056595
1789141060007578000,7.912578125,-0.08990118652582169,-0.18916994333267212,0.10791684687137604
1789141060017551000,7.922551025390625,-0.04672708362340927,-0.1891622245311737,0.0493193082511425
1789141060027523000,7.932523193359375,-0.09462979435920715,-0.1800597459077835,0.011978293769061565
1789141060037495000,7.9424951171875,-0.0664045512676239,-0.17986586689949036,0.012022501789033413
1789141060047468300,7.95246826171875,-0.05568893626332283,-0.17406125366687775,-0.0082523413002491
1789141060057440000,7.96243994140625,-0.07771407812833786,-0.18376581370830536,-0.017013607546687126
1789141060067412200,7.972412109375,-0.0835571363568306,-0.19858545064926147,-0.011080711148679256
1789141060077385200,7.98238525390625,-0.0647706687450409,-0.20396849513053894,0.03230298310518265
1789141060087357200,7.992357177734375,-0.06535787135362625,-0.22839272022247314,0.05793909355998039
1789141060097329200,8.0023291015625,-0.044398002326488495,-0.21839867532253265,0.05532200261950493
1789141060107302100,8.01230224609375,-0.0396500825881958,-0.20222444832324982,0.07987073063850403
1789141060117274400,8.0222744140625,-0.085662841796875,-0.18820983171463013,0.026797663420438766
1789141060127246000,8.03224609375,-0.0857127457857132,-0.2104204297065735,0.025728322565555573
1789141060137219000,8.042218994140624,-0.06640243530273438,-0.16588172316551208,-0.05448901653289795
1789141060147191300,8.05219140625,-0.010277945548295975,-0.154330313205719,-0.050676681101322174
1789141060157163300,8.062163330078125,0.00676442077383399,-0.16562770307064056,0.0055692801252007484
1789141060167136300,8.07213623046875,0.04059337079524994,-0.16915927827358246,-0.04585311561822891
1789141060177108200,8.082108154296876,0.035506200045347214,-0.15378059446811676,-0.0024867327883839607
1789141060187081200,8.092081298828125,0.03382403030991554,-0.1534992903470993,0.012106819078326225
1789141060197053200,8.10205322265625,0.03589676693081856,-0.15660640597343445,-0.04672187566757202
1789141060207025400,8.112025390625,0.017810378223657608,-0.12253723293542862,-0.0058004120364785194
1789141060216998100,8.121998046875,0.03250224143266678,-0.09401398152112961,0.00969519093632698
1789141060226970000,8.13197021484375,0.09345191717147827,-0.12024882435798645,-0.016445361077785492
1789141060236942300,8.1419423828125,0.0836016833782196,-0.14623835682868958,-0.007218307349830866
1789141060246915000,8.1519150390625,0.07101724296808243,-0.14052897691726685,0.0025293859653174877
1789141060256887300,8.16188720703125,0.11613012850284576,-0.103647381067276,-0.016728196293115616
1789141060266859300,8.171859375,0.1351151019334793,-0.068728968501091,-0.05187145993113518
1789141060276832000,8.18183203125,0.10101625323295593,-0.08720065653324127,-0.024666734039783478
1789141060286804200,8.19180419921875,0.11607151478528976,-0.07365868985652924,0.019224606454372406
1789141060296776200,8.201776123046875,0.1402178704738617,-0.0149620920419693,-0.05825686827301979
1789141060306749200,8.211749267578124,0.16637222468852997,-0.06897132098674774,0.0031128968112170696
1789141060316721200,8.22172119140625,0.19958478212356567,-0.029531234875321388,0.007117225788533688
1789141060326693400,8.231693359375,0.17702731490135193,-0.011351912282407284,-0.01769786700606346
1789141060336666000,8.241666015625,0.161815345287323,-0.05021355673670769,-0.004114413633942604
1789141060346638000,8.25163818359375,0.11689084023237228,-0.015958542004227638,0.006947639863938093
1789141060356610300,8.2616103515625,0.12131701409816742,-0.044511888176202774,0.035374220460653305
1789141060366583000,8.2715830078125,0.14648161828517914,-0.06022171676158905,0.031177671626210213
1789141060376555300,8.28155517578125,0.16837280988693237,-0.04784600809216499,0.0054190452210605145
1789141060386527200,8.29152734375,0.1253664791584015,-0.06138530373573303,0.03332486003637314
1789141060396500200,8.301500244140625,0.10753821581602097,-0.05151509493589401,0.019181877374649048
1789141060406472200,8.31147216796875,0.12938202917575836,-0.03309076279401779,-0.003277914598584175
1789141060416445200,8.321445068359376,0.14310184121131897,-0.05361334979534149,0.004061224404722452
1789141060426417200,8.331417236328125,0.15252667665481567,-0.061111368238925934,0.002017277991399169
1789141060436389000,8.34138916015625,0.12672516703605652,-0.03226081281900406,0.01728890836238861
1789141060446362400,8.3513623046875,0.09844985604286194,-0.026927782222628593,0.00979093462228775
1789141060456334000,8.361333984375,0.11271347105503082,-0.05939624086022377,0.00010341976303607225
1789141060466306300,8.371306396484375,0.14604419469833374,-0.0358131006360054,-0.01837128773331642
1789141060476279300,8.381279296875,0.1525774598121643,-0.041553009301424026,0.038046978414058685
1789141060486251000,8.3912509765625,0.15574055910110474,-0.04878450557589531,0.021985560655593872
1789141060496223200,8.40122314453125,0.12479861825704575,-0.033287305384874344,0.04076617211103439
1789141060506196200,8.4111962890625,0.0995553582906723,-0.023318080231547356,0.035398535430431366
1789141060516168200,8.421168212890626,0.11583632230758667,-0.02803240902721882,-0.0034471293911337852
1789141060526140200,8.43114013671875,0.1037193015217781,0.013611653819680214,-0.004526949021965265
1789141060536113200,8.441113037109375,0.11778771132230759,0.013242805376648903,0.007267924956977367
1789141060546085000,8.451085205078124,0.15210695564746857,0.03142687305808067,-0.007314016111195087
1789141060556057000,8.46105712890625,0.21590004861354828,0.02863108180463314,0.036709368228912354
1789141060566030300,8.4710302734375,0.20842863619327545,0.051212772727012634,0.011239520274102688
1789141060576002000,8.481001953125,0.1959727555513382,0.04487498104572296,0.030276060104370117
1789141060585975300,8.490975341796876,0.14099332690238953,0.06464037299156189,0.03744066134095192
1789141060595947300,8.500947265625,0.10940717905759811,0.04663847014307976,0.02804875560104847
1789141060605919200,8.510919189453125,0.10586756467819214,0.07521045953035355,0.00027171988040208817
1789141060615892200,8.520892333984374,0.11204663664102554,0.07776230573654175,-0.006656759884208441
1789141060625864200,8.5308642578125,0.14740043878555298,0.054890330880880356,-0.0027607171796262264
1789141060635836200,8.540836181640625,0.15229745209217072,0.08672815561294556,-0.027876190841197968
1789141060645809200,8.55080908203125,0.15873698890209198,0.08994856476783752,-0.002667405642569065
1789141060655781400,8.560781494140626,0.1362612396478653,0.09141010046005249,0.016735054552555084
1789141060665753000,8.570753173828125,0.13917836546897888,0.10472510755062103,-0.04311130568385124
1789141060675726000,8.58072607421875,0.14860036969184875,0.10262466967105865,-0.007728550583124161
1789141060685698300,8.5906982421875,0.11144445836544037,0.11584124714136124,0.014324297197163105
1789141060695670000,8.600669921875,0.11175870895385742,0.10230493545532227,0.02743504010140896
1789141060705643300,8.610643310546875,0.16416631639003754,0.10897786170244217,0.006244001444429159
1789141060715615200,8.620615234375,0.17197257280349731,0.14578193426132202,0.029897931963205338
1789141060725587200,8.630587158203125,0.17490382492542267,0.1148451715707779,0.009587087668478489
1789141060735560200,8.640560302734375,0.13694658875465393,0.08854086697101593,0.016588538885116577
1789141060745532200,8.6505322265625,0.10339494049549103,0.11117538809776306,0.00984851736575365
1789141060755504000,8.660504150390626,0.07733191549777985,0.0717155933380127,0.08184894174337387
1789141060765477000,8.67047705078125,0.12389487773180008,0.06456857919692993,0.010943885892629623
1789141060775449300,8.680449462890625,0.10711216926574707,0.045205533504486084,0.050190892070531845
1789141060785422300,8.69042236328125,0.05808781087398529,0.06276727467775345,0.02885701321065426
1789141060795394300,8.700394287109376,0.03720410168170929,0.04225507006049156,0.002318880520761013
1789141060805366300,8.7103662109375,-0.028057793155312538,0.05701851844787598,-0.03077526018023491
1789141060815339300,8.72033935546875,-0.013978725299239159,0.03788796812295914,0.001565369195304811
1789141060825311200,8.730311279296876,0.011248867027461529,0.07247097045183182,-0.09225139766931534
1789141060835283200,8.740283203125,0.04782711714506149,0.02760523371398449,-0.03819269686937332
1789141060845256400,8.75025634765625,0.0020011914893984795,0.04145153984427452,0.007982984185218811
1789141060855228200,8.760228271484374,0.011350218206644058,-0.005109835881739855,0.05521520972251892
1789141060865200400,8.770200439453125,-0.026665858924388885,0.012528706341981888,0.04412153735756874
1789141060875173400,8.78017333984375,-0.02115631103515625,0.006014880258589983,0.062008123844861984
1789141060885145000,8.79014501953125,-0.030413160100579262,0.014832872897386551,0.03408261016011238
1789141060895117300,8.800117431640626,-0.023519566282629967,-0.013368669897317886,0.03534361720085144
1789141060905090300,8.81009033203125,-0.034975506365299225,-0.0034373681992292404,-0.035817619413137436
1789141060915062300,8.820062255859375,-0.04753950238227844,-0.009639337658882141,-0.07812885195016861
1789141060925034200,8.8300341796875,-0.07658964395523071,-0.028763018548488617,-0.03938084840774536
1789141060935007200,8.84000732421875,-0.0748351514339447,-0.053534410893917084,-0.018688885495066643
1789141060944979200,8.849979248046875,-0.09238491952419281,-0.06395962089300156,-0.016484040766954422
1789141060954951200,8.859951171875,-0.12909846007823944,-0.09793782979249954,-0.022175217047333717
1789141060964924400,8.86992431640625,-0.22970443964004517,-0.12097220122814178,0.01665554754436016
1789141060974896000,8.879896240234375,-0.23256094753742218,-0.1404993087053299,0.005145364440977573
1789141060984868400,8.889868408203125,-0.23847216367721558,-0.14261694252490997,0.0023595858365297318
1789141060994841000,8.899841064453126,-0.24145518243312836,-0.13292117416858673,-0.01392378006130457
1789141061004813300,8.909813232421875,-0.22705140709877014,-0.1562957465648651,0.01044453214854002
1789141061014786300,8.919786376953125,-0.20599699020385742,-0.13353343307971954,-0.01889604516327381
1789141061024758000,8.929758056640624,-0.20011046528816223,-0.1366266906261444,0.015373707748949528
1789141061034730200,8.939730224609375,-0.22069910168647766,-0.11671982705593109,-0.01142222061753273
1789141061044703200,8.949703125,-0.1816965639591217,-0.13472332060337067,-0.03472248092293739
1789141061054675200,8.95967529296875,-0.20044922828674316,-0.10500085353851318,-0.024387022480368614
1789141061064647200,8.969647216796876,-0.17373202741146088,-0.11362352967262268,-0.00784418173134327
1789141061074620200,8.9796201171875,-0.18736900389194489,-0.1027999073266983,-0.03203260898590088
1789141061084592000,8.989592041015625,-0.17634038627147675,-0.07826484739780426,-0.03065730445086956
1789141061094564600,8.999564697265624,-0.1478632092475891,-0.1114150732755661,0.017079591751098633
1789141061104537600,9.00953759765625,-0.19218814373016357,-0.11160831898450851,-0.048499394208192825
1789141061114509800,9.019509765625,-0.18552757799625397,-0.10082544386386871,-0.061072710901498795
1789141061124481800,9.029481689453124,-0.14581336081027985,-0.08129876852035522,-0.0723138302564621
1789141061134454800,9.039454833984376,-0.12830866873264313,-0.10560330748558044,-0.013163694180548191
1789141061144426800,9.0494267578125,-0.11567770689725876,-0.10420595109462738,-0.012437909841537476
1789141061154398700,9.059398681640625,-0.10493052005767822,-0.09813447296619415,-0.029836874455213547
1789141061164371700,9.069371826171874,-0.1355544477701187,-0.09713812917470932,-0.009483683854341507
1789141061174344000,9.079343994140626,-0.1756395548582077,-0.08704501390457153,0.03389415144920349
1789141061184315600,9.089315673828125,-0.14363986253738403,-0.1447688788175583,0.0038273660466074944
1789141061194288600,9.09928857421875,-0.15985532104969025,-0.1377602368593216,0.0017761992057785392
1789141061204260900,9.1092607421875,-0.1291137933731079,-0.12940898537635803,0.0246881116181612
1789141061214232600,9.119232666015625,-0.13737383484840393,-0.13259705901145935,0.019757268950343132
1789141061224205800,9.129205810546875,-0.10538066923618317,-0.13218863308429718,-0.0427439883351326
1789141061234177800,9.139177734375,-0.11458747833967209,-0.13017289340496063,0.002057308331131935
1789141061244150500,9.149150634765626,-0.0917971134185791,-0.15452350676059723,0.02059009112417698
1789141061254122800,9.159122802734375,-0.07470174878835678,-0.13844093680381775,-0.005414612591266632
1789141061264094700,9.1690947265625,-0.11449839174747467,-0.15564250946044922,0.021895280107855797
1789141061274067700,9.179067626953126,-0.09504373371601105,-0.18931844830513,0.050772733986377716
1789141061284039700,9.189039794921875,-0.07041193544864655,-0.16385164856910706,0.005684350151568651
1789141061294012000,9.199011962890625,-0.06708777695894241,-0.14707878232002258,-0.02658304199576378
1789141061303984600,9.208984619140624,-0.03132664039731026,-0.13448135554790497,-0.003971435129642487
1789141061313956900,9.218956787109375,-0.004908082075417042,-0.14565731585025787,0.017984731122851372
1789141061323928800,9.2289287109375,0.018132198601961136,-0.12376122176647186,-0.05151376500725746
1789141061333901600,9.238901611328124,0.03980819880962372,-0.11274878680706024,0.005739669781178236
1789141061343873800,9.248873779296876,0.07661546766757965,-0.11771734058856964,0.019117537885904312
1789141061353845800,9.258845703125,0.06993386149406433,-0.12997080385684967,0.0030869049951434135
1789141061363818800,9.26881884765625,0.055015336722135544,-0.12723051011562347,0.039034925401210785
1789141061373790700,9.278790771484376,0.08015158027410507,-0.10698782652616501,0.00934041291475296
1789141061383762700,9.2887626953125,0.07228413224220276,-0.07903097569942474,-0.0011645532213151455
1789141061393735700,9.298735595703125,0.07248733192682266,-0.06602516770362854,0.025612466037273407
1789141061403707600,9.308707763671874,0.0994861051440239,-0.04481847584247589,-0.0030050333589315414
1789141061413679600,9.3186796875,0.12357626110315323,-0.037492651492357254,-0.009111395105719566
1789141061423652600,9.328652587890625,0.13947950303554535,-0.004156153649091721,-0.03498424217104912
1789141061433624800,9.338624755859374,0.17945194244384766,-0.021930623799562454,-0.009078075177967548
1789141061443596500,9.348596435546876,0.2070559859275818,0.016192950308322906,-0.06997661292552948
1789141061453569500,9.358569580078125,0.19105303287506104,0.028597155585885048,-0.05070650950074196
1789141061463541800,9.368541748046875,0.2032214105129242,0.03355729207396507,0.003065978642553091
1789141061473514800,9.3785146484375,0.18622565269470215,0.05500958859920502,-0.011928417719900608
1789141061483486700,9.38848681640625,0.2023690938949585,0.06211874261498451,-0.032612353563308716
1789141061493458700,9.398458740234375,0.18054555356502533,0.06649218499660492,-0.02589879184961319
1789141061503431700,9.408431640625,0.19084392488002777,0.04741223156452179,-0.005301059223711491
1789141061513403600,9.418403564453126,0.16384665668010712,0.04102383926510811,-0.005997209344059229
1789141061523375900,9.4283759765625,0.190363809466362,0.05384877324104309,0.008352672681212425
1789141061533348900,9.438348876953125,0.185730442404747,0.07501184940338135,0.008904479444026947
1789141061543320600,9.448320556640626,0.2121223509311676,0.061104871332645416,-0.0168119128793478
1789141061553292800,9.458292724609375,0.17700937390327454,0.048337943851947784,-0.0006041821325197816
1789141061563265800,9.468265869140625,0.1539618819952011,0.051246434450149536,0.005572464782744646
1789141061573237800,9.47823779296875,0.16670458018779755,0.05092072859406471,0.0026509766466915607
1789141061583209700,9.488209716796876,0.16748009622097015,0.036017101258039474,0.0017272423719987273
1789141061593182700,9.4981826171875,0.15019138157367706,0.008950063958764076,0.027571089565753937
1789141061603154700,9.50815478515625,0.103304423391819,0.03996778652071953,-0.014678802341222763
1789141061613126700,9.518126708984376,0.048712022602558136,0.022119814530014992,0.005504229571670294
1789141061623100000,9.528099853515625,0.04123060032725334,0.006200449075549841,-0.01714073307812214
1789141061633071600,9.538071533203125,0.08358950912952423,0.028271928429603577,-0.024231666699051857
1789141061643043800,9.5480439453125,0.10937825590372086,0.0448296032845974,-0.042855821549892426
1789141061653016800,9.558016845703126,0.12425147742033005,0.024057745933532715,-0.042678721249103546
1789141061662988500,9.567988525390625,0.12122997641563416,0.03392374515533447,-0.02887483686208725
1789141061672961800,9.5779619140625,0.0872855931520462,0.05085745453834534,-0.02256501093506813
1789141061682933800,9.587933837890626,0.10149753838777542,0.0387289933860302,-0.0504634790122509
1789141061692905700,9.59790576171875,0.08435370773077011,0.04281694442033768,-0.012153904885053635
1789141061702878700,9.607878662109375,0.07301793992519379,0.04312491416931152,-0.02058892324566841
1789141061712850700,9.6178505859375,0.08913858979940414,0.06225573271512985,-0.02570592239499092
1789141061722822700,9.62782275390625,0.06246446818113327,0.0709124431014061,-0.013651308603584766
1789141061732795600,9.637795654296875,0.030918259173631668,0.0355970598757267,0.004776967689394951
1789141061742767900,9.647767822265624,0.05353869870305061,0.03949028253555298,0.0149905476719141
1789141061752739600,9.657739501953126,0.04485093429684639,0.042179010808467865,0.027892764657735825
1789141061762712800,9.667712890625,0.045577727258205414,-0.0166088305413723,0.02911263331770897
1789141061772684800,9.677684814453125,0.013180638663470745,-0.010640154592692852,-0.020994743332266808
1789141061782656800,9.68765673828125,-0.0013539539650082588,-0.006506817881017923,0.001401013694703579
1789141061792629800,9.697629638671875,-0.03362800180912018,0.010881226509809494,-0.046728696674108505
1789141061802601700,9.707601806640625,-0.02536224201321602,0.016980713233351707,-0.07771036028862
1789141061812573700,9.71757373046875,-0.0335402749478817,-0.009457020089030266,0.012064799666404724
1789141061822546700,9.727546630859376,-0.020119357854127884,-0.022438813000917435,0.02654671110212803
1789141061832519000,9.737518798828125,-0.010687240399420261,-0.026586949825286865,-0.0451599657535553
1789141061842490600,9.74749072265625,0.0034035746939480305,-0.04645806923508644,0.009162373840808868
1789141061852463600,9.757463623046876,-0.026539143174886703,-0.04622850567102432,0.06431883573532104
1789141061862435800,9.767435791015625,-0.01668350026011467,-0.034227292984724045,0.022246310487389565
1789141061872407600,9.777407470703125,-0.030241118744015694,-0.05857417732477188,0.024525975808501244
1789141061882380800,9.787380859375,-0.0003295913338661194,-0.040197353810071945,0.005802110303193331
1789141061892352800,9.797352783203126,0.02306761033833027,-0.033702705055475235,0.019587697461247444
1789141061902325500,9.807325439453125,0.018214842304587364,-0.014951438643038273,-0.041376616805791855
1789141061912297700,9.817297607421875,0.03232373669743538,-0.03134292736649513,-0.06106829643249512
1789141061922269700,9.827269775390626,0.024976439774036407,0.00335710309445858,-0.0777081772685051
1789141061932242700,9.83724267578125,0.02528749778866768,-0.005136250518262386,-0.03344270959496498
1789141061942214700,9.847214599609375,0.057360969483852386,0.016939539462327957,-0.07226144522428513
1789141061952187000,9.857186767578124,0.08790422976016998,0.010379642248153687,-0.08752428740262985
1789141061962159600,9.86715966796875,0.10163769125938416,-0.0013946725521236658,-0.04183313623070717
1789141061972131800,9.8771318359375,0.09899130463600159,-0.003095101099461317,-0.025275729596614838
1789141061982103800,9.887103759765624,0.03800737112760544,0.0022374559193849564,-0.04423907399177551
1789141061992076500,9.89707666015625,0.052491240203380585,-0.03914273902773857,-0.005422969814389944
1789141062002048800,9.907048828125,0.08312119543552399,-0.012201299890875816,0.009734882041811943
1789141062012020700,9.917020751953125,0.09373149275779724,-0.020012885332107544,0.023831792175769806
1789141062021993700,9.92699365234375,0.08430668711662292,-0.019627362489700317,0.019991576671600342
1789141062031965700,9.936965576171875,0.0871639996767044,-0.013797703199088573,0.01004733331501484
1789141062041938000,9.94693798828125,0.10046067833900452,-0.014211667701601982,-0.018477939069271088
1789141062051910700,9.95691064453125,0.11968071758747101,-0.011802039109170437,-0.024728378280997276
1789141062061882600,9.966882568359376,0.1348438858985901,0.012314962223172188,0.009406053461134434
1789141062071854800,9.976854736328125,0.13620902597904205,0.029619118198752403,0.006495750974863768
1789141062081827600,9.98682763671875,0.16693271696567535,0.00892246700823307,0.04447316378355026
1789141062091798800,9.996798828125,0.13176274299621582,0.062274374067783356,0.0009778864914551377
1789141062101770800,10.006770751953125,0.16440349817276,0.01443910226225853,0.07775615900754929
1789141062111743700,10.01674365234375,0.21278460323810577,0.04247713088989258,0.046569474041461945
1789141062121715700,10.0267158203125,0.23836302757263184,0.04732908681035042,0.04208879917860031
1789141062131689000,10.03668896484375,0.1759806126356125,0.0684969574213028,0.01938987523317337
1789141062141660700,10.04666064453125,0.2135797142982483,0.06404521316289902,0.02651141956448555
1789141062151633000,10.0566328125,0.1966148465871811,0.11911166459321976,-0.013500180095434189
1789141062161606000,10.06660595703125,0.23116081953048706,0.08321800827980042,0.01943366415798664
1789141062171577600,10.07657763671875,0.2050676941871643,0.1093263030052185,-0.0005669420352205634
1789141062181549800,10.0865498046875,0.20167849957942963,0.08222107589244843,0.018534092232584953
1789141062191522600,10.0965224609375,0.22619742155075073,0.11436250060796738,0.0014714855933561921
1789141062201494800,10.106494873046875,0.2193799912929535,0.0998043343424797,0.041529953479766846
1789141062211466800,10.116466796875,0.18386833369731903,0.10062378644943237,-0.0026292498223483562
1789141062221439500,10.126439453125,0.19929641485214233,0.10787343978881836,0.01345178484916687
1789141062231411700,10.13641162109375,0.19599010050296783,0.13925932347774506,0.03402523696422577
1789141062241383700,10.1463837890625,0.19162537157535553,0.1142146959900856,0.015949055552482605
1789141062251356700,10.156356689453125,0.2367667555809021,0.11364185065031052,0.03684927523136139
1789141062261328600,10.16632861328125,0.23764865100383759,0.11201641708612442,0.046920377761125565
1789141062271300900,10.17630078125,0.1806918829679489,0.10482774674892426,0.07934916019439697
1789141062281273600,10.186273681640625,0.13189467787742615,0.10322186350822449,0.037818390876054764
1789141062291245800,10.196245849609374,0.1341588795185089,0.1063513457775116,-0.03409654274582863
1789141062301217800,10.2062177734375,0.12615986168384552,0.11961148679256439,-0.010168456472456455
1789141062311190500,10.2161904296875,0.12009371817111969,0.0684572234749794,0.03592260554432869
1789141062321162800,10.226162841796874,0.13802891969680786,0.07626161724328995,-0.04379759356379509
1789141062331134700,10.236134765625,0.10615861415863037,0.10134299844503403,-0.03584805876016617
1789141062341107700,10.246107666015625,0.08201339840888977,0.0648670643568039,0.06149537116289139
1789141062351079700,10.25607958984375,0.03476812317967415,0.03543620556592941,0.058349914848804474
1789141062361052000,10.266052001953126,0.046506088227033615,0.05274563282728195,0.03803648054599762
1789141062371024600,10.276024658203125,0.0323449969291687,0.059274375438690186,0.036861494183540344
1789141062380996600,10.28599658203125,0.004965485073626041,0.043163590133190155,0.05849916860461235
1789141062390969900,10.295969970703124,0.03530315309762955,0.05702507495880127,0.02287566289305687
1789141062400941600,10.305941650390626,0.023402735590934753,0.07724042981863022,-0.019255757331848145
1789141062410913800,10.315913818359375,0.04780235141515732,0.05729175731539726,-0.004093848168849945
1789141062420886800,10.32588671875,0.00978532712906599,0.10131072252988815,-0.004280595108866692
1789141062430858500,10.3358583984375,0.05463216081261635,0.08228722959756851,0.027163879945874214
1789141062440830700,10.345830810546875,0.07785133272409439,0.10487498342990875,-0.017340146005153656
1789141062450803700,10.3558037109375,0.0539606437087059,0.12825354933738708,-0.01868690550327301
1789141062460775700,10.365775634765624,0.04693898186087608,0.1026555597782135,0.03929275646805763
1789141062470747600,10.37574755859375,0.047794654965400696,0.15195760130882263,0.003540881909430027
1789141062480720600,10.385720703125,0.03301263600587845,0.16247862577438354,0.014004124328494072
1789141062490692600,10.395692626953124,0.04825763404369354,0.16262218356132507,0.03018229454755783
1789141062500664800,10.405664794921876,0.07263240218162537,0.16516686975955963,0.018564961850643158
1789141062510637800,10.415637939453125,0.07643565535545349,0.18834330141544342,0.002069076057523489
1789141062520609500,10.425609619140625,0.06265184283256531,0.17623215913772583,-0.005077217239886522
1789141062530581800,10.435581787109374,0.05765841528773308,0.18625575304031372,-0.02971278876066208
1789141062540554800,10.4455546875,0.03394945338368416,0.20965896546840668,0.006623614113777876
1789141062550526700,10.455526611328125,0.035679176449775696,0.1864391416311264,0.058266568928956985
1789141062560498700,10.465498779296874,0.0455617792904377,0.1710629016160965,0.08408623188734055
1789141062570471700,10.4754716796875,0.020881198346614838,0.19707612693309784,0.040334489196538925
1789141062580443600,10.485443603515625,0.04331093281507492,0.16128021478652954,0.06651001423597336
1789141062590415600,10.49541552734375,-0.005271785892546177,0.18222278356552124,0.031217269599437714
1789141062600388900,10.505388916015624,-0.0018303822726011276,0.12949462234973907,0.04738915339112282
1789141062610360600,10.515360595703125,-0.042064353823661804,0.1466725468635559,-0.03305508941411972
1789141062620332800,10.525332763671875,-0.03933580219745636,0.11728409677743912,-0.03447263687849045
1789141062630305800,10.535305908203124,-0.03975178673863411,0.13170751929283142,-0.014826498925685883
1789141062640277500,10.545277587890626,-0.051244523376226425,0.10903075337409973,-0.0027386206202208996
1789141062650250800,10.555250732421875,-0.06347908824682236,0.11016206443309784,-0.028537459671497345
1789141062660222700,10.56522265625,-0.058257926255464554,0.08773909509181976,0.01552534569054842
1789141062670194700,10.575194580078126,-0.08040690422058105,0.09552031755447388,0.016604457050561905
1789141062680167700,10.585167724609375,-0.06612144410610199,0.07467793673276901,0.02957070991396904
1789141062690139600,10.5951396484375,-0.05521846190094948,0.10085920989513397,-0.000046304077841341496
1789141062700111600,10.605111572265624,-0.06985288113355637,0.09772393107414246,0.004895098973065615
1789141062710084600,10.615084716796876,-0.07737657427787781,0.1177210658788681,-0.002058680634945631
1789141062720056800,10.625056884765625,-0.040358513593673706,0.13111191987991333,-0.0003300732932984829
1789141062730028500,10.635028564453124,-0.014080040156841278,0.13272713124752045,-0.015200099907815456
1789141062740001800,10.645001708984376,-0.010335506871342659,0.11761476844549179,0.020712271332740784
1789141062749973800,10.654973876953125,-0.03447599709033966,0.13504861295223236,0.01726347766816616
1789141062759945700,10.66494580078125,0.022000931203365326,0.1120644062757492,0.00501132570207119
1789141062769918700,10.674918701171874,-0.038001418113708496,0.12340760231018066,0.05316953361034393
1789141062779890700,10.684890625,-0.07749506086111069,0.12568317353725433,0.049554161727428436
1789141062789862700,10.694862548828125,-0.06341972202062607,0.10627512633800507,0.013879254460334778
1789141062799835600,10.704835693359374,-0.07438443601131439,0.09586205333471298,0.041766922920942307
1789141062809808000,10.714807861328126,-0.04852939769625664,0.10614930838346481,-0.025164972990751266
1789141062819779600,10.724779541015625,-0.03788182884454727,0.10504820197820663,-0.046183958649635315
1789141062829752600,10.734752685546875,-0.09216317534446716,0.09335799515247345,0.01302263606339693
1789141062839724800,10.744724853515624,-0.12142273783683777,0.0904516875743866,0.014387194067239761
1789141062849696500,10.754696533203125,-0.12200675904750824,0.09582807868719101,-0.024155404418706894
1789141062859669800,10.764669677734375,-0.1505582481622696,0.06379477679729462,0.025422802194952965
1789141062869641700,10.774641845703124,-0.1454116851091385,0.03667394444346428,0.043113648891448975
1789141062879613700,10.78461376953125,-0.1812855452299118,0.03970343992114067,0.03856672719120979
1789141062889586700,10.794586669921875,-0.18571917712688446,0.005589147098362446,0.05806133151054382
1789141062899558700,10.80455859375,-0.1962859183549881,0.02441796287894249,0.013643196783959866
1789141062909532000,10.814531982421874,-0.21024860441684723,0.013790352270007133,-0.018885716795921326
1789141062919503600,10.824503662109375,-0.2208981215953827,0.011988194659352303,-0.026402205228805542
1789141062929475800,10.834475830078125,-0.17951393127441406,-0.018751341849565506,-0.043028052896261215
1789141062939448800,10.84444873046875,-0.16887889802455902,0.0009566326625645161,-0.07869840413331985
1789141062949420800,10.8544208984375,-0.19533687829971313,-0.02809392660856247,-0.05657046660780907
1789141062959392800,10.864392822265625,-0.23144932091236115,-0.0515640452504158,-0.01721961610019207
1789141062969365800,10.87436572265625,-0.25111863017082214,-0.057656560093164444,0.02623704820871353
1789141062979337700,10.884337646484376,-0.26734569668769836,-0.08382423967123032,0.025890111923217773
1789141062989309700,10.894309814453125,-0.25110042095184326,-0.08939290791749954,0.051413316279649734
1789141062999282700,10.90428271484375,-0.21566332876682281,-0.08283131569623947,0.016222313046455383
1789141063009254700,10.914254638671874,-0.23799926042556763,-0.10761069506406784,0.03587590903043747
1789141063019227000,10.924226806640625,-0.2681305706501007,-0.08046280592679977,0.0068598720245063305
1789141063029199600,10.93419970703125,-0.21050800383090973,-0.10479824244976044,-0.030847027897834778
1789141063039171600,10.944171630859374,-0.15139146149158478,-0.045080844312906265,-0.04267451912164688
1789141063049143800,10.954143798828126,-0.11949717998504639,-0.04307921230792999,-0.02966764010488987
1789141063059116500,10.964116455078125,-0.15031437575817108,-0.08707772940397263,-0.005053825676441193
1789141063069088800,10.9740888671875,-0.11608290672302246,-0.12623231112957,0.010713686235249043
1789141063079060700,10.984060791015626,-0.15914715826511383,-0.09218257665634155,0.013044812716543674
1789141063089034000,10.994033935546875,-0.13515473902225494,-0.1337350755929947,0.02393501065671444
1789141063099006000,11.004005859375,-0.2031567543745041,-0.1441633254289627,0.027616074308753014
1789141063108978000,11.01397802734375,-0.20773233473300934,-0.15313658118247986,-0.01724407635629177
1789141063118951200,11.023951171875,-0.21248042583465576,-0.15499338507652283,-0.03215407952666283
1789141063128923000,11.0339228515625,-0.1709819883108139,-0.13579866290092468,-0.05933350324630737
1789141063138895000,11.04389501953125,-0.1281825453042984,-0.15174289047718048,-0.044330623000860214
1789141063148868000,11.0538681640625,-0.09362536668777466,-0.1758306622505188,-0.050541914999485016
1789141063158840000,11.063840087890625,-0.12596087157726288,-0.16423003375530243,-0.02358209155499935
1789141063168813000,11.07381298828125,-0.15809723734855652,-0.20319980382919312,-0.00847344659268856
1789141063178785000,11.083784912109374,-0.10147159546613693,-0.20123912394046783,0.010896697640419006
1789141063188757000,11.093757080078126,-0.11227764189243317,-0.12082710862159729,-0.0016928634140640497
1789141063198730000,11.10372998046875,-0.08477243036031723,-0.1674356758594513,0.05283065885305405
1789141063208702000,11.113701904296875,-0.07310911267995834,-0.16458609700202942,0.027914654463529587
1789141063218674000,11.123673828125,-0.03496593236923218,-0.11003507673740387,0.004151380155235529
1789141063228647000,11.13364697265625,-0.03772709518671036,-0.10682090371847153,-0.0017933277413249016
1789141063238619000,11.143618896484375,0.013169105164706707,-0.1149912178516388,-0.01716030016541481
1789141063248590800,11.1535908203125,0.00849525723606348,-0.09591126441955566,0.0031819897703826427
1789141063258564000,11.163564208984376,0.031702928245067596,-0.11132197082042694,0.03187631070613861
1789141063268535800,11.173535888671875,-0.004363466054201126,-0.10505928099155426,0.039360325783491135
1789141063278508000,11.183508056640624,-0.022348077967762947,-0.08858942985534668,0.02502625808119774
1789141063288481000,11.19348095703125,-0.038757145404815674,-0.07373964786529541,0.03808187320828438
1789141063298452700,11.20345263671875,-0.003396807238459587,-0.06937164813280106,-0.0030074729584157467
1789141063308425000,11.213425048828125,0.005105067975819111,-0.09165245294570923,-0.03631483018398285
1789141063318398000,11.22339794921875,0.016263283789157867,-0.07774163782596588,-0.037650443613529205
1789141063328370000,11.233369873046875,0.021557115018367767,-0.07246219366788864,-0.014468158595263958
1789141063338342000,11.243341796875,0.04512458294630051,-0.059797633439302444,-0.04115602374076843
1789141063348315000,11.25331494140625,0.024914121255278587,-0.09674420207738876,0.034220755100250244
1789141063358286800,11.263286865234376,-0.043856628239154816,-0.07623476535081863,0.05037480220198631
1789141063368259000,11.273259033203125,0.014099613763391972,-0.10975171625614166,0.029943829402327538
1789141063378232000,11.283232177734375,-0.022276252508163452,-0.09299686551094055,0.06241496652364731
1789141063388203800,11.293203857421876,0.037267234176397324,-0.1111345961689949,0.061004020273685455
1789141063398176000,11.303176025390625,0.018540319055318832,-0.08999878913164139,0.010786042548716068
1789141063408149000,11.31314892578125,0.002095300704240799,-0.08006706088781357,0.013611922971904278
1789141063418121000,11.323120849609374,0.01844622567296028,-0.08287771046161652,0.01648937538266182
1789141063428094000,11.333093994140626,0.007918484508991241,-0.05426577106118202,-0.05382659658789635
1789141063438066000,11.34306591796875,0.04773508757352829,-0.07716964930295944,-0.04232798144221306
1789141063448038000,11.353037841796874,0.014253558591008186,-0.03837644308805466,-0.06171446293592453
1789141063458011000,11.363010986328124,0.05859227478504181,-0.03372427448630333,-0.08431299030780792
1789141063467983000,11.372983154296875,0.04588446766138077,-0.0459258109331131,-0.017521442845463753
1789141063477954800,11.382954833984375,0.08038462698459625,-0.0412813164293766,0.00037475174758583307
1789141063487927800,11.392927734375,0.09372413158416748,-0.010341241955757141,-0.004693510010838509
1789141063497900000,11.402900146484376,0.11307080090045929,-0.0342685729265213,0.03312225267291069
1789141063507871700,11.412871826171875,0.0615500882267952,-0.03594023734331131,0.06809301674365997
1789141063517845000,11.422844970703125,0.08788280934095383,-0.004660827107727528,0.018964529037475586
1789141063527817000,11.43281689453125,0.07791513204574585,0.005383018404245377,-0.00380150368437171
1789141063537789000,11.442788818359375,0.08050796389579773,0.0035650418139994144,-0.007980137132108212
1789141063547762000,11.452761962890625,0.0530632846057415,-0.0025035033468157053,0.025770369917154312
1789141063557734000,11.46273388671875,0.11424276977777481,0.011649494990706444,-0.01452646218240261
1789141063567705900,11.472705810546875,0.10294590890407562,0.006416383199393749,0.01442662626504898
1789141063577678800,11.482678955078125,0.07469628751277924,-0.01757316291332245,0.057225700467824936
1789141063587651000,11.492651123046874,0.035877250134944916,-0.011129378341138363,0.016619952395558357
1789141063597622800,11.502622802734376,0.043861024081707,-0.0033180611208081245,-0.054142970591783524
1789141063607596000,11.512595947265625,0.03935069590806961,-0.038314126431941986,-0.03106721304357052
1789141063617568000,11.522568115234375,0.042970411479473114,-0.02458995208144188,-0.03813588619232178
1789141063627540000,11.5325400390625,0.09443332999944687,-0.025452816858887672,-0.029529085382819176
1789141063637513000,11.542512939453125,0.0857287123799324,-0.011413643136620522,-0.028117701411247253
1789141063647485000,11.55248486328125,0.08959748595952988,-0.03169308230280876,0.014482222497463226
1789141063657457000,11.562456787109374,0.07917668670415878,-0.02700032666325569,0.016962353140115738
1789141063667430000,11.572429931640626,0.05801467224955559,-0.015722906216979027,0.016997773200273514
1789141063677402000,11.582402099609375,0.05150264501571655,-0.007740132510662079,0.03411594033241272
1789141063687375000,11.592375,0.06934822350740433,-0.0005091174971312284,0.04199223965406418
1789141063697346800,11.602346923828126,0.09872175008058548,0.0037825144827365875,-0.0007228389149531722
1789141063707319000,11.612319091796875,0.1062084287405014,-0.015194105915725231,0.021613892167806625
1789141063717292000,11.6222919921875,0.1273290365934372,0.012499678879976273,0.020601829513907433
1789141063727264000,11.632263916015624,0.1529635637998581,0.00048669055104255676,0.03348167613148689
1789141063737236000,11.642236083984375,0.12257391214370728,-0.009439067915081978,0.048124417662620544
1789141063747209000,11.652208984375,0.08579058945178986,-0.002490348182618618,0.03608852997422218
1789141063757181000,11.662180908203124,0.13997778296470642,-0.01287481002509594,0.03870169818401337
1789141063767153200,11.672153076171876,0.11917156726121902,0.026612676680088043,-0.0014001820236444473
1789141063777126100,11.682126220703125,0.1116720512509346,0.018053019419312477,0.001137427520006895
1789141063787097900,11.692097900390625,0.10194113105535507,0.018801633268594742,-0.00005327165126800537
1789141063797070000,11.702070068359374,0.11230970919132233,0.049123842269182205,-0.025871848687529564
1789141063807043000,11.71204296875,0.14843042194843292,0.08098563551902771,-0.06795059144496918
1789141063817015000,11.72201513671875,0.17024818062782288,0.09257256984710693,-0.04853338003158569
1789141063826987000,11.731987060546874,0.16885294020175934,0.07772864401340485,-0.0063254740089178085
1789141063836960000,11.7419599609375,0.17154882848262787,0.09501762688159943,0.012721064500510693
1789141063846932000,11.751931884765625,0.18509286642074585,0.1142893135547638,0.000004470348358154297
1789141063856904000,11.761904052734375,0.1657940149307251,0.0760163888335228,0.0267279502004385
1789141063866877200,11.771877197265624,0.16841243207454681,0.06527533382177353,0.04002271965146065
1789141063876849000,11.781848876953125,0.1363920420408249,0.1037217304110527,0.01679483987390995
1789141063886821000,11.791821044921875,0.17352423071861267,0.07722141593694687,-0.02749912068247795
1789141063896794000,11.801794189453124,0.16297118365764618,0.07837536185979843,0.0198002178221941
1789141063906765800,11.811765869140626,0.16701972484588623,0.06688595563173294,0.01854000985622406
1789141063916738000,11.821738037109375,0.1473831832408905,0.08215412497520447,-0.051715243607759476
1789141063926711000,11.8317109375,0.12626004219055176,0.08718270063400269,-0.029193423688411713
1789141063936683000,11.84168310546875,0.11228879541158676,0.08212237805128098,-0.04500938206911087
1789141063946655000,11.851655029296875,0.12926805019378662,0.06484458595514297,-0.05620637536048889
1789141063956628000,11.8616279296875,0.10946343839168549,0.08541197329759598,-0.007120202295482159
1789141063966600000,11.871599853515624,0.12420085072517395,0.06592961400747299,-0.0170199703425169
1789141063976573000,11.881572998046876,0.14466679096221924,0.056015145033597946,-0.019193284213542938
1789141063986545200,11.891545166015625,0.15522968769073486,0.061353448778390884,-0.005919557064771652
1789141063996516900,11.901516845703124,0.14641253650188446,0.06106492504477501,-0.028473224490880966
1789141064006490000,11.911489990234376,0.1276439130306244,0.05400674790143967,-0.05702843517065048
1789141064016461800,11.9214619140625,0.10768692195415497,0.060590241104364395,-0.01833745464682579
1789141064026434000,11.93143408203125,0.12905026972293854,0.10222690552473068,-0.04717522859573364
1789141064036407000,11.941406982421874,0.15027393400669098,0.07901442050933838,-0.032659608870744705
1789141064046378800,11.951378662109375,0.12386868894100189,0.09691592305898666,-0.03781682252883911
1789141064056351000,11.96135107421875,0.14243648946285248,0.0584629625082016,-0.0070766182616353035
1789141064066324000,11.971323974609374,0.12396560609340668,0.0673946738243103,-0.019647538661956787
1789141064076296000,11.9812958984375,0.12556593120098114,0.06322629004716873,-0.018982423469424248
1789141064086268000,11.991267822265625,0.12043695896863937,0.06085820496082306,-0.031139753758907318
1789141064096241400,12.001241455078125,0.13993392884731293,0.053083911538124084,-0.019395336508750916
1789141064106213600,12.011213623046874,0.14191637933254242,0.0712117850780487,-0.037561021745204926
1789141064116185300,12.021185302734375,0.14989231526851654,0.06543591618537903,-0.00422371830791235
1789141064126158600,12.03115869140625,0.1548050493001938,0.07080085575580597,-0.03825625404715538
1789141064136130600,12.041130615234374,0.1558169275522232,0.06323220580816269,-0.006622640881687403
1789141064146102500,12.0511025390625,0.11621225625276566,0.09025236964225769,-0.008984065614640713
1789141064156075500,12.061075439453125,0.1374061405658722,0.07008195668458939,-0.08062649518251419
1789141064166047500,12.071047607421875,0.1718200296163559,0.08004990220069885,-0.05656243860721588
1789141064176019500,12.08101953125,0.17049084603786469,0.10440270602703094,-0.031442586332559586
