time,seconds_elapsed,z,y,x
1789141052134402000,0.039402099609375,-0.21042221784591675,-0.005259742960333824,0.0065353973768651485
1789141052144375000,0.049375,-0.12639442086219788,0.0031933963764458895,-0.0536017082631588
1789141052154347000,0.059346923828125,-0.12151657789945602,0.0012580773327499628,-0.03278937190771103
1789141052164320000,0.069320068359375,-0.12473287433385849,-0.03110572136938572,0.012854811735451221
1789141052174292000,0.0792919921875,-0.16313806176185608,-0.05270635336637497,0.07681142538785934
1789141052184264000,0.089263916015625,-0.10638316720724106,-0.022428609430789948,-0.022483205422759056
1789141052194237000,0.09923681640625,-0.15656191110610962,-0.0493377223610878,0.03395290672779083
1789141052204209000,0.109208984375,-0.134175643324852,-0.05649097263813019,-0.018139056861400604
1789141052214180900,0.119180908203125,-0.10276446491479874,-0.03960227221250534,-0.05022242292761803
1789141052224154000,0.129154052734375,-0.14857536554336548,-0.047797881066799164,-0.007868043147027493
1789141052234125800,0.139125732421875,-0.18174955248832703,-0.06846507638692856,0.05332580581307411
1789141052244098000,0.14909814453125,-0.162043496966362,-0.037269607186317444,0.011333880946040154
1789141052254071000,0.159071044921875,-0.12128008902072906,-0.09680164605379105,0.0666370838880539
1789141052264042800,0.169042724609375,-0.11990217119455338,-0.05011190474033356,0.11253826320171356
1789141052274016000,0.17901611328125,-0.08609919995069504,-0.03344477713108063,0.08455110341310501
1789141052283988000,0.188988037109375,-0.06961183249950409,-0.0065202172845602036,0.006164685357362032
1789141052293960000,0.1989599609375,-0.03838520497083664,0.011175689287483692,-0.06734175235033035
1789141052303933000,0.208932861328125,-0.05516285449266434,-0.007274158298969269,-0.0037523938808590174
1789141052313905000,0.21890478515625,0.02984471432864666,-0.02569444477558136,-0.05420251935720444
1789141052323876900,0.228876953125,0.011394068598747253,-0.002160090021789074,-0.05632878467440605
1789141052333849900,0.238849853515625,0.011873437091708183,0.01576671190559864,-0.027903003618121147
1789141052343822000,0.248822021484375,0.04238127917051315,0.0023853934835642576,0.05661614239215851
1789141052353793800,0.258793701171875,0.06833937764167786,0.052208609879016876,-0.0261067021638155
1789141052363766800,0.268766845703125,0.045087315142154694,0.05162244662642479,-0.022121546790003777
1789141052373739000,0.278739013671875,0.021146031096577644,0.034640535712242126,0.04591422900557518
1789141052383711000,0.2887109375,0.05932750552892685,0.03544401004910469,0.046850062906742096
1789141052393684000,0.29868408203125,0.15138845145702362,0.09350172430276871,-0.05452476069331169
1789141052403656000,0.308656005859375,0.17498885095119476,0.034994203597307205,-0.005045092198997736
1789141052413629000,0.31862890625,0.11770319938659668,0.06319920718669891,0.040761809796094894
1789141052423601000,0.328600830078125,0.10043100267648697,0.03448021411895752,0.07460366189479828
1789141052433573000,0.338572998046875,0.11318247765302658,0.057859569787979126,-0.009912817738950253
1789141052443546000,0.348546142578125,0.08645685762166977,0.01512835267931223,0.056592971086502075
1789141052453517800,0.358517822265625,0.05805371701717377,0.02172420360147953,0.04869670048356056
1789141052463490000,0.368489990234375,0.1101483404636383,0.005526059307157993,0.018024008721113205
1789141052473463000,0.378463134765625,0.1041218712925911,0.016332633793354034,-0.005923935677856207
1789141052483435000,0.38843505859375,0.05951738730072975,-0.026207102462649345,0.059367187321186066
1789141052493407000,0.398406982421875,0.09552332758903503,-0.010791927576065063,-0.006261890754103661
1789141052503380000,0.4083798828125,0.12251739203929901,0.018545987084507942,-0.04634778946638107
1789141052513352000,0.41835205078125,0.049667153507471085,-0.006878145970404148,-0.0019686087034642696
1789141052523325000,0.428324951171875,0.0700635090470314,-0.04513871669769287,0.025677932426333427
1789141052533297200,0.438297119140625,0.07437170296907425,0.03737480193376541,-0.0015422365395352244
1789141052543268900,0.448268798828125,0.16099421679973602,0.07139242440462112,-0.014583470299839973
1789141052553241900,0.458241943359375,0.14943796396255493,0.10438445955514908,-0.04802025482058525
1789141052563214000,0.468214111328125,0.12498241662979126,0.06327404081821442,-0.004701544530689716
1789141052573186000,0.47818603515625,0.1296147108078003,0.14596785604953766,-0.0189630389213562
1789141052583159000,0.488158935546875,0.2369297295808792,0.18720504641532898,-0.09958837926387787
1789141052593131000,0.498131103515625,0.17107214033603668,0.1272788643836975,-0.007873369380831718
1789141052603103000,0.50810302734375,0.22322189807891846,0.17412173748016357,-0.032954487949609756
1789141052613076000,0.518075927734375,0.18949243426322937,0.2380887269973755,-0.007360178045928478
1789141052623048200,0.528048095703125,0.2144145667552948,0.20914523303508759,-0.005530320107936859
1789141052633021000,0.53802099609375,0.2189539223909378,0.19689948856830597,0.04416000470519066
1789141052642993000,0.547992919921875,0.20152220129966736,0.15688815712928772,0.04989645257592201
1789141052652965000,0.557965087890625,0.16985854506492615,0.15598054230213165,0.04373682662844658
1789141052662937900,0.567937744140625,0.1843501329421997,0.1839887499809265,0.021319402381777763
1789141052672910000,0.57791015625,0.19917887449264526,0.1811884343624115,0.0037707698065787554
1789141052682882000,0.587882080078125,0.10856056213378906,0.11549729853868484,0.054662447422742844
1789141052692854800,0.597854736328125,0.07317674160003662,0.1637609750032425,-0.05058834329247475
1789141052702827000,0.607826904296875,0.04915902391076088,0.10806814581155777,0.004864796530455351
1789141052712799000,0.617799072265625,0.00373055599629879,0.11472072452306747,-0.004270112607628107
1789141052722772000,0.62777197265625,0.015047126449644566,0.0916159376502037,-0.027817249298095703
1789141052732744000,0.637743896484375,0.009344233199954033,0.07217513024806976,-0.027999410405755043
1789141052742717000,0.647717041015625,-0.12941232323646545,0.04132986441254616,0.040521860122680664
1789141052752689000,0.65768896484375,-0.12549187242984772,0.01919366791844368,-0.011502192355692387
1789141052762660900,0.667660888671875,-0.10678104311227798,0.012413525953888893,0.01612144522368908
1789141052772634000,0.677634033203125,-0.01757819391787052,-0.02918744646012783,-0.0369417741894722
1789141052782605800,0.687605712890625,-0.05161845311522484,-0.020679445937275887,0.04133012890815735
1789141052792578000,0.697578125,-0.041124265640974045,0.004987568128854036,-0.04207208752632141
1789141052802551000,0.707551025390625,-0.02408003620803356,0.011652661487460136,-0.04633820429444313
1789141052812523000,0.71752294921875,-0.04587215185165405,0.050633084028959274,-0.0301994476467371
1789141052822495000,0.727494873046875,-0.030438067391514778,0.009457950480282307,-0.0028016455471515656
1789141052832468000,0.737468017578125,-0.00500940578058362,0.007474161684513092,0.02022617496550083
1789141052842440000,0.74743994140625,-0.00911733228713274,0.03466610237956047,-0.035521507263183594
1789141052852413000,0.757412841796875,0.020980648696422577,0.03659449517726898,-0.012046809308230877
1789141052862385200,0.76738525390625,-0.012136025354266167,0.05232978239655495,0.05361955240368843
1789141052872356900,0.77735693359375,0.029996247962117195,0.05637645721435547,-0.011942679062485695
1789141052882329900,0.787329833984375,-0.0015606123488396406,0.10284356027841568,-0.036368925124406815
1789141052892302000,0.797302001953125,-0.04285931587219238,0.026337331160902977,0.1487617790699005
1789141052902273800,0.807273681640625,0.0025451830588281155,0.06284128129482269,0.0407269224524498
1789141052912247000,0.8172470703125,0.03165699541568756,0.03292865678668022,0.07620874792337418
1789141052922219000,0.827218994140625,-0.04227901250123978,0.07212479412555695,0.10085684061050415
1789141052932191000,0.83719091796875,0.01410596538335085,0.08232256770133972,-0.014627145603299141
1789141052942164000,0.8471640625,-0.0296135526150465,0.07817789167165756,-0.004622715059667826
1789141052952136000,0.857135986328125,-0.027227094396948814,0.1056705042719841,-0.07463562488555908
1789141052962108000,0.86710791015625,-0.040328249335289,0.04087819159030914,0.015385347418487072
1789141052972081000,0.877080810546875,0.01931777223944664,-0.04338901862502098,0.17493000626564026
1789141052982053000,0.88705322265625,0.12006249278783798,0.19858206808567047,-0.15097913146018982
1789141052992025900,0.89702587890625,-0.010848918929696083,0.1400119662284851,0.0916644036769867
1789141053001997800,0.906997802734375,-0.020603545010089874,0.15762025117874146,0.0363345704972744
1789141053011970000,0.916969970703125,-0.017471134662628174,0.12154986709356308,-0.009928797371685505
1789141053021942800,0.92694287109375,-0.05651094764471054,0.09878916293382645,-0.02256469801068306
1789141053031915000,0.9369150390625,-0.14156511425971985,0.09796837717294693,0.059902481734752655
1789141053041887000,0.946886962890625,-0.02002643793821335,0.08326958864927292,0.004246676806360483
1789141053051860000,0.95685986328125,0.011933891102671623,0.09575049579143524,0.024581242352724075
1789141053061832000,0.96683203125,-0.04386359453201294,0.0886600911617279,0.0006740460521541536
1789141053071804200,0.97680419921875,-0.13549098372459412,0.12777021527290344,-0.06399229913949966
1789141053081777000,0.98677685546875,-0.14914527535438538,0.03563575819134712,0.04900402948260307
1789141053091748900,0.996748779296875,-0.14673379063606262,0.06716731935739517,0.014010091312229633
1789141053101721900,1.006721923828125,-0.19773252308368683,-0.05976772680878639,0.11118191480636597
1789141053111693800,1.01669384765625,-0.08217769116163254,-0.015133146196603775,0.05687233805656433
1789141053121666000,1.026666015625,-0.1978694051504135,0.10210879147052765,-0.05977411940693855
1789141053131638800,1.036638671875,-0.25427356362342834,0.05173536762595177,-0.22773009538650513
1789141053141610800,1.04661083984375,-0.3307504951953888,0.02744653820991516,-0.1645577847957611
1789141053151583000,1.0565830078125,-0.20335258543491364,0.012563462369143963,-0.034034665673971176
1789141053161555700,1.0665556640625,-0.1101752370595932,0.028197016566991806,-0.10280387848615646
1789141053171528000,1.07652783203125,-0.11691197007894516,-0.10402467101812363,0.08742997795343399
1789141053181500000,1.0865,-0.05851364508271217,0.07273571938276291,-0.24851740896701813
1789141053191473000,1.096472900390625,-0.2723798453807831,-0.03971785306930542,0.14101357758045197
1789141053201444900,1.10644482421875,-0.2520359754562378,0.05435938015580177,0.03283624351024628
1789141053211416800,1.116416748046875,-0.24585610628128052,0.006400375161319971,0.06850262731313705
1789141053221389800,1.126389892578125,-0.27167731523513794,0.03674896061420441,0.09301915764808655
1789141053231361800,1.13636181640625,-0.1412857621908188,-0.002031725598499179,0.039692819118499756
1789141053241335000,1.1463349609375,-0.18996407091617584,-0.021813951432704926,0.06992768496274948
1789141053251306800,1.156306640625,-0.20365911722183228,-0.03888934105634689,-0.02961115539073944
1789141053261279000,1.166279052734375,-0.14945048093795776,0.008712797425687313,-0.04261989891529083
1789141053271252000,1.176251953125,-0.10073033720254898,0.053285859525203705,-0.0541098415851593
1789141053281223700,1.1862236328125,-0.09662400931119919,0.03605733811855316,-0.05276627466082573
1789141053291196000,1.19619580078125,-0.09481492638587952,0.07288485765457153,-0.11974584311246872
1789141053301169000,1.2061689453125,-0.10580792278051376,0.054722633212804794,-0.0054211304523050785
1789141053311140900,1.216140869140625,-0.12732599675655365,0.05611999332904816,-0.009553823620080948
1789141053321112800,1.22611279296875,-0.08990751951932907,0.05626513808965683,0.02099742740392685
1789141053331085800,1.2360859375,-0.1349295824766159,0.025261681526899338,0.12818220257759094
1789141053341057800,1.246057861328125,-0.17520244419574738,-0.020256536081433296,0.21376581490039825
1789141053351030800,1.25603076171875,-0.15036819875240326,-0.016871923580765724,0.0943632498383522
1789141053361003000,1.2660029296875,-0.19906648993492126,-0.013400227762758732,0.12272219359874725
1789141053370974700,1.275974609375,-0.20728075504302979,-0.004516721237450838,0.10656186193227768
1789141053380947700,1.28594775390625,-0.1377922147512436,0.025195367634296417,-0.12222763895988464
1789141053390920000,1.295919921875,-0.0948021411895752,-0.008290686644613743,-0.08905903249979019
1789141053400892000,1.305891845703125,-0.10702019184827805,-0.037815287709236145,0.10210053622722626
1789141053410865000,1.315864990234375,-0.13726678490638733,-0.01750176213681698,0.002436792477965355
1789141053420836900,1.3258369140625,-0.15518799424171448,-0.04529877007007599,-0.026580477133393288
1789141053430808800,1.335808837890625,-0.18903064727783203,-0.10907215625047684,0.11257261782884598
1789141053440781800,1.34578173828125,-0.16799886524677277,-0.11246209591627121,0.0620332770049572
1789141053450754000,1.355754150390625,-0.19971737265586853,-0.13285870850086212,0.01552436500787735
1789141053460726800,1.365726806640625,-0.25010785460472107,-0.1253288984298706,-0.0033332123421132565
1789141053470698800,1.37569873046875,-0.2872863709926605,-0.09932472556829453,0.0681401714682579
1789141053480671000,1.3856708984375,-0.2673669755458832,-0.1464693248271942,0.16945746541023254
1789141053490643700,1.395643798828125,-0.22653992474079132,-0.13502439856529236,0.126179501414299
1789141053500616000,1.405615966796875,-0.2087196558713913,-0.15286678075790405,0.0596417598426342
1789141053510588000,1.415587890625,-0.22760653495788574,-0.13512346148490906,0.008192416280508041
1789141053520560600,1.425560546875,-0.22338275611400604,-0.1449127197265625,0.0004974784678779542
1789141053530532900,1.435532958984375,-0.2419886589050293,-0.14456278085708618,-0.06642270088195801
1789141053540504800,1.4455048828125,-0.26959046721458435,-0.13667263090610504,-0.06956176459789276
1789141053550477800,1.455477783203125,-0.2428445965051651,-0.10539353638887405,-0.06233501434326172
1789141053560449800,1.46544970703125,-0.20952633023262024,-0.13877519965171814,0.016079368069767952
1789141053570422000,1.475422119140625,-0.21527715027332306,-0.12153628468513489,0.00875274557620287
1789141053580394800,1.485394775390625,-0.24977149069309235,-0.1309678703546524,0.011254784651100636
1789141053590366700,1.49536669921875,-0.25596973299980164,-0.1557278037071228,0.03255421295762062
1789141053600340000,1.505340087890625,-0.22284133732318878,-0.13471972942352295,-0.002463423879817128
1789141053610311700,1.515311767578125,-0.23382341861724854,-0.10881729423999786,-0.04778589680790901
1789141053620284000,1.525283935546875,-0.20439761877059937,-0.134621724486351,-0.03756202384829521
1789141053630257000,1.5352568359375,-0.20069342851638794,-0.11803023517131805,-0.013617275282740593
1789141053640228900,1.545228759765625,-0.1702287197113037,-0.12771667540073395,-0.06139278784394264
1789141053650200800,1.555200927734375,-0.1363314688205719,-0.09927704930305481,-0.10636132955551147
1789141053660173800,1.565173828125,-0.1565379500389099,-0.10260147601366043,-0.033365946263074875
1789141053670145800,1.575145751953125,-0.1444423943758011,-0.10905192047357559,0.01792733557522297
1789141053680117800,1.58511767578125,-0.11596281826496124,-0.08854904025793076,0.034219224005937576
1789141053690091000,1.595091064453125,-0.08019497245550156,-0.09833748638629913,0.03641073778271675
1789141053700062700,1.605062744140625,-0.026200445368885994,-0.11287062615156174,0.03517822548747063
1789141053710035700,1.61503564453125,-0.05361742153763771,-0.10120651125907898,0.022343920543789864
1789141053720008000,1.625008056640625,-0.08335348218679428,-0.11312655359506607,-0.03333265706896782
1789141053729979600,1.634979736328125,-0.05578150600194931,-0.10031648725271225,-0.06888558715581894
1789141053739953000,1.644952880859375,-0.05608643963932991,-0.10291546583175659,-0.07729612290859222
1789141053749924900,1.6549248046875,-0.03833380714058876,-0.14223596453666687,-0.06929704546928406
1789141053759896800,1.664896728515625,-0.04976702481508255,-0.15178553760051727,-0.014463627710938454
1789141053769869800,1.674869873046875,-0.10423905402421951,-0.13695545494556427,-0.002156894188374281
1789141053779841800,1.684841796875,-0.13858024775981903,-0.19338251650333405,0.03039385750889778
1789141053789813800,1.694813720703125,-0.09490334242582321,-0.18538770079612732,0.03929787129163742
1789141053799786800,1.704786865234375,-0.11503497511148453,-0.19694875180721283,0.08960924297571182
1789141053809759000,1.714759033203125,-0.12883201241493225,-0.21083766222000122,0.07474561035633087
1789141053819730700,1.724730712890625,-0.11195290088653564,-0.20918864011764526,0.05693492293357849
1789141053829703700,1.73470361328125,-0.0964016392827034,-0.195515975356102,0.060447096824645996
1789141053839676000,1.744676025390625,-0.06786773353815079,-0.19614474475383759,0.06452412903308868
1789141053849649000,1.75464892578125,-0.013556821271777153,-0.1729331612586975,0.016500946134328842
1789141053859620900,1.764620849609375,0.0021046961192041636,-0.16713225841522217,0.001969940261915326
1789141053869592800,1.7745927734375,0.014035125263035297,-0.15711824595928192,-0.020011259242892265
1789141053879566000,1.784566162109375,0.022660305723547935,-0.10653603076934814,-0.056775931268930435
1789141053889537800,1.794537841796875,0.030312897637486458,-0.11499902606010437,-0.03634735569357872
1789141053899510000,1.804510009765625,0.016685502603650093,-0.09607034176588058,-0.034327879548072815
1789141053909483000,1.81448291015625,0.022538332268595695,-0.09620935469865799,0.002231728984043002
1789141053919454700,1.824454833984375,0.054599594324827194,-0.10839278250932693,0.01992710307240486
1789141053929427000,1.834427001953125,0.0925496444106102,-0.10797946155071259,0.0479440912604332
1789141053939400000,1.84439990234375,0.06868372112512589,-0.10227523744106293,0.061592523008584976
1789141053949372000,1.854371826171875,0.04893611744046211,-0.11221229285001755,0.04566336050629616
1789141053959345000,1.864344970703125,0.07879681140184402,-0.1026986837387085,0.013800500892102718
1789141053969316900,1.87431689453125,0.10482468456029892,-0.09012456983327866,-0.006625145673751831
1789141053979288800,1.884288818359375,0.10318896919488907,-0.06500403583049774,-0.03163595497608185
1789141053989261800,1.89426171875,0.10265766829252243,-0.08171217143535614,0.02653413824737072
1789141053999233800,1.90423388671875,0.12669269740581512,-0.06091475114226341,-0.010090450756251812
1789141054009205800,1.914205810546875,0.1427539587020874,-0.06768530607223511,0.009457684122025967
1789141054019178800,1.9241787109375,0.12593236565589905,-0.05133455991744995,0.03164048492908478
1789141054029150700,1.934150634765625,0.12354990094900131,-0.08438412100076675,0.07169283181428909
1789141054039123000,1.944123046875,0.12842455506324768,-0.07254530489444733,0.03003566339612007
1789141054049096000,1.954095947265625,0.12574781477451324,-0.07082410901784897,0.061166152358055115
1789141054059067600,1.964067626953125,0.12481729686260223,-0.03826935961842537,0.03230414539575577
1789141054069039900,1.974039794921875,0.12951645255088806,-0.026103505864739418,0.011176222003996372
1789141054079012900,1.984012939453125,0.15293282270431519,-0.03223090618848801,0.02912246435880661
1789141054088984800,1.99398486328125,0.1741318553686142,-0.03646133840084076,0.02479509450495243
1789141054098957800,2.003957763671875,0.18241001665592194,-0.02851100265979767,-0.011151720769703388
1789141054108929800,2.0139296875,0.14696495234966278,-0.040341831743717194,0.013893445022404194
1789141054118901800,2.02390185546875,0.11854129284620285,-0.03152996301651001,0.015004249289631844
1789141054128874800,2.033874755859375,0.14210094511508942,-0.05097157135605812,0.010305634699761868
1789141054138847000,2.043846923828125,0.13365420699119568,-0.025181252509355545,0.011566640809178352
1789141054148818700,2.053818603515625,0.12518535554409027,-0.03249376267194748,0.0424630381166935
1789141054158791700,2.063791748046875,0.12550972402095795,-0.0008173241512849927,0.045269209891557693
1789141054168764000,2.073763916015625,0.15363164246082306,-0.010583934374153614,0.061347246170043945
1789141054178735600,2.083735595703125,0.16137024760246277,-0.01678936555981636,0.07319698482751846
1789141054188708900,2.093708984375,0.16993577778339386,0.000945954816415906,0.03374810889363289
1789141054198680800,2.103680908203125,0.13967907428741455,0.01637471280992031,0.016341421753168106
1789141054208653800,2.11365380859375,0.16259343922138214,0.035589154809713364,0.009668339975178242
1789141054218625800,2.123625732421875,0.20893137156963348,0.051896486431360245,0.006515423767268658
1789141054228597800,2.13359765625,0.2195424735546112,0.06263195723295212,-0.036663737148046494
1789141054238571000,2.143571044921875,0.24752217531204224,0.06867333501577377,-0.01781974360346794
1789141054248542700,2.153542724609375,0.18613125383853912,0.09958145022392273,0.0008263788768090308
1789141054258515000,2.163514892578125,0.1912999153137207,0.06986190378665924,0.022226741537451744
1789141054268488000,2.173488037109375,0.20197759568691254,0.09571054577827454,-0.019579559564590454
1789141054278460000,2.1834599609375,0.22079814970493317,0.10788305848836899,0.014160294085741043
1789141054288431900,2.193431884765625,0.2028428614139557,0.11572127044200897,-0.012140019796788692
1789141054298404900,2.20340478515625,0.20752815902233124,0.10330162197351456,-0.023120764642953873
1789141054308376800,2.213376953125,0.17212356626987457,0.13197694718837738,-0.026391925290226936
1789141054318349800,2.223349853515625,0.1739369034767151,0.14039519429206848,-0.03184740990400314
1789141054328322000,2.233322021484375,0.18543776869773865,0.125077486038208,0.025188976898789406
1789141054338293800,2.243293701171875,0.21304090321063995,0.1201234757900238,0.05245388671755791
1789141054348266800,2.253266845703125,0.19371087849140167,0.14338965713977814,0.04362737014889717
1789141054358239000,2.263239013671875,0.1503266543149948,0.12335282564163208,0.11670824140310287
1789141054368210700,2.273210693359375,0.161653071641922,0.12164653837680817,0.12253976613283157
1789141054378184000,2.283183837890625,0.1589808613061905,0.15913186967372894,0.021803298965096474
1789141054388156000,2.293156005859375,0.14650900661945343,0.14685069024562836,0.02960423193871975
1789141054398127900,2.3031279296875,0.12929433584213257,0.14977137744426727,-0.0002865561400540173
1789141054408100900,2.313100830078125,0.11571861058473587,0.14415504038333893,-0.01709775999188423
1789141054418072800,2.32307275390625,0.10984393954277039,0.15860535204410553,-0.023673903197050095
1789141054428044800,2.333044921875,0.11458569765090942,0.12436669319868088,-0.03646746277809143
1789141054438017800,2.343017822265625,0.07156819105148315,0.11400486528873444,-0.043423641473054886
1789141054447990000,2.352989990234375,0.04890655726194382,0.0872800424695015,-0.02497192844748497
1789141054457962800,2.362962646484375,0.01678643748164177,0.05825158953666687,0.00974184274673462
1789141054467934700,2.372934814453125,-0.009660350158810616,0.036018453538417816,0.009463276714086533
1789141054477907000,2.382906982421875,-0.054065365344285965,0.0268329456448555,0.032339565455913544
1789141054487879700,2.392879638671875,-0.07261960953474045,0.017542241141200066,-0.005142563953995705
1789141054497852000,2.402851806640625,-0.0933067798614502,-0.02183978445827961,0.024885641410946846
1789141054507823900,2.412823974609375,-0.11202054470777512,-0.006930344272404909,0.012464392930269241
1789141054517796900,2.422796875,-0.09287241846323013,-0.01341380923986435,-0.03943049535155296
1789141054527768800,2.432768798828125,-0.09283113479614258,-0.04050348326563835,-0.0025132251903414726
1789141054537741000,2.442740966796875,-0.0913485586643219,-0.00987233780324459,-0.0008229167433455586
1789141054547713800,2.4527138671875,-0.10059105604887009,-0.00430127140134573,-0.03507037088274956
1789141054557685800,2.462685791015625,-0.08802599459886551,-0.002691656816750765,-0.002808036981150508
1789141054567658000,2.472657958984375,-0.07988497614860535,0.015265505760908127,0.0016623451374471188
1789141054577630700,2.482630615234375,-0.08151030540466309,0.023095732554793358,-0.020984377712011337
1789141054587603000,2.49260302734375,-0.07457250356674194,0.032223448157310486,-0.03936471790075302
1789141054597576000,2.502575927734375,-0.07066351920366287,0.04289313778281212,-0.03934261202812195
1789141054607547600,2.512547607421875,-0.07426757365465164,0.03796469420194626,-0.050931356847286224
1789141054617519900,2.522519775390625,-0.07563244551420212,0.04104170948266983,-0.083160400390625
1789141054627492900,2.532492919921875,-0.04709747061133385,0.03783739358186722,-0.07860293239355087
1789141054637464800,2.54246484375,-0.04862799122929573,0.061054300516843796,-0.036858148872852325
1789141054647436800,2.552436767578125,-0.032890304923057556,0.06656358391046524,-0.05272845923900604
1789141054657409800,2.562409912109375,-0.027770910412073135,0.07642287015914917,-0.03675508499145508
1789141054667381800,2.5723818359375,-0.026163160800933838,0.0793217197060585,-0.00800146721303463
1789141054677354000,2.58235400390625,-0.05608910322189331,0.04367797076702118,0.0457238107919693
1789141054687327000,2.592326904296875,-0.03693617880344391,0.06000101938843727,0.019304722547531128
1789141054697298700,2.602298583984375,-0.05115586146712303,0.05890699103474617,0.04316531494259834
1789141054707272000,2.61227197265625,-0.044027380645275116,0.03795430809259415,0.07251600921154022
1789141054717244000,2.622243896484375,-0.05495406314730644,0.05080192908644676,0.07821784168481827
1789141054727215900,2.6322158203125,-0.046727824956178665,0.03539314493536949,0.08933120965957642
1789141054737188900,2.64218896484375,-0.030587736517190933,0.028391694650053978,0.08351194113492966
1789141054747160800,2.652160888671875,-0.049914296716451645,0.011514176614582539,0.08144425600767136
1789141054757132800,2.6621328125,-0.06752338260412216,0.021836057305336,0.021828865632414818
1789141054767105800,2.672105712890625,-0.07616987079381943,0.0011584750609472394,0.015385613776743412
1789141054777078000,2.682078125,-0.11699532717466354,-0.005785983521491289,0.02466939389705658
1789141054787049700,2.6920498046875,-0.13630138337612152,-0.01619441621005535,-0.015605058521032333
1789141054797022700,2.702022705078125,-0.12335442751646042,-0.02997148036956787,-0.011898737400770187
1789141054806995000,2.711994873046875,-0.11421205848455429,-0.03111584112048149,-0.0023494407068938017
1789141054816966700,2.721966552734375,-0.0885666161775589,-0.034753985702991486,-0.014847389422357082
1789141054826940000,2.73193994140625,-0.06720326840877533,-0.07732115685939789,0.038183338940143585
1789141054836911900,2.741911865234375,-0.09638991951942444,-0.05709844082593918,0.060750700533390045
1789141054846884600,2.751884521484375,-0.1376553326845169,-0.07903169840574265,0.11765233427286148
1789141054856856800,2.76185693359375,-0.10427207499742508,-0.07925434410572052,0.14286448061466217
1789141054866828800,2.771828857421875,-0.09312568604946136,-0.08972243219614029,0.145827516913414
1789141054876801800,2.7818017578125,-0.08681105822324753,-0.12034345418214798,0.20272594690322876
1789141054886773800,2.791773681640625,-0.08943746984004974,-0.0763925090432167,0.16772322356700897
1789141054896746000,2.80174609375,-0.07866125553846359,-0.09760298579931259,0.172392800450325
1789141054906718700,2.81171875,-0.09537126123905182,-0.06969892233610153,0.12381088733673096
1789141054916691000,2.82169091796875,-0.09566553682088852,-0.06571003794670105,0.09316349774599075
1789141054926663000,2.831662841796875,-0.08417133241891861,-0.09353714436292648,-0.039383359253406525
1789141054936635600,2.8416357421875,-0.08121202886104584,-0.06662590056657791,-0.10961304605007172
1789141054946607900,2.85160791015625,-0.05655062571167946,-0.02996056154370308,-0.11675670742988586
1789141054956580900,2.861580810546875,-0.040593765676021576,-0.02869715914130211,-0.13789528608322144
1789141054966552800,2.871552734375,0.006737797521054745,-0.004621649626642466,-0.15537281334400177
1789141054976524800,2.88152490234375,0.069319948554039,-0.017124125733971596,-0.04157806932926178
1789141054986497800,2.891497802734375,0.039559658616781235,-0.02953845076262951,-0.04102279990911484
1789141054996469800,2.9014697265625,0.05320543050765991,-0.06503918766975403,0.039872847497463226
1789141055006441700,2.911441650390625,-0.0013214604696258903,-0.013042565435171127,0.04934171587228775
1789141055016415000,2.9214150390625,-0.006568686570972204,-0.04026007279753685,0.08085010945796967
1789141055026386700,2.93138671875,-0.08253376185894012,-0.032951824367046356,0.0947992131114006
1789141055036359000,2.94135888671875,-0.08003358542919159,-0.04832838475704193,-0.019300727173686028
1789141055046332000,2.951331787109375,-0.06956470012664795,-0.0622258223593235,-0.05397268757224083
1789141055056303600,2.9613037109375,-0.04348435997962952,-0.030216757208108902,-0.07489261776208878
1789141055066275800,2.97127587890625,0.008039284497499466,-0.017916150391101837,-0.0906372219324112
1789141055076248800,2.981248779296875,0.05632878467440605,0.010633203200995922,-0.10054152458906174
1789141055086220800,2.991220703125,0.09656089544296265,0.025963956490159035,-0.04885116219520569
1789141055096193800,3.00119384765625,0.11344639956951141,0.026026275008916855,-0.009695503860712051
1789141055106166800,3.011166748046875,0.0725996345281601,0.0007861651247367263,0.054064568132162094
1789141055116139000,3.021138916015625,0.03953622281551361,-0.014769624918699265,0.03062981367111206
1789141055126111700,3.03111181640625,0.0010761833982542157,-0.0442257858812809,0.01528681069612503
1789141055136084000,3.041083984375,-0.04296823963522911,-0.04374668002128601,-0.010969560593366623
1789141055146056000,3.051055908203125,-0.09856891632080078,-0.03822142258286476,-0.07935713976621628
1789141055156028700,3.061028564453125,-0.105809785425663,-0.045224204659461975,-0.16720683872699738
1789141055166001000,3.0710009765625,-0.050575558096170425,-0.04789535328745842,-0.23589321970939636
1789141055175972900,3.080972900390625,0.011995942331850529,-0.03825151547789574,-0.2518253028392792
1789141055185945900,3.09094580078125,0.05164668336510658,-0.046537406742572784,-0.17106549441814423
1789141055195917800,3.100917724609375,0.05524487793445587,-0.06749941408634186,-0.1038995012640953
1789141055205890000,3.11089013671875,0.07264570891857147,-0.03482962027192116,-0.13627368211746216
1789141055215862800,3.12086279296875,0.030702784657478333,-0.02177933044731617,-0.05670242756605148
1789141055225834800,3.130834716796875,-0.06773270666599274,-0.03325382620096207,-0.0035241609439253807
1789141055235808000,3.14080810546875,-0.06216057762503624,-0.052082642912864685,-0.027699004858732224
1789141055245779700,3.15077978515625,-0.06161915510892868,-0.034879688173532486,-0.03086763434112072
1789141055255752000,3.160751953125,-0.03359178081154823,-0.026444923132658005,-0.0699647068977356
1789141055265725000,3.170724853515625,-0.021854965016245842,-0.0321507453918457,-0.04586895555257797
1789141055275696600,3.180696533203125,0.0736292153596878,-0.014090784825384617,-0.06724614650011063
1789141055285668900,3.1906689453125,0.10297085344791412,-0.03013446554541588,-0.048419464379549026
1789141055295641900,3.200641845703125,0.1093834787607193,-0.042092058807611465,-0.071261927485466
1789141055305613800,3.21061376953125,0.04772118479013443,-0.04806473106145859,-0.02869422920048237
1789141055315585800,3.220585693359375,0.014460165984928608,-0.07714512199163437,-0.0036341496743261814
1789141055325558800,3.230558837890625,0.030047914013266563,-0.06093685328960419,0.04921601712703705
1789141055335530800,3.24053076171875,0.04517094045877457,-0.009668872691690922,0.09940221905708313
1789141055345503000,3.2505029296875,0.05576739087700844,0.03741554915904999,0.10261079668998718
1789141055355476000,3.26047607421875,0.042808715254068375,0.050327617675065994,0.10424864292144775
1789141055365447700,3.27044775390625,0.07957258820533752,0.06325460225343704,0.06937667727470398
1789141055375421000,3.2804208984375,0.11357343196868896,0.0504370741546154,0.05233750492334366
1789141055385393000,3.290392822265625,0.11066233366727829,0.0332983024418354,-0.016103869304060936
1789141055395364900,3.30036474609375,0.09280423820018768,0.0278627909719944,-0.12865491211414337
1789141055405337900,3.310337890625,0.1013718917965889,0.034624289721250534,-0.1816110759973526
1789141055415309800,3.320309814453125,0.10391281545162201,0.05782468244433403,-0.16808195412158966
1789141055425281800,3.33028173828125,0.09082311391830444,0.06533533334732056,-0.19000908732414246
1789141055435254800,3.3402548828125,0.06705280393362045,0.051723115146160126,-0.1333806961774826
1789141055445227000,3.35022705078125,0.09270037710666656,0.06450282782316208,-0.09906000643968582
1789141055455198700,3.36019873046875,0.1198640838265419,0.06745653599500656,-0.03085991181433201
1789141055465171700,3.370171630859375,0.08827686309814453,0.062422897666692734,0.012953615747392178
1789141055475144000,3.38014404296875,0.08722545206546783,0.05241793394088745,0.045695316046476364
1789141055485115600,3.39011572265625,0.02563958242535591,0.05733199790120125,0.0907171219587326
1789141055495089000,3.4000888671875,0.021343370899558067,0.018560634925961494,0.12418879568576813
1789141055505060900,3.410060791015625,0.011638013646006584,0.018452243879437447,0.11304505914449692
1789141055515033900,3.420033935546875,-0.010212157852947712,-0.01623889058828354,0.0863543301820755
1789141055525005800,3.430005859375,-0.008745288476347923,0.022603046149015427,0.01182416919618845
1789141055534977800,3.439977783203125,0.003453853540122509,0.05079154297709465,-0.0688357874751091
1789141055544950800,3.44995068359375,-0.026514964178204536,0.030235400423407555,-0.05817169323563576
1789141055554922800,3.4599228515625,-0.04674806445837021,0.020361997187137604,-0.09241674840450287
1789141055564895000,3.46989501953125,0.0032053806353360415,0.031661257147789,-0.13054150342941284
1789141055574867700,3.47986767578125,0.03217897564172745,0.020796891301870346,-0.11825287342071533
1789141055584840000,3.48983984375,0.023457389324903488,-0.030782412737607956,-0.06455289572477341
1789141055594812000,3.49981201171875,-0.019826434552669525,0.014917164109647274,-0.1498507410287857
1789141055604784600,3.50978466796875,-0.04508518800139427,-0.028086761012673378,-0.043836697936058044
1789141055614756900,3.5197568359375,-0.09929196536540985,0.004748149774968624,-0.0032916669733822346
1789141055624728800,3.529728759765625,-0.042692068964242935,0.01152695994824171,-0.028299814090132713
1789141055634701800,3.539701904296875,-0.09225935488939285,-0.028326446190476418,0.06060582399368286
1789141055644673800,3.549673828125,-0.04879869893193245,0.006896788254380226,0.03388899192214012
1789141055654646800,3.559646728515625,-0.052080512046813965,0.015148859471082687,0.0810711532831192
1789141055664618800,3.56961865234375,-0.05854187160730362,0.04213786497712135,0.05661480873823166
1789141055674590700,3.5795908203125,-0.04567507654428482,0.019106050953269005,0.08802998811006546
1789141055684564000,3.58956396484375,-0.012443353421986103,0.05427468940615654,0.04363003373146057
1789141055694535700,3.59953564453125,0.02876213937997818,0.07229124009609222,0.0012945625931024551
1789141055704508000,3.6095078125,0.0648498386144638,0.06900889426469803,0.014903848059475422
1789141055714481000,3.61948095703125,0.09082470834255219,0.07749053090810776,-0.0033657029271125793
1789141055724452600,3.62945263671875,0.08066555112600327,0.08122428506612778,-0.04390726983547211
1789141055734424800,3.6394248046875,0.11151294410228729,0.06778064370155334,-0.04458717629313469
1789141055744397800,3.649397705078125,0.11740918457508087,0.06951223313808441,0.00965582299977541
1789141055754369800,3.659369873046875,0.061652977019548416,0.0905621200799942,-0.027730431407690048
1789141055764341800,3.669341796875,0.033844251185655594,0.05621933192014694,-0.018640263006091118
1789141055774315000,3.67931494140625,0.045219674706459045,0.06364794820547104,-0.09819554537534714
1789141055784286700,3.68928662109375,-0.004337756894528866,0.07616906613111496,-0.023844879120588303
1789141055794259700,3.699259765625,-0.03099839575588703,0.06269747018814087,-0.0023001721128821373
1789141055804232000,3.70923193359375,0.013790646567940712,0.0676695927977562,-0.016891898587346077
1789141055814203600,3.71920361328125,0.02443104051053524,0.08263016492128372,0.012264123186469078
1789141055824177000,3.729177001953125,0.04626070708036423,0.0590159147977829,0.08987769484519958
1789141055834148900,3.73914892578125,0.08159765601158142,0.07241001725196838,0.09853589534759521
1789141055844120800,3.749120849609375,0.07425452023744583,0.08678549528121948,0.13740180432796478
1789141055854093800,3.75909375,0.04132134094834328,0.08593008667230606,0.16778580844402313
1789141055864065800,3.769065673828125,0.04333815351128578,0.06512200832366943,0.19576790928840637
1789141055874037800,3.779037841796875,0.02382170967757702,0.10335461795330048,0.15503965318202972
1789141055884010800,3.7890107421875,0.024643827229738235,0.09454381465911865,0.16497616469860077
1789141055893983000,3.79898291015625,0.036666400730609894,0.08720733970403671,0.13896667957305908
1789141055903954700,3.80895458984375,0.06199066713452339,0.10073806345462799,0.10571364313364029
1789141055913927700,3.818927734375,0.07625189423561096,0.10433892160654068,0.06657130271196365
1789141055923900000,3.82889990234375,0.07840665429830551,0.08476655185222626,0.036433108150959015
1789141055933873000,3.838872802734375,0.06710632890462875,0.07929641753435135,-0.0032828785479068756
1789141055943844900,3.848844970703125,0.04615204781293869,0.05150366947054863,0.04482686147093773
1789141055953816800,3.85881689453125,0.0011387676931917667,0.06303729116916656,0.025309883058071136
1789141055963789800,3.868789794921875,0.005854959599673748,0.019898606464266777,0.04094184190034866
1789141055973761800,3.87876171875,-0.0115546565502882,0.03454652428627014,0.056044094264507294
1789141055983734000,3.888734130859375,-0.03665867820382118,0.034689269959926605,0.06281198561191559
1789141055993707000,3.89870703125,-0.04668175056576729,0.010342119261622429,0.07142544537782669
1789141056003678700,3.9086787109375,-0.05371569097042084,0.005219529382884502,0.07628758251667023
1789141056013651000,3.91865087890625,-0.02057531662285328,0.039153262972831726,-0.0083700492978096
1789141056023624000,3.9286240234375,-0.008580438792705536,0.04253095015883446,0.02105495147407055
1789141056033596000,3.938595947265625,-0.006172674708068371,0.05964495241641998,0.038180142641067505
1789141056043569000,3.94856884765625,0.08605978637933731,0.09440053999423981,-0.01552383229136467
1789141056053540900,3.958540771484375,0.0864534005522728,0.0995556190609932,-0.0003914846747647971
1789141056063512800,3.968512939453125,0.06357258558273315,0.07504042237997055,0.007302387617528439
1789141056073485800,3.97848583984375,0.04146062582731247,0.08766540139913559,0.0015022892039269209
1789141056083458000,3.9884580078125,0.03015230968594551,0.08453325927257538,0.0010138654615730047
1789141056093429500,3.998429443359375,0.04165876284241676,0.08137581497430801,0.020298613235354424
1789141056103402500,4.008402587890625,0.04866474121809006,0.09677554666996002,-0.02906307764351368
1789141056113374700,4.018374755859375,0.03743765130639076,0.09054987132549286,-0.027282221242785454
1789141056123346700,4.0283466796875,-0.01194188091903925,0.07502391189336777,0.019654927775263786
1789141056133319700,4.038319580078125,-0.0027236149180680513,0.05662306398153305,-0.03660301864147186
1789141056143291400,4.04829150390625,-0.00618066405877471,0.05440545082092285,-0.0339297391474247
1789141056153263600,4.058263671875,-0.011387410573661327,0.039024099707603455,0.010398312471807003
1789141056163236600,4.068236572265625,-0.013885455206036568,0.01062068622559309,0.04950949549674988
1789141056173208600,4.07820849609375,-0.019282618537545204,0.0022213426418602467,0.004816859494894743
1789141056183180500,4.0881806640625,-0.03802993893623352,-0.001255946815945208,0.007994542829692364
1789141056193153500,4.098153564453125,-0.04452698677778244,-0.01588096283376217,0.021327126771211624
1789141056203125500,4.10812548828125,-0.07909801602363586,-0.006609699688851833,0.02347416616976261
1789141056213098500,4.118098388671875,-0.10387180745601654,-0.025619342923164368,0.04439622536301613
1789141056223070700,4.12807080078125,-0.07485640048980713,-0.016286827623844147,-0.015096927061676979
1789141056233042400,4.13804248046875,-0.05017954856157303,-0.021273596212267876,-0.04176582396030426
1789141056243015400,4.148015380859375,-0.06967255473136902,-0.01540558785200119,-0.03777188062667847
1789141056252987600,4.157987548828125,-0.056591905653476715,-0.028299547731876373,-0.022816099226474762
1789141056262959400,4.16795947265625,-0.08264880627393723,0.0026205505710095167,-0.046549923717975616
1789141056272932600,4.1779326171875,-0.05908702313899994,0.01647990755736828,-0.0706627145409584
1789141056282904600,4.187904541015625,-0.014024472795426846,-0.0007946872501634061,0.006891462020576
1789141056292876500,4.19787646484375,-0.012175173498690128,0.03383546322584152,-0.0019342538435012102
1789141056302849500,4.207849609375,-0.006905043963342905,-0.001505484920926392,0.013593839481472969
1789141056312821500,4.217821533203125,0.013254020363092422,0.005434979218989611,0.01822427660226822
1789141056322793500,4.22779345703125,0.015989085659384727,0.018265822902321815,0.021026188507676125
1789141056332766500,4.237766357421875,-0.008333830162882805,0.01649508625268936,0.010174873284995556
1789141056342738700,4.24773876953125,-0.02887905202805996,0.0378861278295517,-0.05819326639175415
1789141056352711700,4.257711669921875,-0.027717648074030876,0.023724237456917763,-0.09541360288858414
1789141056362683600,4.26768359375,-0.03125352784991264,0.020738035440444946,-0.07482630759477615
1789141056372655600,4.277655517578125,-0.024657942354679108,0.03213343396782875,-0.09154482930898666
1789141056382628600,4.287628662109375,-0.0028631645254790783,-0.0020189424976706505,-0.08018697798252106
1789141056392600600,4.2976005859375,-0.049163818359375,0.0016378440195694566,-0.04441380500793457
1789141056402572500,4.307572509765625,-0.045340318232774734,-0.023017700761556625,-0.02917945757508278
1789141056412545800,4.3175458984375,-0.061093445867300034,-0.012718192301690578,-0.02750885672867298
1789141056422517500,4.327517578125,-0.08936876058578491,-0.035532426089048386,0.01847621239721775
1789141056432489700,4.33748974609375,-0.07405345141887665,-0.05663291737437248,0.02400839701294899
1789141056442462700,4.347462646484375,-0.07258632034063339,-0.03693617880344391,0.01552276685833931
1789141056452434400,4.357434326171875,-0.1191098764538765,-0.03153768554329872,0.023187078535556793
1789141056462406700,4.36740673828125,-0.11599930375814438,-0.06499737501144409,0.023027021437883377
1789141056472379600,4.377379638671875,-0.10942129790782928,-0.028550151735544205,-0.022041119635105133
1789141056482351600,4.3873515625,-0.11334093660116196,-0.048341166228055954,0.015592008829116821
1789141056492324600,4.39732470703125,-0.13634079694747925,-0.031809329986572266,-0.04478398337960243
1789141056502296600,4.407296630859375,-0.10196098685264587,-0.036915406584739685,-0.05908835306763649
1789141056512268500,4.4172685546875,-0.12584315240383148,-0.0021792647894471884,-0.028806081041693687
1789141056522241500,4.427241455078125,-0.10039132088422775,-0.044076114892959595,-0.04398396983742714
1789141056532213800,4.4372138671875,-0.10609181225299835,-0.05837968736886978,-0.015438077971339226
1789141056542185500,4.447185546875,-0.1484115719795227,-0.0487973652780056,0.017973141744732857
1789141056552158700,4.45715869140625,-0.12618696689605713,-0.0536230131983757,0.011997274123132229
1789141056562130700,4.467130615234375,-0.08782359212636948,-0.03761075809597969,0.004724713973701
1789141056572102700,4.4771025390625,-0.1255541890859604,-0.032081238925457,0.005922870244830847
1789141056582075600,4.48707568359375,-0.12437894195318222,-0.06755347549915314,0.03382480889558792
1789141056592047600,4.497047607421875,-0.1539568156003952,-0.08266345411539078,0.0722837820649147
1789141056602019600,4.50701953125,-0.1280927211046219,-0.07296369224786758,-0.02280571311712265
1789141056611992600,4.51699267578125,-0.14216911792755127,-0.09793295711278915,-0.014934740960597992
1789141056621964800,4.52696484375,-0.1812656670808792,-0.08911655843257904,-0.012426842004060745
1789141056631937500,4.5369375,-0.1293654441833496,-0.09329239279031754,-0.04581009969115257
1789141056641909500,4.546909423828125,-0.1558109074831009,-0.04638374224305153,-0.035413116216659546
1789141056651881700,4.5568818359375,-0.12815210223197937,-0.05252259597182274,0.010990066453814507
1789141056661854500,4.5668544921875,-0.11994904279708862,-0.08533859997987747,0.02744653820991516
1789141056671826700,4.57682666015625,-0.12376854568719864,-0.07621967047452927,0.01883627101778984
1789141056681798700,4.586798583984375,-0.09864242374897003,-0.039198003709316254,0.011546401306986809
1789141056691771400,4.596771484375,-0.09191261231899261,-0.06591909378767014,0.014416489750146866
1789141056701743600,4.60674365234375,-0.0878124088048935,-0.08435456454753876,0.04105902090668678
1789141056711715600,4.616715576171875,-0.0484977625310421,-0.053525008261203766,0.028726719319820404
1789141056721688600,4.6266884765625,-0.021752700209617615,-0.04632888361811638,0.02690085582435131
1789141056731660500,4.63666064453125,-0.060136839747428894,-0.06777185946702957,0.027210049331188202
1789141056741632800,4.6466328125,-0.058088336139917374,-0.077949658036232,0.023139674216508865
1789141056751605500,4.65660546875,-0.07568170875310898,-0.05525446683168411,0.02105868048965931
1789141056761577700,4.66657763671875,-0.06564239412546158,-0.04270405322313309,-0.0175640806555748
1789141056771550700,4.67655078125,-0.07023661583662033,-0.04339700937271118,-0.012351474724709988
1789141056781522400,4.6865224609375,-0.047144342213869095,-0.033070068806409836,-0.0015494271647185087
1789141056791494700,4.69649462890625,-0.008805209770798683,-0.03635427728295326,-0.015455654822289944
1789141056801467600,4.706467529296875,-0.007458981592208147,-0.0009030779474414885,-0.05844147130846977
1789141056811439600,4.716439697265625,-0.009691243059933186,-0.013223127461969852,-0.023614514619112015
1789141056821411600,4.72641162109375,0.014988270588219166,-0.017651697620749474,0.01931244507431984
1789141056831384600,4.736384521484375,0.015918511897325516,-0.022186795249581337,0.05218863487243652
1789141056841356500,4.7463564453125,0.04128112643957138,-0.010942928493022919,0.04295572265982628
1789141056851328500,4.75632861328125,0.038230475038290024,-0.0021931130904704332,0.037645913660526276
1789141056861301800,4.7663017578125,-0.009847038425505161,0.000803209375590086,0.06731139868497849
1789141056871273500,4.7762734375,-0.0020719394087791443,-0.0036479979753494263,0.043718453496694565
1789141056881245700,4.78624560546875,0.00845420453697443,0.029210882261395454,0.018548117950558662
1789141056891218700,4.79621875,-0.0032842103391885757,0.030400782823562622,0.026162361726164818
1789141056901190400,4.8061904296875,0.04626736417412758,0.033302295953035355,0.025492576882243156
1789141056911163600,4.81616357421875,0.09879688173532486,0.03304396942257881,0.027708860114216805
1789141056921135600,4.826135498046875,0.09225589781999588,0.05046530440449715,0.016537964344024658
1789141056931107600,4.836107666015625,0.056049421429634094,0.02707449346780777,0.05326029285788536
1789141056941080600,4.84608056640625,0.03604135662317276,0.02961275354027748,0.018252773210406303
1789141056951052500,4.856052490234375,0.0431932769715786,0.03165193647146225,0.017480190843343735
1789141056961024500,4.8660244140625,0.008626777678728104,0.04542713612318039,0.06698968261480331
1789141056970997500,4.87599755859375,0.0306889358907938,0.028001274913549423,0.017721472308039665
1789141056980969700,4.8859697265625,0.0657462552189827,0.03368658944964409,-0.0018873822409659624
1789141056990941400,4.89594140625,0.06367751210927963,0.02424621768295765,0.014759771525859833
1789141057000914700,4.905914794921875,0.04929590970277786,0.020239491015672684,-0.02509257011115551
1789141057010886700,4.91588671875,0.06006599962711334,0.027153324335813522,-0.04435707628726959
1789141057020858600,4.925858642578125,0.05329810827970505,-0.02021312527358532,-0.026324814185500145
1789141057030831600,4.93583154296875,0.009696302935481071,0.0037433390971273184,-0.07014446705579758
1789141057040803600,4.945803466796875,-0.0011627360945567489,0.008869924582540989,-0.048461541533470154
1789141057050776600,4.955776611328125,0.024750087410211563,-0.010873686522245407,-0.031250596046447754
1789141057060748500,4.96574853515625,0.01931137964129448,0.011064635589718819,-0.03562910109758377
1789141057070720800,4.975720703125,0.01720481924712658,0.004471980035305023,0.012529640458524227
1789141057080693500,4.985693603515625,0.036144156008958817,-0.008981777355074883,0.04465215653181076
1789141057090665500,4.99566552734375,0.05315563082695007,0.0046791741624474525,-0.017646905034780502
1789141057100637200,5.00563720703125,0.04163985326886177,-0.012396748177707195,0.023261645808815956
1789141057110610000,5.01560986328125,-0.019306853413581848,-0.003153981640934944,0.03539101406931877
1789141057120582100,5.02558203125,-0.0041369544342160225,0.024595623835921288,0.005676527973264456
1789141057130554000,5.03555419921875,-0.01600426621735096,0.026438798755407333,0.023490145802497864
1789141057140527000,5.045527099609375,-0.021081317216157913,0.02985563315451145,-0.02653121016919613
1789141057150499000,5.0554990234375,-0.008680307306349277,0.0100813964381814,0.0010871023405343294
1789141057160471300,5.06547119140625,0.008490690030157566,0.049666889011859894,-0.009878729470074177
1789141057170444000,5.075444091796875,0.026500316336750984,0.05475432425737381,-0.06063511595129967
1789141057180416000,5.085416015625,0.01865863986313343,0.04657256230711937,-0.05001549795269966
1789141057190388200,5.09538818359375,0.0041497377678751945,0.038554318249225616,-0.05590720847249031
1789141057200361000,5.10536083984375,-0.019513780251145363,0.05380863696336746,-0.04199352115392685
1789141057210333200,5.115333251953125,-0.0000798948312876746,0.0013816480059176683,-0.034569162875413895
1789141057220306200,5.12530615234375,-0.032641831785440445,-0.02015799842774868,0.018261827528476715
1789141057230278000,5.13527783203125,-0.08103226870298386,-0.022730080410838127,0.029989324510097504
1789141057240250000,5.14525,-0.10915018618106842,-0.052795834839344025,0.029091572389006615
1789141057250223000,5.15522314453125,-0.13895894587039948,-0.06598221510648727,-0.0018796591321006417
1789141057260195000,5.165195068359375,-0.1552540361881256,-0.08858153223991394,0.0021632856223732233
1789141057270167000,5.1751669921875,-0.15550942718982697,-0.09825120121240616,-0.04056979715824127
1789141057280140300,5.185140380859375,-0.1180238425731659,-0.10651898384094238,-0.08213162422180176
1789141057290112000,5.195112060546875,-0.10644042491912842,-0.10769770294427872,-0.0632719099521637
1789141057300084200,5.205084228515625,-0.108714759349823,-0.10533387959003448,-0.021767079830169678
1789141057310057200,5.21505712890625,-0.08062320947647095,-0.11608399450778961,-0.001273257308639586
1789141057320029000,5.22502880859375,-0.07265716046094894,-0.11552339792251587,0.018615495413541794
1789141057330001200,5.235001220703125,-0.09419360756874084,-0.10266245901584625,-0.02257348597049713
1789141057339974100,5.24497412109375,-0.10840130597352982,-0.10538528114557266,-0.01834944635629654
1789141057349946000,5.254946044921875,-0.10471149533987045,-0.09339359402656555,-0.003293264890089631
1789141057359918000,5.26491796875,-0.08849897235631943,-0.0990818440914154,-0.003549461020156741
1789141057369891000,5.27489111328125,-0.05891631171107292,-0.08494125306606293,-0.03316940367221832
1789141057379863000,5.284863037109375,-0.015061773359775543,-0.08753916621208191,-0.02203153260052204
1789141057389836000,5.2948359375,-0.022903718054294586,-0.0946681872010231,0.00138031633105129
1789141057399808300,5.304808349609375,-0.024779116734862328,-0.08665260672569275,0.013064935803413391
1789141057409780000,5.314780029296875,-0.020566526800394058,-0.0745709091424942,0.00022983079543337226
1789141057419753000,5.3247529296875,-0.03785630315542221,-0.09604370594024658,0.022483738139271736
1789141057429725200,5.33472509765625,-0.07000438123941422,-0.12216345965862274,0.028186896815896034
1789141057439697200,5.344697265625,-0.04988233745098114,-0.13158492743968964,0.03603922575712204
1789141057449670100,5.354670166015625,-0.04018789902329445,-0.10078200697898865,0.02377057634294033
1789141057459642000,5.36464208984375,-0.01906796731054783,-0.11614338308572769,0.0483211949467659
1789141057469614000,5.374614013671875,-0.014992265030741692,-0.12079858779907227,0.02485501579940319
1789141057479587000,5.384587158203125,0.009104815311729908,-0.11277421563863754,-0.03454173356294632
1789141057489559300,5.394559326171875,0.011967180296778679,-0.111384317278862,-0.032035164535045624
1789141057499531000,5.404531005859375,0.0019659455865621567,-0.08818205446004868,-0.0061521683819592
1789141057509504000,5.41450390625,0.01830470561981201,-0.08059098571538925,-0.009638778865337372
1789141057519476200,5.424476318359375,0.05507630109786987,-0.09974576532840729,-0.0036943370942026377
1789141057529449000,5.434448974609375,0.09652041643857956,-0.09028888493776321,-0.011638812720775604
1789141057539421200,5.444421142578125,0.07213171571493149,-0.08682144433259964,0.04334108158946037
1789141057549393200,5.45439306640625,0.057201236486434937,-0.08477294445037842,0.06508313119411469
1789141057559366000,5.464365966796875,0.11163678020238876,-0.05965427681803703,0.007190268486738205
1789141057569338000,5.474338134765625,0.14108708500862122,-0.044374387711286545,0.012557869777083397
1789141057579310000,5.48431005859375,0.13369175791740417,-0.050572630017995834,-0.023497601971030235
1789141057589283000,5.494282958984375,0.18207819759845734,-0.01629668101668358,-0.03760010749101639
1789141057599255000,5.504255126953125,0.2157626450061798,-0.00660437298938632,-0.02358388900756836
1789141057609227300,5.514227294921875,0.2234964668750763,0.011506454087793827,-0.0784015953540802
1789141057619200000,5.524199951171875,0.23758192360401154,0.022782810032367706,-0.04363775998353958
1789141057629172000,5.534171875,0.22252681851387024,0.036923930048942566,0.020293554291129112
1789141057639144200,5.544144287109375,0.2361225187778473,0.0385734923183918,0.025530394166707993
1789141057649117000,5.554116943359375,0.2282765805721283,0.05604010075330734,0.03286367282271385
1789141057659089200,5.564089111328125,0.2444310486316681,0.04205770418047905,0.04788470268249512
1789141057669062100,5.574062255859375,0.24486567080020905,0.0411575548350811,-0.00037976677413098514
1789141057679034000,5.5840341796875,0.23210673034191132,0.019811522215604782,0.024586303159594536
1789141057689006000,5.594006103515625,0.20826664566993713,0.031189344823360443,0.03371535241603851
1789141057698979000,5.60397900390625,0.20542000234127045,0.04793902859091759,0.011635084636509418
1789141057708951000,5.613950927734375,0.22666989266872406,0.057852379977703094,-0.020473049953579903
1789141057718923000,5.623923095703125,0.2137402445077896,0.06000048667192459,-0.024869397282600403
1789141057728896300,5.633896240234375,0.17047587037086487,0.07091225683689117,-0.028026042506098747
1789141057738868000,5.643867919921875,0.14557796716690063,0.0750659853219986,-0.058341603726148605
1789141057748840200,5.653840087890625,0.18423455953598022,0.08826940506696701,-0.028330175206065178
1789141057758813200,5.663813232421875,0.22594524919986725,0.10268642753362656,0.010657171718776226
1789141057768785000,5.673784912109375,0.20225615799427032,0.06896468997001648,0.04670571908354759
1789141057778757000,5.683757080078125,0.19585178792476654,0.0509534627199173,0.03634229674935341
1789141057788730000,5.693730224609375,0.17392359673976898,0.05463874340057373,0.008984440006315708
1789141057798702000,5.7037021484375,0.16804839670658112,0.06335446983575821,-0.024324780330061913
1789141057808674000,5.713674072265625,0.12171125411987305,0.0616934560239315,0.038229942321777344
1789141057818647000,5.72364697265625,0.1354028284549713,0.08172842115163803,0.003949468024075031
1789141057828619000,5.733618896484375,0.14645148813724518,0.08768591284751892,-0.04861973226070404
1789141057838592000,5.743592041015625,0.16609708964824677,0.11642354726791382,-0.07535813748836517
1789141057848564200,5.753564208984375,0.1921369582414627,0.12562690675258636,-0.034630414098501205
1789141057858536000,5.763535888671875,0.18821971118450165,0.1270061582326889,-0.07394719123840332
1789141057868509000,5.773509033203125,0.16413834691047668,0.110488161444664,-0.06594253331422806
1789141057878481200,5.783481201171875,0.1657029539346695,0.14111770689487457,-0.040585510432720184
1789141057888453000,5.793453125,0.1352856457233429,0.14690262079238892,0.012289423495531082
1789141057898426000,5.803426025390625,0.17382346093654633,0.15261884033679962,-0.02755998820066452
1789141057908398000,5.813398193359375,0.187238872051239,0.14675109088420868,-0.0189055148512125
1789141057918370000,5.8233701171875,0.15746259689331055,0.15102386474609375,0.004036553204059601
1789141057928343000,5.833343017578125,0.11917778849601746,0.14091770350933075,0.028054537251591682
1789141057938315300,5.843315185546875,0.08956823498010635,0.17417259514331818,-0.043832700699567795
1789141057948287000,5.853286865234375,0.09028009325265884,0.16604702174663544,-0.06926322728395462
1789141057958260000,5.863260009765625,0.1015940010547638,0.1790509819984436,-0.06266844272613525
1789141057968232200,5.873232177734375,0.1476413905620575,0.19044025242328644,-0.06867094337940216
1789141057978204000,5.883203857421875,0.14279577136039734,0.1882290244102478,-0.05282806232571602
1789141057988177200,5.89317724609375,0.12887941300868988,0.16636154055595398,-0.0028850024100393057
1789141057998149000,5.903149169921875,0.1165095716714859,0.1733321100473404,0.029438050463795662
1789141058008122000,5.9131220703125,0.10298097878694534,0.17905336618423462,0.04464443400502205
1789141058018094000,5.923093994140625,0.08146157115697861,0.15169045329093933,0.05714983865618706
1789141058028066000,5.933066162109375,0.05864813178777695,0.15864503383636475,0.031982433050870895
1789141058038039300,5.943039306640625,-0.0021230720449239016,0.17375928163528442,0.022974824532866478
1789141058048011000,5.953010986328125,0.01612410880625248,0.1912120282649994,-0.027472371235489845
1789141058057983200,5.962983154296875,0.023734623566269875,0.1862228661775589,-0.03988216817378998
1789141058067956200,5.972956298828125,0.03003166802227497,0.18510088324546814,-0.03184767812490463
1789141058077928200,5.98292822265625,0.030515031889081,0.18262334167957306,-0.049125466495752335
1789141058087900200,5.992900146484375,0.019782759249210358,0.17759822309017181,-0.04584551975131035
1789141058097873200,6.002873046875,0.0073295519687235355,0.16016703844070435,0.008517853915691376
1789141058107845400,6.012845458984375,0.011465175077319145,0.14027269184589386,-0.00196381495334208
1789141058117817000,6.022817138671875,-0.00881799217313528,0.10332825034856796,0.039869118481874466
1789141058127790300,6.032790283203125,-0.04693262279033661,0.09161780029535294,0.09977719187736511
1789141058137762300,6.04276220703125,-0.07119614630937576,0.10668809711933136,0.07723939418792725
1789141058147735300,6.0527353515625,-0.10255913436412811,0.10193328559398651,0.039746612310409546
1789141058157707300,6.062707275390625,-0.13068237900733948,0.07217326015233994,0.0389106459915638
1789141058167679200,6.07267919921875,-0.14031982421875,0.063210129737854,0.03218483552336693
1789141058177652500,6.082652587890625,-0.15220950543880463,0.054725829511880875,0.002426938619464636
1789141058187624200,6.092624267578125,-0.12752360105514526,0.037873346358537674,0.008189752697944641
1789141058197596400,6.102596435546875,-0.1021530032157898,0.060814082622528076,0.0607813261449337
1789141058207569400,6.1125693359375,-0.13294605910778046,0.0465611107647419,0.03645361587405205
1789141058217541000,6.122541015625,-0.1406487226486206,-0.01611931435763836,0.048160336911678314
1789141058227513300,6.132513427734375,-0.1748620867729187,0.043596211820840836,0.02395193837583065
1789141058237486300,6.142486328125,-0.16655169427394867,0.03795483708381653,0.012471850030124187
1789141058247458300,6.152458251953125,-0.17622536420822144,0.019176891073584557,0.018578477203845978
1789141058257430300,6.16243017578125,-0.16114841401576996,0.018817896023392677,0.06679101288318634
1789141058267403300,6.1724033203125,-0.137200728058815,0.040284041315317154,-0.0015358449891209602
1789141058277375200,6.182375244140625,-0.09788874536752701,0.024516794830560684,0.041852109134197235
1789141058287347200,6.19234716796875,-0.13072365522384644,0.05540892854332924,0.08608321845531464
1789141058297320400,6.202320556640625,-0.09868183732032776,0.022237926721572876,0.06923366338014603
1789141058307292200,6.212292236328125,-0.11398009955883026,0.036909814924001694,0.02262728102505207
1789141058317265200,6.22226513671875,-0.1275598257780075,0.023844612762331963,0.1040174812078476
1789141058327237400,6.2322373046875,-0.13520468771457672,0.03247298672795296,0.0769650861620903
1789141058337209300,6.242209228515625,-0.14614228904247284,0.023925039917230606,0.07146113365888596
1789141058347182300,6.252182373046875,-0.13046427071094513,0.04204412177205086,0.07824846357107162
1789141058357154300,6.262154296875,-0.08316706120967865,0.04628973454236984,0.01155625469982624
1789141058367126300,6.272126220703125,-0.07291575521230698,0.02316071279346943,0.042626023292541504
1789141058377099300,6.282099365234375,-0.0961153507232666,0.04506814107298851,0.028016719967126846
1789141058387071500,6.292071533203125,-0.10761754214763641,0.036195822060108185,-0.02251036837697029
1789141058397043200,6.302043212890625,-0.12222391366958618,0.012853480875492096,-0.03020930103957653
1789141058407016200,6.31201611328125,-0.1380864977836609,0.030911309644579887,0.028141889721155167
1789141058416988400,6.321988525390625,-0.09784933179616928,0.01540532149374485,0.010464891791343689
1789141058426960100,6.331960205078125,-0.10441961884498596,-0.0030605047941207886,-0.00893730204552412
1789141058436933400,6.341933349609375,-0.10026241838932037,-0.037162549793720245,0.07291628420352936
1789141058446905300,6.3519052734375,-0.11784833669662476,-0.007811317685991526,0.04018523544073105
1789141058456877300,6.361877197265625,-0.12716273963451385,-0.03279336541891098,0.056236106902360916
1789141058466850300,6.371850341796875,-0.15281617641448975,-0.02226908691227436,-0.03245008364319801
1789141058476822300,6.381822265625,-0.15017485618591309,-0.05204588919878006,-0.0007416903390549123
1789141058486795300,6.391795166015625,-0.1311068832874298,-0.054244328290224075,0.013034841977059841
1789141058496767200,6.401767333984375,-0.0816703587770462,-0.05614209920167923,-0.04562580958008766
1789141058506739200,6.4117392578125,-0.10227683931589127,-0.065125472843647,0.0015813850332051516
1789141058516712200,6.421712158203125,-0.0999782606959343,-0.07394906133413315,-0.006884271278977394
1789141058526684200,6.43168408203125,-0.09201594442129135,-0.07908709347248077,-0.050164368003606796
1789141058536656100,6.44165625,-0.0973459929227829,-0.0632181167602539,-0.03947363793849945
1789141058546629000,6.451629150390625,-0.09549003839492798,-0.08297690749168396,-0.011921640485525131
1789141058556601300,6.461601318359375,-0.08489625155925751,-0.0655294731259346,-0.025183916091918945
1789141058566573000,6.471572998046875,-0.08546456694602966,-0.053477607667446136,0.018563298508524895
1789141058576546300,6.48154638671875,-0.06633055210113525,-0.030127808451652527,-0.005025917664170265
1789141058586518300,6.491518310546875,-0.03672925382852554,-0.044450290501117706,0.016537964344024658
1789141058596490200,6.501490234375,0.015719573944807053,-0.0491797961294651,0.0029265477787703276
1789141058606463200,6.511463134765625,0.06287563592195511,-0.048120126128196716,-0.012094479985535145
1789141058616435200,6.521435302734375,0.028904885053634644,-0.035896215587854385,-0.0007619303651154041
1789141058626407200,6.5314072265625,0.015237010084092617,-0.04045448079705238,-0.0340687558054924
1789141058636380200,6.541380126953125,-0.018763834610581398,-0.0357835628092289,-0.039811063557863235
1789141058646352400,6.551352294921875,-0.02413862571120262,-0.03250361606478691,-0.016622120514512062
1789141058656325400,6.561325439453125,0.06221144273877144,-0.036564670503139496,-0.04694806784391403
1789141058666297000,6.571297119140625,0.07850546389818192,-0.04108645021915436,-0.05294284224510193
1789141058676269300,6.581269287109375,0.015177355147898197,-0.04097459837794304,-0.03610340878367424
1789141058686242300,6.5912421875,-0.007089867256581783,-0.03930479660630226,-0.024094684049487114
1789141058696214300,6.60121435546875,0.03435105085372925,-0.0242515429854393,-0.05341928079724312
1789141058706186200,6.611186279296875,0.03809145838022232,-0.029645776376128197,-0.04223081097006798
1789141058716159200,6.6211591796875,0.05860712006688118,-0.049376338720321655,0.0008631304954178631
1789141058726131200,6.631131103515625,0.0881359875202179,-0.020926587283611298,-0.004073038697242737
1789141058736103400,6.641103515625,0.0787411481142044,-0.04957900568842888,-0.026151975616812706
1789141058746076400,6.651076416015625,0.025725070387125015,-0.07215169072151184,-0.019272230565547943
1789141058756048100,6.661048095703125,0.018386997282505035,-0.024531709030270576,-0.041130658239126205
1789141058766020400,6.671020263671875,0.09845013916492462,-0.0223202183842659,-0.05440438538789749
1789141058775993300,6.680993408203125,0.07625642418861389,-0.02658820152282715,-0.012834305875003338
1789141058785965300,6.69096533203125,0.06024469807744026,-0.019950272515416145,-0.046241797506809235
1789141058795937300,6.700937255859375,0.08315400779247284,-0.02701563760638237,-0.016647152602672577
1789141058805910300,6.71091015625,0.08363843709230423,-0.00839534867554903,0.03183143213391304
1789141058815882200,6.72088232421875,0.12183349579572678,0.005095958709716797,0.002840527566149831
1789141058825855200,6.730855224609375,0.1321849375963211,-0.009241701103746891,-0.007107710465788841
1789141058835827500,6.740827392578125,0.10755734890699387,-0.02178891934454441,0.0472806952893734
1789141058845799200,6.750799072265625,0.10786308348178864,0.009505887515842915,0.0414465107023716
1789141058855772200,6.760772216796875,0.12047182023525238,0.01119006983935833,0.038415566086769104
1789141058865744400,6.770744384765625,0.12822747230529785,0.01702958345413208,0.025603896006941795
1789141058875716000,6.780716064453125,0.15293468534946442,0.03524747118353844,0.0001704423048067838
1789141058885689300,6.790689453125,0.15579599142074585,0.05158143490552902,-0.009721070528030396
1789141058895661300,6.800661376953125,0.12316374480724335,0.04970443993806839,-0.0065039717592298985
1789141058905633300,6.81063330078125,0.1262602061033249,0.0649864599108696,-0.06021380424499512
1789141058915606300,6.820606201171875,0.16118569672107697,0.042080607265233994,-0.032523855566978455
1789141058925578200,6.830578125,0.15437519550323486,0.07807616144418716,-0.025130920112133026
1789141058935550200,6.84055029296875,0.17725707590579987,0.08137102425098419,-0.0010341054294258356
1789141058945523200,6.850523193359375,0.17295552790164948,0.09003961086273193,0.008778577670454979
1789141058955495400,6.860495361328125,0.1571241021156311,0.10834991186857224,0.03520272672176361
1789141058965468200,6.87046826171875,0.17610739171504974,0.08878686279058456,0.05086904019117355
1789141058975440400,6.8804404296875,0.17293795943260193,0.08762598782777786,0.029757630079984665
1789141058985412400,6.890412353515625,0.15501993894577026,0.13181555271148682,0.009577792137861252
1789141058995385000,6.900385009765625,0.15231603384017944,0.13002990186214447,0.023317839950323105
1789141059005357300,6.910357421875,0.15384069085121155,0.11507891863584518,0.013440707698464394
1789141059015329300,6.920329345703125,0.16546165943145752,0.12867754697799683,-0.011063303798437119
1789141059025302300,6.93030224609375,0.15368250012397766,0.15298129618167877,-0.005111671518534422
1789141059035274200,6.940274169921875,0.17359043657779694,0.14160878956317902,0.03187963739037514
1789141059045246500,6.95024658203125,0.17603974044322968,0.15542367100715637,0.01968262530863285
1789141059055219200,6.96021923828125,0.13802631199359894,0.14675721526145935,0.010174340568482876
1789141059065191200,6.970191162109375,0.10765641927719116,0.1431417167186737,0.019781161099672318
1789141059075163400,6.980163330078125,0.10358897596597672,0.16458095610141754,-0.0006167881074361503
1789141059085136100,6.99013623046875,0.09213791787624359,0.1548851877450943,0.0426449328660965
1789141059095108000,7.000108154296875,0.0936732292175293,0.16054733097553253,0.005874400492757559
1789141059105080000,7.010080078125,0.118678979575634,0.16759565472602844,0.015173093415796757
1789141059115053000,7.020052978515625,0.0954040139913559,0.20330332219600677,0.008405202999711037
1789141059125025000,7.03002490234375,0.0604281909763813,0.1334211677312851,0.06920969486236572
1789141059134997200,7.039997314453125,0.07607532292604446,0.1729550063610077,-0.04388436675071716
1789141059144970200,7.04997021484375,0.05513276159763336,0.16016890108585358,-0.027893150225281715
1789141059154942000,7.05994189453125,0.0334482379257679,0.1382066011428833,-0.00490234699100256
1789141059164915200,7.069915283203125,0.0371851846575737,0.1771412193775177,0.02431146427989006
1789141059174887200,7.07988720703125,0.009141300804913044,0.19338543713092804,0.029348567128181458
1789141059184859100,7.089859130859375,0.03608503192663193,0.16822735965251923,-0.023145265877246857
1789141059194832100,7.09983203125,-0.037392113357782364,0.18089015781879425,-0.001845038030296564
1789141059204804000,7.10980419921875,-0.014732340350747108,0.18071119487285614,0.021409418433904648
1789141059214776000,7.119776123046875,-0.0012002866715192795,0.18306435644626617,0.007801996544003487
1789141059224749000,7.1297490234375,0.0005992112564854324,0.16264031827449799,0.03570420295000076
1789141059234721300,7.13972119140625,-0.024100542068481445,0.11504270136356354,0.10237111151218414
1789141059244693000,7.14969287109375,-0.0029981867410242558,0.17349109053611755,0.00999377854168415
1789141059254666000,7.159666015625,-0.06222955137491226,0.1127459928393364,0.05242379382252693
1789141059264638200,7.16963818359375,-0.13633626699447632,0.12842321395874023,0.03172703832387924
1789141059274610000,7.17960986328125,-0.11485574394464493,0.10055723041296005,0.057730939239263535
1789141059284583200,7.189583251953125,-0.1276213377714157,0.14136219024658203,-0.002980609890073538
1789141059294555100,7.19955517578125,-0.13520336151123047,0.07378154247999191,0.07533496618270874
1789141059304527000,7.209527099609375,-0.14632205665111542,0.09704745560884476,0.0200370904058218
1789141059314500000,7.2195,-0.15419116616249084,-0.02514876239001751,0.16676928102970123
1789141059324472000,7.22947216796875,-0.22627894580364227,0.08460436761379242,0.03492176532745361
1789141059334444000,7.239444091796875,-0.23422421514987946,0.025981266051530838,0.053764693439006805
1789141059344417000,7.2494169921875,-0.2900257110595703,0.03820038214325905,0.0342961885035038
1789141059354389200,7.25938916015625,-0.2696988582611084,0.004261057823896408,0.10587050765752792
1789141059364362200,7.2693623046875,-0.25829386711120605,0.06336752325296402,-0.04970576986670494
1789141059374334200,7.279334228515625,-0.19624115526676178,-0.0212381761521101,0.06123459339141846
1789141059384306200,7.28930615234375,-0.21900850534439087,0.029956035315990448,0.031155522912740707
1789141059394279200,7.299279052734375,-0.18433521687984467,0.012444152496755123,-0.051054395735263824
1789141059404251100,7.309251220703125,-0.2638508081436157,0.0569748692214489,-0.18740370869636536
1789141059414223000,7.31922314453125,-0.34721869230270386,0.11340032517910004,-0.2597793638706207
1789141059424196400,7.3291962890625,-0.25651833415031433,0.09870900213718414,-0.2207680642604828
1789141059434168000,7.33916796875,-0.1899385154247284,0.10750675201416016,-0.1364302784204483
1789141059444140300,7.349140380859375,-0.11437024921178818,0.03014272265136242,0.03355955705046654
1789141059454113300,7.35911328125,-0.08723396807909012,0.06881821155548096,-0.1004088968038559
1789141059464085000,7.3690849609375,-0.18531793355941772,0.03447382152080536,0.16448108851909637
1789141059474057200,7.37905712890625,-0.29356637597084045,0.05820844694972038,0.15947593748569489
1789141059484030200,7.3890302734375,-0.2821725606918335,0.010371148586273193,0.11649651825428009
1789141059494002200,7.399002197265625,-0.33872824907302856,0.04851081222295761,0.10755202919244766
1789141059503974100,7.40897412109375,-0.3289989233016968,0.05012974515557289,0.08713357150554657
1789141059513947100,7.418947021484375,-0.27867797017097473,0.049129463732242584,-0.011349859647452831
1789141059523919000,7.428919189453125,-0.2053299844264984,0.0035089810844510794,-0.0897381380200386
1789141059533892000,7.43889208984375,-0.2311176359653473,0.0031784826423972845,-0.08510983735322952
1789141059543864300,7.4488642578125,-0.20870234072208405,-0.003525758860632777,-0.07986660301685333
1789141059553836000,7.4588359375,-0.26382550597190857,-0.006377205718308687,-0.1085967868566513
1789141059563809300,7.468809326171875,-0.3180762529373169,-0.028258269652724266,-0.08944226801395416
1789141059573781200,7.47878125,-0.3346802592277527,-0.04640424996614456,-0.0286478903144598
1789141059583753200,7.488753173828125,-0.36253318190574646,-0.0574616938829422,0.031991489231586456
1789141059593726200,7.498726318359375,-0.3526017367839813,-0.11388475447893143,0.04875395819544792
1789141059603698000,7.508697998046875,-0.39958494901657104,-0.08444137871265411,-0.040678720921278
1789141059613670100,7.518670166015625,-0.3825303316116333,-0.09382343292236328,-0.01315122190862894
1789141059623643100,7.52864306640625,-0.37401115894317627,-0.08133799582719803,-0.05416842922568321
1789141059633615000,7.538614990234375,-0.30100777745246887,-0.12414831668138504,-0.15663407742977142
1789141059643587000,7.548587158203125,-0.29904288053512573,-0.11682382225990295,-0.10727239400148392
1789141059653560000,7.55856005859375,-0.28194326162338257,-0.10790915787220001,-0.05758340284228325
1789141059663532000,7.568531982421875,-0.3186293840408325,-0.16202884912490845,0.08454098552465439
1789141059673504000,7.57850390625,-0.31290996074676514,-0.16784918308258057,0.10374503582715988
1789141059683477200,7.588477294921875,-0.35847747325897217,-0.17663761973381042,0.1545000970363617
1789141059693449000,7.598448974609375,-0.3648461401462555,-0.2044024020433426,0.09799979627132416
1789141059703422000,7.608421875,-0.41752055287361145,-0.21447235345840454,0.1063607931137085
1789141059713394200,7.618394287109375,-0.3696582019329071,-0.19383977353572845,0.017824802547693253
1789141059723366100,7.6283662109375,-0.33406931161880493,-0.20598538219928741,-0.05198197439312935
1789141059733339100,7.638339111328125,-0.3271581530570984,-0.21010076999664307,-0.05490106716752052
1789141059743311000,7.64831103515625,-0.3201894462108612,-0.20344792306423187,-0.02955576218664646
1789141059753283000,7.658282958984375,-0.23199647665023804,-0.19734317064285278,-0.00971281435340643
1789141059763256000,7.668256103515625,-0.2534908652305603,-0.22371432185173035,0.04567374661564827
1789141059773228300,7.678228271484375,-0.26532942056655884,-0.24163419008255005,0.05945693328976631
1789141059783200000,7.688199951171875,-0.2874155342578888,-0.24396419525146484,0.04392164945602417
1789141059793173000,7.698173095703125,-0.30785688757896423,-0.23679949343204498,0.023058714345097542
1789141059803145200,7.708145263671875,-0.3457659184932709,-0.2089305818080902,0.016590693965554237
1789141059813117000,7.718116943359375,-0.36657825112342834,-0.2187536507844925,0.031992554664611816
1789141059823090200,7.728090087890625,-0.28786054253578186,-0.21991398930549622,0.017354488372802734
1789141059833062100,7.738062255859375,-0.24067172408103943,-0.18699492514133453,0.004462658893316984
1789141059843034000,7.7480341796875,-0.16358600556850433,-0.20240876078605652,-0.015603460371494293
1789141059853007000,7.758007080078125,-0.1774381697177887,-0.20321357250213623,0.01341887004673481
1789141059862979000,7.76797900390625,-0.17328843474388123,-0.2101455181837082,0.017642376944422722
1789141059872951000,7.777950927734375,-0.20816199481487274,-0.1847703754901886,0.032464999705553055
1789141059882924000,7.787924072265625,-0.19819457828998566,-0.19299475848674774,0.01949646882712841
1789141059892896300,7.797896240234375,-0.16336815059185028,-0.1762077808380127,0.018971027806401253
1789141059902869200,7.807869140625,-0.12904587388038635,-0.1854337751865387,0.021921010687947273
1789141059912841000,7.817841064453125,-0.13188372552394867,-0.15990178287029266,-0.0013904364313930273
1789141059922813200,7.827813232421875,-0.10705801099538803,-0.1636962592601776,-0.05892643332481384
1789141059932786200,7.8377861328125,-0.08819989860057831,-0.14529354870319366,-0.018988072872161865
1789141059942758100,7.847758056640625,-0.055988434702157974,-0.12998729944229126,-0.003753991797566414
1789141059952730000,7.857730224609375,-0.021696506068110466,-0.1458573341369629,-0.013904097490012646
1789141059962703000,7.867703125,-0.034805916249752045,-0.16748113930225372,-0.009370865300297737
1789141059972675000,7.877675048828125,-0.06533452868461609,-0.1791204810142517,0.07575095444917679
1789141059982647300,7.887647216796875,-0.07876991480588913,-0.1503085494041443,0.025496305897831917
1789141059992620300,7.897620361328125,-0.10801807790994644,-0.17645785212516785,0.06809277087450027
1789141060002592000,7.907592041015625,-0.10225100070238113,-0.19614101946353912,0.09111339598894119
1789141060012564200,7.917564208984375,-0.07713340222835541,-0.1792382001876831,0.07292986661195755
1789141060022537200,7.927537109375,-0.06013044714927673,-0.1711568385362625,0.055394548922777176
1789141060032509200,7.93750927734375,-0.09542159736156464,-0.1979716718196869,0.07091625034809113
1789141060042481200,7.947481201171875,-0.09191367775201797,-0.15946128964424133,-0.027572771534323692
1789141060052454100,7.9574541015625,-0.0693279430270195,-0.1678510457277298,-0.008929046802222729
1789141060062426000,7.967426025390625,-0.05992991104722023,-0.18609796464443207,0.0226773489266634
1789141060072398000,7.977398193359375,-0.06380774080753326,-0.20924216508865356,0.04777844250202179
1789141060082371300,7.987371337890625,-0.08541662991046906,-0.19549785554409027,0.05337028205394745
1789141060092343300,7.99734326171875,-0.05385683849453926,-0.22397930920124054,0.07334159314632416
1789141060102316000,8.00731591796875,-0.09772815555334091,-0.182237446308136,0.059235092252492905
1789141060112288300,8.017288330078125,-0.08492980152368546,-0.2136659473180771,0.0424896702170372
1789141060122260200,8.02726025390625,-0.0783427432179451,-0.1758200228214264,-0.02473464049398899
1789141060132233200,8.037233154296874,-0.06505463272333145,-0.15978381037712097,-0.03942091017961502
1789141060142205200,8.047205078125,-0.048461541533470154,-0.20261196792125702,0.09052803367376328
1789141060152177400,8.057177490234375,0.0009914948605000973,-0.15396852791309357,-0.04370806738734245
1789141060162150100,8.067150146484375,0.010056895203888416,-0.17370973527431488,0.009383114986121655
1789141060172122400,8.077122314453124,0.035407260060310364,-0.1490352898836136,-0.022428609430789948
1789141060182094300,8.08709423828125,0.020133497193455696,-0.16944362223148346,0.014607705175876617
1789141060192067000,8.097067138671875,0.01569960080087185,-0.1603097766637802,0.02106453850865364
1789141060202039300,8.107039306640624,0.026642795652151108,-0.12682266533374786,0.023192670196294785
1789141060212011000,8.117010986328125,0.015909457579255104,-0.12715795636177063,0.030064957216382027
1789141060221984300,8.126984375,0.0728912502527237,-0.1374063342809677,-0.021254954859614372
1789141060231956200,8.136956298828125,0.09418801963329315,-0.10686785727739334,-0.015847938135266304
1789141060241928200,8.14692822265625,0.0467669740319252,-0.11831972002983093,0.0336783342063427
1789141060251901200,8.156901123046875,0.07583431154489517,-0.11695031821727753,0.03345835953950882
1789141060261873200,8.166873046875,0.13353542983531952,-0.07428887486457825,0.012447348795831203
1789141060271845000,8.17684521484375,0.12939393520355225,-0.07620981335639954,0.049437589943408966
1789141060281818000,8.186818115234376,0.11231322586536407,-0.07320470362901688,0.021702099591493607
1789141060291790300,8.196790283203125,0.15719254314899445,-0.029939522966742516,-0.08408398181200027
1789141060301763300,8.206763427734375,0.15875422954559326,-0.04820933938026428,-0.04580637067556381
1789141060311735000,8.216735107421876,0.12234482169151306,-0.006484264507889748,-0.048958487808704376
1789141060321707300,8.226707275390625,0.1609790325164795,-0.010394584387540817,-0.018848787993192673
1789141060331680300,8.23668017578125,0.13982075452804565,-0.048398956656455994,-0.016511065885424614
1789141060341652200,8.24665234375,0.16770511865615845,-0.0521598719060421,-0.034624822437763214
1789141060351624200,8.256624267578125,0.152761310338974,-0.04230324923992157,-0.011929363943636417
1789141060361597200,8.26659716796875,0.1054350808262825,-0.07308379560709,0.04463937506079674
1789141060371569200,8.276569091796874,0.1041724756360054,-0.045223936438560486,0.012233763001859188
1789141060381541400,8.286541259765626,0.11536574363708496,-0.013594105839729309,-0.011892345733940601
1789141060391514400,8.296514404296875,0.11570555716753006,-0.05525499954819679,0.04845648258924484
1789141060401486000,8.306486083984375,0.14136138558387756,-0.05084267258644104,0.0403737872838974
1789141060411458300,8.316458251953126,0.13883884251117706,-0.01461835764348507,-0.02630430832505226
1789141060421431300,8.326431396484375,0.1253776252269745,-0.03981772065162659,0.0017773937433958054
1789141060431403300,8.3364033203125,0.11799534410238266,-0.04574964568018913,0.008322378620505333
1789141060441375200,8.346375244140624,0.11646056920289993,-0.03360003978013992,-0.014329138211905956
1789141060451348200,8.35634814453125,0.11260218173265457,-0.027345869690179825,-0.04241377115249634
1789141060461320200,8.3663203125,0.13540682196617126,-0.04240817576646805,-0.0051873051561415195
1789141060471292200,8.376292236328124,0.1191229298710823,-0.0400020107626915,0.0422864705324173
1789141060481265400,8.386265380859374,0.12771402299404144,-0.04716058820486069,0.020971860736608505
1789141060491237000,8.396237060546875,0.12951138615608215,-0.0397343635559082,0.03934820368885994
1789141060501210000,8.406210205078125,0.112392857670784,-0.02528165467083454,0.0507020577788353
1789141060511182300,8.416182373046874,0.09861605614423752,-0.02557140588760376,0.034808848053216934
1789141060521154000,8.426154052734375,0.11860840767621994,-0.0018383801216259599,-0.0008804410463199019
1789141060531127300,8.436127197265625,0.0999297946691513,0.0263620987534523,0.004505003336817026
1789141060541099300,8.446099365234375,0.1453622579574585,0.01531796995550394,-0.024283502250909805
1789141060551071200,8.4560712890625,0.1664121448993683,0.0640394389629364,-0.04309287667274475
1789141060561044200,8.466044189453125,0.17602109909057617,0.049193378537893295,0.02510135807096958
1789141060571016200,8.47601611328125,0.1874343454837799,0.054131679236888885,0.016098009422421455
1789141060580988200,8.48598828125,0.14487223327159882,0.06706158816814423,0.045276399701833725
1789141060590961200,8.495961181640626,0.14060451090335846,0.039312783628702164,0.04026300087571144
1789141060600933400,8.505933349609375,0.11099522560834885,0.050754524767398834,-0.010920824483036995
1789141060610905000,8.515905029296874,0.10710515081882477,0.066891148686409,0.055160459131002426
1789141060620878300,8.52587841796875,0.12496403604745865,0.08806567639112473,0.02593253180384636
1789141060630850300,8.535850341796875,0.1548721343278885,0.08183148503303528,-0.0025185514241456985
1789141060640822300,8.545822265625,0.1527908742427826,0.08061601966619492,0.009593505412340164
1789141060650795300,8.555795166015624,0.11922332644462585,0.10794138163328171,0.007750065065920353
1789141060660767200,8.565767333984375,0.1293654441833496,0.09390545636415482,0.060864683240652084
1789141060670739200,8.5757392578125,0.128402441740036,0.09284418821334839,0.029272135347127914
1789141060680712200,8.585712158203124,0.13876932859420776,0.08205997943878174,0.04441380500793457
1789141060690684400,8.595684326171876,0.15484817326068878,0.12211472541093826,0.021085310727357864
1789141060700657200,8.6056572265625,0.1396535038948059,0.11160323023796082,0.012835371308028698
1789141060710629000,8.615629150390625,0.10862767696380615,0.12252618372440338,0.02106853388249874
1789141060720601300,8.625601318359376,0.10903673619031906,0.1268884390592575,0.04676910489797592
1789141060730574000,8.635573974609375,0.1258476823568344,0.11885181814432144,0.01576751098036766
1789141060740546300,8.64554638671875,0.13730593025684357,0.10398498922586441,0.006903179921209812
1789141060750518300,8.655518310546874,0.12772387266159058,0.09502345323562622,-0.00746271014213562
1789141060760491000,8.665490966796876,0.11349433660507202,0.0623997263610363,0.029336849227547646
1789141060770463200,8.675463134765625,0.05332394316792488,0.09140394628047943,0.03952663764357567
1789141060780435200,8.685435302734374,0.03179308399558067,0.0303933247923851,0.07683805376291275
1789141060790408200,8.695408203125,0.002919090911746025,0.05453008785843849,0.01732173189520836
1789141060800380200,8.705380126953125,0.027242273092269897,0.045946985483169556,-0.0021694109309464693
1789141060810352400,8.715352294921875,-0.009646502323448658,0.052078645676374435,-0.02047092095017433
1789141060820325000,8.7253251953125,-0.0017869811272248626,0.036740969866514206,-0.03363838791847229
1789141060830297300,8.73529736328125,-0.025831064209342003,0.07182811945676804,-0.07220735400915146
1789141060840269300,8.745269287109375,-0.005264536943286657,0.02840927056968212,0.007439007982611656
1789141060850242000,8.755241943359374,0.004521781112998724,0.02701563760638237,0.02430880069732666
1789141060860214300,8.76521435546875,0.00999084860086441,0.002094309777021408,0.054596398025751114
1789141060870186200,8.775186279296875,0.001770203118212521,0.036615267395973206,0.03118055686354637
1789141060880159200,8.7851591796875,-0.05584355816245079,0.025971146300435066,0.06387565284967422
1789141060890131200,8.795131103515626,-0.06908852607011795,-0.007483482826501131,0.04639546200633049
1789141060900104200,8.805104248046876,-0.03235847130417824,-0.02238866314291954,-0.02822418138384819
1789141060910076200,8.815076171875,-0.025198297575116158,-0.01607270911335945,-0.026875555515289307
1789141060920048000,8.825048095703124,-0.0781419426202774,-0.01128035131841898,-0.04237089306116104
1789141060930021400,8.835021484375,-0.07406038045883179,-0.0329880453646183,-0.06941556185483932
1789141060939993000,8.8449931640625,-0.10867933928966522,-0.04884770140051842,-0.029690250754356384
1789141060949965300,8.85496533203125,-0.13598313927650452,-0.06650259345769882,-0.07131466269493103
1789141060959938300,8.864938232421874,-0.20044787228107452,-0.09652227908372879,-0.03657372295856476
1789141060969910300,8.87491015625,-0.22946621477603912,-0.13702896237373352,0.006698648910969496
1789141060979882200,8.88488232421875,-0.23534567654132843,-0.13661617040634155,-0.01666126772761345
1789141060989855200,8.894855224609374,-0.22353854775428772,-0.1377943456172943,0.009485380724072456
1789141060999827200,8.9048271484375,-0.2525302469730377,-0.1271534264087677,0.038241129368543625
1789141061009799200,8.914799072265625,-0.22940975427627563,-0.14364531636238098,-0.000945954816415906
1789141061019772400,8.9247724609375,-0.2274099886417389,-0.1292693018913269,-0.008136755786836147
1789141061029744000,8.934744140625,-0.20266655087471008,-0.13068397343158722,-0.013376259244978428
1789141061039716400,8.94471630859375,-0.20378614962100983,-0.10828039795160294,-0.057500578463077545
1789141061049689300,8.954689453125,-0.19777646660804749,-0.11754713952541351,-0.035531360656023026
1789141061059661000,8.9646611328125,-0.19272896647453308,-0.1162554994225502,0.01404657680541277
1789141061069633300,8.97463330078125,-0.2032434046268463,-0.08569226413965225,0.02417963743209839
1789141061079606300,8.984606201171875,-0.14806562662124634,-0.12144733220338821,0.056717339903116226
1789141061089578200,8.994578125,-0.17574067413806915,-0.07605508714914322,0.01824345253407955
1789141061099550700,9.00455078125,-0.1648171842098236,-0.07025285810232162,0.0035241609439253807
1789141061109523700,9.014523681640625,-0.1700393706560135,-0.0961206704378128,0.007126619108021259
1789141061119495700,9.02449560546875,-0.15968367457389832,-0.11086739599704742,-0.032107867300510406
1789141061129468700,9.03446875,-0.14015763998031616,-0.10859465599060059,-0.03134886920452118
1789141061139441000,9.04444091796875,-0.16496925055980682,-0.07803621143102646,-0.04965703561902046
1789141061149412600,9.05441259765625,-0.15135011076927185,-0.0913887694478035,-0.03321148455142975
1789141061159385600,9.064385498046875,-0.15669666230678558,-0.09018821269273758,0.00022423815971706063
1789141061169357800,9.07435791015625,-0.1475314050912857,-0.10555412620306015,0.037634994834661484
1789141061179329500,9.08432958984375,-0.1429656744003296,-0.12510572373867035,0.018878083676099777
1789141061189302800,9.094302734375,-0.13945163786411285,-0.1341245174407959,0.033841587603092194
1789141061199274800,9.104274658203124,-0.153823122382164,-0.12714916467666626,0.05963829532265663
1789141061209246700,9.114246826171875,-0.15089283883571625,-0.12340662628412247,0.03208602964878082
1789141061219219700,9.1242197265625,-0.09707222133874893,-0.1414111852645874,0.009815346449613571
1789141061229191700,9.134191650390624,-0.13434208929538727,-0.12776808440685272,0.032161664217710495
1789141061239163600,9.14416357421875,-0.11114756017923355,-0.15023423731327057,0.06628022342920303
1789141061249136600,9.15413671875,-0.10452800989151001,-0.14176060259342194,0.040594831109046936
1789141061259108900,9.16410888671875,-0.07252933084964752,-0.1537778377532959,0.025043301284313202
1789141061269080600,9.17408056640625,-0.09761204570531845,-0.18141533434391022,0.07340417802333832
1789141061279053600,9.184053466796875,-0.10435490310192108,-0.16867344081401825,0.05684943497180939
1789141061289025800,9.19402587890625,-0.08438252657651901,-0.14640754461288452,-0.029697708785533905
1789141061298997800,9.203997802734374,-0.06282849609851837,-0.1540026217699051,-0.0437602624297142
1789141061308970800,9.213970703125,-0.09415073692798615,-0.10728225111961365,-0.0035369442775845528
1789141061318942700,9.223942626953125,-0.0065228804014623165,-0.1246122345328331,-0.021810756996273994
1789141061328914700,9.233914794921875,0.06673482060432434,-0.13484010100364685,-0.049075935035943985
1789141061338887700,9.2438876953125,0.04754328355193138,-0.09293180704116821,0.012286227196455002
1789141061348860000,9.25385986328125,0.06102979928255081,-0.10450270771980286,0.04337623715400696
1789141061358832600,9.26383251953125,0.06689727306365967,-0.12231206148862839,0.03814951702952385
1789141061368804600,9.2738046875,0.04928818717598915,-0.08942708373069763,0.027651866897940636
1789141061378776800,9.28377685546875,0.06883525848388672,-0.09301702678203583,0.060336045920848846
1789141061388749600,9.29374951171875,0.08778604120016098,-0.08007912337779999,0.05552211403846741
1789141061398721800,9.3037216796875,0.08536549657583237,-0.0654972493648529,0.043652672320604324
1789141061408693800,9.31369384765625,0.12072934955358505,-0.05284963175654411,-0.006638461723923683
1789141061418666500,9.32366650390625,0.1359839290380478,-0.011121893301606178,-0.043246541172266006
1789141061428638700,9.333638671875,0.14221040904521942,-0.024582307785749435,0.03260747715830803
1789141061438610700,9.343610595703124,0.15347132086753845,0.01859978400170803,-0.029997579753398895
1789141061448583700,9.353583740234376,0.19355161488056183,0.03133821487426758,-0.05735543370246887
1789141061458555600,9.3635556640625,0.17528340220451355,0.04273334890604019,-0.051057323813438416
1789141061468527900,9.37352783203125,0.17410361766815186,0.04436187073588371,-0.0023350596893578768
1789141061478500600,9.38350048828125,0.16561134159564972,0.06343782693147659,0.006164152640849352
1789141061488472600,9.39347265625,0.17976976931095123,0.058274757117033005,-0.00686269998550415
1789141061498444800,9.40344482421875,0.21658876538276672,0.055088818073272705,-0.009583917446434498
1789141061508417500,9.41341748046875,0.2206791192293167,0.04772650822997093,0.014312893152236938
1789141061518389800,9.4233896484375,0.1683163046836853,0.0675569400191307,0.02401665225625038
1789141061528361700,9.43336181640625,0.14416490495204926,0.07480579614639282,0.00606321869418025
1789141061538334700,9.443334716796874,0.17773404717445374,0.05367041751742363,-0.002867691917344928
1789141061548306700,9.453306640625,0.17193208634853363,0.07991187274456024,-0.03207404538989067
1789141061558279000,9.46327880859375,0.1898176074028015,0.053466953337192535,0.008166849613189697
1789141061568251600,9.473251708984375,0.1706753373146057,0.04698588326573372,0.022832611575722694
1789141061578223600,9.4832236328125,0.1692683845758438,0.04151308909058571,0.03441762924194336
1789141061588196900,9.49319677734375,0.13051779568195343,0.05639829486608505,0.0014117417158558965
1789141061598168600,9.50316845703125,0.0889144241809845,0.020612068474292755,0.030967237427830696
1789141061608140800,9.513140869140624,0.052623264491558075,0.02010367065668106,0.026318423449993134
1789141061618113800,9.52311376953125,0.05488082394003868,0.004560130648314953,-0.0026735474821180105
1789141061628085500,9.53308544921875,0.09480107575654984,0.023129820823669434,-0.021630194038152695
1789141061638057700,9.5430576171875,0.08736659586429596,0.0414704792201519,0.015457252971827984
1789141061648030700,9.55303076171875,0.08553460985422134,0.02755892276763916,0.017407219856977463
1789141061658002700,9.563002685546875,0.09314059466123581,0.05606620013713837,-0.0365244559943676
1789141061667974700,9.572974609375,0.09846745431423187,0.04489263892173767,-0.014720888808369637
1789141061677947600,9.58294775390625,0.0890989825129509,0.02148771472275257,0.01221698522567749
1789141061687919600,9.592919677734375,0.10159533470869064,0.046548325568437576,-0.06145324185490608
1789141061697891800,9.602891845703125,0.08231804519891739,0.06467832624912262,-0.01577337086200714
1789141061707864800,9.61286474609375,0.056411877274513245,0.06201969459652901,0.010902182199060917
1789141061717836500,9.62283642578125,0.05425817891955376,0.06317657232284546,-0.008259793743491173
1789141061727808800,9.632808837890625,0.04754355177283287,0.05730243772268295,0.00683100800961256
1789141061737781800,9.64278173828125,0.027632426470518112,0.050206176936626434,0.0007789746159687638
1789141061747753700,9.652753662109374,0.08871415257453918,0.03092942014336586,-0.0011997540714219213
1789141061757725700,9.6627255859375,0.006914365105330944,0.04763542860746384,0.005458415020257235
1789141061767698700,9.67269873046875,-0.015305452980101109,-0.007421164773404598,0.00974290817975998
1789141061777670700,9.682670654296874,-0.03635374829173088,0.0046426886692643166,0.034213364124298096
1789141061787643600,9.6926435546875,0.006698382552713156,0.0034730283077806234,0.014728878624737263
1789141061797615900,9.702615966796875,-0.004319647327065468,0.004996090196073055,-0.04051360487937927
1789141061807587600,9.712587646484375,-0.02520735189318657,-0.053695451468229294,0.0033246902748942375
1789141061817560600,9.722560546875,-0.05943376570940018,-0.001939313835464418,-0.027953604236245155
1789141061827532800,9.73253271484375,-0.009505088441073895,-0.016986440867185593,-0.03931411728262901
1789141061837504500,9.74250439453125,-0.046725161373615265,-0.02612374536693096,-0.013109143823385239
1789141061847477800,9.752477783203124,-0.03593216836452484,-0.053885068744421005,0.017971010878682137
1789141061857449700,9.76244970703125,-0.02846812643110752,-0.035776372998952866,0.030544860288500786
1789141061867421700,9.772421630859375,-0.005880259443074465,-0.0250994935631752,0.0038895467296242714
1789141061877394700,9.782394775390625,-0.020712735131382942,-0.04969991371035576,0.030280940234661102
1789141061887366700,9.79236669921875,-0.007047256920486689,-0.03068520873785019,0.036513801664114
1789141061897338600,9.802338623046875,-0.01242178212851286,-0.004516454879194498,0.010538128204643726
1789141061907311600,9.8123115234375,0.010552243329584599,-0.015929697081446648,-0.0413983054459095
1789141061917283800,9.822283935546874,0.020969463512301445,-0.0035870117135345936,-0.04866447299718857
1789141061927255600,9.832255615234375,0.03356089070439339,-0.0014096111990511417,-0.010510165244340897
1789141061937228800,9.842228759765625,0.06324181705713272,0.010576211847364902,-0.03528209030628204
1789141061947200800,9.85220068359375,0.07665163278579712,0.010362626053392887,-0.0387740284204483
1789141061957172700,9.8621728515625,0.07052929699420929,-0.0037262949626892805,0.021211013197898865
1789141061967145700,9.872145751953125,0.0896204262971878,-0.007019559852778912,0.002201369032263756
1789141061977117700,9.88211767578125,0.06828824430704117,-0.003562244353815913,-0.009838782250881195
1789141061987089700,9.892089599609376,0.06307963281869888,-0.017670607194304466,-0.012742427177727222
1789141061997062700,9.902062744140625,0.0380893275141716,-0.00010652644414221868,0.0011193265672773123
1789141062007035000,9.912034912109375,0.09084735065698624,-0.016106264665722847,0.007158843334764242
1789141062017007900,9.9220078125,0.044922731816768646,-0.018749186769127846,-0.007020625285804272
1789141062026979600,9.9319794921875,0.09322075545787811,-0.029199697077274323,-0.005592904519289732
1789141062036951800,9.941951904296875,0.0930740162730217,0.011501659639179707,-0.01785995624959469
1789141062046924800,9.9519248046875,0.11569704115390778,-0.0067657604813575745,0.032759010791778564
1789141062056896800,9.961896728515624,0.10829611122608185,0.02912912331521511,-0.0354946106672287
1789141062066868700,9.97186865234375,0.16360251605510712,-0.009500028565526009,0.014800517819821835
1789141062076841700,9.981841796875,0.15026061236858368,0.025539714843034744,0.011431085877120495
1789141062086813700,9.991813720703124,0.1765846163034439,0.028130704537034035,-0.018560102209448814
1789141062096785000,10.001784912109375,0.14165806770324707,0.04446520283818245,0.0091719264164567
1789141062106757600,10.011757568359375,0.14024792611598969,0.041485391557216644,0.01449904777109623
1789141062116729900,10.021729736328124,0.1691024750471115,0.07955048233270645,-0.010059292428195477
1789141062126701800,10.031701904296876,0.1899089515209198,0.07896645367145538,-0.03214408829808235
1789141062136674600,10.041674560546875,0.16806544363498688,0.05858821049332619,-0.01184973493218422
1789141062146646800,10.051646728515625,0.18936192989349365,0.08569599688053131,-0.03702006861567497
1789141062156618800,10.06161865234375,0.22504989802837372,0.0894036516547203,-0.00009560748003423214
1789141062166591700,10.071591796875,0.1623564213514328,0.12034531682729721,0.015127020888030529
1789141062176563700,10.081563720703125,0.19004876911640167,0.090623639523983,0.012683571316301823
1789141062186536000,10.091535888671874,0.19168128073215485,0.09424713999032974,0.011228419840335846
1789141062196508700,10.1015087890625,0.19412580132484436,0.10406754910945892,0.00977246928960085
1789141062206480600,10.111480712890625,0.14781023561954498,0.11300378292798996,0.01070697233080864
1789141062216452600,10.12145263671875,0.2445109486579895,0.09284977614879608,0.014132063835859299
1789141062226425600,10.131425537109376,0.2082645148038864,0.14539900422096252,0.021014204248785973
1789141062236397800,10.141397705078125,0.229868084192276,0.11226075887680054,0.05369065701961517
1789141062246369500,10.15136962890625,0.19884225726127625,0.13260118663311005,0.05180194601416588
1789141062256342500,10.161342529296874,0.19960711896419525,0.12891137599945068,0.057427871972322464
1789141062266314800,10.171314697265625,0.1794307380914688,0.10556157678365707,0.09461066126823425
1789141062276287700,10.181287841796875,0.1726255714893341,0.12568069994449615,0.07191946357488632
1789141062286259700,10.191259765625,0.1398593634366989,0.11719906330108643,0.005311674904078245
1789141062296231700,10.201231689453126,0.15530729293823242,0.10804737359285355,-0.020256269723176956
1789141062306204700,10.21120458984375,0.10279908031225204,0.11368635296821594,0.028969598934054375
1789141062316176600,10.2211767578125,0.08198568224906921,0.0889650285243988,0.016213323920965195
1789141062326148900,10.23114892578125,0.12686021625995636,0.06284341216087341,-0.004613393917679787
1789141062336121900,10.241121826171875,0.07841598242521286,0.07953743636608124,0.032272450625896454
1789141062346093600,10.251093505859375,0.06560670584440231,0.05500732734799385,0.058946941047906876
1789141062356065800,10.261065673828124,0.04517493396997452,0.05115586146712303,0.04887007176876068
1789141062366038800,10.271038818359376,0.001216798322275281,0.05934295058250427,0.02490774728357792
1789141062376010800,10.2810107421875,0.011627627536654472,0.03590287268161774,0.0730755403637886
1789141062385982700,10.290982666015625,0.01176504697650671,0.07244144380092621,0.048702824860811234
1789141062395955700,10.300955810546874,0.047816526144742966,0.05718392878770828,-0.0014671353856101632
1789141062405927700,10.310927734375,0.0265961904078722,0.09334166347980499,-0.05287892743945122
1789141062415899600,10.320899658203125,0.027900606393814087,0.09561467170715332,-0.010466222651302814
1789141062425873000,10.330872802734374,0.04699307680130005,0.10718584060668945,0.010863034054636955
1789141062435844600,10.3408447265625,0.04741998016834259,0.10939013957977295,-0.022944729775190353
1789141062445816800,10.35081689453125,0.05410930886864662,0.09811564534902573,-0.0010580739472061396
1789141062455789800,10.360789794921875,0.03014698252081871,0.11564510315656662,0.04755207151174545
1789141062465761500,10.370761474609376,0.03996898606419563,0.1529807597398758,0.011089136824011803
1789141062475733800,10.380733642578125,0.03959108516573906,0.13122619688510895,0.051174238324165344
1789141062485706800,10.390706787109375,0.041848115622997284,0.14997617900371552,0.006933805998414755
1789141062495678700,10.4006787109375,0.05192498117685318,0.1752820760011673,-0.017617076635360718
1789141062505650700,10.410650634765625,0.05282646417617798,0.18441644310951233,-0.008540491573512554
1789141062515623700,10.420623779296875,0.03169454634189606,0.16712108254432678,0.025562884286046028
1789141062525595600,10.430595703125,0.054667238146066666,0.1847544014453888,0.025614550337195396
1789141062535568600,10.440568603515626,0.07097430527210236,0.20381304621696472,-0.0054520233534276485
1789141062545540900,10.450540771484375,0.06476834416389465,0.18835526704788208,0.05083867907524109
1789141062555512600,10.4605126953125,-0.010728278197348118,0.1991988569498062,0.047867123037576675
1789141062565485800,10.47048583984375,0.019529493525624275,0.17803791165351868,0.027631893754005432
1789141062575457800,10.480457763671875,-0.0006162554491311312,0.1937023550271988,0.04664340242743492
1789141062585429800,10.4904296875,-0.03491777181625366,0.1882902830839157,0.0523577481508255
1789141062595402800,10.50040283203125,-0.0031766186002641916,0.14587970077991486,0.013452691957354546
1789141062605374700,10.510374755859376,-0.023899206891655922,0.14626586437225342,-0.012139487080276012
1789141062615346700,10.5203466796875,-0.03460431471467018,0.11850666999816895,0.02480068802833557
1789141062625319700,10.530319580078125,-0.04457918554544449,0.13553519546985626,-0.03399045765399933
1789141062635292000,10.5402919921875,-0.06542268395423889,0.13950437307357788,-0.017536649480462074
1789141062645263600,10.550263671875,-0.07794806361198425,0.11367490142583847,0.02315645106136799
1789141062655236600,10.560236572265625,-0.07418128848075867,0.10365315526723862,-0.02166614681482315
1789141062665208800,10.570208740234374,-0.08532048761844635,0.09915241599082947,-0.011269166134297848
1789141062675180800,10.580180908203126,-0.051125768572092056,0.07606733590364456,0.007605455350130796
1789141062685153800,10.59015380859375,-0.06268575042486191,0.09236828237771988,0.015864716842770576
1789141062695125800,10.600125732421875,-0.07479594647884369,0.11270151287317276,-0.02592294290661812
1789141062705097700,10.61009765625,-0.09227479994297028,0.12121804058551788,0.0036048549227416515
1789141062715070700,10.62007080078125,-0.09650816023349762,0.1238311305642128,0.0315249040722847
1789141062725043000,10.63004296875,-0.003537743119522929,0.12922163307666779,0.003936684690415859
1789141062735014700,10.6400146484375,0.007284810766577721,0.1462312489748001,-0.01569986715912819
1789141062744987600,10.649987548828125,-0.020783841609954834,0.120369553565979,0.014492656104266644
1789141062754960000,10.6599599609375,-0.03465384989976883,0.12020497024059296,0.01284549105912447
1789141062764931600,10.669931640625,-0.034746263176202774,0.13178493082523346,0.02863936871290207
1789141062774904800,10.67990478515625,-0.06355500966310501,0.13340918719768524,0.05434659495949745
1789141062784876800,10.689876708984375,-0.05901671573519707,0.11244291812181473,0.008884837850928307
1789141062794849500,10.699849609375,-0.07032422721385956,0.1353658139705658,-0.010970093309879303
1789141062804821800,10.70982177734375,-0.07642792910337448,0.10790116339921951,0.038845401257276535
1789141062814793700,10.719793701171875,-0.07114368677139282,0.11427357792854309,-0.022037656977772713
1789141062824766700,10.7297666015625,-0.07210588455200195,0.09579204022884369,-0.02749820239841938
1789141062834738700,10.73973876953125,-0.10241451859474182,0.11270923912525177,-0.017286578193306923
1789141062844711000,10.7497109375,-0.14039891958236694,0.07618371397256851,-0.019602196291089058
1789141062854683600,10.75968359375,-0.16997864842414856,0.05742973834276199,0.020227506756782532
1789141062864655600,10.769655517578125,-0.1506643444299698,0.060442570596933365,0.026930417865514755
1789141062874627800,10.7796279296875,-0.16350291669368744,0.06438031792640686,0.05937783792614937
1789141062884600600,10.7896005859375,-0.18239670991897583,0.015386945568025112,0.0784817561507225
1789141062894572800,10.79957275390625,-0.21559381484985352,0.03154540807008743,0.02406751923263073
1789141062904544800,10.809544677734374,-0.20319785177707672,0.02664838917553425,-0.030350981280207634
1789141062914517800,10.819517822265626,-0.213093101978302,0.021877868101000786,-0.021339910104870796
1789141062924489700,10.82948974609375,-0.21004964411258698,0.00939030572772026,0.007266168482601643
1789141062934462000,10.8394619140625,-0.170129656791687,-0.011484881862998009,-0.027239609509706497
1789141062944434700,10.8494345703125,-0.1975570172071457,-0.01074026245623827,-0.06385408341884613
1789141062954406700,10.85940673828125,-0.21083366870880127,-0.057198040187358856,-0.010460363700985909
1789141062964379000,10.86937890625,-0.24831074476242065,-0.03350842371582985,-0.0026354643050581217
1789141062974351600,10.8793515625,-0.27426058053970337,-0.08408291637897491,0.007645402569323778
1789141062984323800,10.88932373046875,-0.2792809009552002,-0.09760778397321701,-0.008165784180164337
1789141062994295800,10.8992958984375,-0.2619090974330902,-0.07770731300115585,0.026804449036717415
1789141063004268500,10.9092685546875,-0.2382676899433136,-0.10889638960361481,0.067292220890522
1789141063014240800,10.91924072265625,-0.23917263746261597,-0.08555644750595093,0.045588791370391846
1789141063024213800,10.9292138671875,-0.25762301683425903,-0.05578763037919998,0.01437867246568203
1789141063034185700,10.939185791015625,-0.20924563705921173,-0.06862380355596542,0.0005078648100607097
1789141063044157700,10.94915771484375,-0.1471705436706543,-0.06705094128847122,-0.014919561333954334
1789141063054130700,10.959130615234375,-0.12352167069911957,-0.06862779706716537,-0.005376656074076891
1789141063064102700,10.9691025390625,-0.1541655957698822,-0.07407422363758087,0.00980309583246708
1789141063074074600,10.97907470703125,-0.15041667222976685,-0.10250426828861237,0.02648087590932846
1789141063084048000,10.9890478515625,-0.15776832401752472,-0.12293977290391922,0.03863687440752983
1789141063094019600,10.99901953125,-0.20167160034179688,-0.12857741117477417,0.04002837464213371
1789141063103992000,11.008991943359375,-0.1896761953830719,-0.1559232920408249,0.03705522418022156
1789141063113965000,11.018965087890624,-0.22296038269996643,-0.14794206619262695,-0.011304586194455624
1789141063123936800,11.028936767578125,-0.18861332535743713,-0.15942348539829254,-0.0385199598968029
1789141063133909000,11.038908935546875,-0.1947106271982193,-0.12593290209770203,-0.04449076950550079
1789141063143882000,11.048882080078124,-0.14740464091300964,-0.15682077407836914,-0.05489493906497955
1789141063153854000,11.05885400390625,-0.10720847547054291,-0.1766304224729538,-0.040708813816308975
1789141063163826000,11.068825927734375,-0.11642461270093918,-0.18012796342372894,-0.019783025607466698
1789141063173799000,11.078798828125,-0.13604173064231873,-0.16096465289592743,0.012986105866730213
1789141063183771000,11.08877099609375,-0.09573505073785782,-0.1531599909067154,0.005714611150324345
1789141063193743000,11.0987431640625,-0.13421639800071716,-0.15827353298664093,0.030710775405168533
1789141063203716000,11.108716064453125,-0.10806868225336075,-0.1508457064628601,0.02923431806266308
1789141063213687800,11.118687744140624,-0.05447416007518768,-0.10380522161722183,-0.0003307645965833217
1789141063223660000,11.128659912109375,-0.014823420904576778,-0.12018366903066635,-0.00863237027078867
1789141063233633000,11.138633056640625,0.0011169298086315393,-0.11616095900535583,-0.012537096627056599
1789141063243605000,11.14860498046875,0.01780136674642563,-0.09408042579889297,-0.018724685534834862
1789141063253577000,11.158576904296876,-0.01176371518522501,-0.10019637644290924,0.016021044924855232
1789141063263550000,11.168550048828125,-0.031325697898864746,-0.09328626841306686,0.0460367351770401
1789141063273522000,11.17852197265625,-0.049846384674310684,-0.06286658346652985,0.018376611173152924
1789141063283494000,11.188493896484376,-0.03202291578054428,-0.08451621234416962,-0.011212441138923168
1789141063293467100,11.198467041015626,-0.03020637109875679,-0.0941011980175972,0.04165050759911537
1789141063303438800,11.20843896484375,-0.01979207992553711,-0.06520510464906693,0.0073380740359425545
1789141063313411800,11.218411865234375,0.0411066897213459,-0.08560624718666077,-0.042997535318136215
1789141063323384000,11.228384033203126,-0.009797769598662853,-0.06487353891134262,0.016379771754145622
1789141063333355800,11.238355712890625,0.05089300870895386,-0.06773776561021805,-0.0075548551976680756
1789141063343329000,11.2483291015625,-0.0041124531999230385,-0.061226073652505875,0.02232794277369976
1789141063353301000,11.258301025390624,0.003500991500914097,-0.08257637172937393,0.027569575235247612
1789141063363273000,11.26827294921875,0.002162753138691187,-0.0829891562461853,0.02094549499452114
1789141063373246000,11.278245849609375,-0.028687570244073868,-0.09280317276716232,0.06303702294826508
1789141063383218200,11.28821826171875,-0.021331919357180595,-0.1203296035528183,0.0629001334309578
1789141063393190000,11.29818994140625,-0.013114470057189465,-0.09460560232400894,-0.04399888217449188
1789141063403163000,11.308162841796875,0.013716611079871655,-0.09260663390159607,0.004936701618134975
1789141063413135000,11.318135009765625,-0.027636954560875893,-0.060318466275930405,-0.0041705104522407055
1789141063423106800,11.32810693359375,0.037043239921331406,-0.08712851256132126,-0.037520211189985275
1789141063433080000,11.338080078125,0.020083695650100708,-0.034093789756298065,-0.06197601929306984
1789141063443052000,11.348052001953125,-0.0020306603983044624,-0.048813346773386,0.0030360035598278046
1789141063453024000,11.35802392578125,0.040041159838438034,-0.05199103057384491,-0.04184332117438316
1789141063462997000,11.3679970703125,0.05668112263083458,-0.029696110635995865,-0.03454120084643364
1789141063472969000,11.377968994140625,0.07570993900299072,-0.011775965802371502,-0.0044014062732458115
1789141063482941000,11.38794091796875,0.10038919001817703,-0.05921725183725357,0.003940413240343332
1789141063492914000,11.397913818359376,0.07100040465593338,-0.03374757617712021,0.005077849142253399
1789141063502886100,11.40788623046875,0.04471553862094879,-0.016576578840613365,0.05940314009785652
1789141063512857900,11.41785791015625,0.03839532658457756,-0.0031254857312887907,0.028241757303476334
1789141063522830800,11.427830810546874,0.07949988543987274,-0.0059969061985611916,-0.05354844778776169
1789141063532803000,11.437802978515625,0.05103868246078491,-0.0025688852183520794,-0.006837666034698486
1789141063542775000,11.447775146484375,0.04826340451836586,0.00899908784776926,0.05794772133231163
1789141063552748000,11.457748046875,0.11146660894155502,0.015132613480091095,0.0008245146600529552
1789141063562720000,11.467719970703126,0.11760839074850082,-0.0024402544368058443,0.009455819614231586
1789141063572693000,11.47769287109375,0.09748261421918869,-0.013705425895750523,0.03181225806474686
1789141063582665000,11.4876650390625,0.03135712444782257,0.0023100259713828564,0.027126958593726158
1789141063592637200,11.49763720703125,0.051059722900390625,0.00330285239033401,-0.036425650119781494
1789141063602610000,11.50760986328125,0.015591476112604141,-0.008243015967309475,-0.021088240668177605
1789141063612582000,11.517581787109375,0.050329484045505524,-0.014858840964734554,-0.03814099356532097
1789141063622554000,11.52755419921875,0.05221579968929291,-0.019033346325159073,-0.023016635328531265
1789141063632526800,11.53752685546875,0.06287004053592682,-0.021578527987003326,-0.005994243081659079
1789141063642499000,11.5474990234375,0.06609220057725906,-0.018631475046277046,0.0206911638379097
1789141063652471000,11.557470947265625,0.06689780950546265,-0.01631718873977661,-0.0035601137205958366
1789141063662443800,11.56744384765625,0.07287394255399704,-0.022337529808282852,0.00042264367220923305
1789141063672416000,11.577416015625,0.04789748415350914,-0.007956193760037422,0.0038578552193939686
1789141063682388000,11.587387939453125,0.056351155042648315,-0.012950952164828777,-0.01272857841104269
1789141063692361000,11.59736083984375,0.084393709897995,-0.013847638852894306,-0.0034120420459657907
1789141063702333000,11.6073330078125,0.09002043306827545,0.014459366910159588,0.04465748369693756
1789141063712305200,11.61730517578125,0.08776340633630753,0.03351961076259613,0.02401212602853775
1789141063722278000,11.62727783203125,0.1426232010126114,0.0041188448667526245,0.000035420041967881843
1789141063732249900,11.637249755859376,0.1269765943288803,-0.01395656168460846,0.009051019325852394
1789141063742222000,11.64722216796875,0.10541456937789917,-0.009581787511706352,0.04482925683259964
1789141063752194800,11.65719482421875,0.07582499086856842,0.011040667071938515,0.03233636915683746
1789141063762167000,11.6671669921875,0.11701157689094543,0.015324894338846207,0.02859223075211048
1789141063772139000,11.677138916015625,0.1168653666973114,0.008765527978539467,0.06666211783885956
1789141063782112000,11.687112060546875,0.06697024405002594,0.02425926737487316,0.022374548017978668
1789141063792084000,11.697083984375,0.11645656824111938,0.048114266246557236,-0.06190677732229233
1789141063802056200,11.70705615234375,0.1311311274766922,0.06926429271697998,-0.045761097222566605
1789141063812029000,11.71702880859375,0.1455923467874527,0.062494534999132156,-0.0068094367161393166
1789141063822001000,11.7270009765625,0.14972610771656036,0.08864437788724899,-0.025371402502059937
1789141063831974100,11.73697412109375,0.18455146253108978,0.09643332660198212,-0.01894412934780121
1789141063841945900,11.74694580078125,0.17828132212162018,0.10998988151550293,0.008759935386478901
1789141063851918000,11.75691796875,0.1535661220550537,0.07948283851146698,0.0687716081738472
1789141063861891000,11.76689111328125,0.14862729609012604,0.08849364519119263,0.047984570264816284
1789141063871862800,11.77686279296875,0.1426125466823578,0.10530618578195572,0.025710422545671463
1789141063881835000,11.7868349609375,0.16781696677207947,0.07392988353967667,-0.0009707222343422472
1789141063891808000,11.79680810546875,0.14826776087284088,0.08825023472309113,0.027706196531653404
1789141063901780000,11.806780029296876,0.12359704077243805,0.1050633043050766,0.0659385398030281
1789141063911752000,11.816751953125,0.15763729810714722,0.07369019836187363,-0.024839302524924278
1789141063921725000,11.826724853515625,0.17093925178050995,0.07943224161863327,-0.03013579733669758
1789141063931697000,11.83669677734375,0.12337333709001541,0.09254484623670578,0.004960670135915279
1789141063941668900,11.8466689453125,0.10088666528463364,0.05336495488882065,-0.01776301860809326
1789141063951642000,11.85664208984375,0.10967563092708588,0.07134981453418732,-0.03825045004487038
1789141063961613800,11.86661376953125,0.12326707690954208,0.07477117329835892,-0.018520953133702278
1789141063971586000,11.8765859375,0.11521420627832413,0.0800548866391182,-0.0796428993344307
1789141063981559000,11.88655908203125,0.12485538423061371,0.05493967980146408,-0.012594887986779213
1789141063991531000,11.896531005859375,0.13462518155574799,0.07409686595201492,-0.011347729712724686
1789141064001503000,11.9065029296875,0.12530359625816345,0.050928693264722824,-0.04577840864658356
1789141064011476000,11.91647607421875,0.0941760316491127,0.06872846186161041,-0.08369755744934082
1789141064021448000,11.926447998046875,0.12203669548034668,0.07705563306808472,-0.047930773347616196
1789141064031420000,11.936419921875,0.13814827799797058,0.10002592951059341,-0.014430072158575058
1789141064041393200,11.94639306640625,0.14474307000637054,0.08074598014354706,-0.010439857840538025
1789141064051364900,11.95636474609375,0.10781541466712952,0.065312959253788,0.003312173532322049
1789141064061337000,11.966337158203125,0.08087167888879776,0.06833964586257935,-0.009133310988545418
1789141064071310000,11.97631005859375,0.11412311345338821,0.06816627085208893,-0.041674207895994186
1789141064081281800,11.98628173828125,0.12443726509809494,0.06244979426264763,-0.017895109951496124
1789141064091255000,11.996255126953125,0.1329074501991272,0.06011873111128807,-0.030360568314790726
1789141064101227500,12.0062275390625,0.1150677353143692,0.06260452419519424,-0.0314151793718338
1789141064111199500,12.016199462890626,0.11877458542585373,0.07596693933010101,-0.03840571269392967
1789141064121172500,12.02617236328125,0.12391475588083267,0.06585970520973206,-0.002326271263882518
1789141064131144400,12.03614453125,0.1800304800271988,0.07579383254051208,0.0023004384711384773
1789141064141116400,12.046116455078124,0.16802522540092468,0.11173105984926224,-0.009288573637604713
1789141064151089400,12.05608935546875,0.13398070633411407,0.07039560377597809,-0.005686914082616568
1789141064161061600,12.0660615234375,0.12095171958208084,0.07304145395755768,-0.013374128378927708
1789141064171033300,12.076033447265624,0.14959828555583954,0.10805829614400864,-0.03437075763940811
