time,seconds_elapsed,z,y,x
1789997363979039700,1.567039794921875,2.6284536196204114,1.6144283887183362,-0.22372025200970164
1789997363989110800,1.57711083984375,0.8303279131602274,1.4164430830635402,1.1462530311800703
1789997363999180800,1.587180908203125,-0.3878837039084553,1.1227512031386262,0.365422081618318
1789997364009251800,1.597251953125,2.703914980629004,-1.0305217828945235,-0.03375032016738569
1789997364019321600,1.607321533203125,1.4812499149140181,-0.7443902697926964,0.29480718187025906
1789997364029392600,1.617392578125,-1.1240503469934815,-1.0300414938898999,1.3246158115395383
1789997364039463000,1.627462890625,-0.6753225335981631,-1.421148185376153,1.6712250737856222
1789997364049534000,1.637533935546875,1.2890147932178309,-1.629459269714386,1.512426122122945
1789997364059603700,1.647603759765625,0.7051113329545955,-1.146563043386193,1.1532320313003608
1789997364069674800,1.6576748046875,1.35016470126575,0.14855982983359386,1.678584152427971
1789997364079744800,1.667744873046875,-0.6085774542687447,0.8256724937052577,1.0850463936157269
1789997364089815800,1.67781591796875,-0.035175702562965476,0.16960807456952953,-0.12771423532565127
1789997364099885800,1.6878857421875,0.36470125699460093,-0.018344780032707765,0.5428664484798098
1789997364109956900,1.697956787109375,1.4664117958705216,0.6264772203132181,0.2379194683530108
1789997364120027000,1.70802685546875,0.8070021218575224,0.8050308523043365,0.668180453894382
1789997364130098000,1.718097900390625,-0.7168684124355963,0.4714247538017656,1.5031238393258148
1789997364140167700,1.728167724609375,-1.2147153823222119,-1.7403107032830631,1.067559631186612
1789997364150238700,1.73823876953125,-0.3756959157798338,-2.7107012604388028,1.1063047445043503
1789997364160308700,1.748308837890625,0.22726754829438434,-1.1815419442117614,1.2382816530256853
1789997364170378800,1.758378662109375,2.15678299893195,1.2210738510824468,0.6411044137651746
1789997364180449800,1.76844970703125,0.6059919361867662,1.458818185846364,1.3644860997279458
1789997364190520800,1.778520751953125,-3.0102020545202914,0.19837312382459127,2.0409465275769683
1789997364200590800,1.7885908203125,-0.5072305726090022,-0.20499584375253804,0.5243603893874043
1789997364210660600,1.79866064453125,3.2846456246877795,-0.4917651951341707,1.0506524410639304
1789997364220731600,1.808731689453125,-0.42792138090634163,-0.07491218095573873,2.1033821981645207
1789997364230802000,1.818802001953125,-2.974198320103301,-0.8899170613462523,1.9051755053808617
1789997364240873000,1.828873046875,-1.0471475726624841,-2.05954255223465,1.566625328576401
1789997364250942700,1.838942626953125,1.1308969368419057,-0.44681588381902315,2.461165428634809
1789997364261013800,1.849013671875,0.17647489987558565,1.1815117231706402,2.9726850792720736
1789997364271083800,1.859083740234375,0.7161625686489708,1.908164989139373,2.4966684107450323
1789997364281154800,1.86915478515625,-0.5107143532882839,1.7544805298158301,1.647247080314322
1789997364291224600,1.879224609375,-3.9156583456168073,-0.45698428605729624,1.191596734827238
1789997364301295400,1.88929541015625,-0.9461906320096234,-1.2514586146118176,0.4871784374431152
1789997364311365400,1.899365478515625,2.4309146357368863,-0.978610583873709,0.09853610647096053
1789997364321436400,1.9094365234375,1.3273223851761045,1.028004843691693,-0.9536262193472984
1789997364331506400,1.91950634765625,-2.769090614100228,0.15562383477856143,-0.8020328130163208
1789997364341577200,1.9295771484375,-3.399792793311897,-2.317077955570556,-0.5887858490755419
1789997364351647500,1.9396474609375,0.7803303124678662,-2.3040766740439267,-0.44338692476444286
1789997364361718500,1.949718505859375,0.2954235345667236,-0.3577017047696305,0.09762277326678637
1789997364371788300,1.959788330078125,2.7369032707197936,1.278909314213035,-0.4575210664656846
1789997364381859300,1.969859375,2.734871865923655,1.4323248065221934,-0.6997016596254443
1789997364391929300,1.979929443359375,-0.5277954359672893,-0.19058451016570419,-0.09738253052761452
1789997364402000400,1.99000048828125,-0.13746416056990693,-2.4000153575058993,0.3501420897784267
1789997364412070400,2.0000703125,0.6442181620702464,-2.107188370958937,0.40369003875357534
1789997364422141400,2.010141357421875,-0.8733136140070801,-1.2527726344618348,0.3422758399477741
1789997364432211500,2.02021142578125,0.09065245174174957,-0.31623152371441104,-0.1401979895110576
1789997364442282500,2.030282470703125,1.0022648790920408,0.22942406691055955,0.32711337277970814
1789997364452352300,2.040352294921875,-0.7983532371973263,0.5136798681269412,1.3600651875723382
1789997364462423300,2.05042333984375,1.7151988916019605,0.5466432128078176,-0.8624244753464333
1789997364472493300,2.060493408203125,0.8049426503499069,0.6678507654799656,-1.9704556455811821
1789997364482564400,2.070564453125,-0.914985745481912,0.16788255265933896,-1.3468286237750315
1789997364492634400,2.08063427734375,-0.9744278456225689,-0.9031770128719471,-0.4601431938041732
1789997364502705400,2.090705322265625,0.7848620220414814,-0.087694836664577,-0.6017740666727045
1789997364512775400,2.100775390625,1.9015452799117767,0.6010419173964862,-1.1581759420521698
1789997364522846500,2.110846435546875,1.159257775360284,0.19061643650677362,-0.09393767679641407
1789997364532916200,2.120916259765625,-3.3005505381611138,-1.2288021872656096,0.3592229325591013
1789997364542987300,2.1309873046875,-2.5905980528883226,-1.1432520676118312,-0.24785740489802074
1789997364553057500,2.1410576171875,-1.2273607974006082,-1.1921028655134842,-1.682513762880772
1789997364563128600,2.151128662109375,1.8150684413366034,-0.035462366392226295,-1.0480056753833684
1789997364573198300,2.1611982421875,3.359351106054545,2.2755029433471474,-0.061328669911976726
1789997364583269400,2.171269287109375,-1.9090849638451737,2.7526693436096012,0.887497815560285
1789997364593339400,2.18133935546875,-1.5524872382117283,1.048864003403532,0.20081095952909395
1789997364603410400,2.191410400390625,-1.105332944160578,-2.483511697104709,0.11449099569135093
1789997364613480400,2.20148046875,-1.2845974653858632,-2.24049488534197,-0.05100695062252386
1789997364623551500,2.211551513671875,-0.9338613287350468,-1.7103451590003802,-0.2024455995665951
1789997364633621500,2.22162158203125,4.27196196717543,0.8296391596651391,-0.103218461889889
1789997364643692500,2.231692626953125,4.062023352988488,2.257696028917619,-0.003648662620105099
1789997364653762300,2.24176220703125,-1.1052790440681821,3.554338891577579,1.4914725874739854
1789997364663833300,2.251833251953125,1.8941569369482731,0.7063142199539004,1.3902919807334237
1789997364673903400,2.2619033203125,1.1788577676016372,-1.0587979894515223,1.0557241390957235
1789997364683974100,2.27197412109375,-4.029477078806552,-1.991164295516997,0.6275392538612473
1789997364694044400,2.28204443359375,-1.587737121407239,-1.3760501608459799,1.296019218639127
1789997364704115500,2.292115478515625,4.553561373567371,-0.059767653511750604,0.6928361189280875
1789997364714185500,2.302185546875,6.216086714517088,3.000665491247744,0.8482341680038482
1789997364724256300,2.31225634765625,2.0799464103057956,3.216043513635444,1.342197852614131
1789997364734326300,2.322326171875,-3.3843390975979935,0.8788775889707605,2.552382896947724
1789997364744397300,2.332397216796875,-3.953035184341544,-2.362031109423824,2.4592446614945414
1789997364754467600,2.342467529296875,-0.9689907640789427,-3.691960145421883,1.5940602345291304
1789997364764538400,2.352538330078125,0.3424674662951656,-1.1950070579992615,1.39218495546498
1789997364774608400,2.3626083984375,2.0191679569174448,2.4912950088559205,-0.04594186573788875
1789997364784679400,2.372679443359375,4.046212418912933,4.07858676735697,-0.2722583263276852
1789997364794749200,2.382749267578125,2.060890092209443,1.5554848445729894,0.09147719921217694
1789997364804820200,2.3928203125,-3.143446484488553,-1.7190917350503063,1.1457083706967792
1789997364814890500,2.402890380859375,-0.020725458968363725,-2.389125502225958,0.7424658135818942
1789997364824960500,2.41296044921875,-1.1874911529849532,-1.6554070743469702,0.8021902749932631
1789997364835031300,2.42303125,0.956709199624808,0.6331492420555708,0.895594052970292
1789997364845102300,2.433102294921875,2.156904727416906,0.36715437829059766,0.21972997420527043
1789997364855172400,2.44317236328125,-1.20194374190154,1.0704363942232327,0.17253427371197366
1789997364865242400,2.453242431640625,-2.118322877803847,-0.19321773133594608,0.42014679768936836
1789997364875313400,2.4633134765625,0.455033109613981,-1.1503361098518994,0.1608211028292562
1789997364885383400,2.473383544921875,1.7299193134384514,-1.7060128996806518,-0.12888990118686616
1789997364895454500,2.483454345703125,-1.481768518694256,-0.4027308068102121,-0.28567815909707883
1789997364905524500,2.4935244140625,-0.7998661079469832,-0.7199668344786545,-0.08381157756628184
1789997364915595300,2.50359521484375,0.4356071596411972,-0.425741112927587,-0.8944492845029701
1789997364925665300,2.513665283203125,0.25654624495126005,-0.053799951204682984,-1.3622057772888787
1789997364935736300,2.523736328125,-2.7496443898548844,-0.14486671360686712,-0.9639136196640442
1789997364945806300,2.533806396484375,-0.844848740937904,-0.30848566958424584,-1.1893333123272756
1789997364955877400,2.54387744140625,3.057664554211187,0.7827912891478699,-1.8524152007451244
1789997364965947400,2.553947509765625,1.9344202154104386,1.5259893663709103,-1.0393363210555109
1789997364976018400,2.564018310546875,2.25266845644583,0.4438469361701186,-0.12053360857300151
1789997364986088200,2.574088134765625,-2.5509965518754556,-1.5579512061439762,0.8938404636923726
1789997364996159200,2.5841591796875,-4.243047909856559,-1.1426938405133893,1.0492643447137668
1789997365006229500,2.5942294921875,0.438465168780672,-0.535521183232148,-0.29841246251470044
1789997365016300500,2.604300537109375,-0.07278546041303706,-0.2056169353739319,0.3037047761358217
1789997365026370300,2.614370361328125,0.7220050340819626,1.0127091065577054,0.834518240218354
1789997365036441300,2.62444140625,0.16349777035691393,1.0582665469250367,1.434960566786843
1789997365046511400,2.634511474609375,-0.2733838144926502,0.413368712692041,1.333197409397614
1789997365056582400,2.64458251953125,0.7122488672545414,-1.0604677332902808,1.4411554259777088
1789997365066652400,2.65465234375,1.231207111554192,-0.44668834171950655,1.533301864410569
1789997365076723500,2.664723388671875,-3.7967997375835023,1.3511241366341693,0.7850578780218784
1789997365086793500,2.67479345703125,-2.962003216293778,-0.39812951487749565,0.4833571584905627
1789997365096864500,2.684864501953125,3.0273257477445847,-0.7002987886019869,0.19170870807859386
1789997365106934300,2.694934326171875,1.6754021686591027,1.2660189941126074,0.8437879573061964
1789997365117005300,2.70500537109375,-0.7910102509552247,1.1219645331407233,0.9323778242723008
1789997365127075300,2.715075439453125,0.4027265545178337,-0.24421449452164293,0.055430282380452695
1789997365137146400,2.725146484375,-1.766658612797798,-0.4374286164443272,-0.3815366112147776
1789997365147216400,2.73521630859375,3.1323291508013202,0.42498125707374057,-0.5265851546139697
1789997365157287400,2.745287353515625,3.527614411966108,0.9664783782835822,-0.6070763743422878
1789997365167357400,2.755357421875,-1.1439907991423768,0.7832801025567921,0.013519222902057856
1789997365177428500,2.765428466796875,-1.0945963971254296,-1.263400006628387,0.7674294773793119
1789997365187498200,2.775498291015625,-1.968374014163319,-1.9403236782295528,0.9631142729631422
1789997365197569300,2.7855693359375,2.973515550942816,-0.7197917091825197,1.481902446113308
1789997365207639600,2.7956396484375,3.2059062539171777,0.8351440980010789,2.490809329104596
1789997365217710600,2.805710693359375,2.3759464844404263,1.5927265260340564,2.902400872399817
1789997365227780400,2.8157802734375,-0.9157902318184791,1.1828310752472204,3.3558674858208914
1789997365237851400,2.825851318359375,0.5915020150604997,-0.22620661009234233,2.6196628832459807
1789997365247921400,2.83592138671875,0.7508636708064749,-0.26684433308128763,2.337037447500547
1789997365257992200,2.8459921875,1.434500136124901,0.4013040462075469,1.5657450385400697
1789997365268062500,2.8560625,2.4706538852619855,0.3636540444996408,1.159578334995651
1789997365278133500,2.866133544921875,-3.242944658044527,-0.09086370328999663,1.5350036219770296
1789997365288203300,2.876203369140625,-1.5541046917632206,-0.4529622095574488,0.6779725861114603
1789997365298274300,2.8862744140625,1.6452236963671947,-1.7443262957017434,0.4763903701927434
1789997365308344000,2.896343994140625,0.14245482698990414,-0.4432838196790952,0.47134093371740476
1789997365318415000,2.9064150390625,-1.8034074138169522,0.6102331866510367,-0.13010091250131448
1789997365328485400,2.9164853515625,1.8339576264330655,0.6735959473105857,-0.5961243800907583
1789997365338556200,2.92655615234375,-0.9805195629010716,0.7328850576397435,-0.5843678458313939
1789997365348626200,2.936626220703125,-0.9821031100212099,-0.16316080449359077,-0.7456652871587568
1789997365358697200,2.946697265625,2.9053447753015673,-0.6563314096243184,-1.681739387564814
1789997365368767200,2.956767333984375,2.003380279593712,-0.16441325066001905,-1.8435672482248053
1789997365378838000,2.966838134765625,-5.728201587777302,0.35328301074263535,-0.9326253188281071
1789997365388908000,2.976907958984375,1.9237207119465272,-0.3903746060828363,-0.6727170431284166
1789997365398979000,2.98697900390625,3.834243304253437,-1.7899281882264997,-1.1081710752033518
1789997365409049300,2.99704931640625,-1.1209898793812265,0.8939673795640793,-0.5091838348119031
1789997365419120000,3.0071201171875,-1.5261782041770569,0.8390312660774913,0.7685549595137054
1789997365429190100,3.017190185546875,3.0663855846071533,-1.9954839145343732,-0.2009862401331109
1789997365439261200,3.02726123046875,1.478519118540325,-1.5476677816118196,-0.41980658591146536
1789997365449331200,3.037331298828125,-1.6250072986177138,1.0012382915503872,0.9677361267105454
1789997365459402000,3.047402099609375,1.5153982938758799,1.1511353651686398,0.6901124598341696
1789997365469472300,3.05747216796875,0.7856480007731793,-0.8906905231588433,0.8992862174725594
1789997365479543300,3.067543212890625,-0.9210728711691618,-1.4973810346544136,1.706345964999814
1789997365489613000,3.077613037109375,-2.2487187301512734,-0.6692013881029104,1.500640569820981
1789997365499684000,3.08768408203125,-0.5458585756529271,-1.3410119346038403,0.6168711512628757
1789997365509754000,3.097754150390625,0.8024183677464962,-1.2688323293626338,0.4850996394966166
1789997365519825200,3.1078251953125,-0.5819692030956508,0.3840701045086024,0.4497382765464226
1789997365529895200,3.117895263671875,2.8721833257055103,2.1574396705176593,-0.11621164437124416
1789997365539966200,3.12796630859375,0.9766471759069381,1.3078466419476937,-0.07769064294750036
1789997365550036200,3.1380361328125,-0.012011176034042826,0.30461456462426084,-0.4267754110888861
1789997365560106200,3.148106201171875,1.0713441993777997,-0.8096516254743936,-0.5501960318428413
1789997365570177000,3.158177001953125,-2.953784785113968,-1.2285623355465616,0.2136725455136857
1789997365580247000,3.1682470703125,-1.7241049771144341,-1.3130524335271738,0.8630735917418935
1789997365590318000,3.178318115234375,0.9487007071025959,-0.4967318321871704,-0.28539034655751455
1789997365600388000,3.18838818359375,3.7386463617286085,1.6258906604338714,-0.2898251918280371
1789997365610459100,3.198459228515625,4.8803180605063545,3.0148408632360786,-0.03769784480148736
1789997365620529200,3.208529052734375,-0.9110186776216018,1.5179043364889282,0.287380755586096
1789997365630600200,3.21860009765625,-1.61561244206747,-0.7495948036948553,0.8191288141735387
1789997365640670000,3.228669921875,0.8366535953991628,-2.3989958322468925,0.6483819075867425
1789997365650741000,3.238740966796875,-1.4264115020633716,-1.4765904723764853,0.3314900152456349
1789997365660811300,3.248811279296875,-1.1711366324134505,0.8140005220547589,0.8215405170563452
1789997365670882300,3.25888232421875,2.22791653186914,2.13453543745783,0.3431964466344093
1789997365680952000,3.2689521484375,2.344521086263545,2.2005910416216357,-0.2456275602958701
1789997365691023000,3.279023193359375,-0.029184797297337674,1.1743170957680287,0.4290104484899628
1789997365701093000,3.289093017578125,-1.6227448090862178,-1.4447198431321222,0.8799285321602427
1789997365711164200,3.2991640625,-1.9427438165886923,-2.5608829411474843,0.5745383500414061
1789997365721234200,3.309234130859375,-1.8103431127185334,-3.181188889081604,0.703016149265249
1789997365731305200,3.31930517578125,-0.014901548774263734,-0.8053206752348873,-0.19329442294780386
1789997365741375200,3.329375244140625,0.4062028775537674,1.6563549495581231,-0.15347907526422414
1789997365751446300,3.3394462890625,2.714567634988179,3.384443776711912,0.10396852715066067
1789997365761516000,3.34951611328125,1.3277841582758583,3.026006102517276,0.063902618442245
1789997365771587000,3.359587158203125,-0.8774626480818714,-0.15563186520028532,-0.01773004519916989
1789997365781657300,3.3696572265625,-5.095816994601781,-2.885352082561167,0.4936566519008793
1789997365791728400,3.379728271484375,-3.7547444257785334,-2.9766327105286123,-0.3771723893246597
1789997365801798100,3.389798095703125,2.191170123024183,-0.8963012687352494,-1.3133162606542492
1789997365811869200,3.399869140625,0.505898821102956,1.8799953896269954,-2.0431452288924192
1789997365821939200,3.409939208984375,-0.34363040835210373,2.153818331140787,-2.609077381760049
1789997365832010200,3.42001025390625,1.2309400589466006,-0.6592042074037507,-1.8630913443236683
1789997365842080000,3.430080078125,1.109158002543426,-2.7157485266583614,-1.4565711701497275
1789997365852151000,3.440151123046875,-1.253658481901866,-1.9168255676924264,-0.8799979691920077
1789997365862221300,3.45022119140625,0.008856235370797032,-0.6086443291351339,0.11195104539183007
1789997365872292400,3.460292236328125,0.6297453416647281,0.17346820781006814,-0.24623876159922545
1789997365882362000,3.470362060546875,0.38383193603598986,1.3183827990503647,0.45178065618200713
1789997365892433200,3.48043310546875,0.17485231593515452,1.2695753790977393,1.1729576431423925
1789997365902503200,3.490503173828125,-0.5666348275846692,0.7208731401922238,1.7227121568363666
1789997365912574000,3.500573974609375,2.5349928319937223,-0.20717256579211388,0.8693952454273619
1789997365922644200,3.510644287109375,0.6516960492915557,-0.5971891868538428,0.8962462513632202
1789997365932715300,3.52071533203125,-2.5201195611378377,0.5058448445747511,1.286508731580689
1789997365942785300,3.530785400390625,2.168295920611561,-0.010216008448143523,0.5339309929323816
1789997365952856000,3.54085595703125,0.16892950602904155,0.671176124688646,0.437125810691384
1789997365962926000,3.550926025390625,-0.2572610625015335,1.1107511189494086,0.7307939179720552
1789997365972997000,3.5609970703125,0.7114715395682109,0.5680916169934999,0.9544536340103518
1789997365983067400,3.5710673828125,0.4086717646285413,-0.3650090868221128,0.904562493857311
1789997365993138200,3.58113818359375,0.8132332651331985,-0.049247058391872996,0.4680013871630158
1789997366003208200,3.591208251953125,0.5847483537662311,0.6926625741900325,0.5526664389929898
1789997366013279200,3.601279296875,1.8803264488374767,2.2649039460004508,0.9589782878717642
1789997366023349200,3.611349365234375,1.2015592161190833,1.3176602695408581,0.43490156938731517
1789997366033420000,3.621419921875,-0.32313760957202303,0.1793950506144778,0.689806596192195
1789997366043490000,3.631489990234375,-1.6120416163918656,-0.6641397974080736,1.0208673005121904
1789997366053561000,3.64156103515625,2.22330268350821,-1.6759202932834718,0.4582062116623229
1789997366063631000,3.651631103515625,-0.4460809791691134,-1.7037375853352636,0.47195174791633093
1789997366073702100,3.6617021484375,-0.2061494926783778,-0.4827431458157668,0.7846735807451656
1789997366083772200,3.671772216796875,1.152908295198874,0.8218290839278076,-0.03527837720048885
1789997366093843200,3.68184326171875,-0.004166087280681167,0.8591547658472365,-0.9615313268169026
1789997366103913000,3.691912841796875,-1.4043215503553763,-0.4329347302260944,-0.6522922836268125
1789997366113984000,3.70198388671875,2.375120180842908,0.08517874317518137,-0.9689412988329151
1789997366124054300,3.71205419921875,1.18619222041368,1.0336214119282279,-1.0496591431400306
1789997366134125300,3.722125244140625,2.2543508338815137,1.4811625182249617,-0.40740410076292816
1789997366144195000,3.732195068359375,-3.1294308893251532,-0.745444998052884,0.6498223118906508
1789997366154266000,3.74226611328125,-2.3836486043577416,-1.2542902963593903,0.4623295656298233
1789997366164336000,3.752336181640625,1.129050168229107,-1.7240392250830143,-0.5842632978497646
1789997366174407200,3.7624072265625,2.024799840070492,-1.324203731817209,-0.6902515233465886
1789997366184477200,3.772477294921875,-2.473715503786712,-0.32026395542745106,0.3688705276695406
1789997366194548200,3.78254833984375,-1.8338321624400808,-1.0466467525071652,0.8296126134070394
1789997366204618200,3.7926181640625,2.6099365758975424,-0.24731519042153108,-1.2503480749908862
1789997366214689300,3.802689208984375,1.1976349756967848,0.6655194443103372,-1.249043230611855
1789997366224759000,3.812759033203125,3.978912108775707,2.920778535085276,-0.7605422303290442
1789997366234830000,3.822830078125,1.7118042232112443,2.071182701729013,-1.4991014289578386
1789997366244900400,3.832900390625,-4.956616964932374,-0.2484446985347151,-1.2753412720333306
1789997366254971400,3.842971435546875,-5.865101056907077,-2.6540964810471483,-0.697985768399775
1789997366265041200,3.853041259765625,-0.42854250257474985,-4.296240038680181,-1.216876149392592
1789997366275112200,3.8631123046875,3.3412841962349056,-3.281865107479205,-1.3696520822699183
1789997366285182700,3.8731826171875,-0.9141488436903659,1.239547058058261,-1.1257463009892394
1789997366295253800,3.883253662109375,-1.7126115625108589,2.5490374659332256,-1.3002548171945125
1789997366305323800,3.89332373046875,3.4138901095730807,1.6693047964850938,-1.8288624604606922
1789997366315394600,3.90339453125,2.442783779423869,0.8948478588830517,-1.9597617750024983
1789997366325464800,3.91346484375,-1.1145241743462049,0.1215446393777292,-1.2917605341208052
1789997366335535900,3.923535888671875,2.045416795893945,-0.015595426076536453,-2.2721611106832436
1789997366345606000,3.93360595703125,-2.4523515092424306,0.7071354839229147,-1.073818955052034
1789997366355676700,3.9436767578125,-2.0702492186450905,0.20348732496070177,-1.8973870341709034
1789997366365746700,3.95374658203125,3.2524776554414823,-1.2490436177769098,-2.328885221140077
1789997366375817700,3.963817626953125,-2.9572937110989495,-2.023323761415846,-0.37173608291171756
1789997366385887700,3.9738876953125,-5.888632212072236,-1.3348871440293282,-0.34036654748684003
1789997366395958800,3.983958740234375,-1.877441330599647,-0.7105488666934725,0.18618081083879595
1789997366406028800,3.99402880859375,6.0500486250591745,0.7594086576191799,-0.09623357829915781
1789997366416099800,4.004099853515625,5.27072598548697,2.465760728884514,-0.42234606962154536
1789997366426169600,4.014169677734375,-1.350166479141947,4.424865121984481,0.24740744619377703
1789997366436240600,4.02424072265625,-4.9548020540560564,1.9612131870912075,0.4638596598944268
1789997366446310700,4.034310546875,-1.2937864361604667,-0.8887854497476747,0.2682054601656911
1789997366456381700,4.044381591796875,2.6739624177764028,-2.0350985395652503,-0.06289538452364522
1789997366466451700,4.05445166015625,-1.5041292054616033,-1.1427796595689026,0.4961394082313146
1789997366476522800,4.064522705078125,-0.5148200944156515,-0.05762588080179777,0.5862024418328586
1789997366486592800,4.0745927734375,-0.9542702017202732,0.5865068978041504,1.4105410623117667
1789997366496662800,4.084662841796875,2.63186163501606,1.0224115773778597,0.5390087796726758
1789997366506733600,4.094733642578125,2.875871037526314,-0.41450174843557286,0.0633237501456689
1789997366516804600,4.1048046875,-4.08671172913451,-0.0007106587263415591,1.4930094677212016
1789997366526875000,4.114875,-3.482334633213405,-0.7656790074927258,1.2763993998690486
1789997366536946000,4.12494580078125,0.9146969711878072,-0.22235355550090613,1.0997626743575482
1789997366547015700,4.135015625,3.774852253937111,0.6294747782508916,-0.2726800255325608
1789997366557086700,4.145086669921875,1.733844924331491,0.25990804502032855,-1.7894696739786804
1789997366567156700,4.15515673828125,-0.23310128142072778,1.6917377675751442,-1.1313299566608628
1789997366577227800,4.165227783203125,-4.344473260108517,0.3272219469546593,0.33702597804863477
1789997366587297800,4.1752978515625,-0.5312133235869753,-2.87303806010732,0.019720679582025558
1789997366597367800,4.185367919921875,3.642279527479341,-3.0167434096666748,0.047978871368098315
1789997366607438800,4.19543896484375,0.6659580837156062,0.6682150538031707,1.2085203998365424
1789997366617510000,4.205510009765625,1.0607565160437369,2.193157173122713,2.849971287746253
1789997366627579600,4.21557958984375,1.3237972435113932,0.6878599986005093,2.403538126281797
1789997366637649700,4.225649658203125,-1.731927112358279,-0.28576380671672197,2.194323269647884
1789997366647720700,4.235720703125,-1.8908622671923867,-1.0460705914343555,2.476119832008257
1789997366657790700,4.245790771484375,5.014270174908778,-0.19014091888688076,2.9678079019383903
1789997366667861800,4.25586181640625,-1.5563212785449039,1.1640825555416456,3.070207109190127
1789997366677931800,4.265931884765625,-0.7231913893962998,2.77734682802772,2.267233498482209
1789997366688002800,4.2760029296875,4.36221320446051,0.8555370409198719,1.0423151215267064
1789997366698072600,4.286072509765625,3.128739912690056,-1.2659824496224938,2.0744068517329066
1789997366708143600,4.2961435546875,-5.829486524397348,-1.8566828425896618,1.416737573848923
1789997366718214000,4.3062138671875,-4.414844214250743,-2.102899665835019,-0.17342887146863342
1789997366728285000,4.316284912109375,2.381367605024,-2.228626313781335,-0.4689878822565342
1789997366738354700,4.326354736328125,1.95219264982381,0.46513993594974495,-1.1363290958838765
1789997366748425700,4.33642578125,-1.766984534077996,2.5577871300867603,-1.4916477298045714
1789997366758495700,4.346495849609375,1.8712723339745094,2.6373903536889807,-0.8481538377399728
1789997366768566800,4.35656689453125,-0.068383488561877,0.5365097856067085,-1.566858582679487
1789997366778636800,4.36663671875,-0.6288400706508779,-0.5733546168595958,-1.8529631365617147
1789997366788707800,4.376707763671875,0.913026932838395,-1.162686895853551,-1.1403477396084083
1789997366798777900,4.38677783203125,-0.3829744505554892,-0.07899752907538173,-1.5614025828184164
1789997366808849000,4.396848876953125,-2.87615752991314,-0.9179044199922043,-1.28930163992558
1789997366818918700,4.406918701171875,1.0355218602833607,-1.5196423997612374,-1.5436493959134714
1789997366828989700,4.41698974609375,1.6169166090367297,0.4265483581378315,-1.4814316510126941
1789997366839059700,4.427059814453125,0.7161173614258526,1.9489951521622877,-1.1740282794746295
1789997366849130800,4.437130859375,0.9791801067176263,0.9756835436101094,-0.2338363640471325
1789997366859200800,4.44720068359375,-1.250511094610667,-1.548602043798349,-0.23909676539482247
1789997366869271800,4.457271728515625,-3.710275649849091,-3.690545936176389,-0.0038394457627520437
1789997366879341800,4.467341796875,3.067270216660444,-1.3487608968609592,-0.37852295150000465
1789997366889412600,4.47741259765625,6.95969951216249,1.3658378905921564,-1.3244564237666
1789997366899482600,4.487482666015625,3.138185013116791,2.7636079600595664,-1.108755611180478
1789997366909553700,4.4975537109375,-5.99659638883153,1.1197063332002213,-0.43006729590151854
1789997366919624000,4.5076240234375,-4.174834049172597,-1.2336729072643786,-0.6652996712902022
1789997366929694700,4.51769482421875,3.403066142796447,-3.040027935136207,-1.6358568650641012
1789997366939764700,4.5277646484375,-0.6731950423591068,-2.86198649833023,-1.5815086794937299
1789997366949835800,4.537835693359375,-0.7135789085277209,-0.3859838337142413,-1.653231730777118
1789997366959905800,4.54790576171875,3.1819801668082057,1.0312658743588108,-0.994521997852741
1789997366969976600,4.5579765625,3.0974736945503496,1.4015814029341929,-1.0142798627318552
1789997366980046800,4.568046875,-2.802603643560895,-0.5308594303733799,-1.131016707453863
1789997366990118000,4.578117919921875,-0.298298965311065,-2.021331002786287,-1.6002570886322809
1789997367000187600,4.588187744140625,-1.5356900378252876,0.006631860154848035,-1.5786276607099679
1789997367010258700,4.5982587890625,-0.05847649688797865,2.1584578316879175,-1.4845651469946506
1789997367020328700,4.60832861328125,5.70608220769548,1.8388451873992455,-1.584242279511727
1789997367030399700,4.618399658203125,1.5365701940162828,1.508592446739846,-0.399765800988275
1789997367040469800,4.6284697265625,-4.137326874744089,-0.0023633695863867956,-0.10315332736994592
1789997367050540800,4.638540771484375,-2.912368611290477,-2.029877856842043,-0.277669325328026
1789997367060610800,4.64861083984375,0.10482145603933553,-1.7336832567577167,-1.0633039860293119
1789997367070681900,4.658681884765625,2.2027061483226444,-0.21205146922497017,-0.8715688956439839
1789997367080751600,4.668751708984375,1.0934780412252374,1.1592719206009443,0.30795946757715026
1789997367090822700,4.67882275390625,-6.824599302049768,1.831125377456777,-0.36999318370944195
1789997367100892700,4.688892578125,-4.146266093321453,0.09662015474748549,0.018612311360185114
1789997367110963700,4.698963623046875,2.7019732135615575,-1.3215027775966994,0.8801057665566697
1789997367121033700,4.70903369140625,3.1093818508460456,0.7073323909507302,0.44061421818289187
1789997367131104800,4.719104736328125,-3.3675810917606808,1.6800933457388205,0.4162071224306775
1789997367141174800,4.7291748046875,-2.901102022936962,0.4572395036382188,0.15136546348324104
1789997367151245800,4.739245849609375,-3.4577112605209237,-1.1892743924607985,-0.16731682421025956
1789997367161315600,4.749315673828125,1.6351557939687924,-1.1592695221169607,-0.10282553937175302
1789997367171386600,4.75938671875,6.935592076600586,1.0984203583014134,-0.7435535062139567
1789997367181457000,4.769456787109375,0.18823929206013124,2.861733881779904,-1.057400128100855
1789997367191528000,4.77952783203125,-7.521816374239141,-0.5003924220555991,0.11931298449635132
1789997367201597700,4.78959765625,-4.799527350160464,-4.532639986317165,0.3339110250844436
1789997367211668700,4.799668701171875,0.6753440368157427,-3.183362669256126,-0.3605691703007956
1789997367221738800,4.80973876953125,2.131256091987014,0.7165839613304962,-0.33726298483565437
1789997367231809800,4.819809814453125,3.8705531089815697,4.185795817340807,-0.6189527855259819
1789997367241879800,4.8298798828125,4.194896745763611,3.3738610838084373,-1.2245686704683312
1789997367251950800,4.839950927734375,-2.3028432713105293,-0.018909379553602414,0.22987384068999137
1789997367262020900,4.850020751953125,-4.5181893824687664,-3.7962275838728097,0.6648781118983675
1789997367272092000,4.860091796875,-2.4250940047827263,-4.474232973570468,-0.08123238686657484
1789997367282161700,4.87016162109375,1.6985124365384396,-0.9816933897509442,-0.3740136209209827
1789997367292232400,4.880232421875,3.6427513531659534,2.344923340908668,-0.3715852861096831
1789997367302302700,4.890302734375,2.0780329889444005,4.111799872142428,-0.47267395803100143
1789997367312373800,4.900373779296875,-2.0936849736599688,1.7993567579138006,0.21201740854106343
1789997367322443800,4.91044384765625,-2.0967340901257314,-2.641017754533184,0.3860603208353778
1789997367332514600,4.9205146484375,-3.3029793038190967,-3.708703915440931,0.23277368700369389
1789997367342584600,4.93058447265625,-2.291663577297025,-1.7888214780707583,-0.21332336148936024
1789997367352655600,4.940655517578125,4.931422620098709,1.6841778798041898,-0.31927167498993037
1789997367362725600,4.9507255859375,6.12855574769949,4.254128003393949,-1.2771886374443568
1789997367372796400,4.96079638671875,2.867011977650926,5.163282900830484,-1.1325999976998675
1789997367382866700,4.97086669921875,-1.913893088352693,1.761804029764745,-0.2449021147852855
1789997367392937700,4.980937744140625,-4.432437192966394,-3.884734451362977,-0.10527014118977855
1789997367403007700,4.9910078125,-3.468883595552203,-5.7394256022809715,-1.0310124178750422
1789997367413078500,5.00107861328125,1.0090198473586747,-2.2692567768007565,-2.2107246374782683
1789997367423148500,5.0111484375,3.2703013931595075,1.7100276843391413,-2.9019318178037166
1789997367433219600,5.021219482421875,3.060682660877794,3.5104655857459153,-2.512892149221237
1789997367443289600,5.03128955078125,-1.7000407997879565,1.5124700321594358,-1.3946741697362268
1789997367453360600,5.041360595703125,-0.9795968158390723,-1.7418907085285373,-0.8445017524431211
1789997367463430700,5.0514306640625,1.019430196150489,-4.11850360258633,-0.9022129546371714
1789997367473501700,5.061501708984375,0.4164602605254393,-1.7925956200566862,-1.1826991076192772
1789997367483571500,5.071571533203125,-2.1123678600471565,1.360197246264438,-1.5799095772422178
1789997367493642500,5.081642578125,-0.11765176794147729,2.836883603127218,-1.48469444681077
1789997367503712800,5.091712646484375,1.4042272799244255,0.43946110837107566,-1.2020112645596903
1789997367513783800,5.10178369140625,2.2422751393703613,0.5053113425518146,-0.55376492771981
1789997367523853600,5.111853515625,0.3855300355368299,-0.032459409447113105,0.1428269155465448
1789997367533924600,5.121924560546875,-3.5023693398188875,-1.3365582277064312,0.4424465349759241
1789997367543994600,5.13199462890625,0.03734531866727965,-2.0957800812734204,0.4328795950903716
1789997367554065700,5.142065673828125,3.9196096449593254,-0.08582355424647556,-0.0624814976673806
1789997367564135400,5.152135498046875,-0.45211876675470686,0.5638362388236525,0.8506512078282756
1789997367574206500,5.16220654296875,0.8699050396698703,-0.3870218639174,0.999823938078886
1789997367584276700,5.17227685546875,0.03197757126348266,1.0671278931316894,0.7727757365223068
1789997367594347800,5.18234765625,0.873659454943018,1.5091676118230768,0.12159167865947476
1789997367604417500,5.19241748046875,0.172977592788404,0.8880773526894566,0.9614191678657525
1789997367614488600,5.202488525390625,0.10709595010831079,0.09773946819102733,0.7381451328503875
1789997367624558600,5.21255859375,-0.005452965427193635,0.15993491264136858,0.6632036676235967
1789997367634629600,5.222629638671875,-1.260290248989669,0.02431582380229513,0.16926555075056152
1789997367644699600,5.23269970703125,0.02579071439223914,-1.0129137438954303,-0.5445832069653532
1789997367654770700,5.242770751953125,1.7939039645778885,0.441495571343163,-0.7926991768581548
1789997367664840700,5.2528408203125,-1.339945360502098,1.6844181517943617,-0.42056150137517084
1789997367674911700,5.262911865234375,-3.7682593900773256,-0.3462422071451013,-0.3202396087335326
1789997367684981500,5.2729814453125,0.27346000098602735,-2.0626474157123322,-1.2857525068235085
1789997367695052500,5.283052490234375,4.8509975549330555,1.0042409843190634,-1.5869917448687014
1789997367705122800,5.293122802734375,-1.1040394224817027,1.2134962853518776,-1.187620732453589
1789997367715193600,5.303193603515625,-4.228823063549967,-1.9733003327050402,-0.07905831591570099
1789997367725263600,5.313263671875,-4.222184257477316,-2.30876491639451,-0.5477905491872016
1789997367735334700,5.323334716796875,-0.09053501441976244,0.8292639328772788,-1.5040791269390337
1789997367745404700,5.33340478515625,6.414440745049892,1.9845621836981173,-1.6916756382812734
1789997367755475500,5.343475341796875,6.32907287495262,1.5383821002976101,-0.9676551880465284
1789997367765545700,5.353545654296875,-5.781612712618451,1.4197985759497938,-0.02073116735425979
1789997367775616800,5.36361669921875,-8.737379355927201,-2.4688302224446477,0.5513119702534459
1789997367785686800,5.373686767578125,0.5119219345155671,-4.012283709915903,-0.17327514673291639
1789997367795757600,5.383757568359375,4.175915205163906,-1.3947957183273614,-0.6339530243254815
1789997367805827600,5.39382763671875,0.7691137051448895,2.714919242410378,1.1148822111470202
1789997367815898600,5.403898681640625,-2.6316438143687284,2.6366368370248074,1.4498784720473035
1789997367825968600,5.41396875,-1.6865342756284396,-0.45796390325570774,0.9635498004446059
1789997367836039400,5.424039306640625,2.6731222997276634,-1.905350141235717,0.013322748590596204
1789997367846109700,5.434109619140625,1.3561760671827625,-0.5142125561891518,0.6879112354435548
1789997367856180700,5.4441806640625,-0.5721839768663388,2.0149900332295054,1.6152901266781796
1789997367866250500,5.45425048828125,-3.029251131445658,1.1359383514728942,1.3051456765174916
1789997367876321500,5.464321533203125,0.5230927265901658,-1.2106341636299482,0.6813154849987475
1789997367886391600,5.4743916015625,1.2199016441161248,-3.169567551353097,-0.022384902117543234
1789997367896462600,5.484462646484375,-0.14844945326032205,-1.9245215771734732,-0.014233049403606285
1789997367906532600,5.49453271484375,0.9270442325279264,0.7588241972361218,-0.09934737073513641
1789997367916603600,5.504603759765625,2.1268453573053274,1.4667629707820433,0.05025524663951902
1789997367926673700,5.514673583984375,1.656710219629005,0.9905665934619158,-0.5529457444157824
1789997367936744700,5.52474462890625,2.5407758447234094,0.02612221520555102,-0.8874087670181904
1789997367946814500,5.534814453125,1.3577690371700575,-0.0937132716059446,0.6412478784037586
1789997367956885500,5.544885498046875,-2.8534173291394986,0.6230146620467205,1.1918358668583846
1789997367966955800,5.554955810546875,0.33263114510276004,-0.4178396403442673,0.8625892637398352
1789997367977026800,5.56502685546875,1.327994071694811,-0.4059251194521416,0.9836601783802531
1789997367987096600,5.5750966796875,1.9130497573927294,0.9329576572792672,1.475742074907403
1789997367997167600,5.585167724609375,1.3148197960406116,0.8746697661456166,2.606695997306662
1789997368007237600,5.595237548828125,1.5412601438299784,0.005859499798767712,2.5956419575555936
1789997368017308700,5.60530859375,0.1297303543556163,-1.4445115310693488,2.2233082648184985
1789997368027378400,5.61537841796875,-2.5806764302853034,-2.4186525427405607,2.107492687384084
1789997368037449500,5.625449462890625,-0.15839583701983856,-1.028913193243841,0.7782670076369885
1789997368047519700,5.635519775390625,3.0382006367014327,0.6908027169116121,0.9132306348233208
1789997368057590800,5.6455908203125,0.24093962364875657,2.266279220814424,0.9045093104466555
1789997368067660500,5.65566064453125,-1.6708867928532247,1.5971313412802577,0.011390042517426901
1789997368077731600,5.665731689453125,1.789749563075093,0.7375720892215778,-0.061256418296007885
1789997368087801600,5.675801513671875,3.9479911327964907,-0.7995421124177884,-0.51572744285908
1789997368097872600,5.68587255859375,0.061947255878323094,0.6880942536396568,-0.9201839493644319
1789997368107942700,5.695942626953125,0.07432135220877138,1.4299682371838653,-1.0574475120586635
1789997368118013700,5.706013671875,2.2459666922752453,-0.044857664526765074,-1.9330870396676212
1789997368128083700,5.716083740234375,-3.391754109837346,-1.0842295688244832,-0.680582465203716
1789997368138154800,5.72615478515625,-2.271498945053234,-1.6138894405178803,-0.593416028601498
1789997368148224500,5.736224609375,2.957248576472067,-0.31023909901621594,-1.4761853412647907
1789997368158295600,5.746295654296875,2.3334330985398215,1.9159070257567963,-0.9765890918476191
1789997368168365800,5.75636572265625,-1.5043953215662507,2.1846969600071833,0.42771324470969374
1789997368178436600,5.7664365234375,0.20390258123737465,0.42629893550026643,0.6862040844955678
1789997368188506600,5.776506591796875,2.0513631925074107,0.20272713572293,0.010424000337611447
1789997368198577700,5.78657763671875,-2.532990093706175,-0.7029418228214057,1.1862695742225169
1789997368208647700,5.796647705078125,-5.363283155763767,-1.7948420668951455,1.4654542003278357
1789997368218718500,5.806718505859375,-2.786906897769076,-2.291684188018544,0.7340444648055192
1789997368228789500,5.81678955078125,0.07185818516270996,-0.7058506712839344,0.6888247337146257
1789997368238859800,5.82685986328125,1.377768656194207,1.3180112721196058,0.4206119507763109
1789997368248929800,5.8369296875,4.624378643663634,1.0960957615672389,0.17175573356327886
1789997368259000600,5.84700048828125,1.7850027145370464,-0.29184349343993066,0.8748061439526355
1789997368269071600,5.857071533203125,-5.048366439699869,-0.4460210866601075,2.165036511381659
1789997368279141600,5.8671416015625,-2.0341564669426218,-1.818441512783396,1.4827143266138005
1789997368289212400,5.87721240234375,5.143004096374247,-1.9341467294830452,0.5500587674342736
1789997368299282400,5.887282470703125,-0.36943431730988696,-0.2161274328044391,0.7906754810367514
1789997368309353500,5.897353515625,-1.4128526346194121,0.8130387351887232,0.6082201093346945
1789997368319423500,5.907423583984375,-0.6191060647398898,-0.785001794330807,0.1926312039143234
1789997368329494500,5.91749462890625,-1.132257378572081,-2.5348429833839567,-0.09084531990170829
1789997368339564500,5.927564453125,-1.016166071507205,-1.657953662061781,0.3779542086820858
1789997368349635600,5.937635498046875,2.7024491988708172,0.46981096863223304,0.2465341522969799
1789997368359705300,5.947705322265625,2.26144458009754,2.634914741750888,0.7518369231807096
1789997368369776400,5.9577763671875,-1.2092673931721853,2.920907168794565,0.7805236095261666
1789997368379846700,5.9678466796875,-1.0001411980541415,0.6179045563650144,0.4137967052790715
1789997368389917700,5.977917724609375,1.6393456435964333,-0.651739413531491,-0.5705088441936252
1789997368399987500,5.987987548828125,-1.387621464696793,0.17696942879739183,-0.0926765340401576
1789997368410058500,5.99805859375,-2.982329293796521,0.502244952386134,0.5336922238968784
1789997368420128500,6.00812841796875,-0.04330003172980135,-1.5871512544630795,0.6405036925035926
1789997368430199600,6.018199462890625,1.7736536805193948,-0.4144780802916098,1.3795514736789514
1789997368440269600,6.02826953125,-0.5249952952640498,0.8398690823802835,1.3138273236012734
1789997368450340600,6.038340576171875,-0.75869489398603,1.4705292409187785,1.4615998296323407
1789997368460410600,6.04841064453125,-0.9404527132879695,0.3219596313703854,1.3714046260054595
1789997368470481700,6.058481689453125,0.70298662881171,0.7437032344203883,0.40354964801883986
1789997368480551400,6.068551513671875,-0.9869852297526768,0.702937824607816,0.47830600911352156
1789997368490622500,6.07862255859375,2.5529975179367175,0.6988011492331155,0.47214825807279487
1789997368500692500,6.0886923828125,-0.7227633107612516,0.35365346829872507,-0.1701523118232751
1789997368510763500,6.098763427734375,-4.826155909147943,-0.2918066482940817,0.4570044153176568
1789997368520833500,6.10883349609375,-0.7028718971150757,-2.616552758532396,-0.2887863289614911
1789997368530904600,6.118904541015625,1.3934063899588838,-2.754941392521563,-1.4014208752263406
1789997368540974600,6.128974609375,-0.21157321546155541,0.3354603729073483,-1.1850796376582846
1789997368551045600,6.139045654296875,1.1722035747033337,0.613010283897632,-0.8800641871849487
1789997368561115400,6.149115478515625,1.9881388254179186,-0.10241130275551664,-0.11393866828881766
1789997368571186400,6.1591865234375,-3.04331983070607,-0.9774029265155054,0.6815679699151947
1789997368581256700,6.169256591796875,1.5342276437221776,-1.6511597709711012,0.128431516439718
1789997368591327500,6.179327392578125,4.090783145065342,-0.9110593008902069,-1.147019807265383
1789997368601397500,6.1893974609375,-0.04742763853670914,1.0388932028881972,-0.004584952207897964
1789997368611468500,6.199468505859375,-0.34818419741919465,-0.7475214531865989,1.5098211892605946
1789997368621538600,6.20953857421875,-0.010567045218779708,-2.40073727055477,1.790468692090576
1789997368631609300,6.219609375,0.09137601963574579,-2.5146091122090204,1.9310004210366056
1789997368641679600,6.2296796875,1.1059938411108579,1.0728862800415533,1.7095598715051257
1789997368651750700,6.239750732421875,3.331135521632231,2.4511201664529727,1.099097444113081
1789997368661820700,6.249820556640625,-0.7263013851321088,1.9659577289256953,1.4783746351659308
1789997368671891500,6.259891357421875,-1.9570597502984166,0.9293764315543276,1.2740279055850392
1789997368681961500,6.26996142578125,0.842698541342331,0.35790410741968604,0.16346065637474974
1789997368692032500,6.280032470703125,0.6068113000557768,0.2740774987066223,0.11565927572012152
1789997368702102800,6.290102783203125,-1.2906125054888269,-1.14158504218169,-0.8340749878180946
1789997368712173600,6.300173583984375,0.5090523297455066,-1.6564001272722793,-1.1814956040086717
1789997368722243600,6.31024365234375,0.22443247565647595,-1.2220012554936623,-1.0309029061441475
1789997368732314600,6.320314697265625,1.1903575535670858,0.4279585860153469,-0.967439262685955
1789997368742384400,6.33038427734375,3.70904609240921,1.4785997475279578,-0.4062028901379128
1789997368752455400,6.340455322265625,1.7336864235369065,2.9168290773513714,-0.41655857402158825
1789997368762525400,6.350525390625,-5.18543676181297,1.4085537282259242,0.5277793397265923
1789997368772596500,6.360596435546875,-2.350787423458229,0.0706193555552921,1.0219557550796938
1789997368782666500,6.37066650390625,1.7411331807655,0.10933964914132198,0.3152218245844112
1789997368792737500,6.380737548828125,1.6670867843534376,0.7861410878772995,-0.4999322079340473
1789997368802807600,6.3908076171875,1.5786538763973332,0.9638892158735701,-0.48510132190463695
1789997368812878600,6.400878662109375,1.6986053795561171,0.9576092249103222,0.7634610156179328
1789997368822948400,6.4109482421875,-0.46063755768078124,-1.5707634286417993,0.6402503149069905
1789997368833019400,6.421019287109375,-0.10716271958519281,-2.5163803842488632,-0.03811560690474422
1789997368843089700,6.431089599609375,0.6855554848053156,-0.970648555900656,0.19761810772725005
1789997368853160700,6.44116064453125,-1.680277853088362,-0.2816591279141494,0.743467355579567
1789997368863230500,6.45123046875,-2.3987852470488136,-0.6644251902807894,0.31019847536672734
1789997368873301500,6.461301513671875,-1.443465404156372,-0.977150727244242,-0.8249687084387901
1789997368883371500,6.47137158203125,1.1293563652267544,0.6259577006714898,-1.3959159834796795
1789997368893442600,6.481442626953125,2.182145382557507,0.8773490436600674,-2.0827277277913554
1789997368903512600,6.4915126953125,2.872674320546711,1.2118808404347825,-1.6304086257833057
1789997368913583600,6.50158349609375,0.879132481525152,-0.5365703654641534,-0.9814668402104905
1789997368923653600,6.511653564453125,-3.765467925946655,-2.685049573459903,-0.2361451802685465
1789997368933724700,6.521724609375,-4.852937743703414,-3.6120000694824603,-0.31375446106723365
1789997368943794400,6.53179443359375,1.7123331208738868,-1.309339393118139,-2.1366911254642424
1789997368953865500,6.541865478515625,6.339563736939386,2.4729031764629474,-3.799415851979472
1789997368963935500,6.551935546875,-2.0775034967882906,3.5885487676650647,-2.478173021960816
1789997368974006500,6.562006591796875,-2.288840604712256,1.2834003034684047,-1.9805783863107487
1789997368984076500,6.57207666015625,3.3481249993930886,-1.2957746951964093,-2.8287142669697554
1789997368994147600,6.582147705078125,-2.7413766938800754,-1.0914924995165989,-1.855957331612076
1789997369004217600,6.592217529296875,-3.939996648980605,-1.9663667724555416,-2.7071900648660923
1789997369014288400,6.602288330078125,1.3553396233314636,-1.4660442385017474,-2.449083295745226
1789997369024358400,6.6123583984375,-0.04761066396794553,0.13398553738640598,-3.2350496450972552
1789997369034429400,6.622429443359375,-6.780407729144057,-0.7966548196353462,-1.7341346213433688
1789997369044499700,6.632499755859375,-1.2529386520963792,-2.345086623501225,-0.8635842111932264
1789997369054570500,6.642570556640625,3.485435303535999,1.3927723373507357,0.026913492780573135
1789997369064640500,6.652640625,1.0457336789204832,5.036961003099065,0.5239347145222801
1789997369074711600,6.662711669921875,1.3937858744740301,4.263433850585907,0.9306011180137674
1789997369084781600,6.672781494140625,1.110752248404789,1.504703825686493,0.7692294702786878
1789997369094852400,6.682852294921875,-5.900159389952292,-1.7833338560831369,0.4912608647261142
1789997369104922600,6.692922607421875,-4.3668879262771245,-3.409755325809534,1.5497810385583144
1789997369114993700,6.70299365234375,4.199527011982989,-2.7778635880180658,0.43626148494427724
1789997369125063700,6.713063720703125,1.7043701789809844,0.8990429618274925,-0.32687871665475127
1789997369135134500,6.723134521484375,0.6811378272382678,1.8910451525769731,0.8923435786703311
1789997369145204500,6.73320458984375,2.9883614882882656,0.8656170893767708,0.8286661253240478
1789997369155275500,6.743275634765625,0.7173130143673696,-0.3042736753360698,0.4798360451784739
1789997369165345500,6.753345458984375,-1.743339976484361,-2.3009120754349546,0.7066655009910312
1789997369175416600,6.76341650390625,2.725228897044008,-2.568873802284381,0.039027404857193644
1789997369185486600,6.773486572265625,-1.0263701850775053,-0.02772279814785605,-1.2648049309933609
1789997369195557600,6.7835576171875,-1.3635127390884763,1.945828162992298,-1.1158705322077036
1789997369205627400,6.79362744140625,6.60592148802232,2.3642939907112814,-1.1999221611580797
1789997369215698400,6.803698486328125,4.501174615248796,2.2762429684820265,-0.8469660876587806
1789997369225768400,6.8137685546875,-4.456352809212357,0.41619570068972145,0.29387481444957875
1789997369235839500,6.823839599609375,-1.418572266529223,-2.5621002165259927,0.4217518939018591
1789997369245909500,6.833909423828125,1.2146289581018939,-1.961984204147357,-0.1114777166516642
1789997369255980500,6.84398046875,-0.4279781266424027,-0.8494616287377661,-0.060817518397164684
1789997369266050600,6.854050537109375,0.23906184765444302,-0.46874578747073037,0.020153176292648494
1789997369276121600,6.86412158203125,0.5964901361041207,0.717455325639845,0.7005200172921887
1789997369286191400,6.87419140625,-3.3897261008129997,0.49919257062404565,2.0174602004785482
1789997369296263200,6.88426318359375,-2.447789539645307,-1.7458431609588247,1.443049336345162
1789997369306333200,6.894333251953125,3.0193894391114986,-0.4631763188529451,-0.18395312961777974
1789997369316404200,6.904404296875,2.4977469920694655,2.299259582198615,0.9969292643766062
1789997369326474200,6.91447412109375,-2.766738384074838,2.6635582893481216,0.3376435202756739
1789997369336545300,6.924545166015625,-2.294844934158988,-0.33204427106264434,-0.6480637762938977
1789997369346615000,6.934614990234375,-0.1439406509983978,-0.9340558526000168,0.9791689570253062
1789997369356686000,6.94468603515625,1.645475265356386,-1.0404231626089748,-0.4426696114032546
1789997369366756000,6.954756103515625,3.8929502819896227,-0.32360430426554443,-1.5589086449297351
1789997369376827100,6.9648271484375,1.561911080224173,1.3492473851846385,-1.0792078231054347
1789997369386897200,6.974897216796875,-0.2995707124679529,2.2486368647123167,-1.0628725314989385
1789997369396968200,6.98496826171875,-0.1136378342143483,0.14291879629055398,-1.0040044294378618
1789997369407038200,6.9950380859375,-3.0750421876216443,-1.9633148075235918,-1.4943011784433375
1789997369417109000,7.00510888671875,-1.244093557330657,-2.4806272085737566,-3.0103138152508513
1789997369427180000,7.015179931640625,0.7033597309110786,-1.5826217720871127,-2.6266273402015248
1789997369437250000,7.02525,-2.692341940679439,0.5610741041271112,-1.1287383161824864
1789997369447321000,7.035321044921875,0.9106008420602794,0.5787394088597362,-1.7238542642949293
1789997369457391000,7.04539111328125,3.4908660393175475,-0.19951299571846812,-2.3571905126684025
1789997369467462100,7.055462158203125,-1.1478084829380801,0.8711302525742441,-1.6495250620074655
1789997369477532200,7.0655322265625,-2.269818514804387,-0.3751758698463663,-1.8057249304440257
1789997369487603200,7.075603271484375,0.8695799846425248,-0.19175513442318892,-2.224780485735248
1789997369497673000,7.0856728515625,-1.6862550182546425,-0.7172425940405759,-2.473197094418939
1789997369507744000,7.095743896484375,-1.1397655973853473,-0.9060693090663342,-1.4759270800402344
1789997369517814300,7.105814208984375,2.4102045599942143,-0.21043937644045532,-1.2873117457547365
1789997369527885300,7.11588525390625,6.208389133331584,2.799542660325404,-0.8781001353034434
1789997369537955000,7.125955078125,-2.340658162387481,1.9573994944737798,0.0862906500828425
1789997369548026000,7.136026123046875,-3.1927479605329547,-3.1723069705443305,0.41434224637615896
1789997369558096100,7.14609619140625,-4.618833319373819,-4.5526532492800404,0.4961867929382825
1789997369568167200,7.156167236328125,-2.173180041123287,-2.8911970798974904,-0.5321126782806572
1789997369578237200,7.1662373046875,4.472371712042879,0.6812726728356613,0.08241045959164899
1789997369588308000,7.176307861328125,3.72292545238157,2.8165433158484894,0.9028796314351794
1789997369598378200,7.186378173828125,-3.087484668165328,2.362700100350995,2.426488872699757
1789997369608449300,7.19644921875,0.14537725060834886,-0.15324991448368733,1.9710975777216277
1789997369618519000,7.20651904296875,1.3896700276825487,-2.5842546303743634,0.731409349520078
1789997369628590000,7.216590087890625,-1.819247714557915,-2.04230369265344,1.3937444658275386
1789997369638660000,7.22666015625,-5.69968998519315,-0.46788207209424965,1.31133707356828
1789997369648731100,7.236731201171875,-2.3891675216959776,0.13790682471912308,1.5309154514026682
1789997369658801200,7.24680126953125,0.9706774264226895,1.2674801921575174,1.766050296692588
1789997369668872200,7.2568720703125,1.660942937973991,0.4180404159815943,0.41337513620693545
1789997369678942200,7.266942138671875,1.7454626947939986,0.6439017002721656,0.00047070508247858784
1789997369689013200,7.27701318359375,-1.7833997985176364,0.5869438663123773,0.4275159142451896
1789997369699083000,7.2870830078125,-4.907198478745614,0.3106548869346547,0.1622529427690779
1789997369709154000,7.297154052734375,-0.2700772950109645,-1.345102776123453,-0.36035174899905265
1789997369719224300,7.307224365234375,5.2756853316381696,0.2901429524840246,-0.5531671102972082
1789997369729295000,7.317295166015625,1.1893972346426236,1.814242337451828,-0.7512880060094571
1789997369739365000,7.327365234375,-2.7567381172675725,1.524434473061917,-0.30876818592201805
1789997369749436200,7.337436279296875,-1.7636801185451405,-1.4556065233114506,-0.4086366080775908
1789997369759506200,7.347506103515625,-3.7753921464998914,-2.3168281206994643,-0.07022891316429916
1789997369769577000,7.357576904296875,1.9359622995106525,-1.4816189638663104,0.999188608652448
1789997369779647200,7.367647216796875,0.26916448627556055,0.21170218497896917,0.7467250991067852
1789997369789718300,7.37771826171875,-1.7883808392235228,-0.22476639643072932,0.8860936037112186
1789997369799788300,7.387788330078125,0.7746608864356702,-0.2457780175125399,0.49738115426561064
1789997369809859000,7.397859130859375,1.3521850513976141,0.8790311059302329,0.6414981425745047
1789997369819929000,7.40792919921875,2.7318889448782713,1.278236844549766,1.0239075820916659
1789997369830000000,7.418000244140625,-0.7008974283792072,1.7920546352450606,2.1810494103640536
1789997369840070000,7.42806982421875,-2.420992094806241,1.361276523300455,1.7805127880802674
1789997369850141000,7.438140869140625,1.2322680854372103,-0.033599570650180814,1.3115654593675163
1789997369860211200,7.448211181640625,2.016278934050476,0.08904092673640153,0.6953154841109939
1789997369870282200,7.4582822265625,-0.8552886893186115,-0.3480137126312563,0.4790883996761748
1789997369880352000,7.46835205078125,-0.32402948316790553,-0.10073905452082617,0.22643863493069044
1789997369890423000,7.478423095703125,1.7524453260570745,0.7821534716896925,-0.8698388191074946
1789997369900493000,7.4884931640625,2.572698770643907,1.5913142261318158,-0.5506442244680121
1789997369910564000,7.498564208984375,0.7371955487144186,1.2206015994050248,-0.2050973462102744
1789997369920634000,7.508634033203125,-1.9325565454877136,0.08538562595616972,-0.5897134447707066
1789997369930705200,7.518705078125,-1.2325621893582226,-0.7049928586570953,0.2012329226689541
1789997369940775200,7.528775146484375,-2.665192967050858,-1.8272324385518142,0.30471252121433384
1789997369950846200,7.53884619140625,1.1498866818116609,-2.576143001546471,-0.623737220592565
1789997369960916000,7.548916015625,3.393631715879994,-0.271035827396019,-0.5838545022314229
1789997369970987000,7.558987060546875,2.564900298778911,3.3412871728388582,-0.2698737683389014
1789997369981057300,7.569057373046875,1.7940633955336713,2.5153696093591567,0.0026743327287066226
1789997369991128300,7.57912841796875,-0.49851417244074514,-0.5662934125741655,1.7649303209045306
1789997370001198000,7.589197998046875,-1.8106177023435115,-2.4757069812333516,1.8288689651860466
1789997370011269000,7.59926904296875,-0.8856467607100539,-1.9952379951993577,0.9115013185723987
1789997370021339100,7.609339111328125,-0.9098078476628464,-0.32737099129343017,0.8048873909962518
1789997370031410200,7.61941015625,1.0016210504457708,0.060037094181316294,-0.048419027684006535
1789997370041480200,7.629480224609375,2.341902977980019,0.7077647272246117,-0.7201713960669067
1789997370051551000,7.639551025390625,-1.1666698208101667,1.1949942614783906,0.09758207874130054
1789997370061621200,7.649621337890625,-1.4603684291938899,-0.4252168529755346,0.26020625036052064
1789997370071692300,7.6596923828125,-0.29612971250279757,-1.352023894776923,-0.07594394674257118
1789997370081762000,7.669761962890625,1.1472870870944534,0.08870658283526424,0.08259109373878656
1789997370091833000,7.6798330078125,-2.0439664494519034,1.0269357708848064,0.5344937580940204
1789997370101903000,7.689903076171875,-4.720295845413695,-1.6362160482793568,0.44099640224534276
1789997370111974100,7.69997412109375,-2.3381414686010347,-1.8847563011265929,0.1402917335884511
1789997370122044200,7.710044189453125,-1.9608971910208253,-0.8208569681779759,-0.3881848949760169
1789997370132115200,7.720115234375,3.432354246438734,0.7103431668220878,-0.3201585258592507
1789997370142185200,7.730185302734375,5.738502367676103,2.2257034675938288,-0.14195736233591408
1789997370152256000,7.740256103515625,0.5814386949393376,4.995264638754627,0.4972628484128667
1789997370162326000,7.750325927734375,-3.0330310607148587,2.3982367950245695,0.7674006502201987
1789997370172397000,7.76039697265625,-3.6594687358197575,-2.5243951758507275,1.8684989516878878
1789997370182467300,7.77046728515625,-1.9684191861446616,-3.8160522111992776,2.209948392814893
1789997370192538000,7.7805380859375,-2.01979143354359,-0.9355034252322453,1.5084366782728267
1789997370202609200,7.790609130859375,0.4534930920227713,1.8527464040155912,2.047502840484547
1789997370212679200,7.80067919921875,3.670311160496549,1.605842140906911,3.239715165664432
1789997370222750200,7.810750244140625,-0.26867560908329535,0.45650062888390464,3.0413021308826194
1789997370232820000,7.820820068359375,-2.8111584610570635,-0.38523219043736284,2.72507833913892
1789997370242891000,7.83089111328125,0.5154650209092725,-1.0409422520099396,2.980136520975865
1789997370252961300,7.840961181640625,0.44790528240720273,-0.8838569817667062,2.915626643869813
1789997370263032300,7.8510322265625,-0.5983955151005539,-0.8656344350713449,3.2780208999419367
1789997370273102000,7.86110205078125,1.5763807424810548,0.33247886814761274,3.3156198209625005
1789997370283173000,7.871173095703125,-2.817436649586141,0.2422099291369075,2.266001204876164
1789997370293243000,7.881242919921875,-0.33585245954923504,-1.3432330459433397,2.6168456134913187
1789997370303314000,7.89131396484375,2.088551931880284,-0.26264698556171423,2.3099862911657465
1789997370313384000,7.901384033203125,2.3207241129852907,1.5390673322944843,1.2594130861358273
1789997370323455000,7.911455078125,1.7562642940203053,2.604070271432276,0.7050937166899239
1789997370333525000,7.92152490234375,3.3260917976223228,1.7993668743215243,0.5240100545965001
1789997370343596000,7.931595947265625,0.6078511404772114,0.06815521383743739,-0.8810643698986189
1789997370353666000,7.941666015625,-3.033277820470965,-2.0377692664880334,0.8135267446717969
1789997370363737000,7.951737060546875,-2.953851994515373,-0.4002075470227458,-0.20511920941495523
1789997370373806800,7.961806884765625,-1.2837225609030831,-0.9327049090789767,-0.9633453349246841
1789997370383878000,7.9718779296875,-1.115236915921643,-1.9983754734374388,-0.25266241992656774
1789997370393948200,7.9819482421875,-0.8537339394497396,-1.5881465765702771,-0.6750569555517973
1789997370404019200,7.992019287109375,4.68037617057516,2.564921890773648,-1.3457440924837516
1789997370414089000,8.0020888671875,7.762846251306818,4.543714504153907,-1.1152905908146193
1789997370424160000,8.012159912109375,1.584989147713328,3.2798514439182207,0.20109805228154354
1789997370434230000,8.02222998046875,-8.546960326850343,-3.15425782512364,1.5998813986090066
1789997370444300800,8.03230078125,-6.129347641334412,-5.603496978443883,1.402813380520514
1789997370454371000,8.04237109375,1.9368781734819356,-4.207112437308369,0.3167337707437342
1789997370464442000,8.052442138671875,8.684685228933953,0.8251737131946294,0.5084443490992143
1789997370474512100,8.06251220703125,5.682205619041662,3.888312667737785,1.1628385861421164
1789997370484583000,8.0725830078125,-4.927347505742431,2.1458691857898824,1.7917073577421407
1789997370494653000,8.08265283203125,-4.565692026420041,-2.5076124990793693,2.0051852481620185
1789997370504724000,8.092723876953125,2.851510901981345,-4.7911823843594465,0.6755763825117361
1789997370514794000,8.1027939453125,5.639094057598171,-2.5830608951788254,-0.38803863569860314
1789997370524865000,8.112864990234375,1.4708758372430957,0.47462124457739446,0.2966971114753871
1789997370534935000,8.12293505859375,-2.8538477798133255,2.628065505367778,0.9468244513399403
1789997370545006000,8.133006103515624,0.42826584948906626,1.2214450061109408,0.9095968665906962
1789997370555075800,8.143075927734374,3.4251700602683344,-0.49184492598674817,-0.42784383250931557
1789997370565147000,8.15314697265625,1.6972561139519515,-0.08553243443416517,-1.1561748394776128
1789997370575217000,8.163216796875,-1.8508581443484566,-0.610220030463672,-0.344467035869302
1789997370585288000,8.173287841796874,-3.284564861275162,-2.558343560172455,0.5648491712226053
1789997370595358000,8.18335791015625,-4.076386423273186,-3.4366255923109343,0.4329297576559491
1789997370605429000,8.193428955078126,4.235328389520291,-0.7004955814493377,-0.604224224067964
1789997370615499000,8.2034990234375,1.8524084163633987,2.3649660379807127,-0.5285694603506574
1789997370625570000,8.213570068359376,-7.783081484266558,1.788148941948296,1.0361215766220313
1789997370635639800,8.223639892578126,-3.9793360967965685,-1.3563093213131918,-0.34797031426808206
1789997370645710800,8.2337109375,2.3664271541461863,-2.4933822539236266,-1.8854583753420264
1789997370655781000,8.243781005859375,4.729204215064773,0.3346114688499475,-1.0046462201874355
1789997370665852200,8.25385205078125,4.581952624636807,3.571861881603534,-0.2817674830164856
1789997370675922000,8.263921875,-3.5938884093686014,4.517925305536734,0.7584241957652373
1789997370685993000,8.273992919921875,-2.2736550817947943,1.8683823050771602,0.4811861884760552
1789997370696063000,8.28406298828125,0.21838816761462057,-3.1849822235141487,-0.16855308159197613
1789997370706134000,8.294134033203125,-2.5641142928175507,-4.831302024955501,0.2496559381570983
1789997370716204000,8.3042041015625,-1.9000669175887979,-1.4840579807248377,0.3848919960940932
1789997370726275000,8.314275146484375,1.3149589020567098,2.573681347619003,-0.1951977223201552
1789997370736345000,8.324344970703125,-0.3074831502211761,2.7764092548040624,0.7553773178033915
1789997370746416000,8.334416015625,1.0631087464735922,2.2775088228398617,0.7705832721423207
1789997370756486000,8.34448583984375,1.5531033978687545,1.1385336932407328,0.1385399613344943
1789997370766557000,8.354556884765625,-0.8929983695147222,-0.09385551265588803,0.3304774252318083
1789997370776627000,8.364626953125,-3.2346090183935194,-2.0133060932710896,2.108815070386443
1789997370786698000,8.374697998046875,-0.5330381046317879,-2.308620379195121,1.4979868361857738
1789997370796768000,8.38476806640625,3.828160015465919,-0.4622151007260111,0.28169120762164324
1789997370806839000,8.394839111328125,0.5556092507669285,1.5434763926484976,1.073625582656269
1789997370816909000,8.404908935546874,-3.80119999954979,1.9745095001894615,1.0809422925932664
1789997370826980000,8.41497998046875,-2.0776573202806046,0.379504355800383,0.49681105726535285
1789997370837049900,8.4250498046875,4.217628727004835,-1.2622763969218909,-0.6305712756563908
1789997370847121000,8.435120849609374,-2.187812621177368,-1.5103066975053359,0.1172812913112146
1789997370857191200,8.445191162109374,-4.455019421124263,-1.3507020933569938,0.1911694782988506
1789997370867262000,8.455261962890624,0.9032834320076472,-1.7950758154919964,-0.9465849299716269
1789997370877333000,8.4653330078125,-0.145417116739862,-0.5224796664286873,-0.7208858095627648
1789997370887403000,8.475403076171874,-1.5839754708011893,0.5259814645776405,0.0842230431300752
1789997370897474000,8.48547412109375,4.754604027753867,1.5641716436512527,0.000998094722053504
1789997370907543800,8.495543701171876,4.180612387244839,2.338619503943635,-1.0720794311256752
1789997370917614800,8.50561474609375,-5.319075779321774,0.8096034830394714,-0.3192709754080136
1789997370927685000,8.51568505859375,-3.127499999442258,-3.9212793882144017,-0.032999079218612754
1789997370937756200,8.525756103515626,-1.013035558920337,-3.6846149936824704,-0.9735421780686484
1789997370947826000,8.535825927734376,-3.0937784571988036,-0.05559392839588332,-1.296240618043018
1789997370957897000,8.54589697265625,1.91369569575107,2.1057163355914468,-1.080847538806995
1789997370967967000,8.555967041015625,5.850700226417826,2.3198745750658705,-1.090710922464922
1789997370978038000,8.5660380859375,1.304314124909115,1.5965026385278662,-0.8590570278594702
1789997370988108000,8.57610791015625,-2.790382942657442,-1.0210655204561312,0.06504162080591303
1789997370998179000,8.586178955078125,-1.8471423947483976,-3.1194307488249136,0.17491480028826809
1789997371008249000,8.5962490234375,-0.11500138703593739,-1.9174674674757115,-0.5209945342973074
1789997371018320100,8.606320068359375,0.9863741325455266,0.34577924417672207,-1.040901537116691
1789997371028390000,8.616389892578125,1.6408744051949433,1.3690237106695082,-0.940379679287276
1789997371038461000,8.6264609375,1.0055575253860896,2.413632501042705,0.038622842698245084
1789997371048531000,8.636531005859375,4.140435137630564,2.2355927357068794,-0.577253708331834
1789997371058602000,8.64660205078125,4.872293782438381,2.7414732011433167,-0.7016063848202592
1789997371068672000,8.656672119140625,1.0375708310570797,0.9937261198662652,0.8520777402258749
1789997371078743000,8.666742919921875,-2.8237602363313266,-1.750304554101527,1.3628848544107899
1789997371088813000,8.67681298828125,-0.44547792793631047,-1.910005575551713,1.2693232789222648
1789997371098884000,8.686884033203125,0.8669993057459301,-1.5140301967533631,0.8193705638298453
1789997371108953900,8.696953857421875,2.519914412165101,-1.4723532071894656,-0.2973880641314739
1789997371119025000,8.70702490234375,1.6910126046592597,1.1299292624301043,0.877291970056179
1789997371129095200,8.71709521484375,0.15538472843284276,1.929573266626666,0.21788790949279951
1789997371139166200,8.727166259765625,1.6217423979820966,0.9630270310233502,0.017309472696547805
1789997371149236000,8.737236083984374,2.3409273974201708,-0.9134410484465115,0.5821815895976783
1789997371159307000,8.74730712890625,-2.7846982310227943,-1.2232770643490343,0.11516297529391221
1789997371169377000,8.757376953125,-5.292561578429707,-1.8653265646472446,-0.3436518707653819
1789997371179447800,8.76744775390625,-2.2099618397092615,-1.1896610472252256,-0.143469756113871
1789997371189518000,8.77751806640625,0.6059972536610172,-0.18076097820648107,-0.49354777061249594
1789997371199589000,8.787589111328124,1.4115946949100515,0.22896379770155456,0.025833571674104498
1789997371209659100,8.7976591796875,-1.2161381640026137,1.4622455328600605,0.9043513182625463
1789997371219730000,8.80772998046875,-0.010536491199538828,1.3444876899594767,1.1286127807282909
1789997371229800000,8.817800048828126,2.0315266502934333,-0.046289707192224874,1.0820186723859404
1789997371239871000,8.82787109375,-3.382896349549515,-0.5237136076165739,1.2535490085342262
1789997371249941000,8.83794091796875,-3.1216995067170092,-0.00716998027969751,0.8892753842017747
1789997371260012000,8.848011962890626,0.0013989541698657918,0.11047600028627004,0.3765100176626371
1789997371270082000,8.85808203125,0.21911879099039022,-0.18325745890217715,-0.21144143935531504
1789997371280153000,8.868153076171875,2.2128385821733296,0.8657061197256665,-0.8840599861789608
1789997371290222300,8.878222412109375,2.0289168757194314,1.0047275677689482,-1.085424926390099
1789997371300293000,8.888293212890625,-4.357793508062856,0.3973329748760187,-0.2151672158309532
1789997371310363400,8.89836328125,-6.872527330693546,-1.926909557723918,0.6488612309952875
1789997371320434400,8.908434326171875,-0.34274169345145383,-2.1469056266147772,0.32795168622221643
1789997371330504200,8.918504150390625,1.8017456012465247,-0.426788242928204,0.09787787392282712
1789997371340575200,8.9285751953125,0.1257030188012374,1.742794678820706,0.9512811891435171
1789997371350645200,8.938645263671875,-3.557774357999066,1.8222240443666955,0.6862121868158926
1789997371360716300,8.94871630859375,1.179369376412233,1.6865956586683277,0.20665639210204162
1789997371370786300,8.958786376953125,5.834436346471262,1.7064821913579342,-0.7599687709289892
1789997371380857300,8.968857421875,-3.2665928272506912,0.6113159838934611,-0.20173974270745748
1789997371390927400,8.97892724609375,-8.82180530903571,-3.2002261063379907,1.159196416558424
1789997371400998400,8.988998291015625,-2.596303013722221,-4.270294991658742,0.1769604879709773
1789997371411068200,8.999068115234374,3.0722312805770295,0.5834061016541469,-0.8221489278358891
1789997371421139200,9.00913916015625,3.3495567771329515,2.917277966676091,-0.7474822468152811
1789997371431209200,9.019209228515624,0.8478367947304254,1.163595500591176,-0.28259830269500663
1789997371441280300,9.0292802734375,-3.9210556274639257,0.8562238424255374,0.6927944936317514
1789997371451350300,9.039350341796874,-5.074326308543081,-0.9715772493954163,1.6065602112776762
1789997371461421300,9.04942138671875,4.233378193060134,-1.9947697026264952,0.38872454351172253
1789997371471492400,9.059492431640624,3.6732787628173273,0.04992980179309002,0.5425104751551229
1789997371481562400,9.069562255859376,-3.5677426275368247,1.018326182081648,1.904465411541256
1789997371491633200,9.079633056640626,-2.755888513072407,-0.4925773016301125,1.624556351200763
1789997371501703200,9.089703125,0.5854066245417046,-3.571719101786309,-0.4064646463987429
1789997371511774200,9.099774169921876,2.8385652451267216,-3.0384634235346804,-1.805481402091507
1789997371521844500,9.109844482421876,4.221264805037807,2.044285634831955,-1.0965982495640494
1789997371531915300,9.119915283203126,0.40882581452924344,4.875446821953587,0.12657905019735108
1789997371541985300,9.1299853515625,-1.197382117334132,2.2395390898352963,-0.110062585841536
1789997371552056300,9.140056396484376,-2.409624898715926,-2.9760769046489135,-1.1248544795540047
1789997371562126300,9.150126220703124,-0.8425958252051117,-3.336980113669546,-1.409124587462475
1789997371572197000,9.160197021484375,2.533250597750973,0.9821435431871587,-1.3287670919844963
1789997371582267400,9.170267333984375,3.653796480125242,2.715587709783544,-0.5330179176948293
1789997371592338400,9.18033837890625,0.28875671198791847,1.7709093639624962,-0.3935640966957916
1789997371602408400,9.190408447265623,1.2220593548965026,-1.853875523100736,-0.7472051465540197
1789997371612479200,9.200479248046875,-1.0343335892547714,-2.5246985422079686,0.3484724387068311
1789997371622549200,9.21054931640625,-1.170397260432362,-0.8201732059259446,0.26389506139831714
1789997371632620300,9.220620361328123,4.160306539336314,0.04850890139251028,-0.16531602968790857
1789997371642690300,9.230690185546877,4.018321437995963,1.8138511297561521,-0.8351560880420091
1789997371652761300,9.24076123046875,1.221081709668392,3.293503629942549,-0.5309211468745804
1789997371662831400,9.250831298828125,-2.3725612147422255,0.23487908309026756,0.5120284706803547
1789997371672902400,9.26090234375,2.173498387722271,-1.83323893289394,0.7200043462874844
1789997371682972200,9.27097216796875,3.7216300635086834,0.14314795676785905,-0.23088746652829692
1789997371693043200,9.281043212890625,0.5929469979810419,1.0850374503126534,-0.1649455790651159
1789997371703113200,9.29111328125,-1.8476215653527621,-0.3551946627854957,-0.08422111981146692
1789997371713184300,9.301184326171876,0.18437397305738745,0.1627915568833152,1.5624769269646495
1789997371723254300,9.311254150390624,2.570928708922147,1.1958713441893343,1.881062849986587
1789997371733325300,9.3213251953125,6.101486033772873,0.772079151682583,0.4542075206387803
1789997371743395300,9.331395263671874,-5.067578964320313,-1.8044319376092453,1.2479167187109836
1789997371753466400,9.34146630859375,-8.293369465544629,-4.018025631786325,1.2910552547079284
1789997371763536100,9.3515361328125,-3.8290063743596785,-3.2236228276344527,1.9161421847780955
1789997371773607200,9.361607177734374,3.6172960284000877,-0.5856971924245865,-0.029703318356348218
1789997371783677400,9.371677490234376,10.397920979960231,1.6079806124321099,-2.423634181938726
1789997371793748500,9.38174853515625,1.2584005360624602,4.722451004275481,-0.2772419050044621
1789997371803818200,9.391818359375,-9.215383575454245,3.977292782828448,1.0260050813812038
1789997371813889300,9.40188916015625,-1.623936304636523,-3.0710403025219124,0.054180017824337956
1789997371823959300,9.411959228515624,3.429574920767217,-5.1298869284987205,-2.2188175468882276
1789997371834030300,9.4220302734375,-3.894574216900639,-3.692505701528489,-2.7195739923270663
1789997371844100400,9.432100341796875,-4.321839550927142,-0.8523281549307542,-0.908855800252298
1789997371854171400,9.44217138671875,-0.09312774719327453,3.017350839513882,-0.7166870004291033
1789997371864241400,9.452241455078124,2.3291963913952873,5.158596833850895,-0.682790558879863
1789997371874312400,9.4623125,1.9487910325487103,0.9760431368193484,-1.3581421244009173
1789997371884382200,9.47238232421875,-4.2949456418801155,-1.8967567447050002,-0.847148912584812
1789997371894453200,9.482453369140623,-7.696293694715336,-1.5463026874476702,1.9664082096382456
1789997371904523300,9.492523193359377,-1.2767074689760771,-2.544728306383588,1.4257720642264573
1789997371914594300,9.50259423828125,5.139706443585578,-2.142996967518768,-0.12977644081864634
1789997371924664300,9.512664306640623,5.752700738660536,2.314919335145735,0.8814542991812099
1789997371934735400,9.5227353515625,-3.048000287468515,2.4547989151702563,2.301593086713217
1789997371944805400,9.532805419921877,-6.527581305559799,1.204224878955319,3.49139952287827
1789997371954876200,9.542876220703125,3.7416173611477794,-0.6562562468564053,2.1338969089245365
1789997371964946200,9.5529462890625,2.512973117154903,-0.9247914318569904,1.588946211626314
1789997371975017200,9.563017333984376,-4.453639501056483,0.23465642776209955,2.483594443455632
1789997371985087500,9.57308740234375,-1.465749554151625,1.1964763687983213,2.1863025178326545
1789997371995158300,9.583158203125,3.6608573244543905,0.6842824397222156,1.275603663427921
1789997372005228300,9.593228271484374,-0.29271724973556146,-0.32398388140889334,-0.4504660463949254
1789997372015299300,9.60329931640625,4.002717153136358,-0.040690197870755326,-1.2267738187669253
1789997372025370400,9.613370361328125,3.2837789078114636,0.6071715265310464,-1.307645240248027
1789997372035440000,9.623440185546874,-3.980574675925821,0.6853307916033845,-0.3082577941710858
1789997372045511200,9.63351123046875,-4.3274402463915305,-1.1582123480040576,-0.5736711423290497
1789997372055581400,9.64358154296875,-0.9422401334992453,-1.5569763890795159,-0.9152388654123237
1789997372065652500,9.653652587890624,-2.3254538214379386,-0.10329915134624898,-1.36901956509816
1789997372075722200,9.66372216796875,-5.129069584260687,-0.2844313955706426,-1.2912832922042732
1789997372085793300,9.673793212890626,-2.5832912534739925,0.2331049579257978,-1.725421054950422
1789997372095863300,9.68386328125,6.033998854196348,-1.430685335607758,-2.4418881757121604
1789997372105934300,9.693934326171876,1.504169143423129,-0.9725373614358757,-2.909942669759123
1789997372116004400,9.70400439453125,-4.599090322252109,-0.8790377973118743,-0.6795800258061241
1789997372126075400,9.714075439453126,-2.0176686695809645,-0.8111292999516327,1.1105715819417343
1789997372136145400,9.7241455078125,-0.4252225094583128,-0.7625922606065947,-0.09606602169158425
1789997372146216400,9.734216552734376,3.5829147707418523,0.7435845435385329,-0.7724162847682697
1789997372156286200,9.7442861328125,8.06605570226753,1.9291842628012557,-0.8630278746688553
1789997372166357200,9.754357177734375,1.0590723701326812,1.668082323586233,0.6420203006737977
1789997372176427300,9.76442724609375,-3.85403607511305,-0.22057845037811133,1.9050521746021203
1789997372186498300,9.774498291015624,1.7689439945067509,-2.558308449815441,1.1278053723120227
1789997372196568300,9.784568359375,2.8908428473812293,-0.9972265944252132,0.14619315786295292
1789997372206639400,9.794639404296875,1.3782880397805215,1.5506011002079298,-1.0780105553766317
1789997372216709400,9.80470947265625,0.841438248253409,2.797416446412688,-0.22339029209620068
1789997372226780200,9.8147802734375,-2.76318338627423,0.8340320102614621,0.13237762589101842
1789997372236850200,9.82485009765625,-1.8808476484117942,-2.2570793971307084,-0.18751884297063942
1789997372246921200,9.834921142578125,0.9424749773639728,-1.5737406062968637,-0.8528350597849448
1789997372256991500,9.844991455078125,2.337216392986065,0.6299271653495774,-0.5022056145964447
1789997372267062300,9.855062255859377,1.477243360521965,1.9642909509678839,-0.16274853042196688
1789997372277132300,9.86513232421875,-1.2552230481061244,1.9991579243355277,-0.6637827251492716
1789997372287203300,9.875203369140625,-1.58649388584913,0.38581809787468374,-1.2607119301576024
1789997372297273900,9.88527392578125,-3.4451778204960224,-2.403520280236477,-0.8722129204841044
1789997372307345000,9.895344970703125,-4.135057747477604,-3.6995867704955545,-0.6402341561562482
1789997372317415000,9.905414794921874,-0.31435265133454554,-0.9629703409770267,-0.7001509984885614
1789997372327486000,9.91548583984375,3.238470363115371,2.247561969070309,-0.534201175222304
1789997372337556000,9.925555908203124,4.111897490775888,1.9605792347535547,0.5148767994646037
1789997372347627000,9.935626953125,1.126119802854797,0.8585858150473196,0.936805632380191
1789997372357697000,9.945697021484374,-1.9184503177213277,-0.08701512616742535,0.010050348814942598
1789997372367767800,9.955767822265624,-1.162460493912888,-1.856312969778542,-0.7227478172892369
1789997372377837800,9.965837890625,0.11063006267003594,-2.9572098365557986,0.2694112224639296
1789997372387908900,9.975908935546874,-2.220235975920433,-0.5211020177643623,0.12004231482017826
1789997372397979100,9.985979248046876,-2.845535132456502,0.37461670491401555,1.1738818051473061
1789997372408050000,9.9960498046875,1.93377512900534,0.7861781498533262,2.183590439389392
1789997372418120000,10.006119873046876,0.7507392160947741,2.3064047378820827,0.9213290988385604
1789997372428191000,10.01619091796875,3.5403407702816896,2.6887208902132804,0.3737833140095477
1789997372438261000,10.026260986328126,0.955719093819489,-0.48122468353668485,0.3835402009747152
1789997372448331800,10.036331787109376,-5.294302196605968,-2.486557357583202,1.1403104204198782
1789997372458401800,10.04640185546875,-3.1691400991124614,-2.4102068470363185,0.1642326340526157
1789997372468472800,10.056472900390624,2.9306438665361245,-0.756281738323136,0.20283120011220857
1789997372478544000,10.0665439453125,1.6593747977124829,2.2702393429514207,0.1105728107828729
1789997372488614000,10.07661376953125,-3.0307439276357413,4.0733649403663845,-0.11201714042632965
1789997372498685000,10.086684814453124,-4.922528141034071,2.8119790899302286,-0.8774523221129185
1789997372508755000,10.0967548828125,-1.0630822068718664,-1.7008542144840613,-0.7056730255923458
1789997372518824700,10.10682470703125,0.09754961746541936,-2.9543772461055364,-0.5781350728264287
1789997372528895700,10.116895751953123,-0.7191709431218994,-2.5915201354034,-0.7882451513665955
1789997372538966800,10.126966796875,0.9785895084445461,0.7503764741009051,-0.1606186725603941
1789997372549037000,10.137037109375,-2.0861385629158375,1.1602531504001632,-0.6238095269829802
1789997372559108000,10.147108154296877,-1.7368878412602025,-0.19972789128711155,-0.5807745417721278
1789997372569177900,10.157177734375,-1.6055935656416451,1.1880302261730922,-0.6775906470825487
1789997372579249000,10.167248779296877,-1.5975492801319473,0.953202872764849,-0.1467530176501658
1789997372589319000,10.17731884765625,1.1878186663205017,-0.29399042609095055,0.38201367413469306
1789997372599390000,10.187389892578125,2.8757754391285477,-0.2100769895563944,0.2698721307759772
1789997372609460000,10.1974599609375,-1.7439874792913517,-0.996257588578602,0.242236984154094
1789997372619531000,10.207531005859376,0.3455885711003614,-0.24169166659599833,0.8371453572568097
1789997372629601000,10.21760107421875,-1.3238206171495595,-0.5392565552047772,0.8924571061248036
1789997372639671800,10.227671875,0.024459727177938383,0.1315497216073406,0.9359304422560039
1789997372649741800,10.237741943359374,1.8781702149640416,-0.41752628632364036,0.7367782006443105
1789997372659812900,10.247812744140624,3.3438795741753395,-1.4232759996841615,0.4310365932213304
1789997372669883100,10.257883056640624,0.5008805771079277,-0.12461003982387672,1.0887548398106792
1789997372679954000,10.267953857421874,0.9409312857171327,0.08899176177087731,0.5630091025438412
1789997372690024000,10.27802392578125,4.97618757015872,-1.731638895337115,-0.9987270895076826
1789997372700095000,10.288094970703124,-0.25678963303538843,-0.9429477131049865,0.6009757919073563
1789997372710165000,10.2981650390625,-1.0925451791158085,1.1687821179994196,0.579604284984235
1789997372720235800,10.30823583984375,2.5922994776942696,0.31772034856786197,-0.5491975738291687
1789997372730305800,10.318305908203126,3.9634212492397003,0.20926341790499167,-1.12578681941005
1789997372740376800,10.328376953125,2.3914025087029316,-0.07791939109145161,-1.6448865532349193
1789997372750447000,10.338447021484376,-3.411748070915848,0.08235775780350796,-1.3535632854989972
1789997372760518000,10.348517822265626,-3.274618765779379,0.5921299863543739,-0.6108417478571042
1789997372770588000,10.358587890625,2.122784336754263,-0.328982291163482,-1.074095616153027
1789997372780659000,10.368658935546875,2.1544595240002913,0.9851577420510307,-1.448557040449763
1789997372790728700,10.378728759765623,3.8916425786691544,2.3117681248065427,-1.5047206207044082
1789997372800799700,10.3887998046875,1.7833446517087252,2.904002940130349,-0.2991732162107966
1789997372810870000,10.3988701171875,-2.8618932149238345,0.5943268531417982,0.5127293973246134
1789997372820941000,10.408941162109375,-3.692887329523637,-1.94838140478433,0.6477193489676341
1789997372831010800,10.4190107421875,-0.37725833405875675,-3.542417976347602,-0.3930615709283449
1789997372841081900,10.429081787109377,-0.5176663281467399,-0.7872289661300158,-0.7501670344348641
1789997372851152000,10.43915185546875,-0.2045791587225403,0.8363283875997187,0.6025359578705636
1789997372861223000,10.449222900390623,-0.8131228971098734,0.27537740757880225,0.889567027909722
1789997372871293000,10.45929296875,0.8701921450540474,0.08160231336851138,1.238155263449422
1789997372881364000,10.469364013671877,1.732048763078836,-0.07515840779045602,-0.31030888014612146
1789997372891434000,10.47943408203125,0.48182273136609205,-0.9596984520058633,-0.2895916584158666
1789997372901505000,10.489505126953125,-2.597735836148873,0.5995328151559968,0.6533042492859098
1789997372911574800,10.49957470703125,0.20068735166774343,1.607821228083736,0.8169371526895886
1789997372921645800,10.509645751953125,2.058300635690977,0.4393881017276449,-0.9058316828793906
1789997372931715800,10.5197158203125,-1.620272746861354,-1.7306185012722313,-1.893486263099128
1789997372941787000,10.529786865234374,-0.8311714753264496,-2.1878216953121514,-1.2620138181504161
1789997372951858000,10.53985791015625,1.6576453793105859,-1.5412416915307272,-0.9497393882700467
1789997372961928000,10.549927978515624,2.208262925661418,-0.3614364974688235,-1.8750838708568824
1789997372971999000,10.5599990234375,1.98196590983158,1.013151356454572,-2.428538105368291
1789997372982069000,10.570069091796874,0.8011982789665703,2.295430472002091,-1.1647124968074076
1789997372992139800,10.580139892578124,-2.4811984789550467,1.8725901585588103,-0.7537565500750119
1789997373002209800,10.590209716796876,-4.87202545071486,-0.6272556845622891,0.16627706425606634
1789997373012280800,10.60028076171875,-0.7617958516452327,-2.337801097071239,-1.2351482514951777
1789997373022351000,10.61035107421875,1.513660809499662,-0.907510094921293,-1.9746754645248494
1789997373032422000,10.620421875,1.290304128379756,0.7352053418990907,0.2182788686418786
1789997373042492000,10.630491943359376,-0.4199249322480674,1.4662300844088085,0.8312453033010504
1789997373052563000,10.64056298828125,-1.4642197954524268,1.9306976791398442,0.3532721975630691
1789997373062633000,10.650633056640626,1.334538779391072,0.7493304266730276,-0.484710786968779
1789997373072703700,10.660703857421876,0.34691373536780906,-0.15899500546873438,0.18523959432105708
1789997373082774000,10.67077392578125,-4.058999914230361,-0.7975641048430789,0.40644332774555836
1789997373092845000,10.680844970703124,-2.4225977446410254,-1.3092613888501436,-0.41134531365359217
1789997373102914800,10.690914794921875,0.0844044833955813,-0.49171244953298887,-0.6986022365391318
1789997373112985900,10.70098583984375,0.9681841340617503,0.9707142402419736,-0.10952794392837965
1789997373123055900,10.711055908203123,-1.1072834634571513,0.7809302063824298,0.3188017929650844
1789997373133127000,10.721126953125,-4.48505546662709,-0.5118154232625153,0.9086380948466148
1789997373143197000,10.731197021484377,-2.047438500664265,-1.6386386642841353,0.3713108665982315
1789997373153268000,10.74126806640625,0.06663129708366594,-0.22737501676296795,-0.29175175790497615
1789997373163338000,10.751337890625,1.507490515037086,0.9052207682183232,-0.12051917029332791
1789997373173409000,10.761408935546877,-2.604217816198523,1.6558179558379273,0.40790485414303723
1789997373183478800,10.771478759765625,-1.5790307759321403,0.7512023918709508,0.2591741391865474
1789997373193549800,10.7815498046875,1.3725805712206185,-1.0463704188969494,0.725474621532926
1789997373203619800,10.791619873046876,3.43052140476414,-1.2590040025655476,0.9328476734648158
1789997373213691000,10.80169091796875,-1.103896643797583,0.5336963484626728,1.9523313234287234
1789997373223761000,10.811760986328125,-0.12491830160268008,1.8648139882084933,2.754244511213398
1789997373233832000,10.82183203125,2.8682845494707836,2.3454558847055194,2.2940984977407464
1789997373243902000,10.83190185546875,0.5933520285794454,-1.1202755823804986,2.5042019297757316
1789997373253973000,10.841972900390624,-3.958664253046463,-2.9581489200890156,2.4037139849339173
1789997373264042800,10.852042724609374,-3.7851509729503903,-2.637219042159864,1.2437406589594746
1789997373274113800,10.86211376953125,-1.1659953539084889,-0.8699836805858422,1.892463982278219
1789997373284184000,10.87218408203125,4.428332129213397,0.860549643799224,1.9949517477067527
1789997373294254300,10.88225439453125,4.776588632436831,2.87289114223581,-0.38130168841644074
1789997373304324400,10.892324462890626,0.5470189114188401,2.6851127998215865,-0.5985757857212384
1789997373314395400,10.9023955078125,-4.398829667428878,0.5487176049062418,-0.8451547622477856
1789997373324465200,10.912465087890626,-2.614603806728535,-2.7316356038742273,-1.782249566711848
1789997373334536200,10.9225361328125,3.587959796968173,-2.7491899450786392,-1.2344012803306426
1789997373344606500,10.9326064453125,1.4057987725088419,-1.0552631537930774,-2.295142595170805
1789997373354677500,10.942677490234376,1.261247374250269,2.9047261952565386,-2.617175361683731
1789997373364747300,10.952747314453124,0.02555823861370286,3.3782828610338127,-0.5840084706068127
1789997373374818300,10.962818359375,-1.9228864819896443,-0.6734327205144949,-0.7501180953928749
1789997373384888300,10.972888427734375,-2.101954195454209,-2.724190653287645,-1.4951864248318458
1789997373394959400,10.98295947265625,4.335726097227513,-1.8051864332509968,-1.0531326808385435
1789997373405030400,10.993030517578124,4.163294578078559,2.3963848871623337,-0.9875812972944492
1789997373415100400,11.003100341796875,-1.9895568867293487,3.051859057305964,0.8631865773936757
1789997373425171500,11.01317138671875,-4.141812257835673,0.0015174157028752385,2.0364147336589142
1789997373435241500,11.023241455078123,-2.2539356881073243,-1.0003062033892192,0.9587736330467064
1789997373445312300,11.033312255859377,0.10897135469090045,-2.0263016955525885,0.9070551518283975
1789997373455382300,11.04338232421875,4.7889670706091465,-1.268399157323037,1.0112670828145036
1789997373465453300,11.053453369140623,0.29312984153092186,0.48354670909582814,1.7783691823880914
1789997373475523600,11.063523681640625,0.1571874463147989,0.5096482624726506,1.7769268627214854
1789997373485594400,11.073594482421877,1.1985770434797665,0.7698073768478387,1.0628772352751608
1789997373495664400,11.083664306640625,2.5403524769984624,1.5071057100717296,1.295871951521341
1789997373505735400,11.0937353515625,5.333032535209606,1.8932888679411557,1.197624988827426
1789997373515805400,11.103805419921876,-2.429775390449277,1.5229760307057025,0.7638541687151744
1789997373525876200,11.113876220703125,-6.3131659061155165,-0.8695003996775826,0.8415586176869012
1789997373535946500,11.123946533203124,2.233042149184961,-2.2120511111193872,0.8065880972417708
1789997373546017500,11.134017578125,0.9090821373622527,-2.1088045072760155,0.633526167440022
1789997373556087600,11.144087646484374,-4.856150316033647,-1.4815802209194144,0.46024342848891925
1789997373566158300,11.154158447265624,1.001314997643612,0.4503451445015906,-0.3801814451301624
1789997373576228400,11.164228271484374,5.030697003381957,2.7517605260267906,-0.475468282034953
1789997373586299400,11.17429931640625,-1.777364878154436,1.0076408846712337,0.9386768527236227
1789997373596369200,11.184369140625,-3.9348828899783688,-1.887155517321224,0.744726054322775
1789997373606440200,11.194440185546876,-3.0588714699521375,-2.4589795176135487,0.44126853501312646
1789997373616510500,11.204510498046876,-1.79511530418052,-0.5846959597307143,-0.04699161871326306
1789997373626581500,11.21458154296875,-0.8281827915883809,-1.0973092303859204,-0.9065669606158434
1789997373636651300,11.2246513671875,1.0694123947616367,-0.2023381052763924,-1.2414232842531874
1789997373646722300,11.234722412109376,3.390954672089476,3.4302968647443683,-1.5542404379889625
1789997373656792300,11.244792236328124,-0.23137844933946547,3.414106154940819,-0.5964584849411392
1789997373666863400,11.25486328125,-7.822841224371236,-1.8347184468113977,1.1759598763971426
1789997373676933400,11.264933349609375,-5.902292244856291,-4.57523316877908,0.49367993661382964
1789997373687004400,11.27500439453125,0.40518165637805353,-1.82476731759603,-0.31815291029740167
1789997373697074400,11.285074462890623,6.186902964135454,2.8306712269319694,-0.1343117906662292
1789997373707145500,11.2951455078125,5.36209279186522,3.583070153554772,0.7669461112833307
1789997373717215200,11.30521533203125,-3.0311051502351276,0.8056989158030774,2.464879668743287
1789997373727286300,11.315286376953123,-6.826074313168321,-1.5951510204106014,2.7627848234204406
1789997373737356500,11.3253564453125,-2.599530366928424,-2.022823298950198,3.077898444778527
1789997373747427600,11.335427490234377,7.5435155934013745,0.31672625017973693,2.4413489370008397
1789997373757497300,11.345497314453125,7.241283532777981,3.395444623850947,2.2100605012663195
1789997373767568400,11.355568359375,-4.231483336622713,3.7428055893355388,3.9719053915426765
1789997373777638400,11.365638427734376,-7.0415975462484255,-0.8260744138596182,3.323864015512874
1789997373787709400,11.37570947265625,-0.4428465004472863,-4.677484941525977,2.3665969819593093
1789997373797780200,11.3857802734375,5.051741775463782,-3.0217920539377547,2.6721734198935345
1789997373807850200,11.395850341796876,3.04261174798644,1.993536094918342,1.9381484479731799
1789997373817921300,11.40592138671875,3.1285970182228326,3.3030523280023205,0.5445912676842182
1789997373827991600,11.415991455078125,-2.042259620692373,1.4593194206792144,0.674717156757868
1789997373838062300,11.426062255859376,-4.5647665670004605,-3.393859031882145,0.5781589018873278
1789997373848132400,11.43613232421875,0.9877059931753529,-3.662955034775911,0.11937203525668015
1789997373858203400,11.446203369140624,0.3638640621825009,-0.0826125162213707,0.1184261940738285
1789997373868273200,11.456273193359374,0.028720486324468015,1.5657526283181493,-0.48459361422980185
1789997373878344200,11.46634423828125,-0.9081387821212344,-1.2343669076442332,-0.3693758257314749
1789997373888414500,11.47641455078125,-1.5097007669526514,-3.5853644816401116,-0.23811038175528393
1789997373898485500,11.486485595703124,1.4230936405753085,-2.113071026738651,-0.27435787677486023
1789997373908555300,11.49655517578125,1.219265156296429,1.3162811177100868,-0.9145538864241396
1789997373918626300,11.506626220703126,1.9601370836248473,2.055531011538767,-0.04508084228568704
1789997373928696300,11.5166962890625,2.3931455267916473,1.716273517719014,0.6694074605122423
1789997373938767400,11.526767333984376,2.108330820162549,0.48171398763757345,0.20139514416648166
1789997373948837400,11.53683740234375,-3.870237840782446,-3.9269088253221067,1.0460714520764447
1789997373958908400,11.546908447265626,-3.2364769391334773,-4.208268043898707,1.7261594447138178
1789997373968978400,11.556978515625,2.5651384632730045,-0.6770336945563976,0.6593272062636073
1789997373979049500,11.567049560546875,4.192214180346758,2.0140188918130657,0.14321163713171037
1789997373989119200,11.577119140625,1.8901899307899472,1.9089840102252447,0.8709964207644637
1789997373999190300,11.587190185546875,1.5225644689619944,-0.009959831389662744,0.9878521933662613
1789997374009260500,11.597260498046875,-0.25096235798103184,0.24368726043803296,0.5208923471336918
1789997374019331300,11.607331298828123,-3.0229553849001594,-0.3897268788831919,1.1669859223463825
1789997374029401300,11.6174013671875,1.3723057218584618,-0.0353175915622971,-0.2212581570791053
1789997374039472400,11.627472412109377,2.01144875298274,0.34016131972037483,-0.7199940896482773
1789997374049542400,11.63754248046875,-2.790664277870755,-0.3351200781241008,-0.19809223976323231
1789997374059613400,11.647613525390623,-1.2188530436036933,-0.4558662513779937,-1.288214542821324
1789997374069683200,11.65768310546875,2.763201749628049,-0.5298585932475921,-0.713029282454748
1789997374079754200,11.667754150390625,3.4980717430670514,0.2549565774908768,-0.34399391845519073
1789997374089824500,11.677824462890625,1.7411409762323384,1.6102605463934383,-0.9100079699192231
1789997374099895600,11.6878955078125,-0.03313857087259435,2.634703679112353,-0.052399120134846586
1789997374109965300,11.69796533203125,1.2008692726719927,0.344055348465518,0.04297925981648576
1789997374120036400,11.708036376953125,0.49812413798483224,0.021114863929686055,-0.6830725172405754
1789997374130107400,11.718107421875,-2.20476264902014,-0.3794582022189898,-0.05111807823576833
1789997374140177400,11.728177490234376,-1.243704102362995,-1.987472191519169,0.44858996946153534
1789997374150247400,11.738247314453124,-0.10109985120932953,-0.6941519318206606,0.4573342467496568
1789997374160318500,11.748318359375,-0.5657158100276969,1.0892192404340375,1.3614950255680103
1789997374170388500,11.758388427734374,-0.7774461556452696,0.16005048924158202,2.840661395635593
1789997374180459300,11.768459228515624,-1.0864002228584495,-0.5430303734663465,2.012021474466977
1789997374190530300,11.7785302734375,-0.9707661575541227,0.6662170423095399,1.9017408867645857
1789997374200600300,11.788600341796876,-1.0639255438415,-1.574907258660123,2.1498161475893705
1789997374210671400,11.79867138671875,-4.0731732924304636,-3.2639737178229202,1.78704427728981
1789997374220741400,11.808741455078126,-1.6795347571626917,-0.9089072812879871,1.8407028883247156
1789997374230812400,11.8188125,3.9700115715154114,1.289426723216273,1.513901543591688
1789997374240882400,11.82888232421875,3.085285828944513,3.2739742130682035,0.9735535623561975
1789997374250953500,11.838953369140626,-0.6708167104712813,2.102295634642477,1.0314998083489881
1789997374261023200,11.849023193359375,-3.852190306448059,-0.09579877543623237,1.7543793367216474
1789997374271094300,11.85909423828125,-4.598038963566873,-3.111011047294106,1.6334868080710718
1789997374281164300,11.869164306640624,-0.1828709329790884,-4.183368932132068,1.4962271399734401
1789997374291235300,11.8792353515625,2.850474560085298,-0.3718375463922459,1.2264084160438014
1789997374301305600,11.8893056640625,0.8631507015206877,3.838441299089233,0.768651035685463
1789997374311376600,11.899376708984375,-1.8677963656593843,1.4673215735767888,0.8627324792005887
1789997374321446700,11.90944677734375,-2.1029083982387733,-1.8537544387978517,0.7503608309564864
1789997374331517700,11.919517578125,-0.2697547789318856,-1.5000004019315627,0.13657313713030006
1789997374341587500,11.92958740234375,3.760730194178368,-0.21395519823182382,-0.5561679724355827
1789997374351658500,11.939658447265623,-1.1507149418054474,0.9320668587926118,-0.17383903303927933
1789997374361728800,11.949728759765623,-4.52410034277535,1.7665124691869287,-0.25475962711535066
1789997374371799800,11.9597998046875,-0.4852840591009452,0.6763483667352277,-0.5380793120162348
1789997374381869600,11.96986962890625,0.7696549578346243,-0.5042331959358388,-1.005103739654718
1789997374391940600,11.979940673828125,0.44250625867944854,0.061878535777811106,-0.45593489461484626
1789997374402010600,11.9900107421875,0.4280555582579553,-0.5800136626511805,0.029121092521124572
1789997374412081700,12.00008154296875,-2.084078286736911,-1.0219443044726855,-0.05451446590684704
1789997374422151700,12.010151611328125,-2.8158051086331457,-1.532153690310523,-0.15768771817100477
1789997374432222700,12.02022265625,2.8066287350420662,-0.796987592420384,0.7615551213903926
1789997374442292700,12.030292724609374,5.11934228615484,0.8465290144203755,0.24753188870212725
1789997374452363800,12.04036376953125,-1.1852314412635931,1.732093402104415,0.5187090274385231
1789997374462433500,12.05043359375,-4.322394275813268,0.9414136045603301,1.4609257831970779
1789997374472504600,12.060504638671874,2.477448407401486,-0.7995432016574863,0.8289078959334657
1789997374482574600,12.07057470703125,4.869934092120978,-0.8808322612299303,-0.09527387674611251
1789997374492645600,12.080645751953124,0.44748188711434794,0.6574105395116456,0.948968686195699
1789997374502716400,12.09071630859375,-1.079619937212552,0.5958320260145425,1.6133464242513678
1789997374512786700,12.10078662109375,-2.0404034893132827,-0.23425055061751154,1.9747760235142877
1789997374522857700,12.110857666015624,-1.8904384831450383,-0.9052696117831853,1.4690047496429766
1789997374532927500,12.120927490234376,3.1613617818304767,-0.8843417492120869,0.24891112715126834
1789997374542998500,12.13099853515625,2.6317597913783,-0.22076137379218252,-0.9611970701693138
1789997374553068500,12.141068603515626,-1.102349029340142,1.8525804267781196,-0.4455588732701645
1789997374563139600,12.1511396484375,1.0278131334855942,1.528191776075193,0.01426719644591616
1789997374573209600,12.161209716796876,1.7076175640917388,-0.5375752880965212,-0.24058418209761473
1789997374583280600,12.17128076171875,0.3576091634509682,-2.357557272981602,-0.38778324798063024
1789997374593350700,12.1813505859375,-0.403198540298085,-1.7415225063062927,-1.0715071389070545
1789997374603421700,12.191421630859375,-0.8332820906268738,-1.0590704771530413,-1.3897660956678695
1789997374613491500,12.201491455078123,-0.30159413969952237,-0.8037662687297044,-0.8418277319172011
1789997374623562500,12.2115625,-0.12980075215918202,0.6001985510306014,-1.0098984066411827
1789997374633632800,12.2216328125,3.853734412441616,2.812921391224218,-0.8759054631664073
1789997374643703800,12.231703857421875,0.7768380194188446,2.307864649446901,-0.4811360503799211
1789997374653773600,12.241773681640623,-2.436186421090366,0.019263816913801458,0.26618633962565413
1789997374663844600,12.2518447265625,-2.120640201856617,-1.019146500924288,0.4478906028292405
1789997374673914600,12.26191455078125,-0.581236893560746,-1.1818893784563356,0.017780967114824537
1789997374683985700,12.271985595703123,0.8764709237635755,-0.41224232898704405,-0.19015176946151247
1789997374694055700,12.2820556640625,0.4873727402851874,-0.021903926250160976,-0.44996416175735493
1789997374704126700,12.292126708984377,-2.5524386868634426,-0.26912232733280145,0.23761090797513387
1789997374714196700,12.30219677734375,0.9870022009316726,-0.09603182922162228,0.4438024782681824
1789997374724267800,12.312267822265625,2.2970196471943916,0.1903399622717064,0.31399703253081584
1789997374734337500,12.322337646484376,-0.5430791909162148,-0.8356585674228211,0.5230133624908343
1789997374744408600,12.33240869140625,-0.5400399875354183,-0.028837727990508006,0.721639141347691
1789997374754478600,12.342478515625,-2.2977209076962843,1.1863705477245403,-0.728450103422577
1789997374764549600,12.352549560546874,1.6622713181031452,1.5487220840866067,-0.8545342546688561
1789997374774619600,12.36261962890625,7.032090830958011,1.488013248527185,-0.8932865231330479
1789997374784690700,12.372690673828124,-1.566724769086913,2.2126561284881032,-0.21686946330092258
1789997374794760700,12.3827607421875,-6.567734986885532,-1.98492729416577,0.4913811086797908
1789997374804831700,12.392831787109374,-2.704277523260452,-3.8876540863921107,-0.8265914005356569
1789997374814901500,12.402901611328126,2.6307637046527366,-1.9179263447195174,-1.6458589914524047
1789997374824972500,12.41297265625,2.8402503211552235,0.5675747595439347,-0.03690618889235308
1789997374835042800,12.423042724609376,0.599122785099126,1.671457045883001,0.9830960384226471
1789997374845113600,12.433113525390626,-3.454521131117381,2.4121857042097274,1.7928433876632726
1789997374855183600,12.44318359375,-2.3316702135665883,1.1024049012632782,2.1855768275758276
1789997374865254700,12.453254638671876,2.152700652595915,-1.1669980689339265,1.621269101923102
1789997374875325700,12.46332568359375,0.36201803952149464,-1.9504597442307732,0.7846958531728699
1789997374885395500,12.4733955078125,-4.996315168164087,-0.49719709700422243,0.8614395858297295
1789997374895466500,12.483466552734376,-2.4506805783487384,-0.18735408126969866,0.7281544643344595
1789997374905536800,12.493536865234375,0.9801467321803801,0.045307357512562915,0.7055243105143771
1789997374915607800,12.50360791015625,2.99232638077761,-0.22213799571720297,0.9915312786112075
1789997374925677600,12.513677490234375,1.9434111905657323,1.7247755276513053,1.9883379389247546
1789997374935748600,12.52374853515625,-2.9301324999235963,2.3304115748349896,1.6168398042254357
1789997374945818600,12.533818603515623,0.8034796629437153,-0.1851449537531814,0.019630997236512838
1789997374955889700,12.5438896484375,2.7382458458373686,-2.3512237082574936,-0.8715409323537425
1789997374965959400,12.55395947265625,1.0367689427529743,-1.5052696554039366,-0.8992500012322243
1789997374976030500,12.564030517578123,-2.6366949655620497,0.4330378614343703,-0.3836495998360075
1789997374986100700,12.574100830078123,0.8747380704780032,0.12224753482325963,-0.5301942757545974
1789997374996171800,12.584171875,2.996630566178765,1.058257300426477,-0.544206832372682
1789997375006241500,12.594241455078125,3.777725930304607,0.5145916156844892,0.3648336168691485
1789997375016312600,12.6043125,-0.5543040201820151,0.8145244287644979,1.0936763324051957
1789997375026382600,12.614382568359376,-3.950502576365987,-0.242421318999377,1.2315243209612203
1789997375036453600,12.62445361328125,0.025172095135779653,-0.05640452937852869,-0.040241415440016755
1789997375046523600,12.634523681640625,0.0604694827981437,0.5947499748079896,-0.7423628167794418
1789997375056594700,12.6445947265625,1.8363759456700586,1.801408346336229,-0.559863293024505
1789997375066664700,12.654664794921874,5.308130936382452,0.8473870592736732,-0.4756491357251865
1789997375076735700,12.66473583984375,2.2052847961418163,0.46441907150117934,-0.04588168821093036
1789997375086805500,12.674805419921874,-0.2591232157705127,-2.0338082717990993,0.5061709253000343
1789997375096876500,12.68487646484375,-1.09243428300914,-1.0297344376402684,0.44859396141034097
1789997375106946800,12.69494677734375,-0.47193866879249197,0.16743761623397266,0.17052409317365103
1789997375117017900,12.705017822265624,-1.174715409696209,-0.3640005218957211,0.025996240727733735
1789997375127087600,12.715087646484376,-2.726416781908639,-0.46915891684343686,-0.2828117276855852
1789997375137158700,12.72515869140625,1.4374349937932378,0.5093686169251778,-0.9048405444024391
1789997375147228700,12.735228759765626,2.195823052094237,-0.26620017130539736,-1.5080387942641664
1789997375157299500,12.745299560546876,-1.0600281632902109,-1.409423170007536,-0.5223012615885264
1789997375167369700,12.75536962890625,-3.0982255444251283,-0.9932030597864714,-0.13415253301867763
1789997375177440800,12.765440673828126,1.5096495340075473,-0.8165651856710928,-1.8069616840164973
1789997375187510800,12.7755107421875,2.133772126884838,0.27304139596475124,-1.7923341766303758
1789997375197581600,12.78558154296875,-0.36143645698999727,-0.040408663409503866,-0.6121051026078054
1789997375207652600,12.795652587890626,-3.0063327697687274,-0.626588140054536,-0.003181372156552409
1789997375217722600,12.80572265625,-1.5327802492833595,-1.1357915790642372,-0.2835141937945936
1789997375227793700,12.815793701171875,-0.2555634482132371,-1.5905251024001417,-0.7321320169575851
1789997375237863400,12.825863525390623,2.5327283981217024,-0.6041846829550291,-0.7041966775247916
1789997375247934500,12.8359345703125,2.7761783580264647,2.6022642955384274,-0.8337708848338613
1789997375258004700,12.846004638671875,1.289191148678836,3.3606039589610255,-1.2538756569816731
1789997375268075800,12.85607568359375,1.446284495751147,2.693266132187545,-1.3391579922738588
1789997375278145500,12.8661455078125,0.7962426000477797,1.5286306443197457,-0.5455638054263298
1789997375288216600,12.876216552734377,-1.313353786833293,-0.9627240067040277,0.7083816394964518
1789997375298286600,12.88628662109375,-5.65447429385465,-3.9509204674413794,0.5902414881647969
1789997375308357600,12.896357666015623,-4.664584598712748,-4.115982945457313,0.7352597213590059
1789997375318427600,12.906427734375,2.0737594385020857,-0.1344050626228066,-0.02571994983374275
1789997375328498700,12.916498779296877,5.914388023974488,4.716871526705569,0.3653264818085693
1789997375338568700,12.926568603515625,1.517551752219655,4.660349030220393,1.334497775678346
1789997375348639700,12.9366396484375,-5.00874616406863,1.1265819075356598,1.3512142464043904
1789997375358709500,12.94670947265625,-3.7537187435358863,-2.5092309457127837,0.16273329431531727
1789997375368780500,12.956780517578125,0.9935817377708034,-3.949660703465629,-0.30817682124615936
1789997375378850800,12.966850830078124,0.7314122527302231,-2.541638475170469,-0.8498064997897985
1789997375388921900,12.976921875,-2.4591271960316425,0.5760247476740481,-0.04343314518694668
1789997375398991600,12.98699169921875,-0.3313338140905119,1.2002099047753017,1.2205662959528336
1789997375409062700,12.997062744140624,0.5035124839986159,0.43506156662486956,0.8419392097937723
1789997375419132700,13.007132568359374,1.0170538544234382,-0.3847519646074944,0.5588459623246551
1789997375429203500,13.017203369140624,1.703432178095222,0.3464987869180349,0.2899694964728324
1789997375439273500,13.0272734375,-0.30131152175317705,0.9963525778111926,-0.3407589139534496
1789997375449344500,13.037344482421876,-1.315595315477649,0.7917735383451543,-1.536315081345664
1789997375459414800,13.047414794921876,0.7649065550418117,-0.9047757920574369,-0.981558128630878
1789997375469485600,13.057485595703126,0.6124966412621425,-1.691461810318873,-0.9298761422791489
1789997375479555600,13.0675556640625,0.4708613182003364,-0.057906666882708326,-0.9039136573360594
1789997375489626600,13.077626708984376,-2.658480491207006,-0.2680129346985753,-0.07733866900531403
1789997375499696600,13.087696533203124,-1.9920914102143268,-1.1056992603029614,0.7272300782164641
1789997375509767400,13.097767333984375,-0.4683521541935655,-1.3163685435418122,0.46898058317006863
1789997375519837700,13.107837646484375,0.6153199911805012,0.14319747865917012,0.06559350667556516
1789997375529908700,13.11790869140625,1.0618528251889032,2.6452771897447764,-0.29854972056836127
1789997375539979800,13.127979736328124,0.45480728205571475,2.8123318706969105,-0.31143235496700405
1789997375550049500,13.138049560546875,-1.0138853558089687,1.1100787070624287,0.1578161791567609
1789997375560120600,13.14812060546875,-1.1149882142987932,0.17338044624592402,-0.221033974049639
1789997375570190600,13.158190673828123,-1.1554961027299944,-2.33542296441557,-0.7221331479670742
1789997375580261600,13.16826171875,-1.663397533172496,-4.16900848753881,-0.5392697475159075
1789997375590331600,13.17833154296875,0.7844235095930838,-2.5157184257732,-0.848020356394817
1789997375600402700,13.188402587890623,1.7255093027393966,1.803574697615624,-0.05312652402605441
1789997375610472700,13.19847265625,-0.07440552632135491,2.8082454965777894,0.9556906411757983
1789997375620543700,13.208543701171877,0.6313049137920818,1.1315850515409709,1.1681057422881216
1789997375630613500,13.218613525390625,2.7090713934469974,1.425997265695559,0.7146187729008011
1789997375640684500,13.2286845703125,4.491259851292429,0.7004801927587087,1.0323211056823476
1789997375650754800,13.2387548828125,0.744602423558201,-0.6584015655869563,1.9904164761031624
1789997375660825900,13.248825927734377,-3.9716596962334005,-0.18888896848380124,1.9698871696797475
1789997375670895600,13.2588955078125,0.03660677471915754,0.026601618748202112,0.8539058455090419
1789997375680966700,13.268966552734376,2.902829706788943,-0.48926005267218203,-0.8797489140604725
1789997375691036700,13.27903662109375,-0.5277922079641005,-1.359737175201167,-1.013011605383007
1789997375701107700,13.289107666015624,-3.792086827756149,-2.4097802339009555,-1.1521968201006527
1789997375711177500,13.299177490234374,-1.1108240706847967,-1.3305102541274254,-1.9082097476539552
1789997375721248500,13.30924853515625,2.1769329900957572,1.3628845165151047,-2.1344904377855998
1789997375731318800,13.31931884765625,5.3565448865056196,0.9921121473371389,-1.9052437629154668
1789997375741389600,13.3293896484375,2.391653343563394,0.951133998429066,-2.0627549630601667
1789997375751459600,13.33945947265625,-1.113605600862638,1.2269037393718116,-2.3051471070351806
1789997375761530600,13.349530517578126,-3.1712532225128696,0.10724480521636878,-0.6407090203011889
1789997375771600600,13.3596005859375,-2.0880078049594797,-1.7795234382388212,-0.7477704900110408
1789997375781671400,13.36967138671875,-0.9244802996309459,-3.6843236524520395,-0.807709175722619
1789997375791741700,13.37974169921875,-1.0153574129705798,-1.8067281295113724,-1.0863903533864838
1789997375801812700,13.389812744140626,-1.591762724630024,2.1381395248442305,-0.5796950919012388
1789997375811883800,13.3998837890625,0.10429425207520931,1.3432148975385862,-1.5018934711334255
1789997375821953500,13.40995361328125,1.1753390240317918,0.1330873838196931,-0.17900781316651695
1789997375832024600,13.420024658203126,-0.6278537198564867,1.3486539295400977,0.705187512599014
1789997375842094600,13.430094482421875,2.1991393728559805,0.33358680597265233,0.6627816050540916
1789997375852165600,13.44016552734375,0.37845169287233377,-0.8261842548228827,0.4854309598244187
1789997375862235600,13.450235595703123,-6.044548449074883,-1.1649366929480622,0.6004652128522064
1789997375872306700,13.460306640625,0.30529154396936314,-1.1758378514758883,0.9167097061200146
1789997375882376700,13.470376708984375,3.6782782754657797,0.515755833987959,0.14023002358456232
1789997375892447700,13.48044775390625,-2.334704864122124,1.4196080263791104,0.1956720609222423
1789997375902517500,13.490517578125,-4.088027178520538,-2.559237734995614,0.7969325917085139
1789997375912588500,13.500588623046877,-2.288382669942469,-2.0765896933112113,1.3693508819586966
1789997375922658600,13.510658447265625,-1.110301606015858,0.26999426996781656,1.2483085894491939
1789997375932729600,13.5207294921875,4.827478478321498,0.8253057490811361,0.9773009999763753
1789997375942799600,13.530799560546876,6.787988325663299,1.7984246666949864,0.7938540360711512
1789997375952870700,13.54087060546875,2.5322643050059943,4.083541391819273,0.5326864172698735
1789997375962940700,13.550940673828125,-5.740653914471061,0.5212801041622622,0.2196672113346327
1789997375973011700,13.56101171875,-6.673945917326003,-2.9679347689821207,0.7984859255976966
1789997375983081500,13.57108154296875,0.5031285175657384,-2.74051509372074,-0.34015599932055035
1789997375993152500,13.581152587890625,3.4442556907343027,-0.05671859787194901,0.5767366075113401
1789997376003222800,13.591222900390624,-1.5945796684858116,0.8524739450441882,1.2969359044324422
1789997376013293800,13.6012939453125,-0.6445596913983102,1.6062322486895442,0.06472587825113639
1789997376023363600,13.611363525390624,1.8836566252640956,1.370449161115924,0.2135574955373701
1789997376033434600,13.6214345703125,2.019859912272312,0.6883491936407018,0.22491360789570833
1789997376043504600,13.631504638671874,1.814894034495515,-0.07686770539750587,0.5238499030391185
1789997376053575400,13.641575439453124,-4.598152144765612,-1.232763940618064,1.667539015318167
1789997376063645700,13.651645751953126,-5.856742112323235,-2.9497201356113703,1.672114789934402
1789997376073716700,13.661716796875,2.1660904890815815,-2.8663792504854553,0.21214780715230933
1789997376083786800,13.671786865234376,5.365876089850891,1.8511509200666054,0.05998505168307915
1789997376093857500,13.681857421875,4.410054077269151,4.060602666689602,-0.5881178956093553
1789997376103928600,13.691928466796876,-1.1880957364411695,2.0251309393444674,-0.5516653820803771
1789997376113998600,13.70199853515625,-1.392602504997727,-0.11839990917284578,0.2755285360265891
1789997376124069600,13.712069580078126,0.09272695204245114,-1.9924444212024872,-0.05750525267384168
1789997376134139600,13.7221396484375,0.012567894104328308,-2.5124725691877456,-0.3468023702893261
1789997376144210700,13.732210693359375,-1.0102985776399147,-0.8152745343214086,0.3103534179998271
1789997376154280700,13.74228076171875,-1.7851614481855325,0.9069078166799409,0.15055135565517727
1789997376164351700,13.752351806640624,1.7412514625866273,0.8703556784360903,-0.5303027916830596
1789997376174421500,13.76242138671875,4.930566766387964,1.0055418136285217,-0.6694865304464527
1789997376184492500,13.772492431640623,0.5124474030162437,0.3541010294882929,-0.008334097246960553
1789997376194562600,13.7825625,-4.393387047151138,-0.8950755214809343,0.9617916321829599
1789997376204633600,13.792633544921877,-4.432914978219617,-2.722842735811349,1.0893290449807822
1789997376214703600,13.80270361328125,-3.0443058521401634,-1.594342651537069,0.7265631073041044
1789997376224774700,13.812774658203123,6.6947318656227415,1.7877880370907797,-0.5053864778226499
1789997376234844700,13.8228447265625,10.060048859229346,3.3416988777804355,-0.6637327454343569
1789997376244915700,13.832915771484377,-1.2587184473112953,2.8999156200567806,0.02827346572645492
1789997376254985500,13.8429853515625,-4.869313140567538,0.0836327707976171,1.601790360206703
1789997376265056500,13.853056396484376,-1.4014667944338333,-3.7355249460152997,1.792544869621611
1789997376275126800,13.863126708984376,-1.1456561109714145,-3.659386887836374,0.7789615884723665
1789997376285197800,13.87319775390625,1.2293713697738802,-0.6007420971298193,0.05773563993406284
1789997376295267800,13.883267822265625,1.300750213602968,1.288529148219384,0.11222657043605788
1789997376305339000,13.8933388671875,-1.5810711809283469,0.8409331802271495,0.01298393449698423
1789997376315409000,13.903408935546874,1.8419347058560667,-0.059193410284683744,-0.04958059206462913
1789997376325480000,13.91347998046875,3.667813701517071,0.582250681178752,0.3626803522657166
1789997376335550000,13.923550048828124,2.704259647154984,2.7623878513304314,0.6642857916391173
1789997376345621000,13.93362109375,-0.9326485912164287,2.133533403026776,0.6564551844162945
1789997376355691000,13.94369091796875,-5.321018640322652,-2.1552889401245836,0.3341792102686825
1789997376365762000,13.953761962890624,-4.849012916224926,-3.5363547745493813,0.25469329500860144
1789997376375833000,13.9638330078125,1.5364423360500954,-1.9780623588707575,-0.33000628068007526
1789997376385902800,13.97390283203125,3.4377351149357565,1.2540664059789977,-0.5536192098039698
1789997376395974000,13.983973876953126,-1.3866111375887695,3.0540543846594534,0.8640097233301138
1789997376406044000,13.9940439453125,-1.6666374636611432,1.6483931174681228,1.2678059068029919
1789997376416114700,14.00411474609375,-1.9265768948201676,-1.9786831758399572,0.37497084839269
1789997376426185000,14.01418505859375,-1.6264783522134734,-2.625944335071565,0.231283137195044
1789997376436256000,14.024256103515626,-0.6715619220116661,-0.029162818900279597,0.9833647801180023
1789997376446326000,14.034325927734375,-1.3227487111874008,0.72530231250315,0.6978107491434016
1789997376456396800,14.044396728515624,1.5096316236173222,1.0216215712183496,0.1344394719091434
1789997376466466800,14.054466796875,0.4824244325196313,-0.3325435859923959,1.111806482938036
1789997376476537900,14.064537841796875,-2.4975513486295604,-0.7403415446489705,2.2425991494300637
1789997376486608100,14.074608154296875,-0.33829440354631485,-0.30258665953124736,1.3419893141249002
1789997376496679000,14.084678955078124,-2.60005869776593,0.007912589270199841,1.3694574952872007
1789997376506749000,14.0947490234375,-4.465753846856039,0.3167307949230997,1.3220990411186153
1789997376516820000,14.104820068359375,4.682643596894379,0.7925301700085703,-1.073834468635082
1789997376526889700,14.1148896484375,5.916051970083989,1.3609246976007852,-0.5465161851665403
1789997376536960800,14.124960693359377,-1.4346560602825233,1.3005686716402018,-0.2954005399488259
1789997376547031000,14.135031005859377,-4.34149033376222,-1.9742007309540852,-1.927394393405678
1789997376557102000,14.14510205078125,-1.0723000699465626,-4.410159975676114,-1.4868801404699052
1789997376567171800,14.155171875,-0.9897943257995229,-2.7820566091601266,-0.5870922302243108
1789997376577243000,14.165242919921877,0.32507108604925067,-0.44462793879001394,-0.958751790641699
1789997376587313000,14.17531298828125,0.16616958156988695,1.593497113397928,-0.8132201633364793
1789997376597384000,14.185384033203125,-2.072828372081448,2.0369408083440885,-0.9599330065186749
1789997376607453700,14.19545361328125,2.4948457633775334,0.8948581515021321,-1.0207077825715205
1789997376617524700,14.205524658203124,4.218331150648145,0.14678086517751782,-0.22619032279437148
