time,seconds_elapsed,z,y,x
1791052395603317500,0.1923173828125,0.027775000780820847,-0.31308749318122864,-0.2204124927520752
1791052395612950300,0.2019501953125,0.1266375035047531,-0.28008750081062317,-0.5832750201225281
1791052395622583800,0.211583740234375,0.08153750002384186,-0.30332499742507935,0.24392500519752502
1791052395632217300,0.22121728515625,-0.006462499964982271,-0.5513749718666077,1.0527000427246094
1791052395641851000,0.230850830078125,0.2391124963760376,-0.056512501090765,-0.19593749940395355
1791052395651484700,0.240484619140625,0.11563749611377716,0.30387499928474426,-0.9876624941825867
1791052395665934800,0.254934814453125,0.17434999346733093,-0.24598750472068787,0.47478750348091125
1791052395675568600,0.264568603515625,0.26963749527931213,0.08511249721050262,-0.6467999815940857
1791052395685202000,0.274201904296875,0.1658249944448471,-0.17379999160766602,0.11921250075101852
1791052395694835500,0.28383544921875,0.11329999566078186,-0.3998500108718872,0.893750011920929
1791052395704469000,0.293468994140625,0.23058749735355377,-0.16775000095367432,0.24268749356269836
1791052395714102800,0.303102783203125,0.25987499952316284,0.1658249944448471,-0.5783249735832214
1791052395723736300,0.312736328125,0.2488749921321869,0.03135000169277191,-0.2264624983072281
1791052395733370000,0.3223701171875,0.2964499890804291,-0.021175000816583633,0.16073749959468842
1791052395743003400,0.33200341796875,0.2793999910354614,0.1120624989271164,-0.2777499854564667
1791052395752637200,0.34163720703125,0.24639999866485596,-0.05898749828338623,0.4442625045776367
1791052395762270700,0.351270751953125,0.40521249175071716,-0.07369999587535858,0.5102624893188477
1791052395771904300,0.360904296875,0.631262481212616,0.3917374908924103,-0.7041375041007996
1791052395781537800,0.370537841796875,0.6422625184059143,0.1755875051021576,-0.5758500099182129
1791052395791171300,0.38017138671875,0.5200250148773193,-0.055412501096725464,0.9121749997138977
1791052395800804900,0.389804931640625,0.5554999709129333,0.2451625019311905,-0.14836250245571136
1791052395810438400,0.3994384765625,0.5152124762535095,0.2316875010728836,0.15839999914169312
1791052395820072200,0.409072265625,0.5847874879837036,0.03506249934434891,0.6506500244140625
1791052395829705700,0.418705810546875,0.7155500054359436,0.46021249890327454,-0.5282750129699707
1791052395839339300,0.42833935546875,0.6532624959945679,0.4772624969482422,-0.5575624704360962
1791052395848972800,0.437972900390625,0.5762624740600586,0.254925012588501,0.32202500104904175
1791052395858606300,0.4476064453125,0.6569749712944031,0.4174500107765198,-0.2167000025510788
1791052395868240100,0.457240234375,0.7545999884605408,0.36492499709129333,-0.04207500070333481
1791052395877873700,0.466873779296875,0.678974986076355,0.2891624867916107,0.40507498383522034
1791052395887507200,0.476507080078125,0.6202625036239624,0.2989250123500824,0.42707499861717224
1791052395897140700,0.486140625,0.7643625140190125,0.6007375121116638,-0.3596999943256378
1791052395906774500,0.4957744140625,0.7473124861717224,0.7020750045776367,-0.518512487411499
1791052395916408300,0.505408203125,0.6055499911308289,0.4760249853134155,0.17544999718666077
1791052395926041600,0.51504150390625,0.5860249996185303,0.3686375021934509,0.3525499999523163
1791052395935675400,0.52467529296875,0.6898375153541565,0.6447374820709229,-0.4207499921321869
1791052395945309000,0.534308837890625,0.6385499835014343,0.5725499987602234,-0.3377000093460083
1791052395954942500,0.5439423828125,0.5847874879837036,0.3526875078678131,0.35378751158714294
1791052395964576000,0.553575927734375,0.604449987411499,0.5152124762535095,-0.18246249854564667
1791052395974209800,0.563209716796875,0.48826250433921814,0.3942124843597412,0.34154999256134033
1791052395983843300,0.57284326171875,0.5054500102996826,0.3123999834060669,0.3489750027656555
1791052395993476900,0.582476806640625,0.5640249848365784,0.6177874803543091,-0.6638500094413757
1791052396003110400,0.5921103515625,0.43697500228881836,0.33797499537467957,0.19744999706745148
1791052396012744200,0.601744140625,0.40273749828338623,0.2316875010728836,0.40149998664855957
1791052396022377700,0.611377685546875,0.3381125032901764,0.3306874930858612,0.019112499430775642
1791052396032011300,0.62101123046875,0.20858749747276306,0.18039999902248383,0.2866874933242798
1791052396041644800,0.630644775390625,0.22316250205039978,0.22687499225139618,-0.17022499442100525
1791052396051278600,0.640278564453125,0.18411250412464142,0.2769249975681305,-0.3217499852180481
1791052396060912000,0.649912109375,0.08030000329017639,0.20611250400543213,-0.12264999747276306
1791052396070545700,0.659545654296875,0.024062499403953552,0.13763749599456787,0.008112499490380287
1791052396080179200,0.66917919921875,0.05953750014305115,0.03382499888539314,0.26221248507499695
1791052396089812700,0.678812744140625,0.03382499888539314,0.030112499371170998,0.14121249318122864
1791052396099446500,0.688446533203125,0.029012499377131462,0.10711249709129333,-0.19222499430179596
1791052396109080300,0.698080322265625,-0.050462499260902405,0.07906249910593033,-0.10559999942779541
1791052396118713900,0.7077138671875,-0.10793749988079071,0.12540000677108765,-0.23388749361038208
1791052396128347400,0.717347412109375,-0.0919874981045723,0.11082500219345093,-0.2106499969959259
1791052396137981000,0.72698095703125,-0.11151249706745148,-0.005224999971687794,0.030112499371170998
1791052396147614500,0.736614501953125,-0.1396999955177307,-0.057750001549720764,0.14368750154972076
1791052396157248300,0.746248291015625,-0.14327499270439148,0.020349999889731407,-0.12870000302791595
1791052396166882000,0.755882080078125,-0.17256249487400055,-0.012649999931454659,-0.03959999978542328
1791052396176515600,0.765515625,-0.21175000071525574,0.025299999862909317,-0.13612499833106995
1791052396186149000,0.775149169921875,-0.2250874936580658,-0.07493750005960464,0.16940000653266907
1791052396195782700,0.78478271484375,-0.2593249976634979,-0.10546249896287918,0.20721249282360077
1791052396205416400,0.79441650390625,-0.18246249854564667,0.10339999943971634,-0.5050374865531921
1791052396215050000,0.804050048828125,-0.26551249623298645,-0.10917499661445618,0.3110249936580658
1791052396224683500,0.81368359375,-0.2765125036239624,-0.08098749816417694,0.03492499887943268
1791052396234317000,0.823317138671875,-0.23375000059604645,-0.07122500240802765,-0.13488750159740448
1791052396243950800,0.832950927734375,-0.27527499198913574,-0.3852750062942505,0.719124972820282
1791052396253584400,0.84258447265625,-0.10903749614953995,0.09253749996423721,-0.4525125026702881
1791052396263218000,0.852218017578125,-0.045512501150369644,0.2536875009536743,-1.1195249557495117
1791052396272851700,0.861851806640625,-0.2765125036239624,-0.09322500228881836,0.3232625126838684
1791052396282485200,0.8714853515625,-0.27156248688697815,-0.18369999527931213,0.12044999748468399
1791052396292119000,0.881119140625,-0.1335124969482422,-0.1396999955177307,0.14973749220371246
1791052396301752800,0.8907529296875,-0.2605625092983246,-0.19346250593662262,0.38554999232292175
1791052396311386400,0.900386474609375,-0.1714625060558319,-0.12127500027418137,0.04468749836087227
1791052396321020000,0.91002001953125,-0.17022499442100525,0.08153750002384186,-0.5197499990463257
1791052396330653400,0.9196533203125,-0.22151249647140503,-0.08470000326633453,-0.29493749141693115
1791052396340287200,0.929287353515625,-0.31679999828338623,-0.2825624942779541,0.6188874840736389
1791052396349920800,0.938920654296875,-0.10051249712705612,-0.08098749816417694,-0.089649997651577
1791052396359554300,0.94855419921875,-0.2447499930858612,-0.10051249712705612,0.015399999916553497
1791052396369188000,0.95818798828125,-0.10793749988079071,-0.26551249623298645,0.3965499997138977
1791052396378821600,0.967821533203125,-0.06270000338554382,0.16706250607967377,-0.7041375041007996
1791052396388455400,0.977455322265625,-0.22398750483989716,-0.060224998742341995,-0.454987496137619
1791052396398089200,0.987089111328125,-0.33880001306533813,-0.3778499960899353,1.037987470626831
1791052396407722800,0.99672265625,-0.304562509059906,-0.4511374831199646,0.6348375082015991
1791052396417356300,1.006356201171875,-0.03341250121593475,0.05706249922513962,-0.47574999928474426
1791052396426990000,1.015989990234375,-0.021175000816583633,0.0032999999821186066,-0.28146249055862427
1791052396436623600,1.02562353515625,0.09129999577999115,0.2891624867916107,-0.9436625242233276
1791052396446257200,1.035257080078125,-0.11275000125169754,-0.03946249932050705,-0.415800005197525
1791052396455891000,1.044890869140625,-0.052937500178813934,-0.19346250593662262,0.7374125123023987
1791052396465524500,1.0545244140625,-0.16651250422000885,-0.3020874857902527,0.5956500172615051
1791052396475158000,1.064157958984375,-0.1335124969482422,-0.3656125068664551,0.6494125127792358
1791052396484791800,1.073791748046875,0.06558749824762344,0.20487499237060547,-0.5966125130653381
1791052396494425300,1.08342529296875,0.19263750314712524,0.4675000011920929,-1.354099988937378
1791052396504059100,1.09305908203125,-0.18479999899864197,-0.035750001668930054,0.22550000250339508
1791052396513692700,1.102692626953125,0.13282500207424164,-0.04675000160932541,0.03616249933838844
1791052396523326200,1.112326171875,0.21587499976158142,-0.040699999779462814,-0.4305124878883362
1791052396532960000,1.1219599609375,0.03258749842643738,-0.3217499852180481,1.266374945640564
1791052396542593500,1.131593505859375,-0.07603749632835388,-0.2985124886035919,0.5933125019073486
1791052396552227300,1.141227294921875,0.1658249944448471,0.24268749356269836,-0.553849995136261
1791052396561860900,1.15086083984375,0.06435000151395798,0.08387500047683716,0.006874999962747097
1791052396571494700,1.16049462890625,0.12430000305175781,0.030112499371170998,0.06792499870061874
1791052396581128200,1.170128173828125,0.3306874930858612,0.4039750099182129,-0.8801375031471252
1791052396590761700,1.17976171875,0.16940000653266907,0.07535000145435333,0.10216250270605087
1791052396600395500,1.1893955078125,0.2110625058412552,-0.16651250422000885,0.6738874912261963
1791052396610029000,1.199029052734375,0.318450003862381,0.020349999889731407,0.2316875010728836
1791052396619662600,1.20866259765625,0.25987499952316284,0.18287499248981476,-0.19346250593662262
1791052396629296400,1.21829638671875,0.18782499432563782,0.18287499248981476,-0.17641249299049377
1791052396638930200,1.22793017578125,0.17682500183582306,0.08387500047683716,-0.055412501096725464
1791052396648563700,1.237563720703125,0.16940000653266907,0.08511249721050262,-0.15193749964237213
1791052396658197200,1.247197265625,0.22316250205039978,0.015537500381469727,0.017875000834465027
1791052396667831000,1.2568310546875,0.19882500171661377,-0.038224998861551285,0.2670249938964844
1791052396677464800,1.26646484375,0.14630000293254852,0.019112499430775642,0.14863750338554382
1791052396687098400,1.276098388671875,0.2611125111579895,0.1046374961733818,-0.11412499845027924
1791052396696732000,1.28573193359375,0.23058749735355377,0.13887499272823334,-0.05664999783039093
1791052396706365700,1.29536572265625,0.20858749747276306,0.24034999310970306,-0.426800012588501
1791052396715999200,1.304999267578125,0.3051125109195709,0.171875,-0.23388749361038208
1791052396725632800,1.3146328125,0.22687499225139618,0.04358749836683273,0.0752125009894371
1791052396735266600,1.3242666015625,0.12430000305175781,-0.03464999794960022,0.4185499846935272
1791052396744900000,1.333900146484375,0.14863750338554382,0.03987500071525574,0.27073749899864197
1791052396754534000,1.343533935546875,0.23292499780654907,0.14011250436306,-0.03959999978542328
1791052396764167400,1.35316748046875,0.12911249697208405,0.13282500207424164,0.07411249727010727
1791052396773801200,1.36280126953125,0.13887499272823334,0.16706250607967377,-0.055412501096725464
1791052396783434800,1.372434814453125,0.25616249442100525,0.11687500029802322,0.1387374997138977
1791052396793068500,1.382068603515625,0.28558748960494995,0.1438249945640564,0.0826374962925911
1791052396802702000,1.3917021484375,0.2891624867916107,0.29411250352859497,-0.043175000697374344
1791052396812335900,1.4013359375,0.4492124915122986,0.4124999940395355,-0.45374998450279236
1791052396821969400,1.410969482421875,0.30387499928474426,0.35144999623298645,-0.11893749982118607
1791052396831603200,1.420603271484375,0.36616250872612,0.2733500003814697,-0.035887498408555984
1791052396841236700,1.43023681640625,0.23058749735355377,0.1363999992609024,0.3232625126838684
1791052396850870300,1.439870361328125,0.15234999358654022,-0.07369999587535858,0.4833124876022339
1791052396860504000,1.449504150390625,0.2671625018119812,0.17434999346733093,0.010587500408291817
1791052396870137600,1.4591376953125,0.2574000060558319,0.3564000129699707,-0.549037516117096
1791052396879771400,1.468771484375,0.2391124963760376,0.29768750071525574,-0.3059374988079071
1791052396889405200,1.4784052734375,0.2671625018119812,0.19263750314712524,0.023924998939037323
1791052396899039000,1.4880390625,0.21216249465942383,0.25011250376701355,-0.1434125006198883
1791052396908672500,1.497672607421875,0.13158750534057617,0.05211250111460686,0.31349998712539673
1791052396918306000,1.50730615234375,0.18906250596046448,0.06806249916553497,0.15592500567436218
1791052396927939800,1.51693994140625,0.1975875049829483,0.346637487411499,-0.5698000192642212
1791052396937573400,1.526573486328125,0.2110625058412552,0.3564000129699707,-0.5087500214576721
1791052396947207000,1.53620703125,0.022824998944997787,-0.07493750005960464,0.3513124883174896
1791052396956840700,1.5458408203125,-0.10051249712705612,-0.36451250314712524,0.976937472820282
1791052396966474500,1.555474609375,-0.003987499978393316,-0.03217500075697899,0.1363999992609024
1791052396976108300,1.5651083984375,-0.02241249941289425,0.08758749812841415,-0.18988749384880066
1791052396985741800,1.574741943359375,0.03753750026226044,0.13763749599456787,-0.2167000025510788
1791052396995375400,1.584375244140625,0.07535000145435333,0.20611250400543213,-0.30469998717308044
1791052397005009200,1.594009033203125,0.002062499988824129,0.06435000151395798,-0.028599999845027924
1791052397014642700,1.603642578125,0.11082500219345093,0.13282500207424164,-0.13488750159740448
1791052397024276500,1.6132763671875,0.15111249685287476,0.21463750302791595,-0.41222500801086426
1791052397033910000,1.622909912109375,0.06435000151395798,0.018012499436736107,0.0826374962925911
1791052397043543600,1.63254345703125,-0.07122500240802765,-0.09446249902248383,0.334262490272522
1791052397053177300,1.64217724609375,-0.113987497985363,-0.023649999871850014,0.06544999778270721
1791052397062811100,1.65181103515625,-0.16898749768733978,-0.14451250433921814,0.23045000433921814
1791052397072445000,1.66144482421875,-0.11027500033378601,-0.2727999985218048,0.40507498383522034
1791052397082078500,1.671078369140625,0.07906249910593033,0.08635000139474869,-0.30346250534057617
1791052397091712300,1.680712158203125,0.171875,0.24392500519752502,-0.6272749900817871
1791052397101345800,1.690345703125,-0.24956250190734863,-0.2593249976634979,0.8596500158309937
1791052397110979300,1.699979248046875,0.015537500381469727,-0.34127500653266907,0.6506500244140625
1791052397120613000,1.709613037109375,0.16087499260902405,0.3844499886035919,-0.9484750032424927
1791052397130246700,1.71924658203125,0.219587504863739,0.43821248412132263,-0.9924749732017517
1791052397139880400,1.72888037109375,-0.06146249920129776,-0.06517499685287476,0.6458374857902527
1791052397149514200,1.73851416015625,-0.02474999986588955,-0.24227499961853027,0.7129374742507935
1791052397159148000,1.74814794921875,0.18535000085830688,0.3343999981880188,-0.7445625066757202
1791052397168781600,1.757781494140625,0.04729999974370003,0.0448249988257885,-0.13488750159740448
1791052397178415000,1.7674150390625,0.025299999862909317,-0.0859375,0.5102624893188477
1791052397188049000,1.777048828125,-0.025987500324845314,-0.005224999971687794,0.07768750190734863
1791052397197682400,1.786682373046875,-0.01251249946653843,-0.035750001668930054,0.3489750027656555
1791052397207316200,1.796316162109375,0.013062499463558197,-0.060224998742341995,0.2340250015258789
1791052397216949800,1.80594970703125,0.23182499408721924,0.22192500531673431,-0.4390375018119812
1791052397226583600,1.81558349609375,0.40521249175071716,0.49678748846054077,-0.8421875238418579
1791052397236217000,1.825217041015625,0.2745875120162964,0.219587504863739,-0.12017499655485153
1791052397245851000,1.834850830078125,0.14258749783039093,0.03258749842643738,0.7044125199317932
1791052397255484400,1.844484375,0.19016249477863312,0.08030000329017639,0.45526251196861267
1791052397279568600,1.868568603515625,0.2671625018119812,0.20858749747276306,-0.007837500423192978
1791052397289202400,1.878202392578125,0.30387499928474426,0.3478749990463257,-0.4207499921321869
1791052397303652900,1.89265283203125,0.283112496137619,0.14258749783039093,0.21449999511241913
1791052397313286400,1.902286376953125,0.31363749504089355,0.14739999175071716,0.16692499816417694
1791052397322920200,1.911920166015625,0.3123999834060669,0.05335000157356262,0.46131250262260437
1791052397332553700,1.9215537109375,0.23539999127388,0.11563749611377716,0.334262490272522
1791052397342187500,1.9311875,0.4492124915122986,0.5102624893188477,-0.5478000044822693
1791052397351821300,1.9408212890625,0.42473748326301575,0.44673749804496765,-0.19346250593662262
1791052397361455000,1.950455078125,0.5286874771118164,0.48221248388290405,-0.28146249055862427
1791052397371088600,1.960088623046875,0.3746874928474426,0.29411250352859497,0.24021250009536743
1791052397380722400,1.969722412109375,0.36121249198913574,0.17682500183582306,0.522362470626831
1791052397390356000,1.97935595703125,0.20982499420642853,0.30621248483657837,0.13763749599456787
1791052397399989500,1.988989501953125,0.4296875,0.5750250220298767,-0.545324981212616
1791052397409623300,1.998623291015625,0.33192500472068787,0.37097498774528503,-0.0016499999910593033
1791052397419257000,2.008257080078125,0.4101625084877014,0.33316248655319214,0.08868750184774399
1791052397428891000,2.017890869140625,0.45416250824928284,0.28187498450279236,0.10821250081062317
1791052397438524400,2.0275244140625,0.36739999055862427,0.23292499780654907,0.445499986410141
1791052397448158200,2.037158203125,0.49816250801086426,0.4431625008583069,-0.1214125007390976
1791052397457791700,2.046791748046875,0.5457375049591064,0.6043124794960022,-0.4012250006198883
1791052397467425500,2.056425537109375,0.5396875143051147,0.5812125205993652,-0.29122498631477356
1791052397477059000,2.06605908203125,0.4345000088214874,0.346637487411499,0.644599974155426
1791052397486692900,2.07569287109375,0.38692501187324524,0.26840001344680786,0.544362485408783
1791052397496326400,2.085326416015625,0.5970249772071838,0.6300249695777893,-0.31075000762939453
1791052397505960200,2.094960205078125,0.5079249739646912,0.5579749941825867,0.017875000834465027
1791052397515594000,2.104593994140625,0.5812125205993652,0.5627874732017517,0.12773749232292175
1791052397525227500,2.1142275390625,0.5420249700546265,0.6777374744415283,-0.10670000314712524
1791052397534861300,2.123861328125,0.49445000290870667,0.6470749974250793,0.07644999772310257
1791052397544495000,2.1334951171875,0.509024977684021,0.5922124981880188,0.1106875017285347
1791052397554128600,2.143128662109375,0.5176874995231628,0.5970249772071838,0.16940000653266907
1791052397563762200,2.15276220703125,0.6055499911308289,0.8388875126838684,-0.5282750129699707
1791052397573396000,2.16239599609375,0.5420249700546265,0.7192624807357788,-0.3937999904155731
1791052397583029800,2.17202978515625,0.3306874930858612,0.39668750762939453,0.6470749974250793
1791052397592663300,2.181663330078125,0.31363749504089355,0.35997501015663147,0.4345000088214874
1791052397602297000,2.191297119140625,0.35997501015663147,0.5187875032424927,-0.07383749634027481
1791052397611930600,2.2009306640625,0.28558748960494995,0.48826250433921814,0.1326874941587448
1791052397621564400,2.210564453125,0.34911251068115234,0.5262125134468079,-0.1311749964952469
1791052397631198000,2.220197998046875,0.2256374955177307,0.49445000290870667,0.1046374961733818
1791052397640831700,2.229831787109375,0.2623499929904938,0.37097498774528503,0.2877874970436096
1791052397650465500,2.239465576171875,0.16830000281333923,0.3783999979496002,0.1522125005722046
1791052397660099300,2.249099365234375,0.1083500012755394,0.2952125072479248,0.28421249985694885
1791052397669732900,2.25873291015625,0.008249999955296516,0.37345001101493835,0.0752125009894371
1791052397679366700,2.26836669921875,0.05829999968409538,0.49802500009536743,-0.31693750619888306
1791052397689000200,2.278000244140625,0.11453749984502792,0.3564000129699707,-0.3572250008583069
1791052397698634000,2.287634033203125,-0.1274625062942505,0.08882500231266022,0.7704125046730042
1791052397708267500,2.297267578125,-0.2569875121116638,0.11935000121593475,0.2732124924659729
1791052397717901300,2.3069013671875,-0.22398750483989716,0.1266375035047531,0.16940000653266907
1791052397727535400,2.316535400390625,-0.1555124968290329,0.20858749747276306,0.016637500375509262
1791052397737169000,2.3261689453125,-0.2190375030040741,0.3759250044822693,-0.5000874996185303
1791052397746802700,2.335802734375,-0.14698749780654907,0.26468750834465027,-0.5820375084877014
1791052397756436200,2.345436279296875,-0.32161250710487366,-0.035750001668930054,0.6934124827384949
1791052397766070000,2.355070068359375,-0.44866248965263367,-0.2727999985218048,0.8766999840736389
1791052397775703600,2.36470361328125,-0.4450874924659729,-0.23622499406337738,0.592074990272522
1791052397785337300,2.37433740234375,-0.1555124968290329,0.346637487411499,-0.6565625071525574
1791052397794971100,2.38397119140625,-0.26551249623298645,0.6875,-1.0670000314712524
1791052397804605000,2.39360498046875,-0.4585624933242798,0.08758749812841415,0.08139999955892563
1791052397814238700,2.40323876953125,-0.3900874853134155,-0.0541750006377697,0.534600019454956
1791052397823872300,2.412872314453125,-0.3497999906539917,-0.03217500075697899,0.10092499852180481
1791052397833506000,2.422506103515625,-0.4988499879837036,-0.3863750100135803,1.112512469291687
1791052397843139600,2.4321396484375,-0.3620375096797943,0.018012499436736107,0.2817375063896179
1791052397852773400,2.4417734375,-0.21175000071525574,0.9171249866485596,-1.729200005531311
1791052397862407200,2.4514072265625,-0.5366625189781189,0.1438249945640564,-0.19470000267028809
1791052397872040700,2.461040771484375,-0.34732499718666077,-0.1714625060558319,1.0905125141143799
1791052397881674500,2.470674560546875,-0.23375000059604645,0.05829999968409538,-0.2667500078678131
1791052397891308300,2.480308349609375,-0.37908750772476196,-0.0541750006377697,-0.3217499852180481
1791052397900942000,2.489942138671875,-0.509850025177002,-0.37427499890327454,1.1589875221252441
1791052397910575900,2.499575927734375,-0.6441875100135803,-0.2227499932050705,0.5517874956130981
1791052397925026300,2.5140263671875,-0.3008500039577484,0.5444999933242798,-1.479912519454956
1791052397934660000,2.52366015625,-0.7224249839782715,-0.13227500021457672,0.4735499918460846
1791052397944294100,2.533294189453125,-0.3558500111103058,-0.40232500433921814,0.6494125127792358
1791052397953927700,2.542927734375,-0.19456249475479126,0.29768750071525574,-1.274762511253357
1791052397963561500,2.5525615234375,-0.5636125206947327,-0.14327499270439148,0.6043124794960022
1791052397973195000,2.562195068359375,-0.7834749817848206,-0.7041375041007996,1.4374250173568726
1791052397982828800,2.571828857421875,-0.38032498955726624,0.13763749599456787,-0.6015625
1791052397992462600,2.581462646484375,-0.3278000056743622,0.4675000011920929,-1.5056250095367432
1791052398002096000,2.59109619140625,-0.5916625261306763,-0.17503750324249268,0.254925012588501
1791052398011730200,2.600730224609375,-0.4988499879837036,-0.3620375096797943,0.3172124922275543
1791052398021364000,2.610364013671875,-0.4499000012874603,-0.3020874857902527,0.10587500035762787
1791052398030997500,2.61999755859375,-0.6356624960899353,-0.2985124886035919,0.43078750371932983
1791052398040631300,2.62963134765625,-0.4731374979019165,-0.22151249647140503,0.09844999760389328
1791052398050265000,2.63926513671875,-0.4585624933242798,-0.0004124999977648258,-0.549037516117096
1791052398059899000,2.64889892578125,-0.5513749718666077,-0.16775000095367432,-0.12636250257492065
1791052398069532700,2.65853271484375,-0.5330874919891357,-0.3497999906539917,0.2890250086784363
1791052398079166500,2.66816650390625,-0.48537498712539673,-0.2887499928474426,0.09597499668598175
1791052398088800300,2.67780029296875,-0.3082749843597412,-0.16046249866485596,-0.10793749988079071
1791052398098434000,2.68743408203125,-0.4035624861717224,-0.12498749792575836,0.0728750005364418
1791052398108067600,2.697067626953125,-0.2545124888420105,0.10106249898672104,-0.7518500089645386
1791052398117701400,2.706701416015625,-0.43656250834465027,-0.113987497985363,-0.19112500548362732
1791052398127335200,2.716335205078125,-0.3778499960899353,-0.31556248664855957,0.6458374857902527
1791052398136968700,2.72596875,-0.4291374981403351,-0.3485625088214874,0.4258374869823456
1791052398146602800,2.735602783203125,-0.2777499854564667,-0.18603749573230743,0.0471624992787838
1791052398156236500,2.745236572265625,-0.26551249623298645,0.15358750522136688,-0.7823749780654907
1791052398165870300,2.754870361328125,-0.36079999804496765,-0.16651250422000885,-0.48922500014305115
1791052398175504000,2.76450390625,-0.41208750009536743,-0.2899875044822693,0.3525499999523163
1791052398185137700,2.7741376953125,-0.47437500953674316,-0.3778499960899353,0.4197874963283539
1791052398194771500,2.783771484375,-0.44013750553131104,-0.7321875095367432,1.0660375356674194
1791052398204405200,2.7934052734375,-0.3913249969482422,-0.3363249897956848,0.05939999967813492
1791052398214039000,2.8030390625,-0.22756250202655792,0.19016249477863312,-1.2442375421524048
1791052398223672800,2.8126728515625,-0.37661248445510864,-0.2985124886035919,-0.020075000822544098
1791052398233306600,2.822306640625,-0.18851250410079956,-0.4683249890804291,0.5455999970436096
1791052398242940200,2.831940185546875,-0.21051250398159027,-0.2997500002384186,0.15344999730587006
1791052398252574000,2.841573974609375,-0.17503750324249268,-0.36079999804496765,0.32573750615119934
1791052398262208000,2.8512080078125,-0.2092749923467636,-0.07975000143051147,-0.22288750112056732
1791052398271841800,2.860841796875,-0.08346249908208847,0.0705375000834465,-0.6833750009536743
1791052398281475300,2.870475341796875,-0.3143250048160553,-0.1555124968290329,0.21326249837875366
1791052398291109000,2.880109130859375,-0.3436124920845032,-0.32903748750686646,0.4930749833583832
1791052398300743000,2.889742919921875,-0.2287999987602234,-0.2862749993801117,0.15344999730587006
1791052398310376700,2.899376708984375,-0.31927499175071716,-0.3020874857902527,-0.004124999977648258
1791052398320010500,2.909010498046875,-0.35103750228881836,-0.29356250166893005,-0.13488750159740448
1791052398329644300,2.918644287109375,-0.33880001306533813,-0.30951249599456787,-0.1396999955177307
1791052398339278000,2.928278076171875,-0.4133250117301941,-0.4328500032424927,0.34031251072883606
1791052398348911900,2.937911865234375,-0.38279998302459717,-0.32532501220703125,-0.03464999794960022
1791052398358545400,2.94754541015625,-0.4193750023841858,-0.35227498412132263,0.009349999949336052
1791052398368179500,2.957179443359375,-0.43408748507499695,-0.4633750021457672,0.334262490272522
1791052398377813200,2.966813232421875,-0.3632749915122986,-0.3535124957561493,-0.09693749994039536
1791052398387447000,2.976447021484375,-0.30332499742507935,-0.25203749537467957,-0.3817000091075897
1791052398397080800,2.986080810546875,-0.3730374872684479,-0.43408748507499695,0.2817375063896179
1791052398406714400,2.99571435546875,-0.3815625011920929,-0.3546124994754791,-0.02983750030398369
1791052398416348200,3.00534814453125,-0.3020874857902527,-0.30332499742507935,-0.24722500145435333
1791052398425982200,3.014982177734375,-0.3620375096797943,-0.45237499475479126,0.2952125072479248
1791052398435616000,3.024615966796875,-0.3240875005722046,-0.3558500111103058,-0.06764999777078629
1791052398445249800,3.034249755859375,-0.2690874934196472,-0.3240875005722046,-0.16788749396800995
1791052398454883300,3.04388330078125,-0.34485000371932983,-0.5025625228881836,0.48454999923706055
1791052398464517000,3.05351708984375,-0.29356250166893005,-0.3950375020503998,0.14368750154972076
1791052398474151000,3.06315087890625,-0.16046249866485596,-0.18479999899864197,-0.3889875113964081
1791052398483784700,3.07278466796875,-0.14822499454021454,-0.27156248688697815,-0.08236250281333923
1791052398493418800,3.082418701171875,-0.20074999332427979,-0.27156248688697815,0.07163749635219574
1791052398503052500,3.092052490234375,-0.12870000302791595,-0.3180375099182129,0.21092499792575836
1791052398512686000,3.10168603515625,-0.13227500021457672,-0.3205125033855438,0.23292499780654907
1791052398522320000,3.11131982421875,-0.0882750004529953,-0.22756250202655792,-0.005362499970942736
1791052398531953700,3.12095361328125,-0.06875000149011612,-0.1494625061750412,-0.15070000290870667
1791052398541587500,3.13058740234375,-0.016224998980760574,-0.05898749828338623,-0.37070000171661377
1791052398551221200,3.14022119140625,-0.013749999925494194,-0.0919874981045723,-0.2484624981880188
1791052398560855000,3.14985498046875,0.04853750020265579,-0.21422499418258667,0.13997499644756317
1791052398570488800,3.15948876953125,-0.006462499964982271,-0.2923249900341034,0.37097498774528503
1791052398580122600,3.16912255859375,0.06201250106096268,-0.2667500078678131,0.2157374918460846
1791052398589756400,3.17875634765625,0.0765874981880188,-0.10793749988079071,-0.2864125072956085
1791052398599390000,3.188389892578125,0.13282500207424164,0.0765874981880188,-0.7786625027656555
1791052398609024000,3.19802392578125,0.009349999949336052,-0.11522500216960907,-0.023649999871850014
1791052398618657800,3.20765771484375,0.0411125011742115,-0.2287999987602234,0.1424500048160553
1791052398628291600,3.21729150390625,0.014299999922513962,-0.32903748750686646,0.3244999945163727
1791052398637925400,3.22692529296875,0.03258749842643738,-0.27898749709129333,0.10216250270605087
1791052398647559200,3.23655908203125,0.06929999589920044,-0.0028874999843537807,-0.6675624847412109
1791052398657192700,3.246192626953125,-0.03946249932050705,-0.18369999527931213,-0.19841249287128448
1791052398666826800,3.25582666015625,-0.052937500178813934,-0.41813749074935913,0.5895999670028687
1791052398676460500,3.26546044921875,0.03135000169277191,-0.2227499932050705,-0.1153625026345253
1791052398686094300,3.27509423828125,-0.07727500051259995,-0.2593249976634979,0.04592499881982803
1791052398695728000,3.28472802734375,-0.04922499880194664,-0.2447499930858612,-0.04441250115633011
1791052398705361700,3.294361572265625,-0.03341250121593475,-0.2032250016927719,-0.2582249939441681
1791052398714995500,3.303995361328125,-0.060224998742341995,-0.22522500157356262,-0.14217500388622284
1791052398724629500,3.31362939453125,-0.09803749620914459,-0.29727500677108765,0.2157374918460846
1791052398734263300,3.32326318359375,-0.03341250121593475,-0.13722500205039978,-0.3217499852180481
1791052398743897000,3.33289697265625,-0.05169999971985817,-0.16898749768733978,-0.47574999928474426
1791052398753531000,3.34253076171875,-0.023512499406933784,-0.34485000371932983,0.4870249927043915
1791052398763164400,3.352164306640625,-0.07122500240802765,-0.35227498412132263,0.342787504196167
1791052398772798500,3.361798583984375,-0.02474999986588955,-0.17503750324249268,-0.1886499971151352
1791052398782432300,3.371432373046875,-0.07603749632835388,-0.23980000615119934,0.08016250282526016
1791052398792066000,3.381066162109375,0.024062499403953552,-0.056512501090765,-0.3817000091075897
1791052398801699800,3.390699951171875,0.0387750007212162,-0.0541750006377697,-0.3291749954223633
1791052398811333400,3.40033349609375,0.05335000157356262,-0.13722500205039978,0.027637500315904617
1791052398820967400,3.409967529296875,0.029012499377131462,-0.1237500011920929,0.09721250087022781
1791052398830601200,3.419601318359375,0.07177499681711197,-0.10298749804496765,0.06792499870061874
1791052398840235000,3.429235107421875,0.13529999554157257,-0.057750001549720764,-0.050599999725818634
1791052398849868800,3.438868896484375,0.17311249673366547,-0.03946249932050705,0.04235000163316727
1791052398859502600,3.448502685546875,0.22687499225139618,0.03506249934434891,-0.133650004863739
1791052398869136400,3.458136474609375,0.17682500183582306,-0.09693749994039536,0.4160749912261963
1791052398878770200,3.467770263671875,0.2171124964952469,0.011824999935925007,0.025162499397993088
1791052398888404000,3.477404052734375,0.22439999878406525,0.015537500381469727,-0.038362499326467514
1791052398898037800,3.487037841796875,0.3051125109195709,0.11563749611377716,-0.2985124886035919
1791052398907671600,3.496671630859375,0.46021249890327454,0.24158750474452972,-0.8581374883651733
1791052398917305600,3.5063056640625,0.34911251068115234,0.07163749635219574,0.23045000433921814
1791052398926939400,3.515939453125,0.36121249198913574,0.03506249934434891,0.15950000286102295
1791052398936573000,3.525572998046875,0.357637494802475,-0.0028874999843537807,0.3525499999523163
1791052398946206700,3.535206787109375,0.40521249175071716,0.008112499490380287,0.21821250021457672
1791052398955840500,3.544840576171875,0.4076874852180481,0.1938749998807907,-0.2974124848842621
1791052398965474300,3.554474365234375,0.4479750096797943,0.20611250400543213,-0.3339875042438507
1791052398975108400,3.5641083984375,0.32339999079704285,0.0008249999955296516,0.46626248955726624
1791052398984742000,3.573741943359375,0.3063499927520752,-0.11522500216960907,0.489362508058548
1791052398994375700,3.583375732421875,0.4809750020503998,0.27568748593330383,-0.6565625071525574
1791052399004009500,3.593009521484375,0.5139750242233276,0.1681624948978424,-0.6650875210762024
1791052399013643300,3.602643310546875,0.4809750020503998,0.014299999922513962,0.42473748326301575
1791052399023277000,3.612277099609375,0.3539249897003174,0.1143999993801117,0.1143999993801117
1791052399032910800,3.621910888671875,0.4076874852180481,0.0705375000834465,0.3097875118255615
1791052399042544600,3.631544677734375,0.45045000314712524,0.2488749921321869,-0.25341248512268066
1791052399052178400,3.641178466796875,0.49197500944137573,0.3026374876499176,-0.46598750352859497
1791052399061812200,3.650812255859375,0.48826250433921814,0.14258749783039093,0.20721249282360077
1791052399071446000,3.660446044921875,0.5384500026702881,0.1340624988079071,0.259737491607666
1791052399081079800,3.670079833984375,0.49197500944137573,0.23663750290870667,0.03135000169277191
1791052399090713600,3.679713623046875,0.42721250653266907,0.2293500006198883,0.017875000834465027
1791052399100347600,3.68934765625,0.4846875071525574,0.31597501039505005,-0.28146249055862427
1791052399109981200,3.698981201171875,0.5787374973297119,0.27211248874664307,-0.20817500352859497
1791052399119615000,3.708614990234375,0.48826250433921814,0.19634999334812164,0.4857875108718872
1791052399129248800,3.718248779296875,0.40521249175071716,0.09129999577999115,0.7666999697685242
1791052399138882600,3.727882568359375,0.4834499955177307,0.3148750066757202,-0.02488750033080578
1791052399148516600,3.7375166015625,0.55673748254776,0.37345001101493835,-0.2667500078678131
1791052399158150400,3.747150390625,0.45045000314712524,0.2293500006198883,0.24997499585151672
1791052399167784200,3.7567841796875,0.46392500400543213,0.31597501039505005,-0.03217500075697899
1791052399177417700,3.766417724609375,0.4577375054359436,0.3306874930858612,-0.10064999759197235
1791052399187051500,3.776051513671875,0.4419249892234802,0.1999250054359436,0.2340250015258789
1791052399196685300,3.785685302734375,0.42721250653266907,0.24763749539852142,-0.03959999978542328
1791052399206319000,3.795319091796875,0.4492124915122986,0.3526875078678131,-0.3535124957561493
1791052399215953200,3.804953125,0.4334000051021576,0.2903999984264374,-0.02983750030398369
1791052399225587000,3.8145869140625,0.3502124845981598,0.14258749783039093,0.48826250433921814
1791052399235220700,3.824220703125,0.4162124991416931,0.390500009059906,-0.35475000739097595
1791052399244854300,3.833854248046875,0.3918749988079071,0.2866874933242798,0.030112499371170998
1791052399254488300,3.84348828125,0.3636874854564667,0.2854500114917755,0.11316250264644623
1791052399264121900,3.853121826171875,0.3759250044822693,0.33192500472068787,-0.04207500070333481
1791052399273756000,3.862755859375,0.32339999079704285,0.18535000085830688,0.43683749437332153
1791052399283389700,3.8723896484375,0.2989250123500824,0.2391124963760376,0.10339999943971634
1791052399293023500,3.8820234375,0.22687499225139618,0.3478749990463257,-0.2167000025510788
1791052399302657000,3.891656982421875,0.3722124993801117,0.445499986410141,-0.8006625175476074
1791052399312290800,3.901290771484375,0.2671625018119812,0.2391124963760376,0.4320249855518341
1791052399321924900,3.9109248046875,0.19634999334812164,0.19263750314712524,0.20116250216960907
1791052399331558700,3.92055859375,0.20858749747276306,0.20611250400543213,0.08868750184774399
1791052399341192400,3.9301923828125,0.16335000097751617,0.13763749599456787,0.318450003862381
1791052399350826200,3.939826171875,0.20611250400543213,0.30744999647140503,-0.30717501044273376
1791052399360460000,3.9494599609375,0.11329999566078186,0.15234999358654022,0.30250000953674316
1791052399370094000,3.959093994140625,0.12430000305175781,0.15358750522136688,0.22316250205039978
1791052399379728000,3.968727783203125,0.09611249715089798,0.1681624948978424,0.05321250110864639
1791052399389361700,3.978361572265625,0.0728750005364418,0.0826374962925911,0.1779250055551529
1791052399398995200,3.9879951171875,0.03258749842643738,0.019112499430775642,0.3305499851703644
1791052399408629200,3.997629150390625,0.03258749842643738,0.0728750005364418,0.12044999748468399
1791052399418263000,4.007262939453125,-0.01746249943971634,0.08758749812841415,0.030112499371170998
1791052399427896800,4.016896728515625,-0.047987498342990875,0.0448249988257885,0.13144999742507935
1791052399437530600,4.026530517578125,-0.008937500417232513,0.0057749999687075615,0.19249999523162842
1791052399447164400,4.036164306640625,-0.07851249724626541,-0.07617499679327011,0.38926249742507935
1791052399456798200,4.045798095703125,-0.10422500222921371,0.009349999949336052,0.04468749836087227
1791052399466432000,4.055431884765625,-0.09322500228881836,0.06806249916553497,-0.23017500340938568
1791052399476065800,4.065065673828125,-0.13227500021457672,0.0705375000834465,-0.20569999516010284
1791052399485699600,4.074699462890625,-0.13227500021457672,-0.05169999971985817,0.2340250015258789
1791052399495333600,4.084333740234375,-0.1652749925851822,-0.12622499465942383,0.3172124922275543
1791052399504967400,4.093967529296875,-0.1335124969482422,-0.0004124999977648258,-0.10188750177621841
1791052399514601200,4.103601318359375,-0.14327499270439148,0.09006249904632568,-0.3975124955177307
1791052399524235000,4.113235107421875,-0.15303750336170197,0.04358749836683273,-0.19841249287128448
1791052399533868800,4.122868896484375,-0.11275000125169754,0.0387750007212162,-0.07136250287294388
1791052399543502600,4.132502685546875,-0.0882750004529953,-0.055412501096725464,0.24021250009536743
1791052399553136400,4.142136474609375,-0.11275000125169754,-0.06875000149011612,0.16321249306201935
1791052399562770400,4.1517705078125,-0.038224998861551285,0.04853750020265579,-0.28022500872612
1791052399572404000,4.161404052734375,-0.09322500228881836,0.021587500348687172,-0.057887498289346695
1791052399582037800,4.171037841796875,-0.07493750005960464,0.015537500381469727,-0.09212499856948853
1791052399591671600,4.180671630859375,-0.06517499685287476,-0.11522500216960907,0.3392125070095062
1791052399601305300,4.190305419921875,0.025299999862909317,0.014299999922513962,-0.23498749732971191
1791052399610939100,4.199939208984375,-0.003987499978393316,-0.06875000149011612,0.05321250110864639
1791052399620573200,4.2095732421875,-0.047987498342990875,-0.04675000160932541,-0.023649999871850014
1791052399630207000,4.21920703125,0.04729999974370003,0.1046374961733818,-0.518512487411499
1791052399639840800,4.2288408203125,-0.0016499999910593033,-0.07851249724626541,0.27445000410079956
1791052399649474600,4.238474609375,0.05953750014305115,-0.05898749828338623,0.0471624992787838
1791052399659108400,4.2481083984375,0.06077500060200691,-0.023649999871850014,-0.010312499478459358
1791052399668742100,4.2577421875,0.026537500321865082,0.020349999889731407,-0.048124998807907104
1791052399678376000,4.2673759765625,0.07782500237226486,0.17916250228881836,-0.545324981212616
1791052399688009700,4.277009765625,0.08387500047683716,0.013062499463558197,0.17916250228881836
1791052399697643500,4.2866435546875,0.10587500035762787,0.07163749635219574,-0.08717499673366547
1791052399707277300,4.29627734375,0.1340624988079071,0.0411125011742115,0.009349999949336052
1791052399716911000,4.3059111328125,0.07177499681711197,-0.12017499655485153,0.5310249924659729
1791052399726545200,4.315545166015625,0.17916250228881836,0.13282500207424164,-0.2204124927520752
1791052399736179000,4.325178955078125,0.13529999554157257,0.1143999993801117,-0.13612499833106995
1791052399745812700,4.334812744140625,0.15358750522136688,0.14739999175071716,-0.15936249494552612
1791052399755446500,4.344446533203125,0.10106249898672104,0.04729999974370003,0.3513124883174896
1791052399765080300,4.354080322265625,0.18535000085830688,0.18039999902248383,-0.17765000462532043
1791052399774714000,4.363714111328125,0.16940000653266907,0.03135000169277191,0.22921249270439148
1791052399784348000,4.373347900390625,0.1083500012755394,0.07906249910593033,0.0849749967455864
1791052399793981700,4.382981689453125,0.2903999984264374,0.2989250123500824,-0.6162750124931335
1791052399803615500,4.392615478515625,0.17434999346733093,0.09253749996423721,0.3623124957084656
1791052399813249300,4.402249267578125,0.24158750474452972,0.07906249910593033,0.16073749959468842
1791052399822883000,4.411883056640625,0.23663750290870667,0.11687500029802322,-0.020075000822544098
1791052399832517000,4.42151708984375,0.19882500171661377,0.07906249910593033,0.17544999718666077
1791052399842151000,4.43115087890625,0.17806249856948853,0.1363999992609024,0.04468749836087227
1791052399851784700,4.44078466796875,0.24034999310970306,0.24763749539852142,-0.3119874894618988
1791052399861418200,4.450418212890625,0.21834999322891235,0.15963749587535858,0.10587500035762787
1791052399871052300,4.46005224609375,0.2293500006198883,0.2096875011920929,0.08016250282526016
1791052399880686000,4.46968603515625,0.29768750071525574,0.19634999334812164,0.027637500315904617
1791052399890320000,4.47931982421875,0.2708750069141388,0.07906249910593033,0.381974995136261
1791052399899953700,4.48895361328125,0.29163751006126404,0.1340624988079071,0.15592500567436218
1791052399909587700,4.498587646484375,0.25011250376701355,0.24268749356269836,-0.20817500352859497
1791052399919221500,4.508221435546875,0.29534998536109924,0.30016249418258667,-0.37427499890327454
1791052399928855300,4.517855224609375,0.2525874972343445,0.17916250228881836,0.24626250565052032
1791052399938489000,4.527489013671875,0.33563750982284546,0.15111249685287476,0.11687500029802322
1791052399948123000,4.537122802734375,0.22082500159740448,0.09611249715089798,0.35749998688697815
1791052399957757000,4.5467568359375,0.24034999310970306,0.2891624867916107,-0.19112500548362732
1791052399967390500,4.556390380859375,0.28187498450279236,0.1938749998807907,0.043449997901916504
1791052399977024300,4.566024169921875,0.3111625015735626,0.11082500219345093,0.38554999232292175
1791052399986658000,4.575657958984375,0.27816250920295715,0.18039999902248383,0.23045000433921814
1791052399996291800,4.585291748046875,0.20239999890327454,0.21463750302791595,0.22921249270439148
1791052400005926000,4.59492578125,0.24034999310970306,0.25616249442100525,-0.07136250287294388
1791052400015559700,4.6045595703125,0.26468750834465027,0.2134000062942505,0.11687500029802322
1791052400025193500,4.614193359375,0.2391124963760376,0.028875000774860382,0.6580749750137329
1791052400034827300,4.6238271484375,0.17434999346733093,0.20363749563694,0.1106875017285347
1791052400044461000,4.6334609375,0.28792500495910645,0.5286874771118164,-0.7578999996185303
1791052400054094800,4.6430947265625,0.2513499855995178,0.24763749539852142,0.09597499668598175
1791052400063728600,4.652728759765625,0.3221625089645386,0.08882500231266022,0.43326249718666077
1791052400073362700,4.66236279296875,0.29768750071525574,0.32945001125335693,-0.2679874897003174
1791052400082996500,4.67199658203125,0.13158750534057617,0.16335000097751617,0.3880249857902527
1791052400092630300,4.68163037109375,0.24158750474452972,0.14011250436306,0.30002498626708984
1791052400102263800,4.691263916015625,0.20006249845027924,0.16706250607967377,0.1326874941587448
1791052400111897600,4.700897705078125,0.2134000062942505,0.25987499952316284,-0.16664999723434448
1791052400121531600,4.71053173828125,0.10711249709129333,0.2574000060558319,-0.028599999845027924
1791052400131165400,4.72016552734375,0.16335000097751617,0.254925012588501,-0.10436250269412994
1791052400140799200,4.72979931640625,0.16087499260902405,0.2634499967098236,-0.1812250018119812
1791052400150433000,4.73943310546875,0.2488749921321869,0.22068749368190765,0.04235000163316727
1791052400160066800,4.74906689453125,0.14011250436306,0.05829999968409538,0.5493124723434448
1791052400169700600,4.75870068359375,0.15111249685287476,0.19634999334812164,0.05816249921917915
1791052400179334700,4.768334716796875,0.2171124964952469,0.390500009059906,-0.5515124797821045
1791052400188968400,4.777968505859375,0.1023000031709671,0.17434999346733093,0.2817375063896179
1791052400198602200,4.787602294921875,0.11563749611377716,0.318450003862381,-0.1494625061750412
1791052400208235800,4.79723583984375,0.15234999358654022,0.2536875009536743,0.015399999916553497
1791052400217869600,4.80686962890625,0.06435000151395798,0.24268749356269836,0.08744999766349792
1791052400227503600,4.816503662109375,0.1975875049829483,0.3404499888420105,-0.2997500002384186
1791052400237137400,4.826137451171875,0.20487499237060547,0.34540000557899475,-0.28146249055862427
1791052400246771200,4.835771240234375,0.20116250216960907,0.30016249418258667,0.14121249318122864
1791052400256405000,4.845405029296875,0.20239999890327454,0.29411250352859497,0.12044999748468399
1791052400266039000,4.8550390625,0.17434999346733093,0.171875,0.43078750371932983
1791052400275672600,4.864672607421875,0.17916250228881836,0.3282124996185303,0.008112499490380287
1791052400285306600,4.874306640625,0.14258749783039093,0.30744999647140503,0.11316250264644623
1791052400294940400,4.8839404296875,0.14630000293254852,0.3392125070095062,-0.09088750183582306
1791052400304574200,4.89357421875,0.14506250619888306,0.3746874928474426,-0.0798875018954277
1791052400314208000,4.9032080078125,0.13529999554157257,0.2891624867916107,0.2414499968290329
1791052400323841800,4.912841796875,0.14011250436306,0.24158750474452972,0.22426250576972961
1791052400333475800,4.922475830078125,0.18287499248981476,0.22316250205039978,0.24021250009536743
1791052400343109400,4.932109375,0.10711249709129333,0.18782499432563782,0.3195500075817108
1791052400352743200,4.9417431640625,0.12787500023841858,0.41497498750686646,-0.3669874966144562
1791052400362377200,4.951377197265625,0.15234999358654022,0.381974995136261,-0.2656500041484833
1791052400372011000,4.961010986328125,0.17806249856948853,0.30621248483657837,0.20116250216960907
1791052400381644800,4.970644775390625,0.28558748960494995,0.37345001101493835,-0.133650004863739
1791052400391278600,4.980278564453125,0.27211248874664307,0.24763749539852142,0.3940750062465668
1791052400400912400,4.989912353515625,0.2451625019311905,0.31363749504089355,0.2536875009536743
1791052400410546200,4.999546142578125,0.3539249897003174,0.4797374904155731,-0.20569999516010284
1791052400420180200,5.00918017578125,0.2708750069141388,0.33316248655319214,0.49059998989105225
1791052400429814000,5.01881396484375,0.29163751006126404,0.4809750020503998,0.07411249727010727
1791052400439447600,5.028447509765625,0.3404499888420105,0.5139750242233276,0.1069749966263771
1791052400449081300,5.038081298828125,0.36121249198913574,0.45416250824928284,0.40273749828338623
1791052400458715400,5.04771533203125,0.39544999599456787,0.5384500026702881,0.08387500047683716
1791052400468349200,5.05734912109375,0.38087499141693115,0.5665000081062317,0.028875000774860382
1791052400477983000,5.06698291015625,0.3564000129699707,0.6250749826431274,-0.10559999942779541
1791052400487616800,5.07661669921875,0.3796375095844269,0.6557375192642212,-0.1116499975323677
1791052400497250600,5.08625048828125,0.3796375095844269,0.622737467288971,-0.011412499472498894
1791052400506884400,5.09588427734375,0.36739999055862427,0.565262496471405,0.28421249985694885
1791052400516518400,5.105518310546875,0.30387499928474426,0.49678748846054077,0.45883750915527344
1791052400526152200,5.115152099609375,0.24392500519752502,0.5787374973297119,0.19497500360012054
1791052400535786000,5.124785888671875,0.21587499976158142,0.5799750089645386,0.05087500065565109
1791052400545419800,5.134419677734375,0.219587504863739,0.5517874956130981,0.09487500041723251
1791052400555053600,5.144053466796875,0.2256374955177307,0.583549976348877,-0.09459999948740005
1791052400564687600,5.1536875,0.07535000145435333,0.38940000534057617,0.46502500772476196
1791052400574321200,5.163321044921875,-0.06517499685287476,0.2928749918937683,0.4833124876022339
1791052400583955000,5.172954833984375,-0.02969999983906746,0.5005000233650208,-0.3609375059604645
1791052400593588700,5.182588623046875,-0.10175000131130219,0.3086875081062317,0.10092499852180481
1791052400603222800,5.192222900390625,-0.1933249980211258,0.16087499260902405,0.33178749680519104
1791052400612856600,5.201856689453125,-0.27527499198913574,0.357637494802475,-0.30951249599456787
1791052400622490400,5.211490478515625,-0.3302749991416931,0.12058749794960022,0.18150000274181366
1791052400632124200,5.221124267578125,-0.41813749074935913,0.01677500084042549,0.2194499969482422
1791052400641758000,5.230758056640625,-0.415800005197525,0.1266375035047531,-0.19965000450611115
1791052400651391700,5.240391845703125,-0.47189998626708984,0.09253749996423721,-0.11288750171661377
1791052400661025500,5.250025634765625,-0.6087124943733215,-0.1494625061750412,0.4345000088214874
1791052400670659600,5.25965966796875,-0.5953750014305115,-0.03464999794960022,-0.10793749988079071
1791052400680293000,5.269293212890625,-0.6209499835968018,-0.09075000137090683,-0.1568875014781952
1791052400689927000,5.278927001953125,-0.6844750046730042,-0.10422500222921371,-0.2032250016927719
1791052400699560700,5.288560791015625,-0.6124249696731567,-0.01746249943971634,-0.5220875144004822
1791052400709194500,5.298194580078125,-0.6931374669075012,-0.12017499655485153,0.1742125004529953
1791052400718828500,5.30782861328125,-0.7357624769210815,-0.24722500145435333,0.3867875039577484
1791052400728462300,5.31746240234375,-0.7284749746322632,-0.30332499742507935,0.3525499999523163
1791052400738096000,5.32709619140625,-0.824999988079071,-0.4890874922275543,0.5053125023841858
1791052400747730000,5.33672998046875,-0.7699999809265137,-0.17022499442100525,-0.35227498412132263
1791052400757363700,5.34636376953125,-0.7149999737739563,0.021587500348687172,-0.7994250059127808
1791052400766997500,5.35599755859375,-0.7541875243186951,-0.21656249463558197,0.08621250092983246
1791052400776631600,5.365631591796875,-0.6906625032424927,-0.35227498412132263,0.196212500333786
1791052400786265000,5.37526513671875,-0.6356624960899353,-0.18479999899864197,-0.27898749709129333
1791052400795899000,5.38489892578125,-0.7236624956130981,-0.3315125107765198,0.22426250576972961
1791052400805532700,5.39453271484375,-0.694237470626831,-0.16898749768733978,-0.2582249939441681
1791052400815166500,5.40416650390625,-0.5781875252723694,-0.14698749780654907,-0.27898749709129333
1791052400824800300,5.41380029296875,-0.6857125163078308,-0.30332499742507935,0.23045000433921814
1791052400834434300,5.423434326171875,-0.6136624813079834,-0.22151249647140503,-0.09088750183582306
1791052400844068000,5.433068115234375,-0.5574250221252441,-0.17998750507831573,-0.1788875013589859
1791052400853702000,5.442701904296875,-0.5856124758720398,-0.22522500157356262,0.0471624992787838
1791052400863335700,5.452335693359375,-0.5659499764442444,-0.2264624983072281,0.09968750178813934
1791052400872969500,5.461969482421875,-0.5171374678611755,-0.18479999899864197,-0.08841250091791153
1791052400882603300,5.471603271484375,-0.5306124687194824,-0.3755125105381012,0.3880249857902527
1791052400892237000,5.481237060546875,-0.47932499647140503,-0.1237500011920929,-0.3755125105381012
1791052400901870800,5.490870849609375,-0.4536125063896179,-0.15070000290870667,-0.4745124876499176
1791052400911504600,5.500504638671875,-0.5073750019073486,-0.3375625014305115,0.30250000953674316
1791052400921138700,5.510138671875,-0.41456249356269836,-0.17998750507831573,-0.2974124848842621
1791052400930772500,5.5197724609375,-0.3876124918460846,-0.24598750472068787,0.009349999949336052
1791052400940406000,5.529406005859375,-0.49761250615119934,-0.3620375096797943,0.36726251244544983
1791052400950039800,5.539039794921875,-0.4573250114917755,-0.24722500145435333,0.03616249933838844
1791052400959673900,5.548673828125,-0.33508750796318054,-0.23498749732971191,0.1742125004529953
1791052400969307600,5.5583076171875,-0.35708749294281006,-0.19222499430179596,0.06916250288486481
1791052400978941400,5.56794140625,-0.359562486410141,-0.10546249896287918,-0.3474625051021576
1791052400988575200,5.5775751953125,-0.2250874936580658,0.019112499430775642,-0.6260374784469604
1791052400998209000,5.587208984375,-0.35337498784065247,-0.18603749573230743,0.44907498359680176
1791052401007842800,5.5968427734375,-0.3778499960899353,-0.12870000302791595,-0.12636250257492065
1791052401017476600,5.6064765625,-0.3815625011920929,-0.32532501220703125,0.5603125095367432
1791052401027110700,5.616110595703125,-0.41084998846054077,-0.38032498955726624,0.3843125104904175
1791052401036744200,5.625744140625,-0.3937999904155731,-0.1970375031232834,-0.30098751187324524
1791052401046378000,5.6353779296875,-0.4388999938964844,-0.2947999835014343,-0.39627498388290405
1791052401056011800,5.64501171875,-0.5341874957084656,-0.3937999904155731,0.04839999973773956
1791052401065645800,5.654645751953125,-0.48537498712539673,-0.4390375018119812,0.1326874941587448
1791052401075279400,5.664279296875,-0.41208750009536743,-0.368087500333786,-0.24365000426769257
1791052401084913400,5.673913330078125,-0.47066250443458557,-0.43408748507499695,0.06187500059604645
1791052401094547200,5.683547119140625,-0.4059000015258789,-0.3082749843597412,-0.22769999504089355
1791052401104180700,5.6931806640625,-0.35103750228881836,-0.2679874897003174,-0.15070000290870667
1791052401113814500,5.702814453125,-0.2923249900341034,-0.3338499963283539,0.2475000023841858
1791052401123448600,5.712448486328125,-0.23251250386238098,-0.24598750472068787,0.025162499397993088
1791052401133082400,5.722082275390625,-0.2887499928474426,-0.4218499958515167,0.6934124827384949
1791052401142716200,5.731716064453125,-0.2227499932050705,-0.16403749585151672,-0.1214125007390976
1791052401152350000,5.741349853515625,-0.16403749585151672,-0.06270000338554382,-0.5440874695777893
1791052401161983700,5.750983642578125,-0.2593249976634979,-0.3265624940395355,0.4675000011920929
1791052401171617500,5.760617431640625,-0.2055625021457672,-0.304562509059906,0.18768750131130219
1791052401181251600,5.77025146484375,-0.17627499997615814,-0.2410375028848648,-0.10188750177621841
1791052401190885000,5.779885009765625,-0.20432500541210175,-0.27156248688697815,-0.04207500070333481
1791052401200519000,5.789518798828125,-0.20198750495910645,-0.23498749732971191,-0.09693749994039536
1791052401210152700,5.799152587890625,-0.06270000338554382,-0.13103750348091125,-0.34127500653266907
1791052401219786500,5.808786376953125,-0.10298749804496765,-0.19951249659061432,0.09116250276565552
1791052401229420300,5.818420166015625,-0.09446249902248383,-0.23375000059604645,0.31226250529289246
1791052401239054300,5.828054443359375,-0.07975000143051147,-0.22522500157356262,0.20473749935626984
1791052401248688000,5.837688232421875,-0.09322500228881836,-0.3057999908924103,0.47850000858306885
1791052401258321700,5.84732177734375,0.007012499962002039,0.020349999889731407,-0.5172749757766724
1791052401267955500,5.85695556640625,-0.03946249932050705,-0.060224998742341995,-0.47079998254776
1791052401277589500,5.866589599609375,-0.06517499685287476,-0.17874999344348907,0.5370749831199646
1791052401287223300,5.876223388671875,-0.13103750348091125,-0.17998750507831573,0.4137375056743622
1791052401296857000,5.885857177734375,0.03135000169277191,0.06929999589920044,-0.37427499890327454
1791052401306491000,5.895490966796875,0.05211250111460686,-0.02969999983906746,-0.24969999492168427
1791052401316124700,5.905124755859375,0.010587500408291817,-0.30703750252723694,0.8291249871253967
1791052401325758500,5.914758544921875,0.03135000169277191,-0.006462499964982271,-0.09212499856948853
1791052401335392500,5.924392578125,0.14630000293254852,0.23539999127388,-0.794612467288971
1791052401345026000,5.934026123046875,0.05582499876618385,-0.04922499880194664,0.28421249985694885
1791052401354659800,5.943659912109375,0.1303499937057495,-0.09446249902248383,0.2096875011920929
1791052401364293600,5.953293701171875,0.11329999566078186,0.014299999922513962,-0.0541750006377697
1791052401373927400,5.962927490234375,0.06201250106096268,0.05087500065565109,-0.18988749384880066
1791052401383561200,5.972561279296875,0.1120624989271164,0.12058749794960022,-0.41827499866485596
1791052401393195300,5.9821953125,0.07535000145435333,0.020349999889731407,0.13763749599456787
1791052401402829000,5.9918291015625,0.01924999989569187,-0.15798750519752502,0.6763625144958496
1791052401412462600,6.001462646484375,0.09006249904632568,0.018012499436736107,-0.03217500075697899
1791052401422096400,6.011096435546875,0.004537499975413084,-0.005224999971687794,-0.043175000697374344
1791052401431730200,6.020730224609375,-0.11522500216960907,-0.25575000047683716,0.5908374786376953
1791052401441364200,6.0303642578125,-0.12870000302791595,-0.12498749792575836,-0.007837500423192978
1791052401450998000,6.039998046875,-0.1494625061750412,0.030112499371170998,-0.4452250003814697
1791052401460631800,6.0496318359375,-0.23127499222755432,-0.1555124968290329,0.03244999796152115
1791052401470265600,6.059265625,-0.23498749732971191,-0.3863750100135803,0.7851250171661377
1791052401479899100,6.068899169921875,-0.17627499997615814,-0.23375000059604645,0.055687498301267624
1791052401489533200,6.078533203125,-0.25575000047683716,-0.2630375027656555,0.05816249921917915
1791052401499167000,6.0881669921875,-0.32161250710487366,-0.17022499442100525,-0.40727499127388
1791052401508800800,6.09780078125,-0.29961249232292175,-0.11151249706745148,-0.6052749752998352
1791052401518434600,6.1074345703125,-0.36932501196861267,-0.23732499778270721,0.6188874840736389
1791052401528068400,6.117068359375,-0.33508750796318054,-0.2667500078678131,0.19126249849796295
1791052401537702100,6.1267021484375,-0.3583250045776367,-0.2582249939441681,0.05444999784231186
1791052401547336000,6.1363359375,-0.4291374981403351,-0.29727500677108765,0.09239999949932098
1791052401556969700,6.1459697265625,-0.43037500977516174,-0.22522500157356262,-0.2961750030517578
1791052401566603500,6.155603515625,-0.42432498931884766,-0.3217499852180481,-0.14588749408721924
1791052401576237300,6.1652373046875,-0.44866248965263367,-0.30332499742507935,-0.24969999492168427
1791052401585871000,6.17487109375,-0.45608749985694885,-0.22756250202655792,-0.5440874695777893
1791052401595504600,6.184504638671875,-0.5476624965667725,-0.3497999906539917,0.1742125004529953
1791052401605138700,6.194138671875,-0.4768500030040741,-0.3338499963283539,-0.12759999930858612
1791052401614772500,6.2037724609375,-0.45608749985694885,-0.3863750100135803,-0.089649997651577
1791052401624406300,6.21340625,-0.5819000005722046,-0.6881874799728394,0.7961249947547913
1791052401634040000,6.2230400390625,-0.4816625118255615,-0.3852750062942505,-0.21917499601840973
1791052401643673900,6.232673828125,-0.3656125068664551,-0.24351249635219574,-0.6260374784469604
1791052401653307600,6.2423076171875,-0.5293750166893005,-0.5293750166893005,0.3722124993801117
1791052401662941400,6.25194140625,-0.46956250071525574,-0.3546124994754791,-0.3242250084877014
1791052401672575200,6.2615751953125,-0.43037500977516174,-0.4170374870300293,-0.20446249842643738
1791052401682209000,6.271208984375,-0.4573250114917755,-0.636900007724762,0.6115999817848206
1791052401691842800,6.2808427734375,-0.44756248593330383,-0.5428500175476074,0.2096875011920929
1791052401701476400,6.290476318359375,-0.32284998893737793,-0.34485000371932983,-0.2924624979496002
1791052401711110400,6.3001103515625,-0.16775000095367432,-0.17270000278949738,-0.8141375184059143
1791052401720744200,6.309744140625,-0.4035624861717224,-0.3497999906539917,0.17173749208450317
1791052401730378000,6.3193779296875,-0.4010874927043915,-0.4768500030040741,0.3830749988555908
1791052401740011800,6.32901171875,-0.3497999906539917,-0.6307125091552734,0.6128374934196472
1791052401749645600,6.3386455078125,-0.19222499430179596,-0.27898749709129333,-0.2521750032901764
1791052401759279400,6.348279296875,0.009349999949336052,0.10106249898672104,-1.3113374710083008
1791052401768913400,6.357913330078125,-0.3240875005722046,-0.304562509059906,0.4160749912261963
1791052401778547000,6.367546875,-0.26785001158714294,-0.6111875176429749,0.7741249799728394
1791052401788180700,6.3771806640625,0.008249999955296516,-0.11769999563694,-0.34622499346733093
1791052401797814500,6.386814453125,-0.06517499685287476,-0.09446249902248383,-0.35846251249313354
1791052401807448300,6.3964482421875,-0.142037495970726,-0.24227499961853027,0.3195500075817108
1791052401817082000,6.40608203125,-0.07369999587535858,-0.1909874975681305,0.11921250075101852
1791052401826716000,6.4157158203125,-0.006462499964982271,-0.20198750495910645,0.21449999511241913
1791052401836349700,6.425349609375,0.06558749824762344,-0.17270000278949738,0.1363999992609024
1791052401845983500,6.4349833984375,0.04235000163316727,0.03987500071525574,-0.545324981212616
1791052401855617300,6.4446171875,-0.12622499465942383,-0.18851250410079956,0.2414499968290329
1791052401865251000,6.4542509765625,-0.08951249718666077,-0.3718000054359436,0.5077875256538391
1791052401874884900,6.463884765625,0.13158750534057617,-0.11027500033378601,-0.23622499406337738
1791052401884518700,6.4735185546875,0.13529999554157257,0.05335000157356262,-0.9461374878883362
1791052401894152400,6.48315234375,-0.13103750348091125,-0.22522500157356262,0.46860000491142273
1791052401903786200,6.4927861328125,-0.1518000066280365,-0.29727500677108765,0.26221248507499695
1791052401913420000,6.502419921875,-0.07493750005960464,-0.33274999260902405,0.5077875256538391
1791052401923053800,6.5120537109375,0.04235000163316727,-0.2569875121116638,0.13021250069141388
1791052401932687600,6.5216875,0.024062499403953552,0.04729999974370003,-0.7933750152587891
1791052401942321400,6.5313212890625,-0.23251250386238098,-0.27156248688697815,0.5663625001907349
1791052401951955200,6.540955078125,-0.2947999835014343,-0.48179998993873596,0.6348375082015991
1791052401961589000,6.550589111328125,-0.023512499406933784,-0.2630375027656555,0.03863750025629997
1791052401971222500,6.560222412109375,-0.06517499685287476,-0.2227499932050705,-0.12759999930858612
1791052401980856600,6.569856689453125,-0.10793749988079071,0.028875000774860382,-0.9009000062942505
1791052401990490400,6.579490478515625,-0.2862749993801117,-0.2605625092983246,-0.06393750011920929
1791052402000124200,6.589124267578125,-0.142037495970726,-0.4133250117301941,0.18768750131130219
1791052402009758000,6.598758056640625,-0.03946249932050705,-0.2997500002384186,-0.031075000762939453
1791052402019391700,6.608391845703125,-0.2690874934196472,-0.36079999804496765,0.227974995970726
1791052402029025500,6.618025634765625,-0.28984999656677246,-0.22522500157356262,-0.3609375059604645
1791052402038659300,6.627659423828125,-0.22151249647140503,-0.27898749709129333,-0.4012250006198883
1791052402048293000,6.637293212890625,-0.18975000083446503,-0.5268999934196472,0.5761250257492065
1791052402057927000,6.646927001953125,-0.16898749768733978,-0.32284998893737793,-0.050599999725818634
1791052402067560700,6.656560791015625,-0.2287999987602234,-0.2997500002384186,-0.1629374921321869
1791052402077194500,6.666194580078125,-0.3302749991416931,-0.42803749442100525,0.10944999754428864
1791052402086828300,6.675828369140625,-0.2227499932050705,-0.3778499960899353,-0.04936249926686287
1791052402096462000,6.685462158203125,-0.11769999563694,-0.3302749991416931,-0.45746248960494995
1791052402106095900,6.695095947265625,-0.2887499928474426,-0.41456249356269836,0.3392125070095062
1791052402115729700,6.704729736328125,-0.3265624940395355,-0.42432498931884766,0.1106875017285347
1791052402125363500,6.714363525390625,-0.3302749991416931,-0.49761250615119934,0.16321249306201935
1791052402134997200,6.723997314453125,-0.21051250398159027,-0.4291374981403351,-0.1849374920129776
1791052402144631000,6.733631103515625,-0.12870000302791595,-0.34127500653266907,-0.3755125105381012
1791052402154264800,6.743264892578125,-0.2227499932050705,-0.4353249967098236,0.10339999943971634
1791052402163898600,6.752898681640625,-0.29356250166893005,-0.40727499127388,-0.04207500070333481
1791052402173532400,6.762532470703125,-0.2227499932050705,-0.5501375198364258,0.48454999923706055
1791052402183166000,6.772166015625,-0.2092749923467636,-0.6271374821662903,0.4760249853134155
1791052402192800000,6.781800048828125,-0.060224998742341995,-0.15674999356269836,-0.7383750081062317
1791052402202433800,6.791433837890625,-0.1812250018119812,-0.4010874927043915,-0.053075000643730164
1791052402212067600,6.801067626953125,-0.14822499454021454,-0.4890874922275543,0.35997501015663147
1791052402221701000,6.810701171875,-0.043175000697374344,-0.3082749843597412,-0.13846249878406525
1791052402231335000,6.8203349609375,-0.10175000131130219,-0.5196124911308289,0.6494125127792358
1791052402240968700,6.82996875,-0.06875000149011612,-0.40232500433921814,0.18892499804496765
1791052402250602500,6.8396025390625,0.05829999968409538,-0.07975000143051147,-0.8251374959945679
1791052402260236500,6.849236572265625,-0.014987500384449959,-0.3620375096797943,0.3722124993801117
1791052402269870000,6.8588701171875,0.029012499377131462,-0.4609000086784363,0.454025000333786
1791052402279504000,6.86850390625,0.17063750326633453,-0.24598750472068787,-0.15936249494552612
1791052402289137700,6.8781376953125,0.08277499675750732,-0.3082749843597412,0.026399999856948853
1791052402298771500,6.887771484375,0.11811249703168869,-0.32284998893737793,0.1106875017285347
1791052402308405000,6.897405029296875,0.25616249442100525,-0.11769999563694,-0.4769875109195709
1791052402318039000,6.9070390625,0.24034999310970306,-0.22522500157356262,-0.016362499445676804
1791052402327672800,6.9166728515625,0.23182499408721924,-0.18603749573230743,-0.12759999930858612
1791052402337306600,6.926306640625,0.18535000085830688,-0.15070000290870667,0.0826374962925911
1791052402346940400,6.9359404296875,0.18411250412464142,-0.22151249647140503,0.3550249934196472
1791052402356574000,6.945573974609375,0.2110625058412552,-0.28380000591278076,0.4295499920845032
1791052402366207700,6.955207763671875,0.3636874854564667,-0.14327499270439148,0.06544999778270721
1791052402375841500,6.964841552734375,0.40521249175071716,0.09735000133514404,-0.6028000116348267
1791052402385475600,6.9744755859375,0.19016249477863312,-0.13103750348091125,0.26468750834465027
1791052402395109400,6.984109375,0.24158750474452972,-0.2532750070095062,0.47850000858306885
1791052402404743000,6.993742919921875,0.36121249198913574,-0.07741250097751617,-0.012649999931454659
1791052402414376700,7.003376708984375,0.3209249973297119,-0.014987500384449959,-0.15441249310970306
1791052402424010500,7.013010498046875,0.2866874933242798,-0.113987497985363,0.08992499858140945
1791052402433644300,7.022644287109375,0.33192500472068787,-0.10298749804496765,0.05816249921917915
1791052402443278300,7.0322783203125,0.38321250677108765,0.03135000169277191,-0.391462504863739
1791052402452911900,7.041911865234375,0.3221625089645386,-0.10298749804496765,0.33550000190734863
1791052402462545700,7.051545654296875,0.3942124843597412,-0.13722500205039978,0.28049999475479126
1791052402472179500,7.061179443359375,0.4479750096797943,-0.01746249943971634,-0.015124999918043613
1791052402481813200,7.070813232421875,0.43821248412132263,0.13887499272823334,-0.5698000192642212
1791052402491447300,7.080447265625,0.36616250872612,0.018012499436736107,0.0826374962925911
1791052402501080800,7.090080810546875,0.4553999900817871,-0.03341250121593475,0.15716250240802765
1791052402510714600,7.099714599609375,0.41868749260902405,-0.11151249706745148,0.37578749656677246
1791052402520348400,7.109348388671875,0.4809750020503998,0.027775000780820847,-0.19112500548362732
1791052402529982200,7.118982177734375,0.512737512588501,0.17434999346733093,-0.44398748874664307
1791052402539616000,7.128615966796875,0.4675000011920929,0.07906249910593033,-0.23388749361038208
1791052402549249800,7.138249755859375,0.4479750096797943,0.0057749999687075615,0.15592500567436218
1791052402558883600,7.147883544921875,0.5299249887466431,0.11082500219345093,-0.3059374988079071
1791052402568517400,7.157517333984375,0.4394499957561493,-0.0919874981045723,0.7386500239372253
1791052402578151200,7.167151123046875,0.4577375054359436,0.1023000031709671,-0.1691250056028366
1791052402587784700,7.17678466796875,0.4076874852180481,0.15839999914169312,-0.3217499852180481
1791052402597418800,7.186418701171875,0.4016374945640564,0.05211250111460686,0.07163749635219574
1791052402607052500,7.196052490234375,0.4492124915122986,0.1083500012755394,-0.13241249322891235
1791052402616686300,7.205686279296875,0.4589749872684479,0.1046374961733818,-0.22769999504089355
1791052402626320000,7.21531982421875,0.33563750982284546,0.0032999999821186066,0.23649999499320984
1791052402635953700,7.22495361328125,0.47850000858306885,0.14258749783039093,-0.27665001153945923
1791052402645587500,7.23458740234375,0.4345000088214874,0.09735000133514404,0.03135000169277191
1791052402655221200,7.24422119140625,0.43821248412132263,0.1621125042438507,-0.16417500376701355
1791052402664855300,7.253855224609375,0.4577375054359436,0.14011250436306,-0.0028874999843537807
1791052402674488800,7.26348876953125,0.4431625008583069,0.05458749830722809,0.3807374835014343
1791052402684122600,7.27312255859375,0.38087499141693115,0.12058749794960022,0.17544999718666077
1791052402693756400,7.28275634765625,0.3844499886035919,0.19511249661445618,-0.15936249494552612
1791052402703390200,7.29239013671875,0.3918749988079071,0.31597501039505005,-0.41346248984336853
1791052402713024000,7.30202392578125,0.39916250109672546,0.2623499929904938,-0.25093749165534973
1791052402722657800,7.31165771484375,0.42473748326301575,0.18658749759197235,0.12044999748468399
1791052402732291600,7.32129150390625,0.4137375056743622,0.1120624989271164,0.2732124924659729
1791052402741925400,7.33092529296875,0.40039998292922974,0.06806249916553497,0.34154999256134033
1791052402751559200,7.34055908203125,0.4589749872684479,0.2451625019311905,-0.30951249599456787
1791052402761192700,7.350192626953125,0.4749250113964081,0.23292499780654907,-0.23622499406337738
1791052402770826500,7.359826416015625,0.44440001249313354,0.23787499964237213,-0.18246249854564667
1791052402780460500,7.36946044921875,0.4479750096797943,0.2073500007390976,-0.02736249938607216
1791052402790094300,7.37909423828125,0.3918749988079071,0.1816374957561493,0.15839999914169312
1791052402799727900,7.388727783203125,0.3881624937057495,0.15606249868869781,0.2059749960899353
1791052402809361700,7.398361572265625,0.3881624937057495,0.17063750326633453,0.05211250111460686
1791052402818995500,7.407995361328125,0.38940000534057617,0.2073500007390976,-0.07493750005960464
1791052402828629500,7.41762939453125,0.357637494802475,0.1621125042438507,0.16940000653266907
1791052402838263000,7.427262939453125,0.2769249975681305,0.13158750534057617,0.22550000250339508
1791052402847896800,7.436896728515625,0.22811250388622284,0.13763749599456787,0.06916250288486481
1791052402857530600,7.446530517578125,0.15839999914169312,0.21216249465942383,-0.18741250038146973
1791052402867164400,7.456164306640625,0.24392500519752502,0.19016249477863312,-0.24365000426769257
1791052402876798200,7.465798095703125,0.1816374957561493,0.0668250024318695,0.18039999902248383
1791052402886432000,7.475431884765625,0.15963749587535858,0.13282500207424164,-0.16664999723434448
1791052402896065800,7.485065673828125,0.05458749830722809,0.007012499962002039,0.3110249936580658
1791052402905699600,7.494699462890625,0.03382499888539314,0.11935000121593475,-0.19470000267028809
1791052402915333400,7.50433349609375,0.09858749806880951,0.1023000031709671,-0.2069374918937683
1791052402924967200,7.51396728515625,0.0668250024318695,0.05829999968409538,0.23526249825954437
1791052402934600700,7.5236005859375,-0.007699999958276749,-0.0004124999977648258,0.3392125070095062
1791052402944234800,7.53323486328125,-0.1970375031232834,-0.29727500677108765,0.9084625244140625
1791052402953868500,7.54286865234375,-0.08703749626874924,0.1266375035047531,-0.24969999492168427
1791052402963502300,7.55250244140625,0.24158750474452972,0.4614500105381012,-1.253999948501587
1791052402973136100,7.56213623046875,0.009349999949336052,0.06311249732971191,0.47478750348091125
1791052402982769700,7.571769775390625,-0.035750001668930054,0.05829999968409538,0.16568750143051147
1791052402992403500,7.581403564453125,0.08882500231266022,0.12058749794960022,-0.4195125102996826
1791052403002037200,7.591037353515625,0.020349999889731407,-0.15427500009536743,0.9719874858856201
1791052403011671300,7.60067138671875,0.12182500213384628,0.20239999890327454,-0.33646249771118164
1791052403021305000,7.61030517578125,0.171875,0.08635000139474869,-0.271699994802475
1791052403030938600,7.619938720703125,-0.03341250121593475,-0.3082749843597412,1.253037452697754
1791052403040572400,7.629572509765625,-0.008937500417232513,0.002062499988824129,0.2194499969482422
1791052403050206200,7.639206298828125,0.171875,0.3856875002384186,-0.8129000067710876
1791052403059840300,7.64884033203125,0.19882500171661377,0.15963749587535858,-0.2484624981880188
1791052403069473800,7.658473876953125,0.20858749747276306,0.08882500231266022,-0.038362499326467514
1791052403079107600,7.668107666015625,0.1658249944448471,0.19634999334812164,-0.4525125026702881
1791052403088741400,7.677741455078125,0.1816374957561493,0.07906249910593033,0.2634499967098236
1791052403098375200,7.687375244140625,0.1938749998807907,0.04235000163316727,0.24997499585151672
1791052403108009000,7.697009033203125,0.22192500531673431,0.2073500007390976,-0.17393749952316284
1791052403117642800,7.706642822265625,0.22439999878406525,0.1438249945640564,0.19016249477863312
1791052403127276500,7.716276611328125,0.20611250400543213,0.16087499260902405,0.06311249732971191
1791052403136910300,7.725910400390625,0.22811250388622284,0.23787499964237213,-0.10559999942779541
1791052403146544000,7.735544189453125,0.27211248874664307,0.22439999878406525,0.04963750019669533
1791052403156178000,7.745177978515625,0.3026374876499176,0.2171124964952469,0.030112499371170998
1791052403165811700,7.754811767578125,0.2745875120162964,0.24034999310970306,-0.018837500363588333
1791052403175445500,7.764445556640625,0.283112496137619,0.21216249465942383,0.10821250081062317
1791052403185079300,7.774079345703125,0.19139999151229858,0.20487499237060547,0.12773749232292175
1791052403194713000,7.783713134765625,0.30016249418258667,0.40892499685287476,-0.5257999897003174
1791052403204346600,7.7933466796875,0.2866874933242798,0.2769249975681305,0.03616249933838844
1791052403213980700,7.802980712890625,0.27816250920295715,0.25011250376701355,0.05444999784231186
1791052403223614200,7.8126142578125,0.283112496137619,0.26468750834465027,0.11563749611377716
1791052403233248300,7.822248291015625,0.24763749539852142,0.27445000410079956,0.1742125004529953
1791052403242881800,7.8318818359375,0.23663750290870667,0.3026374876499176,-0.031075000762939453
1791052403252515600,7.841515625,0.23663750290870667,0.2806375026702881,0.026399999856948853
1791052403262149400,7.8511494140625,0.18411250412464142,0.1755875051021576,0.47478750348091125
1791052403271783200,7.860783203125,0.19016249477863312,0.357637494802475,-0.12759999930858612
1791052403281416700,7.870416748046875,0.19511249661445618,0.3282124996185303,-0.004124999977648258
1791052403291050800,7.88005078125,0.1755875051021576,0.3086875081062317,-0.031075000762939453
1791052403300684500,7.8896845703125,0.1266375035047531,0.20363749563694,0.29026249051094055
1791052403310318300,7.899318359375,0.08635000139474869,0.3392125070095062,-0.260699987411499
1791052403319952100,7.9089521484375,0.09377499669790268,0.23787499964237213,0.23649999499320984
1791052403329585700,7.918585693359375,0.1046374961733818,0.2488749921321869,0.043449997901916504
1791052403339219500,7.928219482421875,0.0765874981880188,0.2513499855995178,-0.040837500244379044
1791052403348853200,7.937853271484375,-0.02969999983906746,0.12058749794960022,0.3623124957084656
1791052403358487300,7.9474873046875,0.025299999862909317,0.31968748569488525,-0.415800005197525
1791052403368121000,7.95712109375,0.011824999935925007,0.22192500531673431,0.06187500059604645
1791052403377754600,7.966754638671875,0.008249999955296516,0.1023000031709671,0.29397499561309814
1791052403387388400,7.976388427734375,-0.07975000143051147,0.04977500066161156,0.31349998712539673
1791052403397022200,7.986022216796875,-0.13474999368190765,0.10339999943971634,0.03863750025629997
1791052403406656000,7.995656005859375,-0.11769999563694,0.19016249477863312,-0.3499374985694885
1791052403416289800,8.005289794921875,-0.06875000149011612,0.2073500007390976,-0.7481374740600586
1791052403425923600,8.014923583984375,-0.13722500205039978,0.01677500084042549,0.596887469291687
1791052403435557400,8.024557373046875,-0.12870000302791595,0.0705375000834465,-0.30346250534057617
1791052403445191200,8.034191162109375,-0.23732499778270721,-0.13227500021457672,0.5505499839782715
1791052403454824700,8.04382470703125,-0.23498749732971191,-0.021175000816583633,0.03616249933838844
1791052403464458500,8.05345849609375,-0.10422500222921371,0.10958749800920486,-0.6113250255584717
1791052403474092500,8.063092529296876,-0.296037495136261,-0.15674999356269836,0.4417875111103058
1791052403483726300,8.072726318359376,-0.2667500078678131,-0.02722499892115593,-0.11893749982118607
1791052403493359900,8.08235986328125,-0.142037495970726,0.03753750026226044,-0.5893250107765198
1791052403502993700,8.09199365234375,-0.21779999136924744,-0.0541750006377697,0.12292499840259552
1791052403512627500,8.10162744140625,-0.2287999987602234,-0.056512501090765,0.13021250069141388
1791052403522261200,8.11126123046875,-0.23732499778270721,-0.09446249902248383,0.18645000457763672
1791052403531895000,8.12089501953125,-0.2690874934196472,-0.2055625021457672,0.39902499318122864
1791052403541528800,8.13052880859375,-0.21051250398159027,0.06435000151395798,-0.3596999943256378
1791052403551162600,8.14016259765625,-0.1555124968290329,-0.060224998742341995,-0.020075000822544098
1791052403560796400,8.14979638671875,-0.23856249451637268,-0.27898749709129333,0.6188874840736389
1791052403570430200,8.15943017578125,-0.1555124968290329,0.12430000305175781,-0.4745124876499176
1791052403580063700,8.169063720703125,-0.1812250018119812,0.013062499463558197,-0.12636250257492065
1791052403589697500,8.178697509765625,-0.050462499260902405,0.030112499371170998,-0.15193749964237213
1791052403599331600,8.18833154296875,-0.07369999587535858,-0.007699999958276749,0.1681624948978424
1791052403608965400,8.19796533203125,-0.08703749626874924,0.0008249999955296516,0.0019249999895691872
1791052403618599200,8.20759912109375,-0.021175000816583633,0.018012499436736107,0.015399999916553497
1791052403628233000,8.21723291015625,-0.014987500384449959,-0.012649999931454659,0.15950000286102295
1791052403637866500,8.226866455078126,-0.01993750035762787,0.025299999862909317,0.019112499430775642
1791052403647500300,8.236500244140625,-0.06393750011920929,0.022824998944997787,-0.011412499472498894
1791052403657134000,8.246134033203125,0.05458749830722809,0.2096875011920929,-0.6797999739646912
1791052403666768000,8.255767822265625,-0.02969999983906746,0.09363749623298645,0.1289750039577484
1791052403676401700,8.265401611328125,0.03753750026226044,0.11082500219345093,-0.10436250269412994
1791052403686035500,8.275035400390625,-0.02722499892115593,-0.02722499892115593,0.609125018119812
1791052403695669200,8.284669189453124,0.024062499403953552,-0.013749999925494194,0.22426250576972961
1791052403705303000,8.294302978515624,0.021587500348687172,0.2623499929904938,-0.5673249959945679
1791052403714936800,8.303936767578126,-0.03217500075697899,0.10339999943971634,-0.13612499833106995
1791052403724570600,8.313570556640625,-0.006462499964982271,-0.028462499380111694,0.5077875256538391
1791052403734204400,8.323204345703125,-0.02241249941289425,-0.02474999986588955,0.2657875120639801
1791052403743838200,8.332838134765625,-0.05169999971985817,0.12540000677108765,-0.2985124886035919
1791052403753471700,8.3424716796875,-0.13598750531673431,0.04977500066161156,-0.02736249938607216
1791052403763105800,8.352105712890625,-0.09927500039339066,0.05706249922513962,-0.09817499667406082
1791052403772739600,8.361739501953124,-0.10793749988079071,0.028875000774860382,0.05692499876022339
1791052403782373400,8.371373291015624,-0.06875000149011612,-0.006462499964982271,0.07039999961853027
1791052403792007200,8.381007080078126,-0.09927500039339066,-0.08717499673366547,0.23526249825954437
1791052403801640700,8.390640625,-0.06875000149011612,0.05335000157356262,-0.2667500078678131
1791052403811274500,8.4002744140625,-0.07975000143051147,-0.003987499978393316,-0.1434125006198883
1791052403820908300,8.409908203125,-0.1200374960899353,-0.08470000326633453,0.16321249306201935
1791052403830542000,8.4195419921875,-0.11522500216960907,0.05211250111460686,-0.31817498803138733
1791052403840175900,8.42917578125,-0.17998750507831573,-0.043175000697374344,0.1704999953508377
1791052403849809700,8.4388095703125,-0.16046249866485596,-0.12622499465942383,0.279262512922287
1791052403859443500,8.448443359375,-0.18603749573230743,-0.14327499270439148,0.2414499968290329
1791052403869077200,8.4580771484375,-0.06751249730587006,-0.012649999931454659,-0.2644124925136566
1791052403878711000,8.4677109375,-0.1835625022649765,-0.050462499260902405,-0.133650004863739
1791052403888344800,8.4773447265625,-0.16898749768733978,-0.06393750011920929,0.12168750166893005
1791052403897978600,8.486978515625,-0.1335124969482422,-0.0919874981045723,0.18521249294281006
1791052403907612400,8.4966123046875,-0.1297999918460846,-0.09075000137090683,0.14121249318122864
1791052403917246000,8.506245849609375,-0.14698749780654907,-0.07122500240802765,0.09844999760389328
1791052403926879700,8.515879638671874,-0.11769999563694,0.002062499988824129,-0.16169999539852142
1791052403936513800,8.525513671875,-0.1274625062942505,-0.016224998980760574,-0.10312499850988388
1791052403946147600,8.535147705078124,-0.08703749626874924,-0.038224998861551285,0.07768750190734863
1791052403955781000,8.544781005859376,-0.040699999779462814,-0.03217500075697899,0.03135000169277191
1791052403965415000,8.554414794921875,-0.07603749632835388,0.03753750026226044,-0.21546250581741333
1791052403975048700,8.564048583984375,-0.11275000125169754,-0.025987500324845314,0.22426250576972961
1791052403984682500,8.5736826171875,-0.10670000314712524,-0.057750001549720764,0.27568748593330383
1791052403994316300,8.58331640625,0.07535000145435333,0.008112499490380287,-0.13488750159740448
1791052404003950000,8.5929501953125,-0.038224998861551285,-0.03217500075697899,0.08868750184774399
1791052404013584000,8.602583984375,-0.02474999986588955,0.07782500237226486,-0.16417500376701355
1791052404023217700,8.6122177734375,-0.06627500057220459,0.011824999935925007,0.20116250216960907
1791052404032851200,8.621851318359376,0.01677500084042549,-0.0016499999910593033,0.08139999955892563
1791052404042485200,8.6314853515625,0.05706249922513962,-0.0028874999843537807,0.09487500041723251
1791052404052119000,8.641119140625,0.030249999836087227,0.09735000133514404,-0.18741250038146973
1791052404061752800,8.6507529296875,-0.023512499406933784,0.06187500059604645,-0.0798875018954277
1791052404071386400,8.660386474609375,-0.002749999985098839,-0.0004124999977648258,0.1424500048160553
1791052404081020200,8.670020263671875,0.17916250228881836,0.17434999346733093,-0.5660874843597412
1791052404090654000,8.679654052734374,0.011824999935925007,0.05953750014305115,0.09721250087022781
1791052404100287700,8.689287841796874,-0.03946249932050705,0.12911249697208405,-0.2679874897003174
1791052404109921300,8.69892138671875,-0.07493750005960464,0.022824998944997787,0.29878750443458557
1791052404119555300,8.708555419921876,0.0387750007212162,0.04729999974370003,-0.09212499856948853
1791052404129189000,8.718189208984375,0.010587500408291817,0.004537499975413084,0.23045000433921814
1791052404138823000,8.727822998046875,-0.02241249941289425,0.03258749842643738,0.05816249921917915
1791052404148456400,8.73745654296875,-0.1555124968290329,0.019112499430775642,0.13021250069141388
1791052404158090200,8.74709033203125,-0.24227499961853027,-0.19346250593662262,0.5053125023841858
1791052404167724000,8.75672412109375,0.05211250111460686,0.3258749842643738,-0.8837124705314636
1791052404177357800,8.76635791015625,-0.011412499472498894,0.12787500023841858,-0.6858500242233276
1791052404186991600,8.77599169921875,-0.1518000066280365,0.0057749999687075615,0.5333625078201294
1791052404196625400,8.78562548828125,-0.15056249499320984,0.0826374962925911,-0.2032250016927719
1791052404206259200,8.79525927734375,-0.12127500027418137,-0.21051250398159027,0.866937518119812
1791052404215893000,8.80489306640625,-0.006462499964982271,0.05582499876618385,-0.14093749225139618
1791052404225526800,8.81452685546875,-0.056512501090765,0.23058749735355377,-0.8434249758720398
1791052404235160300,8.824160400390625,-0.31556248664855957,-0.10917499661445618,0.5858874917030334
1791052404244794000,8.833794189453124,-0.2545124888420105,-0.10670000314712524,0.259737491607666
1791052404254428000,8.843427978515624,-0.07975000143051147,0.15358750522136688,-0.7176125049591064
1791052404264061700,8.853061767578126,-0.18479999899864197,-0.06517499685287476,0.15468749403953552
1791052404273695500,8.862695556640626,-0.2642749845981598,-0.1812250018119812,0.34402498602867126
1791052404283329300,8.872329345703125,-0.113987497985363,-0.028462499380111694,-0.17393749952316284
1791052404292963000,8.881963134765625,-0.23856249451637268,-0.23251250386238098,0.5725499987602234
1791052404302596900,8.891596923828125,-0.17998750507831573,-0.0004124999977648258,-0.23993749916553497
1791052404312230700,8.901230712890625,-0.12127500027418137,-0.007699999958276749,-0.509987473487854
1791052404321864400,8.910864501953125,-0.29356250166893005,-0.2593249976634979,0.6763625144958496
1791052404331498000,8.920498046875,-0.21779999136924744,-0.11893749982118607,0.0411125011742115
1791052404341131800,8.9301318359375,-0.09927500039339066,0.05829999968409538,-0.6235625147819519
1791052404350765800,8.939765869140626,-0.13474999368190765,-0.14698749780654907,-0.006599999964237213
1791052404360399400,8.9493994140625,-0.14822499454021454,-0.18975000083446503,0.0752125009894371
1791052404370033200,8.959033203125,-0.1297999918460846,-0.10051249712705612,-0.18012499809265137
1791052404379667000,8.9686669921875,-0.1909874975681305,-0.15798750519752502,0.18273749947547913
1791052404389300700,8.97830078125,-0.12498749792575836,-0.09927500039339066,-0.23746250569820404
1791052404398934500,8.9879345703125,-0.1592250019311905,-0.1714625060558319,0.31226250529289246
1791052404408568000,8.997568115234374,-0.16775000095367432,-0.20679999887943268,0.3269749879837036
1791052404418201900,9.007201904296876,-0.16651250422000885,-0.1909874975681305,0.14121249318122864
1791052404427836000,9.0168359375,-0.13103750348091125,-0.013749999925494194,-0.490325003862381
1791052404437469700,9.0264697265625,-0.10903749614953995,-0.14451250433921814,0.10587500035762787
1791052404447103200,9.036103271484375,-0.12127500027418137,-0.1274625062942505,0.0006874999962747097
1791052404456737000,9.045737060546875,-0.06751249730587006,-0.07851249724626541,-0.2937000095844269
1791052404466370800,9.055370849609375,-0.1518000066280365,-0.1457500010728836,0.164450004696846
1791052404476004600,9.065004638671875,-0.08346249908208847,-0.04193750023841858,-0.4047999978065491
1791052404485638400,9.074638427734374,-0.08098749816417694,-0.12498749792575836,0.3684999942779541
1791052404495272200,9.084272216796874,-0.09446249902248383,-0.1457500010728836,0.45526251196861267
1791052404504906000,9.093906005859376,-0.056512501090765,0.04606249928474426,-0.27665001153945923
1791052404514539500,9.10353955078125,0.05953750014305115,0.10106249898672104,-0.5600374937057495
1791052404524173600,9.113173583984375,0.01924999989569187,0.025299999862909317,0.07163749635219574
1791052404533807000,9.12280712890625,0.05953750014305115,0.025299999862909317,-0.06517499685287476
1791052404543441200,9.132441162109375,0.0448249988257885,-0.018699999898672104,0.27445000410079956
1791052404553074700,9.14207470703125,0.0728750005364418,0.04358749836683273,0.030112499371170998
1791052404562708500,9.15170849609375,0.04606249928474426,0.11811249703168869,-0.1396999955177307
1791052404572342300,9.16134228515625,0.09735000133514404,0.09006249904632568,-0.07383749634027481
1791052404581975800,9.170975830078126,0.05582499876618385,-0.05898749828338623,0.5468375086784363
1791052404591609600,9.180609619140625,0.03258749842643738,0.0387750007212162,0.16940000653266907
1791052404601243400,9.190243408203125,0.1498750001192093,0.3392125070095062,-0.8263750076293945
1791052404610877400,9.19987744140625,0.1023000031709671,0.0765874981880188,-0.0016499999910593033
1791052404620511000,9.209510986328125,-0.008937500417232513,-0.09446249902248383,0.5028374791145325
1791052404630144800,9.219144775390625,0.06558749824762344,0.05829999968409538,-0.16417500376701355
1791052404639778600,9.228778564453124,-0.04193750023841858,-0.052937500178813934,0.34031251072883606
1791052404649412000,9.238412109375,0.020349999889731407,0.06187500059604645,-0.25341248512268066
1791052404659046000,9.2480458984375,-0.07493750005960464,-0.02722499892115593,0.22068749368190765
1791052404668679700,9.2576796875,-0.04193750023841858,-0.21051250398159027,0.44673749804496765
1791052404678313700,9.267313720703125,-0.1274625062942505,-0.07975000143051147,-0.026124998927116394
1791052404687947300,9.276947265625,-0.1200374960899353,0.08153750002384186,-0.6919000148773193
1791052404697581000,9.2865810546875,-0.1970375031232834,-0.12498749792575836,0.07039999961853027
1791052404707214800,9.29621484375,-0.1970375031232834,-0.25575000047683716,0.2732124924659729
1791052404716848400,9.305848388671874,-0.1652749925851822,-0.23622499406337738,0.16321249306201935
1791052404726482200,9.315482177734374,-0.2129874974489212,-0.09569999575614929,-0.37193748354911804
1791052404736116200,9.3251162109375,-0.17022499442100525,-0.028462499380111694,-0.6210874915122986
1791052404745749800,9.334749755859375,-0.2910875082015991,-0.19222499430179596,0.6263124942779541
1791052404755383600,9.344383544921875,-0.24227499961853027,-0.2287999987602234,0.12540000677108765
1791052404765017300,9.354017333984375,-0.22632500529289246,-0.25575000047683716,-0.007837500423192978
1791052404774651100,9.363651123046875,-0.2887499928474426,-0.23003749549388885,-0.19841249287128448
1791052404784285000,9.373284912109375,-0.3338499963283539,-0.2508000135421753,-0.10917499661445618
1791052404793918500,9.38291845703125,-0.3950375020503998,-0.45003750920295715,0.4478375017642975
1791052404803552500,9.392552490234374,-0.3106124997138977,-0.3535124957561493,-0.06888750195503235
1791052404813186000,9.40218603515625,-0.32532501220703125,-0.31927499175071716,-0.3535124957561493
1791052404822819800,9.41181982421875,-0.28503748774528503,-0.24722500145435333,-0.5233250260353088
1791052404832453600,9.42145361328125,-0.33508750796318054,-0.3718000054359436,0.39297500252723694
1791052404842087200,9.431087158203125,-0.31556248664855957,-0.4670875072479248,0.22673749923706055
1791052404851721200,9.44072119140625,-0.17503750324249268,-0.19951249659061432,-0.4232249855995178
1791052404861354800,9.450354736328125,-0.19222499430179596,-0.19346250593662262,-0.25093749165534973
1791052404870988500,9.459988525390624,-0.24227499961853027,-0.19827499985694885,-0.19965000450611115
1791052404880622300,9.469622314453124,-0.25203749537467957,-0.28751251101493835,0.2560249865055084
1791052404890256100,9.479256103515626,-0.14451250433921814,-0.37661248445510864,0.21092499792575836
1791052404899890000,9.488889892578126,-0.10051249712705612,-0.31679999828338623,0.0019249999895691872
1791052404909523500,9.4985234375,-0.02969999983906746,-0.15193749964237213,-0.47327500581741333
1791052404919157200,9.5081572265625,-0.04427500069141388,-0.22398750483989716,-0.35227498412132263
1791052404928791300,9.517791259765625,-0.13598750531673431,-0.37427499890327454,0.6103624701499939
1791052404938424800,9.5274248046875,0.15963749587535858,-0.11769999563694,-0.2667500078678131
1791052404948058600,9.53705859375,0.0728750005364418,-0.16046249866485596,0.015399999916553497
1791052404957692400,9.5466923828125,0.03629999980330467,-0.1775124967098236,0.13392500579357147
1791052404967326000,9.556325927734376,-0.008937500417232513,-0.06641250103712082,-0.07617499679327011
1791052404976960000,9.5659599609375,0.11811249703168869,-0.17627499997615814,0.1106875017285347
1791052404986593500,9.575593505859375,0.17916250228881836,-0.11646249890327454,0.04468749836087227
1791052404996227300,9.585227294921875,0.30387499928474426,0.0765874981880188,-0.8568999767303467
1791052405005861000,9.594861083984375,0.1303499937057495,-0.09322500228881836,0.6494125127792358
1791052405015495000,9.604494873046875,0.1303499937057495,-0.0859375,0.22192500531673431
1791052405025128400,9.61412841796875,0.2536875009536743,-0.003987499978393316,0.1522125005722046
1791052405034762200,9.62376220703125,0.23663750290870667,-0.12993749976158142,0.4600749909877777
1791052405044396000,9.63339599609375,0.29411250352859497,0.1461624950170517,-0.5625125169754028
1791052405054030000,9.643030029296876,0.2708750069141388,0.12306249886751175,-0.40727499127388
1791052405063663600,9.65266357421875,0.22811250388622284,0.06311249732971191,0.39778751134872437
1791052405073297400,9.66229736328125,0.3526875078678131,0.13158750534057617,-0.04688749834895134
1791052405082931000,9.671930908203125,0.2903999984264374,0.009349999949336052,0.2657875120639801
1791052405092564700,9.681564697265625,0.23292499780654907,0.008112499490380287,0.16321249306201935
1791052405102198500,9.691198486328124,0.3478749990463257,0.22192500531673431,-0.5698000192642212
1791052405111832300,9.700832275390624,0.4334000051021576,0.14258749783039093,-0.30098751187324524
1791052405121466000,9.710466064453126,0.3796375095844269,0.1303499937057495,-0.020075000822544098
1791052405131100000,9.720099853515626,0.4016374945640564,0.2073500007390976,-0.41222500801086426
1791052405140733700,9.729733642578125,0.29163751006126404,0.12430000305175781,0.22068749368190765
1791052405150367200,9.7393671875,0.3478749990463257,0.06311249732971191,0.37097498774528503
1791052405160001000,9.7490009765625,0.4113999903202057,0.12182500213384628,0.13021250069141388
1791052405169634600,9.758634521484375,0.35516250133514404,0.2096875011920929,-0.1373624950647354
1791052405179268600,9.7682685546875,0.32339999079704285,0.20239999890327454,-0.12264999747276306
1791052405188902400,9.77790234375,0.36739999055862427,0.2536875009536743,-0.32298749685287476
1791052405198536000,9.787535888671876,0.3258749842643738,0.14863750338554382,0.4357374906539917
1791052405208169700,9.797169677734376,0.37097498774528503,0.23539999127388,-0.0541750006377697
1791052405217803500,9.806803466796875,0.31363749504089355,0.2634499967098236,-0.16046249866485596
1791052405227437000,9.81643701171875,0.33563750982284546,0.2256374955177307,-0.05664999783039093
1791052405237070800,9.82607080078125,0.41263750195503235,0.219587504863739,0.14863750338554382
1791052405246704600,9.83570458984375,0.4712125062942505,0.22316250205039978,0.027637500315904617
1791052405256338700,9.845338623046874,0.34168750047683716,0.1938749998807907,0.12292499840259552
1791052405265972200,9.85497216796875,0.23663750290870667,0.1498750001192093,0.11687500029802322
1791052405275606000,9.86460595703125,0.2525874972343445,0.26468750834465027,-0.3852750062942505
1791052405285239600,9.874239501953125,0.23182499408721924,0.15716250240802765,0.16321249306201935
1791052405294873300,9.883873291015625,0.18411250412464142,0.06435000151395798,0.196212500333786
1791052405304507100,9.893507080078125,0.09487500041723251,0.1755875051021576,-0.31927499175071716
1791052405314140700,9.903140625,0.025299999862909317,0.05706249922513962,0.24997499585151672
1791052405323774500,9.9127744140625,0.2110625058412552,0.05953750014305115,-0.19593749940395355
1791052405333408500,9.922408447265624,0.08030000329017639,0.030112499371170998,0.22550000250339508
1791052405343042000,9.9320419921875,0.030249999836087227,0.0705375000834465,-0.09336250275373459
1791052405352675800,9.94167578125,-0.09446249902248383,-0.11769999563694,0.342787504196167
1791052405362309400,9.951309326171875,-0.030937500298023224,-0.008937500417232513,-0.2484624981880188
1791052405371943200,9.960943115234375,0.0057749999687075615,-0.02969999983906746,-0.09336250275373459
1791052405381577000,9.970576904296875,-0.06517499685287476,-0.045649997889995575,0.0031624999828636646
1791052405391210800,9.980210693359375,-0.08951249718666077,-0.03698749840259552,-0.08717499673366547
1791052405400844500,9.989844482421875,-0.17022499442100525,-0.17270000278949738,0.34031251072883606
1791052405410478300,9.999478271484374,-0.03341250121593475,0.0765874981880188,-0.5209875106811523
1791052405420112100,10.009112060546874,-0.08470000326633453,-0.10422500222921371,0.2890250086784363
1791052405429745700,10.01874560546875,-0.10793749988079071,-0.05169999971985817,0.011687500402331352
1791052405439379500,10.02837939453125,-0.15427500009536743,0.011824999935925007,-0.2569875121116638
1791052405449013000,10.038012939453125,-0.20679999887943268,-0.16046249866485596,0.40755000710487366
1791052405458646800,10.047646728515625,-0.07727500051259995,0.07163749635219574,-0.38046249747276306
1791052405468280800,10.05728076171875,-0.08098749816417694,0.04853750020265579,-0.3730374872684479
1791052405477914400,10.066914306640625,-0.17256249487400055,-0.11151249706745148,0.5895999670028687
1791052405487548200,10.076548095703124,-0.16898749768733978,-0.012649999931454659,-0.026124998927116394
1791052405497181700,10.086181640625,-0.1200374960899353,-0.07975000143051147,0.23292499780654907
1791052405506815500,10.0958154296875,-0.013749999925494194,0.10711249709129333,-0.32670000195503235
1791052405516449300,10.10544921875,-0.057750001549720764,0.0448249988257885,-0.12759999930858612
1791052405526083000,10.1150830078125,-0.11879999935626984,-0.07246249914169312,0.3782624900341034
1791052405535716900,10.124716796875,-0.1200374960899353,0.0057749999687075615,0.15716250240802765
1791052405545350700,10.1343505859375,-0.0541750006377697,0.10711249709129333,-0.1788875013589859
1791052405554984200,10.143984130859375,-0.0015124999918043613,0.04977500066161156,-0.16664999723434448
1791052405564618000,10.153617919921874,-0.04675000160932541,-0.03341250121593475,0.3843125104904175
1791052405574251800,10.163251708984374,-0.003987499978393316,0.010587500408291817,0.17668749392032623
1791052405583885600,10.172885498046876,-0.023512499406933784,-0.013749999925494194,0.30855000019073486
1791052405593519400,10.182519287109375,0.05211250111460686,0.18039999902248383,-0.3059374988079071
1791052405603153000,10.19215283203125,0.07782500237226486,0.09858749806880951,-0.11769999563694
1791052405612786700,10.20178662109375,0.05582499876618385,0.06435000151395798,0.05692499876022339
1791052405622420500,10.21142041015625,-0.040699999779462814,0.07163749635219574,0.09239999949932098
1791052405632054000,10.221053955078125,0.002062499988824129,0.06187500059604645,0.05321250110864639
1791052405641687800,10.230687744140624,0.0448249988257885,-0.013749999925494194,0.2157374918460846
1791052405651321900,10.24032177734375,0.05582499876618385,-0.03217500075697899,0.10821250081062317
1791052405660955400,10.249955322265626,0.030249999836087227,0.07906249910593033,-0.18246249854564667
1791052405670589200,10.259589111328125,0.04001250118017197,0.0765874981880188,-0.2974124848842621
1791052405680222700,10.26922265625,-0.057750001549720764,-0.01993750035762787,0.23292499780654907
1791052405689856500,10.2788564453125,0.011824999935925007,0.07906249910593033,-0.3022249937057495
1791052405699490600,10.288490478515625,-0.0004124999977648258,0.007012499962002039,0.12044999748468399
1791052405709124000,10.2981240234375,-0.045512501150369644,0.028875000774860382,-0.06641250103712082
1791052405718758000,10.3077578125,-0.010174999944865704,0.05829999968409538,-0.16541250050067902
1791052405728391400,10.317391357421876,-0.08098749816417694,-0.07122500240802765,0.36973750591278076
1791052405738025200,10.327025146484376,-0.06270000338554382,0.04729999974370003,-0.18246249854564667
1791052405747659000,10.336658935546875,-0.038224998861551285,0.10958749800920486,-0.4647499918937683
1791052405757292800,10.346292724609375,-0.028462499380111694,0.09253749996423721,-0.3205125033855438
1791052405766926600,10.355926513671875,0.015537500381469727,-0.028462499380111694,0.4820750057697296
1791052405776560400,10.365560302734375,-0.056512501090765,-0.07122500240802765,0.8706499934196472
1791052405786194000,10.37519384765625,-0.17379999160766602,-0.2899875044822693,1.2005125284194946
1791052405795827700,10.38482763671875,-0.20198750495910645,-0.39861249923706055,1.190750002861023
1791052405805461200,10.394461181640626,-0.045512501150369644,0.2316875010728836,-0.6137999892234802
1791052405815095300,10.40409521484375,0.08635000139474869,0.521262526512146,-0.9851874709129333
1791052405824728800,10.413728759765625,-0.27527499198913574,0.015537500381469727,0.2670249938964844
1791052405834362600,10.423362548828125,-0.08098749816417694,-0.018699999898672104,-0.0798875018954277
1791052405843996400,10.432996337890625,-0.006462499964982271,-0.01993750035762787,-0.7653250098228455
1791052405853630200,10.442630126953125,-0.2190375030040741,-0.28008750081062317,1.3446124792099
1791052405863263700,10.452263671875,-0.35103750228881836,-0.4633750021457672,0.9646999835968018
1791052405872897500,10.4618974609375,-0.23375000059604645,-0.16775000095367432,0.11797499656677246
1791052405882531000,10.471531005859376,-0.13722500205039978,0.3306874930858612,-1.0267125368118286
1791052405892165000,10.4811650390625,-0.1297999918460846,-0.07741250097751617,-0.8153749704360962
1791052405901799000,10.490798828125,-0.16279999911785126,-0.2727999985218048,0.9805124998092651
1791052405911432400,10.500432373046875,-0.2129874974489212,-0.15193749964237213,0.04468749836087227
1791052405921066200,10.510066162109375,-0.18246249854564667,-0.14327499270439148,-0.12388750165700912
1791052405930699800,10.51969970703125,-0.16651250422000885,-0.0004124999977648258,-0.5942749977111816
1791052405940333600,10.52933349609375,-0.2703250050544739,-0.05898749828338623,-0.3242250084877014
1791052405949967400,10.53896728515625,-0.17874999344348907,-0.11151249706745148,0.21821250021457672
1791052405959601000,10.548600830078126,-0.16403749585151672,-0.11769999563694,0.44302499294281006
1791052405969234700,10.558234619140626,-0.359562486410141,-0.43037500977516174,0.9574124813079834
1791052405978868500,10.567868408203125,-0.34732499718666077,-0.3998500108718872,0.5407875180244446
1791052405988502300,10.577502197265625,-0.15056249499320984,0.03258749842643738,-0.7028999924659729
1791052405998136000,10.587135986328125,-0.03451250120997429,-0.02969999983906746,-0.8861874938011169
1791052406007769600,10.59676953125,-0.2947999835014343,-0.2667500078678131,0.5468375086784363
1791052406017403400,10.6064033203125,-0.2630375027656555,-0.2910875082015991,0.26468750834465027
1791052406027037000,10.616036865234374,-0.19222499430179596,-0.2092749923467636,-0.1214125007390976
1791052406036671000,10.6256708984375,-0.23003749549388885,-0.2190375030040741,-0.03959999978542328
1791052406046304500,10.635304443359376,-0.1872749924659729,-0.2287999987602234,0.0849749967455864
1791052406055938300,10.644938232421875,-0.11522500216960907,-0.1909874975681305,0.03739999979734421
1791052406065572000,10.654572021484375,-0.09927500039339066,-0.14822499454021454,-0.08841250091791153
1791052406075206000,10.664205810546875,-0.113987497985363,-0.09927500039339066,-0.1849374920129776
1791052406084839400,10.67383935546875,-0.11027500033378601,-0.1457500010728836,0.0031624999828636646
1791052406094473200,10.68347314453125,-0.09927500039339066,-0.14451250433921814,-0.2032250016927719
1791052406104106800,10.693106689453124,-0.014987500384449959,-0.055412501096725464,-0.7335624694824219
1791052406113740500,10.702740478515626,-0.15303750336170197,-0.21422499418258667,-0.016362499445676804
1791052406123374300,10.712374267578125,-0.06875000149011612,-0.1335124969482422,-0.5380374789237976
1791052406133008000,10.7220078125,-0.010174999944865704,-0.1909874975681305,-0.09941250085830688
1791052406142641700,10.7316416015625,0.015537500381469727,-0.2727999985218048,0.0411125011742115
1791052406152275500,10.741275390625,0.06806249916553497,-0.0882750004529953,-0.4745124876499176
1791052406161909200,10.7509091796875,0.0387750007212162,-0.12127500027418137,-0.20941250026226044
1791052406171543000,10.76054296875,-0.03946249932050705,-0.21422499418258667,0.05816249921917915
1791052406181176600,10.770176513671874,0.03382499888539314,-0.05169999971985817,-0.5600374937057495
1791052406190810400,10.779810302734376,0.08277499675750732,-0.09322500228881836,-0.3339875042438507
1791052406200444200,10.789444091796875,0.12182500213384628,-0.09446249902248383,-0.1788875013589859
1791052406210077700,10.79907763671875,0.08882500231266022,-0.0859375,0.025162499397993088
1791052406219711500,10.80871142578125,0.09735000133514404,-0.12993749976158142,-0.06283749639987946
1791052406229345000,10.818344970703125,0.16458749771118164,0.07782500237226486,-0.7041375041007996
1791052406238979000,10.82797900390625,0.13653749227523804,0.010587500408291817,-0.13488750159740448
1791052406248612900,10.83761279296875,0.23663750290870667,0.05458749830722809,-0.3657499849796295
1791052406258246400,10.847246337890626,0.18658749759197235,0.0008249999955296516,0.11687500029802322
1791052406267880200,10.856880126953126,0.15482500195503235,-0.2264624983072281,0.44673749804496765
1791052406277514000,10.866513916015625,0.24392500519752502,-0.10670000314712524,0.11563749611377716
1791052406287147500,10.8761474609375,0.3429250121116638,0.3148750066757202,-0.9411875009536743
1791052406296781300,10.88578125,0.2843500077724457,0.07535000145435333,-0.6150375008583069
1791052406306415400,10.895415283203125,0.15729999542236328,-0.0859375,0.8949875235557556
1791052406316049000,10.905048828125,0.22082500159740448,-0.08098749816417694,0.27445000410079956
1791052406325682700,10.9146826171875,0.2964499890804291,-0.012649999931454659,0.03368749842047691
1791052406335316200,10.924316162109376,0.35887500643730164,0.09858749806880951,-0.36822500824928284
1791052406344950000,10.933949951171876,0.32945001125335693,0.01677500084042549,-0.2864125072956085
1791052406354583800,10.943583740234375,0.31968748569488525,0.008112499490380287,-0.020075000822544098
1791052406364217600,10.953217529296875,0.3148750066757202,0.03382499888539314,-0.053075000643730164
1791052406373851400,10.962851318359375,0.30016249418258667,0.020349999889731407,-0.02983750030398369
1791052406383485200,10.972485107421875,0.26840001344680786,0.022824998944997787,0.1461624950170517
1791052406393118700,10.98211865234375,0.32945001125335693,0.07163749635219574,-0.031075000762939453
1791052406402752500,10.99175244140625,0.33192500472068787,0.06311249732971191,0.08621250092983246
1791052406412386300,11.00138623046875,0.25011250376701355,0.05335000157356262,0.12416250258684158
1791052406422019800,11.011019775390626,0.3343999981880188,0.0668250024318695,-0.15565000474452972
1791052406431653600,11.020653564453125,0.2903999984264374,-0.052937500178813934,0.28049999475479126
1791052406441287700,11.03028759765625,0.33687499165534973,0.318450003862381,-0.7664250135421753
1791052406450921200,11.039921142578125,0.2536875009536743,0.19139999151229858,-0.18369999527931213
1791052406460555000,11.049554931640625,0.28187498450279236,0.11082500219345093,0.3647874891757965
1791052406470188800,11.059188720703125,0.3258749842643738,0.09982500225305557,0.12044999748468399
1791052406479822300,11.068822265625,0.24034999310970306,-0.11027500033378601,0.5908374786376953
1791052406489456000,11.0784560546875,0.23663750290870667,-0.11893749982118607,0.406312495470047
1791052406499089700,11.088089599609376,0.31363749504089355,0.38692501187324524,-0.8936125040054321
1791052406508723700,11.0977236328125,0.27816250920295715,0.19634999334812164,-0.7566624879837036
1791052406518357500,11.107357421875,0.20116250216960907,0.009349999949336052,0.4600749909877777
1791052406527991000,11.116990966796875,0.20006249845027924,0.20239999890327454,-0.4782249927520752
1791052406537624800,11.126624755859375,0.219587504863739,0.1046374961733818,-0.040837500244379044
1791052406547258600,11.136258544921875,0.318450003862381,-0.030937500298023224,0.44302499294281006
1791052406556892400,11.145892333984374,0.4076874852180481,0.1023000031709671,-0.08483749628067017
1791052406566526000,11.15552587890625,0.3221625089645386,0.022824998944997787,0.24021250009536743
1791052406576159700,11.16515966796875,0.3502124845981598,0.14506250619888306,-0.2264624983072281
1791052406585793500,11.17479345703125,0.33316248655319214,0.1083500012755394,-0.13612499833106995
1791052406595427300,11.18442724609375,0.19634999334812164,0.03629999980330467,0.5895999670028687
1791052406605061000,11.19406103515625,0.2488749921321869,0.17434999346733093,0.004399999976158142
1791052406614695000,11.20369482421875,0.2843500077724457,-0.02969999983906746,0.6250749826431274
1791052406624328400,11.213328369140624,0.18658749759197235,-0.19951249659061432,0.7008374929428101
1791052406633962200,11.222962158203124,0.56045001745224,0.5237374901771545,-1.0144749879837036
1791052406643596000,11.232595947265626,0.3759250044822693,0.14863750338554382,-0.3669874966144562
1791052406653229800,11.242229736328126,0.34911251068115234,-0.11027500033378601,1.0318000316619873
1791052406662863600,11.251863525390625,0.2891624867916107,0.1975875049829483,0.027637500315904617
1791052406672497400,11.261497314453125,0.45649999380111694,0.2414499968290329,-0.1691250056028366
1791052406682131200,11.271131103515625,0.5347374677658081,0.30387499928474426,-0.21917499601840973
1791052406691764700,11.2807646484375,0.44673749804496765,0.3172124922275543,-0.10917499661445618
1791052406701398500,11.2903984375,0.3624500036239624,0.20858749747276306,0.30373749136924744
1791052406711032300,11.3000322265625,0.4577375054359436,0.23663750290870667,0.22673749923706055
1791052406720666000,11.309666015625,0.57378751039505,0.2793999910354614,0.2877874970436096
1791052406730300000,11.3192998046875,0.509024977684021,0.25244998931884766,0.3770250082015991
1791052406739933700,11.32893359375,0.4846875071525574,0.5187875032424927,-0.3669874966144562
1791052406749567500,11.3385673828125,0.43216249346733093,0.34540000557899475,0.46254998445510864
1791052406759201000,11.348200927734375,0.5640249848365784,0.3526875078678131,0.3550249934196472
1791052406768834800,11.357834716796875,0.6715499758720398,0.5469750165939331,-0.2204124927520752
1791052406778468600,11.367468505859375,0.4529249966144562,0.49678748846054077,0.254925012588501
1791052406788102400,11.377102294921874,0.45416250824928284,0.49802500009536743,0.09116250276565552
1791052406797736200,11.386736083984376,0.49321249127388,0.47244998812675476,0.21449999511241913
1791052406807370000,11.396369873046876,0.5310249924659729,0.5322625041007996,-0.06517499685287476
1791052406817003800,11.406003662109375,0.5444999933242798,0.5812125205993652,-0.14836250245571136
1791052406826637300,11.41563720703125,0.5224999785423279,0.5274500250816345,0.19373749196529388
1791052406836271000,11.42527099609375,0.4749250113964081,0.47244998812675476,0.46254998445510864
1791052406845905000,11.43490478515625,0.47616249322891235,0.5102624893188477,0.28421249985694885
1791052406855539000,11.4445390625,0.504212498664856,0.509024977684021,0.2915000021457672
1791052406865172500,11.45417236328125,0.42844998836517334,0.6263124942779541,-0.12759999930858612
1791052406874806300,11.46380615234375,0.38087499141693115,0.5372124910354614,0.08868750184774399
1791052406884440000,11.473440185546876,0.30992498993873596,0.5677375197410583,-0.048124998807907104
1791052406894073600,11.483073486328125,0.3539249897003174,0.5750250220298767,-0.08483749628067017
1791052406903707600,11.492707763671875,0.27816250920295715,0.5152124762535095,0.15950000286102295
1791052406913341200,11.502341064453125,0.16940000653266907,0.4345000088214874,0.46860000491142273
1791052406922975200,11.511975341796875,0.1816374957561493,0.35144999623298645,0.35997501015663147
1791052406932608800,11.52160888671875,0.2586374878883362,0.5494499802589417,-0.3975124955177307
1791052406942242600,11.53124267578125,0.25987499952316284,0.49321249127388,-0.1494625061750412
1791052406951876400,11.54087646484375,0.06311249732971191,0.3856875002384186,0.2157374918460846
1791052406961510100,11.55051025390625,0.08511249721050262,0.357637494802475,0.12773749232292175
1791052406971144000,11.56014404296875,0.0448249988257885,0.3392125070095062,0.016637500375509262
1791052406980777700,11.56977783203125,0.029012499377131462,0.38692501187324524,-0.2619374990463257
1791052406990411500,11.57941162109375,-0.113987497985363,0.30744999647140503,0.19868749380111694
1791052407000045300,11.58904541015625,-0.13227500021457672,0.24392500519752502,0.19016249477863312
1791052407009678800,11.598678955078125,-0.1494625061750412,0.12306249886751175,0.2854500114917755
1791052407019313000,11.60831298828125,-0.1872749924659729,0.22192500531673431,-0.12993749976158142
1791052407028946700,11.61794677734375,-0.2190375030040741,0.30744999647140503,-0.5856124758720398
1791052407038580500,11.62758056640625,-0.304562509059906,0.17311249673366547,-0.045649997889995575
1791052407048214300,11.63721435546875,-0.31927499175071716,0.11329999566078186,0.13997499644756317
1791052407057847800,11.646847900390625,-0.3558500111103058,0.09611249715089798,-0.3217499852180481
1791052407067481600,11.656481689453125,-0.44261249899864197,-0.03464999794960022,0.1681624948978424
1791052407077115400,11.666115478515625,-0.38513749837875366,0.18411250412464142,-0.6003249883651733
1791052407086749400,11.67574951171875,-0.3363249897956848,0.0032999999821186066,-0.12017499655485153
1791052407096383000,11.685383056640624,-0.45608749985694885,-0.09693749994039536,0.5603125095367432
1791052407106016800,11.695016845703124,-0.5183749794960022,-0.028462499380111694,-0.1494625061750412
1791052407115650600,11.704650634765626,-0.6221874952316284,-0.11769999563694,0.11316250264644623
1791052407125284400,11.714284423828126,-0.6564249992370605,-0.1970375031232834,0.24268749356269836
1791052407134918100,11.723918212890625,-0.597712516784668,0.08387500047683716,-0.5527499914169312
1791052407144552000,11.733552001953125,-0.5501375198364258,-0.005224999971687794,-0.947237491607666
1791052407154185700,11.743185791015625,-0.7407125234603882,-0.1812250018119812,0.8901749849319458
1791052407163819500,11.752819580078125,-0.6931374669075012,-0.22027499973773956,-0.2032250016927719
1791052407173453300,11.762453369140625,-0.6099500060081482,-0.5293750166893005,1.6439499855041504
1791052407183087000,11.772087158203124,-0.8629499673843384,-0.9264749884605408,1.8357625007629395
1791052407192721000,11.781720947265624,-0.4914250075817108,0.2096875011920929,-1.4530999660491943
1791052407202354700,11.791354736328126,-0.2153249979019165,0.2769249975681305,-1.9258249998092651
1791052407211988500,11.800988525390625,-0.7566624879837036,-0.2055625021457672,-0.009074999950826168
1791052407221622300,11.810622314453125,-0.6381375193595886,-0.28751251101493835,1.0867999792099
1791052407231255800,11.820255859375,-0.5208500027656555,-0.23980000615119934,0.26826250553131104
1791052407240889900,11.829889892578125,-0.7822374701499939,-0.6527125239372253,1.85652494430542
1791052407250523600,11.839523681640625,-0.9948124885559082,-1.3296250104904175,2.8754000663757324
1791052407260157200,11.8491572265625,-0.4731374979019165,0.06558749824762344,-1.0010000467300415
1791052407269791000,11.858791015625,-0.5403749942779541,0.6140750050544739,-1.3553375005722046
1791052407279424800,11.8684248046875,-0.4255625009536743,0.9171249866485596,-2.6185500621795654
1791052407289058600,11.87805859375,-0.5526124835014343,-0.10917499661445618,0.3770250082015991
1791052407298692400,11.8876923828125,-0.35103750228881836,-0.2092749923467636,0.4357374906539917
1791052407308326400,11.897326416015625,-0.38885000348091125,-0.3730374872684479,0.3513124883174896
1791052407317960000,11.9069599609375,-0.5781875252723694,-0.816474974155426,1.4106124639511108
1791052407327593700,11.91659375,-0.39256250858306885,-0.5123249888420105,0.8119375109672546
1791052407337227500,11.9262275390625,-0.304562509059906,0.3392125070095062,-1.2552374601364136
1791052407346861300,11.935861328125,0.21587499976158142,0.5249750018119812,-1.3833874464035034
1791052407356495000,11.9454951171875,-0.2227499932050705,-0.045649997889995575,-0.454987496137619
1791052407366129000,11.95512890625,-0.3020874857902527,-0.07122500240802765,1.0537999868392944
1791052407375762700,11.9647626953125,-0.15798750519752502,-0.0882750004529953,-0.03712499886751175
1791052407385396500,11.974396484375,-0.22398750483989716,-0.16898749768733978,0.8229374885559082
1791052407395030300,11.9840302734375,-0.06751249730587006,-0.04441250115633011,0.29026249051094055
1791052407404664000,11.9936640625,-0.1592250019311905,-0.06641250103712082,0.4320249855518341
1791052407414297600,12.003297607421874,-0.2545124888420105,-0.1970375031232834,0.47478750348091125
1791052407423931600,12.012931640625,-0.09803749620914459,0.29768750071525574,-0.7664250135421753
1791052407433565200,12.022565185546876,0.09253749996423721,0.019112499430775642,-0.903374969959259
1791052407443199200,12.03219921875,-0.052937500178813934,-0.0541750006377697,0.9695125222206116
1791052407452833000,12.0418330078125,-0.10546249896287918,-0.17503750324249268,0.6763625144958496
1791052407462466600,12.051466552734375,-0.2227499932050705,-0.4573250114917755,1.0697499513626099
1791052407472100400,12.061100341796875,-0.11151249706745148,-0.013749999925494194,-0.20941250026226044
1791052407481734100,12.070734130859375,0.19016249477863312,0.6507874727249146,-1.8281999826431274
