time,seconds_elapsed,z,y,x
1789141053635243000,1.540242919921875,1.1548582693604041,-0.36973658056728426,-0.4200911641941249
1789141053645214700,1.550214599609375,-0.560535707910781,-0.5063961873204892,-1.1576716418887323
1789141053655188000,1.56018798828125,-1.485470424519411,-0.28616285190054846,-0.7480813026809424
1789141053665160000,1.570159912109375,-1.1324387894114052,-0.3117601788507609,-0.6825722331959948
1789141053675132000,1.5801318359375,-0.16727125870680365,0.3822264217848782,-0.1109231382778823
1789141053685105000,1.59010498046875,-0.15380365254584916,0.7892053527457094,0.5127341521932379
1789141053695076900,1.600076904296875,-0.02591769964889132,1.0398350630002509,-0.2301877542330791
1789141053705048800,1.610048828125,1.0152919770474984,0.8901760642403703,0.08994990355081421
1789141053715021800,1.620021728515625,1.577339505316708,0.33130528078214483,1.0289142823233253
1789141053724994000,1.629994140625,0.7217422082245996,-0.2858602898038669,0.1528880029739159
1789141053734965800,1.6399658203125,-0.08854012655914967,-0.3984657471677495,0.541124412736115
1789141053744938800,1.649938720703125,-0.3393475868387846,-0.5482189222030454,1.353271771906431
1789141053754911000,1.659910888671875,-0.7001376154132567,-0.35013228462271456,0.006662731704465495
1789141053764883700,1.6698837890625,-0.7884078842323581,-0.6116295484928878,0.6384191995527791
1789141053774856000,1.67985595703125,-1.6236186653533624,-0.7386436187076824,0.8183247383645496
1789141053784828000,1.689827880859375,-1.6275654130575896,-0.7385101865630828,0.8200288575914515
1789141053794800600,1.699800537109375,-0.5047801436173301,-0.624123665374354,0.08153114235241898
1789141053804772900,1.70977294921875,0.2989679141655731,-0.09094993563569206,0.40960829897959855
1789141053814744800,1.719744873046875,0.6904460821402996,0.055836944581697204,-0.0482746825000868
1789141053824717800,1.7297177734375,0.4310820167523549,-0.053041743349615825,0.11195656607453257
1789141053834689800,1.739689697265625,0.8179128979817598,0.004706638728248322,0.01667675691778126
1789141053844662000,1.749662109375,1.0888544934708542,0.27294290775805063,-1.1063002064572856
1789141053854634800,1.759634765625,0.8389205294786685,0.5372527310392481,-0.5265418809846241
1789141053864607000,1.76960693359375,0.6180385306399038,0.44529479493310437,-0.5014002027768406
1789141053874579000,1.779578857421875,0.2486480853681903,0.1989605505475526,-0.6627778282631845
1789141053884551700,1.7895517578125,-1.329139115569197,-0.5144745057793041,0.04975320238851459
1789141053894524000,1.79952392578125,-0.865434558445784,-0.7811170192452496,-0.1329812128721035
1789141053904497000,1.809496826171875,-1.5925783085597889,-1.2494487388617765,0.13991884518957456
1789141053914468900,1.81946875,-0.19346612648814848,-0.9895247911626527,0.3081894065978038
1789141053924440800,1.82944091796875,0.2007400310212956,-0.7285597924004079,-0.3774449694645445
1789141053934413800,1.839413818359375,-0.1850579751014027,0.15382551508885337,-0.5253450304548094
1789141053944385800,1.8493857421875,0.6003926488704739,0.42040766403990637,0.19150597210702283
1789141053954357800,1.859357666015625,1.0683412977804414,0.5056017382306673,0.22345679182018166
1789141053964331000,1.8693310546875,0.624929847616034,0.9217153425683736,0.2287415421701511
1789141053974302700,1.879302734375,-0.6546690299075095,0.9026258784930989,0.08498171986706515
1789141053984275000,1.88927490234375,-1.0941244843566553,0.178312496676776,0.04092296145387754
1789141053994248000,1.899248046875,0.5666561328118602,-0.18261841794608466,0.08616083135571885
1789141054004219600,1.9092197265625,-1.1744692462078754,-0.3246013650986926,-0.4162843884074075
1789141054014193000,1.91919287109375,-0.160937032247579,-0.5495767686543895,-0.5460843702529464
1789141054024164900,1.929164794921875,0.27880366378905425,-0.7247678447612262,-0.0034205186419812724
1789141054034136800,1.93913671875,1.0769328955818431,0.3441009585274686,0.03541158553888677
1789141054044109800,1.94910986328125,0.563752567989319,-0.04999406452157674,-0.36728580318415444
1789141054054081800,1.959081787109375,0.5582959741983822,-0.04957079365894348,-0.3531274063905215
1789141054064053800,1.9690537109375,0.6218865783118517,0.4185960972324319,0.30855791419256334
1789141054074026800,1.97902685546875,-0.5412075354522778,0.20602462266169125,0.737549164446487
1789141054083999000,1.9889990234375,0.8524823788692313,0.002506389220808114,1.0645722449644108
1789141054093970700,1.998970703125,1.057974572564137,-0.15451418275252987,0.49582436071442926
1789141054103944000,2.00894384765625,0.08069190352031734,-0.16790709923208816,0.19024003795659192
1789141054113916000,2.018916015625,0.42085894554829506,-0.09468599122184385,0.12602537885733342
1789141054123887900,2.028887939453125,0.27646422043188595,-0.7158314306849698,-0.1633145010819414
1789141054133860900,2.03886083984375,-0.28389275796063523,-0.5189544204052177,-0.7230860640831135
1789141054143832800,2.048832763671875,-0.6402110221101572,-0.7206569659361217,-0.060182765115636486
1789141054153805800,2.058805908203125,-0.023341247704497487,-0.7415322745503118,0.17085107898410729
1789141054163777800,2.06877783203125,0.15787404176880537,-0.24576078020539105,1.0226939708464322
1789141054173750000,2.07875,1.1063094188498477,0.3489434018853063,0.029324595041424806
1789141054183722800,2.08872265625,2.085841524999037,0.48446744234187333,-0.2599906519313813
1789141054193694700,2.09869482421875,1.1534993559392483,0.642353996281621,0.2153807597353523
1789141054203667000,2.1086669921875,-0.053892097279794264,0.22429434281044766,-1.03371821492381
1789141054213639700,2.1186396484375,0.375421561928187,-0.2424212111435431,0.10500130529897606
1789141054223612000,2.12861181640625,0.9662983751098527,-0.24198464303772108,0.21204352733204487
1789141054233583900,2.138583984375,-0.6899381576779374,-0.12179138938509748,-0.053508680497196204
1789141054243556900,2.148556884765625,-0.2198363167819505,0.07725644545810936,-0.5452009233441312
1789141054253528800,2.15852880859375,0.14771841333465274,0.03520819787935809,0.8116279943874071
1789141054263501800,2.168501708984375,1.249606465981969,0.2405779875035908,-0.5775815566579167
1789141054273473800,2.178473876953125,0.3623689282396215,0.4538945280947226,-0.04953686907237641
1789141054283445800,2.18844580078125,0.2577872522308408,-0.0525014144449695,0.14330538890586322
1789141054293419000,2.1984189453125,0.14993478019088924,-0.47099904569823015,0.37895623582378835
1789141054303390700,2.208390625,1.3226241608937446,-0.9173596980808651,-0.07315252505471824
1789141054313363000,2.218363037109375,-1.2931589803630348,-0.9732554671956786,0.7821187833113924
1789141054323336000,2.2283359375,-2.4154581014305725,-0.48651695575235504,0.4091259204658988
1789141054333307600,2.2383076171875,0.6592554886088101,-0.9683735331857942,0.18773257525673923
1789141054343279900,2.24827978515625,0.7034464350787628,0.07678416343937297,-0.11691743494006585
1789141054353252900,2.2582529296875,-1.859088130525366,0.4011483357078588,-0.23090378905907682
1789141054363224800,2.268224853515625,0.9432428219895339,0.4366176686199833,-0.27378108917145
1789141054373196800,2.27819677734375,3.5241283626095807,0.5009952796484907,0.4416808103204678
1789141054383169800,2.288169677734375,-0.5674487053359248,0.8751366931573746,-0.3730454707808427
1789141054393141800,2.298141845703125,-0.5008666367392933,0.7481538245235831,-0.00507088106403626
1789141054403114800,2.30811474609375,0.3239259914246138,0.6634587497948036,0.7715791299835991
1789141054413087000,2.3180869140625,0.09659872521357472,0.48626572560997877,0.8011702899653214
1789141054423058700,2.32805859375,-0.6087837247033193,0.034947658834779766,1.197185794136698
1789141054433031700,2.33803173828125,-0.47867799023000734,-0.36672642660309623,0.5659642877304583
1789141054443004000,2.34800390625,-1.4017625152651612,-0.21965031000554833,0.9093698062597699
1789141054452975900,2.357975830078125,-1.726345364256611,-0.5163367533743891,0.8402815218829138
1789141054462948900,2.367948974609375,-1.0567836900458845,-0.5314449855824361,0.8868005155230627
1789141054472920800,2.3779208984375,-1.3502691067662678,-0.7281384247156569,0.7933604639391124
1789141054482892800,2.387892822265625,-0.5868948236365438,-0.2016610540138811,0.7549791831195735
1789141054492865800,2.39786572265625,-0.4896137400301316,-0.08255155840655666,0.4846862772058532
1789141054502838000,2.407838134765625,0.7612216990213891,0.2837923319301874,0.17351528113892492
1789141054512811000,2.41781103515625,0.36368537358249126,0.3424024823263578,0.7930688043426115
1789141054522782700,2.42778271484375,-1.405683650583449,0.6135123607275303,-0.3972425956553238
1789141054532755000,2.4377548828125,-0.19704017857653885,0.6028184537959714,-0.7851241630996033
1789141054542728000,2.44772802734375,0.4023644371871759,0.29963124131272495,-0.4676438460648689
1789141054552700000,2.457699951171875,-0.16982848341262854,0.38448092704774695,-0.7884900453496455
1789141054562671900,2.467671875,0.5251361656253031,0.17366257852327247,-1.2304991622259749
1789141054572644900,2.477644775390625,0.8096108854025924,-0.0628282698042624,-0.33379286745795755
1789141054582616800,2.487616943359375,0.028180259358294383,-0.01434169365781533,-0.21683270707226676
1789141054592588800,2.4975888671875,-0.10539916946851187,0.09881669595754143,-0.3155588612771549
1789141054602562000,2.50756201171875,0.5394344479308183,-0.851359752779475,0.17318530486235337
1789141054612533800,2.51753369140625,1.0311240393947931,0.12503840387427045,0.13636930605633066
1789141054622506000,2.527506103515625,-0.5504670001694637,1.085927709300589,-0.7110200307252116
1789141054632479000,2.53747900390625,-0.7366623905342258,0.5448209205829434,-0.8381264096304234
1789141054642450700,2.54745068359375,-0.1730845868955445,-0.5430573184094846,0.3551230713634756
1789141054652424000,2.557423828125,-0.9169096501632364,-0.5689986419360921,-0.5488546578640918
1789141054662396000,2.56739599609375,-1.07698548311743,-1.3843018034424688,-0.12637064726761493
1789141054672367900,2.577367919921875,-0.9888429064302235,-2.0843632247279453,0.3712782698554064
1789141054682340900,2.5873408203125,0.3591947230176466,-1.25236677832752,-0.09926983427544445
1789141054692312800,2.597312744140625,-0.7538545204254613,-0.7552723146555206,-0.29145429814866863
1789141054702284800,2.607284912109375,0.037772141988349474,-0.45934363093869135,0.5116772617042389
1789141054712257800,2.6172578125,0.8852253554468592,0.17826308158828366,0.4765821375511542
1789141054722230000,2.62722998046875,0.878202193090775,0.1782549609667676,0.47083389501336176
1789141054732201700,2.63720166015625,0.10832931362297125,-0.33849865741703955,0.9549417645889082
1789141054742175000,2.647175048828125,1.0561893257668982,0.23526724097778628,1.0385041109699227
1789141054752147000,2.65714697265625,1.8374697873940162,0.3014977459423252,0.120377377843799
1789141054762119000,2.667118896484375,0.7720313239837021,0.8291768623405058,0.5271405894219836
1789141054772092000,2.677091796875,0.9005792247833341,0.9618424049370581,0.30330852306576395
1789141054782063600,2.687063720703125,1.1254866381685913,1.0961193874039101,0.45822264122618195
1789141054792036900,2.697036865234375,-0.31080110609942657,0.3729390161211387,0.8484135758360701
1789141054802008800,2.7070087890625,-0.2605430700835157,0.20978594195815123,0.8978124073468089
1789141054811980800,2.716980712890625,-0.11345266671937268,-0.5235427403369842,0.7257661208557576
1789141054821953800,2.726953857421875,-1.5826466056806376,-1.5247518082837976,0.09701106425583264
1789141054831925800,2.73692578125,-1.1204922711776717,-2.16354224843752,0.37997310241092574
1789141054841897700,2.746897705078125,-1.3045936998067988,-2.6889784334340185,0.07881624706430149
1789141054851870700,2.75687060546875,-0.914913020863908,-1.8939653405241648,0.38550611176393057
1789141054861843000,2.766843017578125,-1.0797772466879705,-1.3111275267962466,-0.05505259671042997
1789141054871814700,2.776814697265625,0.6735811710253979,-0.25671201230005264,1.1220157275911544
1789141054881788000,2.786787841796875,1.7973215616582483,0.601486515448073,0.13985602510583547
1789141054891759900,2.796759765625,1.4591677207538438,1.659564044600474,0.5398946407260351
1789141054901731800,2.80673193359375,2.0601008386879984,2.4496761935274844,-0.29806886938020416
1789141054911704800,2.816704833984375,2.4993786317598228,3.0866173327880064,0.4564278502784755
1789141054921676800,2.8266767578125,4.840943990137824,2.4000103079802466,-0.27974397809894885
1789141054931650000,2.836650146484375,2.6148481405969144,3.027049854163347,-0.06424125293755031
1789141054941621800,2.846621826171875,0.7991177292282466,2.061611582438443,-0.8203400163965003
1789141054951594000,2.856593994140625,0.5497103946847102,0.5511672740130162,-0.1648174134744045
1789141054961567000,2.86656689453125,-2.581291397950529,-1.2191381794140705,-0.3901614856950127
1789141054971538700,2.87653857421875,-5.414462778899869,-1.8302780190139232,0.2932727732215572
1789141054981511000,2.886510986328125,-0.7878146230848452,-2.75232369151462,-0.5917397856662882
1789141054991484000,2.89648388671875,-2.728138911961491,-3.0622340246725925,-0.1411438810572103
1789141055001455900,2.906455810546875,-1.682660680251462,-2.7003080742029564,0.3837353457925069
1789141055011427800,2.916427734375,-0.01565832306325395,-2.047687912624912,-0.03420326164270726
1789141055021400800,2.92640087890625,2.0397552342986667,-0.2612503134202853,-0.3856576314376105
1789141055031372800,2.936372802734375,3.143382435100347,1.7483607613017829,0.5438830864898775
1789141055041345800,2.946345703125,1.8896954725051325,2.6739348869354145,0.018148156582015098
1789141055051318000,2.956318115234375,0.6686838329466738,2.1790685922113235,0.3348177305825047
1789141055061289700,2.966289794921875,-0.14287738323655855,1.3275212679988146,0.8137521182568161
1789141055071262700,2.9762626953125,-1.833691282767355,-0.30265556398783383,0.06862636275479088
1789141055081235000,2.98623486328125,-3.3029290515483845,-1.7621794440162601,-0.125545532940165
1789141055091207700,2.996207763671875,-3.231267548958157,-2.925244029624416,-0.1761597174495813
1789141055101180700,3.0061806640625,-2.426711275228644,-3.1441677027666572,-0.39393582704267205
1789141055111153000,3.01615283203125,0.12280258959552795,-2.2842225487645527,-0.26330851245053805
1789141055121124900,3.026124755859375,1.263176634826578,-0.6585221503169132,0.13717476383323046
1789141055131097900,3.036097900390625,2.7117563244598575,1.7556985026096332,0.37704684699431296
1789141055141069800,3.04606982421875,3.4975071810154352,3.130420791640356,0.6197960594848064
1789141055151041800,3.056041748046875,2.556425992606224,2.7578787206044626,1.194923390279888
1789141055161014800,3.066014892578125,0.16420398220933416,1.4643136638807708,1.8808320754346735
1789141055170987000,3.075987060546875,-2.616902210899609,0.5384823978886427,0.9823338375992459
1789141055180960000,3.0859599609375,-4.201433569820736,0.043467083684338645,0.11573445541800924
1789141055190931700,3.095931640625,-1.9990837915406092,0.11793550112782031,-0.3104234753755852
1789141055200904000,3.105904052734375,0.8258733406577424,0.9397742601857557,-0.7345509543390605
1789141055210877000,3.115876953125,-1.9486189781088346,1.842788764298865,-1.6082626864186504
1789141055220849000,3.125848876953125,-1.1164228536056164,2.0455343270092357,-1.4231273341645347
1789141055230820900,3.13582080078125,0.8392040312228034,2.6183942517959333,-0.11126611630032558
1789141055240793900,3.1457939453125,0.8919924480310623,2.987942926130184,-0.5010578604118676
1789141055250765800,3.155765869140625,1.259032342615283,1.9483806064678635,0.8244502381627578
1789141055260737800,3.16573779296875,0.27482009910977484,-0.4716693969061792,1.1720868685905346
1789141055270711000,3.1757109375,0.6112789686859541,-2.1777029565166397,1.1549327992353418
1789141055280682800,3.185682861328125,0.5910438445727711,-3.078555060534994,0.41679493247726773
1789141055290655000,3.195655029296875,0.4628637186731112,-3.156943588196091,0.0987732624526669
1789141055300628000,3.2056279296875,-1.0885035007939265,-2.498639430583143,0.23500522718038086
1789141055310599700,3.215599609375,-1.0869329434927304,-1.7210736647696652,-0.3437886641347038
1789141055320573000,3.225572998046875,-1.1136880097935526,-0.310510921514145,-0.5679081028003328
1789141055330545000,3.235544921875,-0.11363330650780494,1.091403960197751,-0.5356287349232712
1789141055340516900,3.245516845703125,0.5371376270954786,1.6135874408719426,-0.4350416902265523
1789141055350489900,3.25548974609375,1.6037836781104116,1.1965060714507294,-0.20922295502307361
1789141055360461800,3.2654619140625,2.3835722571761377,0.03276700095689668,0.3884353792936896
1789141055370433800,3.275433837890625,1.8432036094957511,-0.06144520256154418,0.5249635773469717
1789141055380406800,3.28540673828125,3.2966268335933906,-0.5122653446217447,0.09353424337541608
1789141055390379000,3.29537890625,3.2993317356477645,-0.512303336488136,0.10067831397724678
1789141055400350700,3.305350830078125,0.5545103433903754,-0.45108717965476003,0.1355231343659888
1789141055410324000,3.315323974609375,-0.3788190915879389,-0.25582836988048635,-0.4414116130427717
1789141055420296000,3.3252958984375,0.33360847572332775,0.29062112531673695,-0.02494350640137059
1789141055430268700,3.3352685546875,-1.7146393126475352,0.82154342292064,0.28888160063307877
1789141055440241000,3.345240966796875,-2.4798608523535743,0.3619794404945321,-0.8492215180119569
1789141055450212900,3.355212890625,-2.7594889936944216,-0.8503985371000271,-0.2797143064285259
1789141055460185900,3.365185791015625,-1.961310933672131,-2.0227247965487143,0.16470134129630873
1789141055470157800,3.37515771484375,-1.1130647453729392,-2.224709270402886,0.11909511320510992
1789141055480130000,3.385130126953125,-0.8562333843776232,-1.8018686090355223,0.4444904670554648
1789141055490102800,3.395102783203125,0.9885617437602323,-0.6021335505929407,0.8330112583302322
1789141055500074800,3.40507470703125,2.379119490548144,1.9973094815453163,0.3473567501514478
1789141055510047000,3.415046875,3.005276491332621,4.087705226360031,-0.17190832366389636
1789141055520019700,3.425019775390625,3.8579966033807493,4.961726470827216,-0.17284200613737488
1789141055529992000,3.434991943359375,2.281836373360761,4.8387713855548595,0.13632668936770032
1789141055539964000,3.4449638671875,0.550827051818385,3.8374532501980143,0.42136230289393767
1789141055549937000,3.45493701171875,0.8220698244493063,2.0746439123975216,0.3262898804141136
1789141055559908900,3.464908935546875,-0.1326771715914115,0.6778538400311336,0.7759719824771785
1789141055569881900,3.4748818359375,-0.844460255503703,-1.5491997307535155,-0.0711695145454721
1789141055579853800,3.484853759765625,-0.7427739277277818,-2.3248146328716848,0.08287227068713753
1789141055589825800,3.49482568359375,0.9203572758494077,-1.3843108141424891,-0.5262736084644417
1789141055599799000,3.504799072265625,-2.879381296565525,-1.4135794814779992,-0.16200877963213361
1789141055609770800,3.514770751953125,-1.343698084308389,-2.0393015489987447,-0.6092360463435105
1789141055619743000,3.524742919921875,-1.1134400727682159,-2.5101714952617495,0.26267107858823474
1789141055629716000,3.534716064453125,-2.5222816863078825,-2.289679242772808,-0.3200390557675401
1789141055639687700,3.544687744140625,-0.19801070731953388,-1.9770119675558493,-0.04613703322742143
1789141055649660000,3.554659912109375,0.09816828766041608,-1.4578302259904392,-0.02282165271847438
1789141055659633000,3.5646328125,1.011323521660567,-0.9969130268149544,-0.6726258367951865
1789141055669604900,3.57460498046875,1.1289433608284176,-0.33467298108903976,-0.1425489603434078
1789141055679576800,3.584576904296875,2.489938673433157,0.08130642937023164,-0.466515511615231
1789141055689549800,3.5945498046875,0.9541480810703461,0.6350592900328847,0.4114708429128054
1789141055699521800,3.604521728515625,0.9544881507104617,0.6350631377777435,0.4098026642368729
1789141055709494800,3.614494873046875,0.29747347504267296,0.20760422614151092,0.6917736507908323
1789141055719467000,3.624467041015625,0.566558018698658,-0.3199414855103299,0.7122270227273861
1789141055729438700,3.634438720703125,-1.6192042862637455,-0.4571612533794236,0.5914153273539348
1789141055739411700,3.64441162109375,-1.8485962115430428,-1.1221507457012618,-0.5492495514357535
1789141055749384000,3.654384033203125,0.6154207668262003,-1.2674108980110648,-0.6843689412778994
1789141055759356000,3.66435595703125,0.38622452171542104,-0.8272617781734134,0.5601914121555016
1789141055769329000,3.674328857421875,1.0629949094052655,0.47838704609244165,-0.28046978823196916
1789141055779300900,3.68430078125,-0.9420378897833935,1.4184208421574538,-0.5818966335360052
1789141055789272800,3.69427294921875,-0.3021222923571673,1.6339473943477107,0.37783671928034507
1789141055799245800,3.704245849609375,0.015946243600839596,2.0140535787451896,0.7918974858937129
1789141055809218000,3.714218017578125,-1.7044553645506533,2.073906280264508,0.42958557043128753
1789141055819189800,3.724189697265625,-1.8426718551011694,0.7681018111537112,0.9480243338452373
1789141055829162800,3.734162841796875,-1.076438030834211,-0.14193061241709368,0.007779755928304147
1789141055839135000,3.744135009765625,-0.9019948979930158,0.20455710307727296,0.034600172830586244
1789141055849107700,3.754107666015625,-0.02335452473666956,-0.06724344550098511,-0.4600649667198675
1789141055859080000,3.764079833984375,0.8472677472839103,0.13426868835349248,-0.20171831054322628
1789141055869052000,3.774052001953125,1.3076962990572432,0.431941373618592,-0.16037388550073362
1789141055879024600,3.784024658203125,1.6402118929611604,-0.0647830645280534,0.70133843993444
1789141055888996900,3.793996826171875,1.764084430594884,-0.03791983492863653,0.7694367691915539
1789141055898968800,3.80396875,1.2239631769405512,-0.14723338913536171,1.2084662098050392
1789141055908941800,3.81394189453125,2.016151039380088,-0.6604084341909383,1.26842775242535
1789141055918913800,3.823913818359375,1.807313306752071,-0.6798478922242294,1.7612367739425043
1789141055928886000,3.833885986328125,1.2725096596579117,-1.3405389900742188,0.7481965226549263
1789141055938858800,3.843858642578125,-0.4003102411884417,-1.5681291625296032,0.5204967722077657
1789141055948830700,3.853830810546875,-0.40349329903749925,-1.5681307875435329,0.5221944266694812
1789141055958803000,3.863802978515625,0.18538482929913977,-0.6934712080097795,0.7041387872319076
1789141055968775700,3.873775634765625,1.0877476685818757,-0.12158145184679345,0.34783014242847365
1789141055978748000,3.883747802734375,0.9000776717829152,0.09056348289251737,0.68964677685181
1789141055988721000,3.893720947265625,0.6453558217911285,-0.01570634177963094,0.2666541890517546
1789141055998692900,3.90369287109375,2.0041793814072624,-1.0307682537073213,0.7040151924109177
1789141056008664800,3.913664794921875,1.821730774444599,-1.2949850558423035,0.38834424390639466
1789141056018637800,3.923637939453125,-0.48511161801577685,-1.4751003382211383,0.0020918898791708537
1789141056028609800,3.93360986328125,-0.49161982829876666,-1.7051542492016474,0.05570252879704197
1789141056038581800,3.943581787109375,-0.026496911840019934,-1.411744661256372,0.13336184543139518
1789141056048555000,3.953554931640625,0.1342625668645835,-0.19160466117602373,-0.3168430278030344
1789141056058526700,3.963526611328125,0.13344136762601883,-0.1916136771894113,-0.3145210538421976
1789141056068499000,3.9734990234375,-0.2818566296988065,1.2866577803103891,-0.32772145757628995
1789141056078472000,3.983471923828125,0.5316276225850448,1.5174526872875589,0.34368894351871815
1789141056088443400,3.993443359375,0.1309882876979216,1.1970438476070404,0.8920652554151044
1789141056098415600,4.00341552734375,-0.03812414896766981,0.8696999498563168,0.6296037113529562
1789141056108388600,4.013388671875,-0.13771927991467575,0.8350616505584364,0.263402932403158
1789141056118360600,4.023360595703125,-0.6742406202624857,0.20403977058644077,0.5452610068708574
1789141056128333600,4.03333349609375,-0.3699989127133717,-0.6874782051731019,0.4018434688785899
1789141056138305800,4.043305908203125,-0.4898750456367543,-0.3504830857680711,0.6254033635015438
1789141056148277500,4.053277587890625,-0.8991294583057461,-0.3358379093995666,0.9924410269756395
1789141056158250500,4.06325048828125,-1.1488985870076944,-0.11576272261826288,0.6272774179780867
1789141056168222700,4.07322265625,0.4289330978886843,0.2598083399252601,0.8989766070305848
1789141056178194400,4.0831943359375,-0.2522013797754872,0.22586240178035955,0.6913193469537353
1789141056188167700,4.093167724609375,0.43296808598701814,0.34598250360088423,0.8475559750382915
1789141056198139600,4.1031396484375,0.4302673087377903,0.34598341888451073,0.8456237878699301
1789141056208111600,4.113111572265625,0.7687788283152079,0.7271445836062662,0.23805807220772157
1789141056218084600,4.123084716796875,1.570527550593495,-0.10491651586029478,0.48089448813104013
1789141056228056600,4.133056640625,0.8820572273619656,-0.4447592223929664,0.28681592815048296
1789141056238028500,4.143028564453125,-0.118989018109396,-0.030793159675861985,0.18339296886573286
1789141056248001500,4.15300146484375,-0.05697054574493153,-0.3604433775084113,-0.38348236946695236
1789141056257973800,4.162973876953125,0.7693490196935334,-0.39333039375441553,-0.3673309301562948
1789141056267946500,4.172946533203125,-0.5670471788256758,-0.20738638697106002,0.5892026044597295
1789141056277918500,4.18291845703125,-1.4632682562533081,-0.4431533859854357,-0.18462864897869233
1789141056287890700,4.192890625,-1.463923682787142,-0.44315650024898023,-0.18648570973609865
1789141056297863400,4.202863525390625,-0.34812072200093486,-1.305212210632036,0.7598115766229282
1789141056307835600,4.212835693359375,0.028113103541299016,-0.90705927724445,-0.5001800501306979
1789141056317807600,4.2228076171875,-0.268126816635826,0.24483482388253733,-0.31323364869843906
1789141056327780600,4.232780517578125,0.19231259858144464,0.45886811645723696,-0.3052947398150511
1789141056337752600,4.242752685546875,1.7796983164409501,0.8114375864211235,0.2856945756272165
1789141056347724800,4.252724853515625,0.1921661956356929,0.8594399675144131,0.7076854818369793
1789141056357697500,4.262697509765625,-0.9052053312878373,0.4255893970333397,0.5855108068736485
1789141056367669500,4.27266943359375,0.1484958599434259,-0.013109445686321395,0.30220021540855985
1789141056377641700,4.282641845703125,-0.8860339709607137,-0.08627412161366099,0.34522028514338127
1789141056387614500,4.292614501953125,-0.8787988051725096,-0.08629083182541177,0.34542148874804995
1789141056397586700,4.302586669921875,-0.8127749169603572,-0.6610327734449699,0.319269336438886
1789141056407559700,4.3125595703125,-1.546009772430312,-0.5475626771604569,-0.11801285355838956
1789141056417531400,4.322531494140625,-1.5388267489201948,0.008825173662558358,0.49331147525033164
1789141056427503600,4.332503662109375,-0.09226028910806698,0.06240893883198557,0.38881420026467806
1789141056437476600,4.3424765625,0.48475569303022575,0.5726188103429517,-0.5389781981430743
1789141056447448600,4.352448486328125,0.48453248678047767,0.5726079492487045,-0.5418470932532737
1789141056457420500,4.362420654296875,0.062080372663660024,0.4304591520127545,0.4121414867794146
1789141056467393500,4.3723935546875,0.9110214749532656,0.8994731749789722,-0.8289252317295959
1789141056477365500,4.382365478515625,0.10801883043170642,0.7979865457949632,-0.5033412985532709
1789141056487337500,4.39233740234375,1.252791157520308,0.18559025707315657,0.013534060800782663
1789141056497310700,4.402310791015625,-0.38534776342678256,0.15360749180741498,-0.7034578345559762
1789141056507282400,4.412282470703125,-0.3025719149769342,0.09288928065908277,-0.5658143819676635
1789141056517254700,4.422254638671875,0.9411380306455843,-0.06465800865350013,0.42596933742139664
1789141056527227600,4.4322275390625,-0.16736007619425813,0.6651233512707362,-1.171864118465298
1789141056537199600,4.44219970703125,-0.8213651903346205,0.402354767567291,-1.0015958370295928
1789141056547172600,4.452172607421875,0.8624072664552475,-0.009255782182079994,0.1895494212487244
1789141056557144600,4.46214453125,0.28739509193338203,-0.9613021877482804,-0.4209601115721663
1789141056567116500,4.472116455078125,0.010511730946036494,-1.5071329827895754,-0.17361593403449954
1789141056577089500,4.482089599609375,0.016703660860698678,-1.367734812525046,0.8176682245923849
1789141056587061800,4.492061767578125,0.9829660044917616,-1.0764602685997657,0.9852916722314435
1789141056597033500,4.502033447265625,1.7592945155608388,-0.3350941278696603,-0.11158030400237508
1789141056607006500,4.51200634765625,0.07151444026868013,0.6128474365685002,0.2185626080136724
1789141056616978700,4.521978759765625,0.5254470546500778,0.6990560702821101,-0.6399170774616383
1789141056626950400,4.531950439453125,0.40631312986886026,0.31709234386910573,-0.4650749753495131
1789141056636923600,4.541923583984375,-0.29618564182351587,-0.10070479414086787,-0.7919694982473368
1789141056646895600,4.5518955078125,-0.6486594431641403,-0.28239553985928767,-0.2078166518626992
1789141056656867600,4.56186767578125,-0.7256489322317672,-0.09690687681105746,-0.3752538798564726
1789141056666840600,4.571840576171875,1.0130295573198203,-0.22806055639590012,0.010718122858366723
1789141056676812500,4.5818125,0.5838598495650291,-0.8337451804369037,-0.9598847289429393
1789141056686785800,4.591785888671875,-0.8918505669580642,-0.6251961722012978,-0.2639335665329499
1789141056696757500,4.601757568359375,-0.8930206260200295,-0.6252380333243818,-0.2664577473859982
1789141056706729700,4.611729736328125,0.7928635425210842,-0.7801789534506225,0.10709110556444425
1789141056716702700,4.62170263671875,0.22868384590212107,-0.26498502275522784,0.3860628447135094
1789141056726674400,4.63167431640625,0.22619995162890094,-0.2649593071350861,0.38698058014772224
1789141056736646700,4.641646728515625,0.47673557397260763,0.7814002291882954,-0.0985490259007945
1789141056746619600,4.65161962890625,0.5424650739141368,0.84186749127256,-0.7044038506214927
1789141056756591600,4.661591552734375,0.909380525160802,0.5498623331568965,-0.7646540971265623
1789141056766563600,4.6715634765625,0.8507417876287281,0.6473102620553874,-0.4007804902312182
1789141056776536600,4.68153662109375,0.2091869176736825,0.7735496508076422,0.33589417976039415
1789141056786508500,4.691508544921875,0.2094834935543532,0.7735319564864706,0.33506104397348146
1789141056796480800,4.701480712890625,1.1687672399757154,0.1930054559127843,-0.8887503808579409
1789141056806453800,4.711453857421875,-1.4635786722946371,0.2910661646194822,0.09734453686186278
1789141056816425500,4.721425537109375,-1.5102719007031233,-0.18328327403128153,-0.33856193664233925
1789141056826397700,4.731397705078125,-0.6876935890858694,-0.9755639723435564,0.09829533928655125
1789141056836370700,4.74137060546875,0.11011555392354132,-1.4540571665327253,0.3330190725064904
1789141056846342700,4.7513427734375,0.4281292068078116,-1.0812343053376072,-0.5255144896985008
1789141056856315600,4.761315673828125,-0.3413589685931965,-0.3603432360226243,-0.45008373649638667
1789141056866287600,4.77128759765625,0.7560158918393364,-0.0008572487918535095,0.004893391250773539
1789141056876259600,4.781259521484375,0.8204967260848091,0.32416743310080315,-0.17253859445327005
1789141056886232600,4.791232666015625,-0.2882405341608153,0.010437066006555067,0.38791714387830656
1789141056896204800,4.801204833984375,-0.06429232080490663,-0.60327690640085,0.5962043833951747
1789141056906176500,4.811176513671875,0.11637426666587512,-1.0549503180078912,1.0037996562159763
1789141056916149500,4.8211494140625,-0.16815448598593505,-0.8450250206886529,0.1876868602595787
1789141056926121500,4.83112158203125,-0.04798194347709306,-0.5133503926165395,0.24237219973601712
1789141056936093700,4.84109375,0.6760802801380116,0.03589549664863864,-0.5373742520559832
1789141056946066700,4.851066650390625,-0.09626073216467744,0.7090843086626178,-0.4304494784594625
1789141056956038400,4.861038330078125,-0.36804266408046454,0.23239836273019066,0.16282958892637736
1789141056966010600,4.8710107421875,0.7133910963959968,0.16265635517888355,1.2954257935076006
1789141056975983600,4.880983642578125,-0.38503617359650394,-0.2729595858140858,0.5251425833789619
1789141056985955600,4.89095556640625,-0.7830329689342344,-0.17801180320334406,1.0421304757712542
1789141056995928600,4.900928466796875,0.34612277678735937,0.07984764931055875,0.88731688190865
1789141057005900500,4.910900634765625,-0.526880506360955,0.6593474774778351,0.46999407288090184
1789141057015872500,4.92087255859375,-0.11781143592217869,0.5043846095107789,0.44942818158144626
1789141057025845500,4.930845458984375,0.7748098647912685,0.44924576550449896,0.3336046984183228
1789141057035817700,4.940817626953125,-0.34372749597057917,0.5703152311399204,0.45823316478417536
1789141057045789400,4.95078955078125,-0.34338317772566285,0.4625221267092917,-0.08881274084738186
1789141057055762400,4.960762451171875,-0.2189541984305739,0.3073879414216865,-0.49013828511849133
1789141057065734700,4.970734619140625,-1.0963198643385208,0.8264295633255613,0.11803427890551484
1789141057075706400,4.980706298828125,-0.14419503849092932,-0.05088152198509071,-0.0097867574762822
1789141057085679000,4.99067919921875,1.2231093288211317,0.0400984889507031,-0.0026666329290463368
1789141057095651000,5.000651123046875,-0.6227669554133042,0.10249979513265045,-0.3008839829892266
1789141057105623000,5.010623046875,0.1683892061784345,-0.7781865443598144,-0.7312203022415841
1789141057115596000,5.020595947265625,1.2239418332797543,-0.5428700724966404,-0.40893280834268164
1789141057125568300,5.030568359375,0.5391255553190221,-0.5779238979425608,0.04910196397796091
1789141057135541200,5.040541259765625,0.7639155253509982,-0.11596949166559285,-0.7250911196586707
1789141057145513000,5.050512939453125,1.096796708356277,0.9655221124079608,-0.22203316839424675
1789141057155485200,5.060485107421875,1.2876606464461733,0.8694512037700206,-0.4603371894569023
1789141057165458200,5.070458251953125,1.0918440609443985,0.6304313259926718,0.187922550881848
1789141057175430100,5.08043017578125,0.3982992105571767,0.4947048682793966,0.2648826557044678
1789141057185402000,5.090402099609375,0.19486367190472337,-0.21406850818901813,0.6876308428370839
1789141057195375000,5.100375,-1.2378838386407,-1.5480460077733458,-0.056405729066602316
1789141057205347000,5.11034716796875,-1.1417938823978313,-1.8623623614676565,1.3145456207820805
1789141057215319000,5.120319091796875,-1.8821269254579287,-1.434732543944213,0.5002963423909071
1789141057225292300,5.130292236328125,-0.6638738933536145,-0.5055168760757603,0.9567048315597335
1789141057235264000,5.140263916015625,1.1588825550357327,-0.020763604412073,0.9596733931444725
1789141057245236200,5.150236328125,1.7759613131975072,0.4937069229344974,0.5476999833136726
1789141057255209200,5.160209228515625,0.5426651060688814,0.8321655159137379,0.7953188413262334
1789141057265181200,5.17018115234375,0.6656292569924885,0.6872353123126326,0.775465968625742
1789141057275154200,5.180154296875,0.8945762290490027,0.3754622129851567,0.6167665191461141
1789141057285126100,5.190126220703125,0.8994550485605167,0.37540377689503246,0.6134639708433095
1789141057295098000,5.20009814453125,-1.986856312588664,-0.5809834815815564,-0.10255553532109395
1789141057305071000,5.210071044921875,-1.509321765838237,-0.8641642294988007,0.07841080935923128
1789141057315043000,5.22004296875,0.5232195754649506,-0.647196225185323,-0.8849902518757587
1789141057325015000,5.23001513671875,1.6035242165692547,-0.040799276903746566,-0.4483377678130183
1789141057334988000,5.239988037109375,0.11434952826803295,0.41739258439491767,-0.6007516596626746
1789141057344960000,5.2499599609375,0.23479079462469166,1.1021448499218216,-0.2621476728593278
1789141057354932000,5.259931884765625,0.39528885246831896,1.31898267903923,0.33766209808710423
1789141057364905200,5.2699052734375,0.6935285788403807,0.9147879773415383,0.20254806131531047
1789141057374877000,5.279876953125,-0.8209944563174404,-0.020071477865098906,0.32074299956771035
1789141057384849200,5.28984912109375,-1.2333644569087332,-1.0934120809585677,0.1358919624122295
1789141057394822100,5.299822265625,-1.235442881417941,-1.093338322712175,0.1405736847058518
1789141057404793900,5.3097939453125,-0.0484168319504798,-0.7537535455206567,-0.007555433206011736
1789141057414766000,5.31976611328125,-0.18626176565835106,-0.3901871630583473,0.3412850964215004
1789141057424739000,5.329739013671875,0.6188002787341391,-0.07438930682438373,0.5647128657194078
1789141057434711000,5.3397109375,0.30986764831850666,0.31567043892730634,0.46831077547295624
1789141057444684000,5.34968408203125,0.6197593232891168,0.5664272949957198,-0.016724012679115125
1789141057454656000,5.359656005859375,0.7783237549020383,0.6284783564783639,0.7304806851121826
1789141057464628000,5.3696279296875,0.9332284796703527,0.2842668375674541,0.4703536738649062
1789141057474601000,5.37960107421875,0.9867913120773119,0.28241067280074694,0.08492382827719365
1789141057484573200,5.3895732421875,-0.5602439072911345,-0.21595887920554788,-0.08225355154137304
1789141057494545000,5.399544921875,-0.7736920257098221,-0.09639914179429017,0.10182647661509298
1789141057504518100,5.40951806640625,-0.6039266913581721,-0.43564848148112467,1.0078031416877713
1789141057514490000,5.419489990234375,-0.47342573422158696,-0.6593806866682163,0.4964915862819134
1789141057524462000,5.429462158203125,-0.5454398456605142,-0.5601124582926587,-0.045105036428699195
1789141057534435000,5.43943505859375,-0.8652701453600189,-0.43650414140651905,-0.05932928558624383
1789141057544407000,5.449406982421875,0.49574059229002343,-0.8764014895719523,0.37492198335459737
1789141057554379000,5.45937890625,0.7385013029770167,-0.7504638802588111,-0.22375893916903553
1789141057564352000,5.46935205078125,-0.31801033724065786,-0.03266541204680719,0.019105193759428638
1789141057574324200,5.47932421875,0.5506476104844407,0.25073966877857057,0.2764768597545545
1789141057584296000,5.4892958984375,0.2802394323975095,0.1733315547879975,-0.013451175268638422
1789141057594269000,5.49926904296875,-0.5723586202891296,0.23097780132252463,0.33038761255556703
1789141057604241200,5.5092412109375,0.14450067038344921,0.044218946192680436,-0.09552177512618758
1789141057614214100,5.519214111328125,-0.7769353626975377,0.40709530504893776,0.019535874986970236
1789141057624186000,5.52918603515625,-1.781285228386038,0.1399436840031058,-0.0007867883511960515
1789141057634158000,5.539157958984375,-0.08404843991406191,-0.34225104120546745,0.18291599397365918
1789141057644131000,5.549131103515625,-0.017410329306129603,-0.437644114074418,0.46963181507064083
1789141057654103000,5.55910302734375,-0.5598587495862475,-0.5934906585489537,0.9190415670376603
1789141057664075300,5.5690751953125,0.2544759120339379,-0.8997699350597619,0.03099702704487109
1789141057674048300,5.57904833984375,0.6627411337615293,-0.36739219581295635,1.1288712981936593
1789141057684020000,5.58902001953125,1.1955456472745922,0.31801008863772434,0.2913289670148802
1789141057693992200,5.5989921875,0.8436276672771892,0.8362100784017913,0.4110315275636086
1789141057703965200,5.608965087890625,1.4668470792336203,1.0024574240381288,0.9103708550150227
1789141057713937200,5.618937255859375,1.138916125214351,2.217269424304939,0.3490788077247154
1789141057723909000,5.6289091796875,0.6870121244889575,2.1502412846075183,-0.8177157402034269
1789141057733882000,5.638882080078125,0.20017430334948258,1.0176728162312914,0.020964760803200217
1789141057743854000,5.64885400390625,-1.2100219071096245,0.10154846641675991,0.6005673476517079
1789141057753827000,5.6588271484375,-1.2873356119601593,-1.211528326749729,0.7604526305331818
1789141057763799300,5.66879931640625,-0.42309604462472805,-1.4389728350742095,0.6049299846363981
1789141057773771000,5.67877099609375,0.7225061517575586,-0.7922246823885132,0.36378977770074766
1789141057783744000,5.688743896484375,1.8206629258956022,-0.893235031585216,0.1063281812147717
1789141057793716200,5.69871630859375,0.9513313373437681,-0.41420977206846865,0.3097141026144835
1789141057803688000,5.70868798828125,0.1172912985984484,1.166440349525818,0.2416022096734908
1789141057813661200,5.7186611328125,2.304642801255218,0.6258792437112985,-0.43726586357559943
1789141057823633200,5.728633056640625,1.9340468802238433,1.1226020787958708,0.7578099927050438
1789141057833605000,5.738605224609375,-0.43138497488850036,0.7748470624496383,0.7032071444942508
1789141057843578000,5.748578125,-0.7196869259186748,-0.09103267600858636,-0.3619539727327753
1789141057853550000,5.758550048828125,0.8227393672568672,-1.0516813695439136,-0.08293089118837739
1789141057863522000,5.76852197265625,-1.2935536515720538,-0.5516349074824768,0.01824304022902613
1789141057873495000,5.7784951171875,-2.1722244858232442,-0.6746884686249797,-0.978051911241974
1789141057883467300,5.78846728515625,-0.6660929254718002,-0.5878928732116924,0.20329070261264603
1789141057893439000,5.79843896484375,1.2645660524860647,-0.7715272113698265,1.0700648480146218
1789141057903412200,5.808412109375,0.1270778494946294,-0.4158745578783608,0.4249439235559978
1789141057913384200,5.81838427734375,-0.5784624059487685,0.24196107983576523,-0.02492001594072865
1789141057923357000,5.82835693359375,1.0881460179611315,1.1526580261795287,0.16124553398556707
1789141057933329200,5.8383291015625,2.873859596893574,1.2293083666901239,-0.41809705813995246
1789141057943301000,5.848301025390625,0.9905495396292606,0.7991776413838141,0.291856723618081
1789141057953274000,5.858274169921875,-0.17851283057658754,-0.12221991635233243,0.36847879275088063
1789141057963246000,5.86824609375,-0.5980339105477075,-0.435010660071243,0.42021794676600105
1789141057973218300,5.87821826171875,-1.6193939373233872,-0.4099922898033165,0.20569538360334355
1789141057983191000,5.88819091796875,-1.6909896965247218,-0.6455567950381637,0.18648589546026254
1789141057993163000,5.8981630859375,-1.4678012052265406,-0.9017279413950832,-0.004798501287501851
1789141058003135200,5.90813525390625,-0.4277021517312501,-0.44786034882218223,-0.08432298409512806
1789141058013108000,5.91810791015625,0.6540485791569338,0.1698049891959797,0.06411012865812939
1789141058023080200,5.928080078125,1.4672344042695427,0.6622750552396256,0.1711559138439226
1789141058033052200,5.93805224609375,1.2031696085421109,0.9683094025996586,-0.17411810383886336
1789141058043025000,5.94802490234375,1.237408649807108,1.316361482804867,0.5660323462525136
1789141058052997000,5.9579970703125,0.1073756721005047,1.5161281137664706,0.55714434149745
1789141058062969000,5.967968994140625,0.11205973105123798,1.516363826451539,0.5499058066362413
1789141058072942000,5.977942138671875,-0.6753982004159317,-0.2034706624888104,0.7146473132633554
1789141058082914000,5.9879140625,-0.8014587766812659,-0.295125952062089,0.9718363302896735
1789141058092887000,5.997886962890625,-1.6812452957176203,-0.8107907468752197,0.9332631317533221
1789141058102859300,6.007859375,-0.8217192447932098,-1.0094777166814073,0.7124653458173275
1789141058112831200,6.017831298828125,-1.2178744780917876,-0.7525325807136243,0.20993081720957396
1789141058122804200,6.02780419921875,-0.7758002882457039,-0.6330894498221306,0.47657406048283546
1789141058132776200,6.037776123046875,1.6538811832301474,-0.4837865318012847,0.7332608029978049
1789141058142748400,6.04774853515625,1.0112365816315945,-0.22255722232252645,0.7474881724769159
1789141058152721200,6.05772119140625,0.44724898636777527,0.43562034685619627,1.4440864584401545
1789141058162693400,6.067693359375,-0.4248273779180058,0.11467977053902421,0.06682818480920714
1789141058172665300,6.077665283203125,0.2198073105596826,0.13301035488725546,0.7169270459097091
1789141058182638000,6.08763818359375,-0.07132574825980226,0.06824441138579478,0.5939258954965099
1789141058192610300,6.0976103515625,-0.9325188755901732,-0.24934010097258416,0.37154627661895273
1789141058202582300,6.107582275390625,-0.3937840531041691,-0.7516149737872022,-0.13857885888031313
1789141058212555300,6.11755517578125,0.881113108944214,-0.28846860399082164,1.090950798921917
1789141058222527200,6.12752734375,0.32271828676458925,-0.030555495567362933,-0.8382094878866647
1789141058232500200,6.137500244140625,0.0605077350555252,0.5582704939632378,0.40840073506244556
1789141058242472200,6.14747216796875,0.2522074086788646,0.8244005756308879,0.0008340283711237149
1789141058252444200,6.157444091796875,0.21845841182786116,0.45509788918235466,0.5086964261775166
1789141058262417400,6.16741748046875,0.9097954518614233,-0.5941908504254646,-0.2550640069634306
1789141058272389000,6.17738916015625,-0.827487759503324,-0.2651024752339441,0.2655907760963694
1789141058282361300,6.187361328125,-0.9800168804184741,-0.6210414872942195,-0.5136669275313375
1789141058292334300,6.197334228515625,-0.20490826522036534,-0.9662208124825166,0.45057381697802057
1789141058302306000,6.20730615234375,0.6181314239623976,-0.022186016986782,-0.6235054539535954
1789141058312278300,6.2172783203125,-0.5434851784712967,0.2769593871491277,-0.5578116280158335
1789141058322251300,6.227251220703125,1.1812647445527062,0.6194789802748768,-0.26037598670212203
1789141058332223200,6.23722314453125,1.5364655050241023,1.3126341879702785,0.45273960539158037
1789141058342195200,6.2471953125,1.7033418072056388,0.2278190718605832,0.2022193199219511
1789141058352168400,6.25716845703125,1.354653846508147,-0.29278776050795735,-0.024514826263381813
1789141058362140200,6.26714013671875,-0.35067451170733854,-0.21798380942391832,0.12427149366399289
1789141058372112400,6.2771123046875,0.7958059057621674,-0.9299093710195091,-0.33625389379831316
1789141058382085400,6.28708544921875,1.4060367267009284,-0.71786451099682,0.26246602583276
1789141058392057000,6.29705712890625,-1.1728224675301342,-0.19757297374904007,0.35408714293858917
1789141058402030300,6.3070302734375,-1.383601401242289,-0.159619512743923,0.300233710087596
1789141058412002300,6.317002197265625,0.9449975169109162,-0.1877920800783699,1.7527754257225154
1789141058421974300,6.326974365234375,0.44541414763051546,0.39985425550591275,0.5682128056752825
1789141058431947300,6.336947265625,-1.3139616745818115,-0.03845345832243322,0.6489860264229677
1789141058441919200,6.346919189453125,0.4403030512266344,-0.36138250452671955,-0.12085192543958381
1789141058451891200,6.35689111328125,1.338625013356961,0.0885677540991743,0.6103898043102771
1789141058461864200,6.3668642578125,1.575537767680285,0.620593702829117,0.48290784503500467
1789141058471836400,6.37683642578125,-0.47650918653246827,-0.06375851976838838,0.6600009206369848
1789141058481808100,6.38680810546875,0.49316823175229535,-0.02210323193227963,1.1077478744567149
1789141058491781000,6.396781005859375,1.3571270696518012,0.00040396496922854886,1.0729266629677874
1789141058501753300,6.40675341796875,-1.0096077523879043,-0.10192160506670464,0.3595276968284504
1789141058511725300,6.416725341796875,-0.18526042936716128,-0.5402661087366393,0.512329551331152
1789141058521698300,6.4266982421875,0.9207904437699648,-0.4176241221214755,0.1551661082724099
1789141058531670300,6.436670166015625,0.2940327044466035,0.002939723855692045,-0.2634420611686271
1789141058541642200,6.446642333984375,-0.37044110608859604,0.35665502610096184,0.3299579752778212
1789141058551615200,6.456615234375,1.1976878305070588,0.3334645585236811,-0.03554989427157769
1789141058561587500,6.46658740234375,0.15068382509807174,0.2333261385574285,0.382390801809415
1789141058571560200,6.476560302734375,0.9339329818620417,-0.02894333817428236,0.17855819032392758
1789141058581532200,6.4865322265625,-0.1241317553826094,-0.4598082992890322,0.32413098201000634
1789141058591504400,6.49650439453125,-0.2578786263112536,-0.6326820013086334,0.16287647999497595
1789141058601477000,6.50647705078125,-0.07934080249888087,-0.34229566346159623,0.45822965185588804
1789141058611449300,6.516449462890625,0.3004939436978626,-0.10389427898184395,0.26150104310869965
1789141058621421300,6.52642138671875,0.4487564203360695,0.24876025840203406,0.2644137286160074
1789141058631394000,6.53639404296875,-0.9240946415386712,0.6015649883397504,0.032491992115530305
1789141058641366300,6.5463662109375,-0.7291781165031002,0.25740934254886094,0.48545055204420484
1789141058651338200,6.556338134765625,0.47470893640871537,-0.14277790054354367,0.20194942670639449
1789141058661311200,6.566311279296875,-0.3148651993743493,-0.2599181928239332,0.16162303208958628
1789141058671283200,6.576283203125,-1.2195229514785026,-0.09374254198561358,0.36786555622940537
1789141058681255400,6.58625537109375,-0.08245828352121932,-0.5859638895237619,0.22032807066864507
1789141058691228200,6.596228271484375,-0.5031600853481378,-0.332578741741964,0.05991712935648008
1789141058701200100,6.6062001953125,-1.5726185696875046,-0.236111515468644,0.74237138574201
1789141058711172400,6.61617236328125,-1.5019248846918722,-0.5160666038396219,1.1756099638252502
1789141058721145000,6.62614501953125,0.009289299755490373,-0.39004220428482156,1.0015712359605664
1789141058731117300,6.636117431640625,0.9376008203521009,0.1349864345509878,0.7877308619551552
1789141058741090300,6.64609033203125,0.5694058330241549,0.6414498510988298,0.04490592470755098
1789141058751062300,6.656062255859375,-0.6829439813074882,0.5325545592536955,-0.5280240024612165
1789141058761034200,6.6660341796875,0.4221293030602191,0.4005149474566873,-0.09062205025765237
1789141058771007200,6.67600732421875,0.4041475458137988,0.3282649361703467,0.03530382949965407
1789141058780979200,6.685979248046875,-0.8624662553707869,0.4641227360745084,0.29372323328135835
1789141058790951200,6.695951171875,-1.559318885657218,0.08779226422306889,0.07896991137672249
1789141058800924400,6.70592431640625,0.1334923881210813,-0.40892392183105786,-0.09732206334207381
1789141058810896100,6.715896240234375,0.6409180558825747,-0.3603578848667819,0.6128103828924084
1789141058820868400,6.725868408203125,-0.16675781173464643,-0.036766722494231706,0.4930588321709396
1789141058830841300,6.73584130859375,-0.3291921396081581,-0.21411445777197982,0.13476587003063617
1789141058840813000,6.74581298828125,0.6660293131434963,-0.06345865755915406,0.19457224939936268
1789141058850785300,6.755785400390625,0.9851188589107303,0.8658314052093052,0.03561778858763483
1789141058860758300,6.76575830078125,1.579502561720313,0.4153610554581241,-0.14078869920251272
1789141058870730200,6.775730224609375,0.9881562849207466,0.01346863795432785,0.24069778365805003
1789141058880703200,6.785703125,0.5288741458942715,0.3807236681242211,0.22621658031184444
1789141058890675200,6.79567529296875,0.7239431944457723,-0.046092315071447044,0.13577436285994443
1789141058900647200,6.805647216796875,1.2897295203680499,-0.023865063474740638,0.06823339221214027
1789141058910620200,6.8156201171875,-0.547718033900712,0.6044445700821106,0.21310686014608207
1789141058920592400,6.82559228515625,-0.6467959881041133,0.21746121232709198,-0.7220153653556273
1789141058930564000,6.835564208984375,0.7558547743195917,0.01429928350499872,0.7027382374370368
1789141058940537000,6.845537109375,0.5633618764390458,-0.022791817334200666,0.05863739209562957
1789141058950509300,6.85550927734375,0.5659692745722298,-0.02302556794024278,0.06831095573603119
1789141058960481300,6.865481201171875,-0.4463223359472332,-0.9116123476121798,0.33234765795096516
1789141058970454300,6.875454345703125,1.523596906742633,-0.39536469257055995,0.517495910565569
1789141058980426200,6.88542626953125,0.8674998568022311,0.14215459204912284,0.10224305686542018
1789141058990398200,6.895398193359375,0.18297077533809403,0.07480517875138779,0.6362083853172471
1789141059000371200,6.90537109375,1.211122918586194,0.1335089942139273,0.3774174958621062
1789141059010343400,6.915343505859375,0.6587575881841181,0.24138032807543283,-0.07970447004321743
1789141059020315100,6.925315185546875,-0.6142009025945356,-0.1343822129213956,0.14239666315793298
1789141059030288100,6.9352880859375,-0.5493813209517887,-0.9984866609528531,-0.06546841528617214
1789141059040260400,6.94526025390625,0.33534762176847455,-1.049149324672908,0.15768814578672252
1789141059050232000,6.955232177734375,0.4457905170694485,-0.45634562918814436,0.5722092679249177
1789141059060205300,6.965205322265625,0.4126359561383764,0.3171655692256184,0.3478489201672778
1789141059070177300,6.97517724609375,0.5849670475080132,0.4873032560274812,-0.5909347536883125
1789141059080150300,6.985150390625,-0.2971797333158214,0.7274273667755927,0.5297863021503698
1789141059090122200,6.995122314453125,0.998376939798575,0.24684209551290934,0.6555934306175739
1789141059100094000,7.005093994140625,0.2953278108835459,-0.19345085084240193,-0.1531229514166099
1789141059110067200,7.015067138671875,0.019157179279447007,-0.39441409616949985,-0.0077227321263536215
1789141059120039200,7.0250390625,-0.5399367390769249,-0.5473520073390474,0.8260584112271285
1789141059130011100,7.03501123046875,1.3133851508126242,-0.3265818189016601,-0.43040114633603854
1789141059139984100,7.044984130859375,-0.43650175182162737,-0.19092791040239246,0.5805107256442316
1789141059149956400,7.054956298828125,0.15117618875003722,-0.5556178711716347,-0.06322720202551996
1789141059159928000,7.064927978515625,-0.6651296020683655,-0.127486850633155,-0.43098224595400825
1789141059169901000,7.074901123046875,0.15292954705889275,0.3579795551413962,-0.027943905367447543
1789141059179873300,7.084873291015625,0.465985241461506,0.3984167506598784,-0.1621187734531897
1789141059189845000,7.094844970703125,-0.4410409418034264,0.7085287450397248,0.17202338451736465
1789141059199818200,7.104818359375,-0.442110112439838,0.7088201286786695,0.16056363911039798
1789141059209790200,7.114790283203125,-0.7605579773961085,-0.7869024477820078,-0.110554194836217
1789141059219762200,7.12476220703125,-0.7156409159755894,-0.7295641882579427,0.3183559099592936
1789141059229735200,7.134735107421875,-1.203704012093,-1.1120554256956183,0.41854813957473164
1789141059239707100,7.14470703125,0.4984359028539838,-0.664898582899198,-0.31441807338994265
1789141059249679000,7.15467919921875,-0.08035190594382884,0.2907035383628363,1.113732645726621
1789141059259652000,7.164652099609375,0.6967927063324724,0.7219318262809084,-0.31129114491778515
1789141059269624300,7.174624267578125,0.42965818683207413,1.3082365904932818,0.39331645022813194
1789141059279597000,7.18459716796875,0.7789141932472591,0.4203544935114611,0.20996181508435338
1789141059289569000,7.194569091796875,-3.282142410418997,-1.8206595815156843,1.517816944600638
1789141059299541200,7.204541259765625,-0.07418212792767416,-1.6864415911267843,0.4977030223392242
1789141059309514000,7.214513916015625,-2.3217951800037584,-0.8031564694486286,0.672590171210607
1789141059319486200,7.224486328125,3.1600583567956084,1.1539017365973994,-1.2353595878804149
1789141059329458200,7.234458251953125,-2.1936078824471705,-0.29683839408807317,0.43032406539133816
1789141059339431200,7.24443115234375,0.6770886299152765,0.4721671556684478,-0.11690811688142459
1789141059349403100,7.254403076171875,0.22628020253756256,0.1725331761696088,0.46094296182881184
1789141059359375400,7.264375244140625,1.293473715035759,0.3298782863508426,-0.8181532893361304
1789141059369348000,7.27434814453125,-1.4297885024308568,0.07744005422945723,0.16372266171468144
1789141059379320000,7.284320068359375,2.8831759101875987,1.885164616634234,-1.002541515662161
1789141059389292300,7.294292236328125,5.378522985218629,4.349563640685896,-1.250938208885158
1789141059399265000,7.30426513671875,5.3830412113421575,4.349438423010602,-1.267920480409756
1789141059409237200,7.3142373046875,0.7760932331545306,2.9647823221493046,-1.3361800046082932
1789141059419209200,7.324209228515625,-2.5382088747693783,0.192287052226459,1.0812562562390824
1789141059429182000,7.334181884765625,-7.268455367990227,-3.4152385021414986,-0.5352774840893135
1789141059439154200,7.344154296875,-6.6558120201708055,-4.9676582239022595,0.632327242656805
1789141059449127200,7.354127197265625,-6.658798871739017,-4.967845058531731,0.6206168772134578
1789141059459099100,7.36409912109375,-4.276249148274831,-1.3322401091562632,-2.458876676626836
1789141059469071000,7.374071044921875,-0.105313988854589,-2.4333832200963084,-1.7286629705628451
1789141059479044000,7.384044189453125,2.2984105966645387,-1.0170014106154035,0.11845675673092101
1789141059489016000,7.39401611328125,1.8785658637001197,1.4307268974465492,-0.590439040234027
1789141059498988000,7.403988037109375,3.52580257980172,2.226286972456848,0.723851841952174
1789141059508961300,7.413961181640625,3.303804269067255,1.3075221964873496,2.1473285060049787
1789141059518933000,7.42393310546875,1.3258126204812977,0.6636476634002731,1.3508400325487562
1789141059528905200,7.4339052734375,-0.057318297481921736,-0.6739327601339311,0.5296115407421282
1789141059538878200,7.443878173828125,-0.5893392071377547,-1.158695732423133,0.606839706513794
1789141059548850200,7.45385009765625,0.4245450823056015,-1.2356655358311144,-0.8584611697943048
1789141059558822100,7.463822265625,-0.38755653236944426,-1.2866207557054752,-0.9030277068614012
1789141059568795100,7.473795166015625,-3.3062231540652265,-1.7090100944829583,-0.23109044170838422
1789141059578767000,7.48376708984375,-2.389055844969066,-0.44288520115836827,-1.081701429219181
1789141059588739000,7.493739013671875,2.148148399462641,0.5938691372661838,0.3108126472282887
1789141059598712300,7.50371240234375,2.9935371861969764,1.715298995633564,-0.17353698173354504
1789141059608684000,7.51368408203125,0.5269935983767317,1.3799841222688431,-0.024624995131228112
1789141059618657000,7.523656982421875,2.973307237168138,-0.016760302988803256,-0.37313737757513005
1789141059628629200,7.533629150390625,2.805149369599986,-0.8460688259981908,1.3277639058938897
1789141059638601000,7.54360107421875,-2.7159404675224637,0.34579805589542373,0.02344461856512234
1789141059648574200,7.55357421875,-4.118974593359447,0.3233103264210395,-0.5749311744166727
1789141059658546200,7.563546142578125,-4.817866405634407,1.70657718209115,-0.3136162271496224
1789141059668518100,7.57351806640625,-2.5275555130415768,1.1969316874213531,-0.5860399907961308
1789141059678491100,7.5834912109375,-0.7181002093987955,1.3269872538013279,-1.0321537318164844
1789141059688463000,7.593463134765625,3.440704264408912,-0.72274612872082,0.4914337496161307
1789141059698435000,7.60343505859375,3.427161865546055,-0.7237799545199123,0.4742281447844628
1789141059708408000,7.613407958984375,3.893491154511359,-1.9125695643027796,0.2729609879925761
1789141059718380300,7.62338037109375,1.9074157619465644,-0.5430171000729755,-0.5075148528897713
1789141059728352000,7.63335205078125,1.9115444320489106,-0.5439925830431211,-0.5201575985450415
1789141059738325000,7.643324951171875,-2.046166094426492,1.4837679788840392,-0.3704220245383323
1789141059748297200,7.653297119140625,-1.4462269703846167,0.6076002875269815,0.4066784292489477
1789141059758269200,7.663269287109375,-1.6336218494910975,-0.13919921403240018,-0.10433754727664091
1789141059768242200,7.6732421875,-0.36520736822925687,-1.3014782138301972,-0.7123845509947757
1789141059778214100,7.683214111328125,0.10446218395051529,-1.4941860251155015,-1.0498054888546768
1789141059788187100,7.693187255859375,0.09942004800907744,-1.494741243766741,-1.0573859572566888
1789141059798159000,7.7031591796875,0.7426618805109823,-0.11013772865553059,-0.7429535950331659
1789141059808131300,7.71313134765625,-0.19887671517726735,0.17924290465882986,-1.0270967450736674
1789141059818104000,7.72310400390625,0.5729125672711792,0.13480450551643844,0.2727891568459028
1789141059828076000,7.733075927734375,0.04311879562914212,-0.9928550495238383,-0.5165679115415444
1789141059838048300,7.74304833984375,-1.3070776886853566,-0.9242660339832329,-0.27950758657846997
1789141059848021000,7.75302099609375,-1.327833123710856,-1.6385924044759426,-1.0192160181295904
1789141059857993200,7.7629931640625,0.06440244231492641,-1.0752851644268993,-0.9302663775648806
1789141059867965200,7.772965087890625,0.5812697471650888,-0.20924072678461506,-0.8110858597199379
1789141059877938000,7.78293798828125,-0.08666449497214347,0.7407238924553017,-0.7837892780719855
1789141059887910100,7.79291015625,0.7800209212127853,0.9356225167463084,-0.5606797171758553
1789141059897882000,7.802882080078125,0.37294470538910296,0.7759825482254693,-0.8164862659206381
1789141059907855000,7.812855224609375,0.9173972397087944,0.9142373760042598,-0.7730378573174396
1789141059917827000,7.8228271484375,0.6710026936077502,0.8069189402039203,-0.795240601092481
1789141059927799300,7.83279931640625,-1.0961958656305921,0.6837952237445378,-0.8675304146756722
1789141059937772000,7.84277197265625,-0.9411052326482652,-0.5523730761808733,-0.8185136199501041
1789141059947744300,7.852744140625,-0.9399205555327567,-0.5519916210326228,-0.8139843880139337
1789141059957716200,7.86271630859375,-1.8377422613157637,-1.2190134368573655,-0.562869075830164
1789141059967689000,7.87268896484375,-1.6901522095988748,-1.1081984288684164,-0.4736089492780113
1789141059977661200,7.8826611328125,0.720689244151492,-1.0690036743206823,-0.5174909896638957
1789141059987634200,7.89263427734375,0.08309572822150578,0.5692313602192549,0.4661691617316263
1789141059997606100,7.902606201171875,0.08227429759868544,0.76252732160299,0.24790695008620392
1789141060007578000,7.912578125,1.7273762700873323,1.429783228953405,0.14836942467994674
1789141060017551000,7.922551025390625,1.6767077131271193,1.3966297561836292,-0.5548180228598447
1789141060027523000,7.932523193359375,0.9906942172808147,0.846377696575862,-0.5310272157308601
1789141060037495000,7.9424951171875,1.6660724163418015,-0.539438619511517,-0.5821758485463818
1789141060047468300,7.95246826171875,-0.291286291000584,-0.6611889661965473,-0.08638532991682515
1789141060057440000,7.96243994140625,-0.9858134975110543,-1.3729324393465878,-0.5597329808965469
1789141060067412200,7.972412109375,-0.9881648303978683,-1.3362189321653228,-0.2704604381127951
1789141060077385200,7.98238525390625,-0.23547207270292628,-0.9972432447800632,-0.008489369608844619
1789141060087357200,7.992357177734375,0.777157890862742,-0.17313048457236344,0.4364823191860038
1789141060097329200,8.0023291015625,1.3936714517391504,-0.19062041778729577,-0.8618226827660693
1789141060107302100,8.01230224609375,1.7391333801479396,0.2574679760709295,-0.10611072303696838
1789141060117274400,8.0222744140625,2.1669763473183616,0.30151081105164834,-1.053991800103381
1789141060127246000,8.03224609375,1.2739717945713473,0.3887333228917087,-0.6699103538181422
1789141060137219000,8.042218994140624,-1.1786481208133217,-0.4082336121146812,-0.28389384281340657
1789141060147191300,8.05219140625,1.26772017657178,0.4602988445881459,-0.2013916109732078
1789141060157163300,8.062163330078125,0.10751118571997512,0.2613347070297591,-0.026604081440253547
1789141060167136300,8.07213623046875,-0.09963662267549386,-0.4086704875927207,-1.2305054229811194
1789141060177108200,8.082108154296876,-1.0220515855412988,-0.610914392785643,-0.8978072089162852
1789141060187081200,8.092081298828125,0.6635967833382133,-0.15050691851842563,-0.8164142672689934
1789141060197053200,8.10205322265625,0.049470873454322266,-0.2899399791819924,-1.278326350358068
1789141060207025400,8.112025390625,-0.20642440802000359,-0.05170642349121249,0.03404302027383982
1789141060216998100,8.121998046875,0.8209347940419498,-0.6750704599537171,0.43486115173656864
1789141060226970000,8.13197021484375,-0.2288614693972671,-0.9485288652758386,-0.8086535012457746
1789141060236942300,8.1419423828125,-0.7618302307389572,-0.3721302436752968,-0.41163472780262217
1789141060246915000,8.1519150390625,0.6649474873657832,-0.4915219021348211,-0.5340197080245899
1789141060256887300,8.16188720703125,0.7156796078846127,-0.38358344039720643,-1.2917257435200613
1789141060266859300,8.171859375,0.12628451246552164,0.7995812414160958,-0.27796440388095717
1789141060276832000,8.18183203125,0.7085849309795165,0.875863474044185,-0.5645386305107152
1789141060286804200,8.19180419921875,0.7071372710886223,0.8766590351701493,-0.550986220426914
1789141060296776200,8.201776123046875,-1.0047960561996658,0.4315902267898183,0.22342362617864492
1789141060306749200,8.211749267578124,-0.7098135756602323,0.11150976831901799,-0.299725448943863
1789141060316721200,8.22172119140625,-1.2454045640178613,-0.6759982484963227,0.07866884409231038
1789141060326693400,8.231693359375,-0.5155831467568063,-0.805099754525479,0.6964621176434842
1789141060336666000,8.241666015625,-0.3741023725495114,-0.514957986523903,0.09826526657683526
1789141060346638000,8.25163818359375,-1.5887496505458472,-0.022586757652872047,0.15721537386598372
1789141060356610300,8.2616103515625,-0.9618279434193255,0.06458898479838339,0.6397550520136305
1789141060366583000,8.2715830078125,1.0800136796676705,0.3851631593885458,-0.119127883810151
1789141060376555300,8.28155517578125,-0.290574134161836,0.8207840918660769,0.24396367320095902
1789141060386527200,8.29152734375,-1.1341192703013434,0.2624843014171084,0.2801482463463094
1789141060396500200,8.301500244140625,-1.1382215470512431,0.2630372780452429,0.2928579134095694
1789141060406472200,8.31147216796875,0.5673548487019908,-0.23893339157079663,0.2905341128004403
1789141060416445200,8.321445068359376,-1.1006269253848253,-0.3258020778132101,0.42019244809273226
1789141060426417200,8.331417236328125,-0.14955712038565253,0.3252194325933333,-0.4123662040199417
1789141060436389000,8.34138916015625,0.6323114380981935,0.8422257425505499,0.4870017385316355
1789141060446362400,8.3513623046875,0.1530825770527518,0.2479465423461804,0.9026623437947023
1789141060456334000,8.361333984375,-0.6391267967853079,-0.23362510462154995,0.2866031171557337
1789141060466306300,8.371306396484375,-1.2248773784371625,-0.6227067334293707,0.1066405075286752
1789141060476279300,8.381279296875,-0.26119398375262404,-1.1584937923228695,0.08510689058515729
1789141060486251000,8.3912509765625,-0.14885054723972801,-0.772996574007322,-0.6559014723948092
1789141060496223200,8.40122314453125,0.6335038205690818,-0.3163679822485264,-0.3812681569337528
1789141060506196200,8.4111962890625,1.459584298472385,0.42829495961448605,0.061994303831156714
1789141060516168200,8.421168212890626,1.3893399909433055,1.2910335578109073,-0.7524793795363495
1789141060526140200,8.43114013671875,0.33823518460963203,1.2998927628076715,-0.3257060084751845
1789141060536113200,8.441113037109375,0.24325402756399583,0.4277778943276197,0.28352809371511584
1789141060546085000,8.451085205078124,-0.5853287240951021,-0.22176806338317745,-0.27920642870389156
1789141060556057000,8.46105712890625,-1.1515774129963567,-1.245053625112133,-0.12819399695153094
1789141060566030300,8.4710302734375,-0.21955742285712196,-1.0551055633628335,-0.4071495786255225
1789141060576002000,8.481001953125,0.08291733970018365,-0.35238143970400987,-0.37538215046399576
1789141060585975300,8.490975341796876,0.8168414121367702,0.08511360322990498,0.26701594428031844
1789141060595947300,8.500947265625,1.5085669532691652,0.904357084714449,-0.43773900026800333
1789141060605919200,8.510919189453125,0.1530601064597142,1.2201539659993246,0.4017820266331027
1789141060615892200,8.520892333984374,0.5958762921732601,0.12360619553599174,0.7765907279698206
1789141060625864200,8.5308642578125,0.7271614256807835,-0.15341966042496177,0.2542234257130903
1789141060635836200,8.540836181640625,-0.048563302118245805,-0.38119115240673257,-0.0002794118954564325
1789141060645809200,8.55080908203125,-0.6575544230076769,-0.8419530622998244,-0.42067780325084436
1789141060655781400,8.560781494140626,0.07621178172711955,-0.771378589723921,0.40950298116534456
1789141060665753000,8.570753173828125,0.8422145198431884,-0.13840667146700242,0.15167771105645927
1789141060675726000,8.58072607421875,-0.36360717469018183,0.1019711878532525,-0.29650790187313153
1789141060685698300,8.5906982421875,0.6163544713977626,0.32499235146821676,0.306354928589605
1789141060695670000,8.600669921875,0.3686432991030749,-0.047276964192636994,0.6938858968769711
1789141060705643300,8.610643310546875,-0.33283305293889126,0.011148174819810652,-0.031128431763417876
1789141060715615200,8.620615234375,0.20758034321113897,-0.40415480588104064,1.503955208073329
1789141060725587200,8.630587158203125,0.3456050985101,-1.3118118297900039,0.8821219568892114
1789141060735560200,8.640560302734375,0.34484955161386954,-1.3117578376792742,0.8875558394483066
1789141060745532200,8.6505322265625,-0.8791926364811216,-0.8774273711931038,0.6793458261862192
1789141060755504000,8.660504150390626,-0.5310954586482302,-0.4154467241750742,1.1865626942908911
1789141060765477000,8.67047705078125,0.14913592573233586,0.36473956456017226,0.32514657143721293
1789141060775449300,8.680449462890625,0.1824270379497609,0.6905171423822906,1.1221985871224767
1789141060785422300,8.69042236328125,0.17703603213921115,0.6905233020318939,1.1246234597134648
1789141060795394300,8.700394287109376,1.1006590183901026,1.1114720939023504,0.6736794083567152
1789141060805366300,8.7103662109375,0.43341154576537466,0.8031712077366776,0.4860581625075813
1789141060815339300,8.72033935546875,0.8076895177293045,0.575464593567301,0.9152832661003792
1789141060825311200,8.730311279296876,-0.5528981956709407,-0.4120587425192071,0.4706903313480487
1789141060835283200,8.740283203125,-3.3239126386285607,-1.1311583708475825,0.8212826490658495
1789141060845256400,8.75025634765625,-1.7648800070509933,-1.1380542910411287,0.5724598167311875
1789141060855228200,8.760228271484374,-0.4635777455595002,-0.008950361406370117,-0.10114245070183807
1789141060865200400,8.770200439453125,0.9344757597556119,0.1112458258496536,-0.5602579810605895
1789141060875173400,8.78017333984375,0.20270019884514914,0.3679891517103956,0.24830735530624254
1789141060885145000,8.79014501953125,0.9001738777930612,0.31446017970054974,0.8820883861529706
1789141060895117300,8.800117431640626,2.044201279126849,1.10835115673463,0.3541480183896138
1789141060905090300,8.81009033203125,0.7739036536433596,1.1083677191168515,0.0009697795829224223
1789141060915062300,8.820062255859375,-1.1392718083393567,1.160421879188082,0.1998096135823025
1789141060925034200,8.8300341796875,-1.6196622278773667,0.21438657702744482,0.4173713477465408
1789141060935007200,8.84000732421875,-1.4811301546322544,-0.013815232205009272,-0.00039787738613867235
1789141060944979200,8.849979248046875,-0.6597490906875255,-0.43816193117879026,0.782176821885492
1789141060954951200,8.859951171875,-2.4812421195313195,-0.7217210716778117,0.011873015435896181
1789141060964924400,8.86992431640625,-1.4475845130003326,-0.7715302644565414,0.7134286728985825
1789141060974896000,8.879896240234375,-0.24116549574989385,-0.49257213371368974,-0.6377356687570452
1789141060984868400,8.889868408203125,-0.6112758361342773,-0.11570310949119116,-0.3188768101134086
1789141060994841000,8.899841064453126,-0.8202453292611657,-0.28635246148964316,-0.6687182030778686
1789141061004813300,8.909813232421875,0.449013912732622,-0.6419625199154874,-0.6089203405812861
1789141061014786300,8.919786376953125,-0.22187291311482546,-0.16091878794182077,-1.0856459230539806
1789141061024758000,8.929758056640624,0.24040672162816523,-0.6182582099636538,-1.258949698256706
1789141061034730200,8.939730224609375,0.9508232720800248,-0.5810207249973084,-0.7375717835505387
1789141061044703200,8.949703125,-0.8333727091096469,-0.30658226730847776,-1.281864882615965
1789141061054675200,8.95967529296875,-0.9420252321891754,-0.2003864725282646,-1.265290867818582
1789141061064647200,8.969647216796876,0.260906721840466,0.2946290656042789,-0.9147672924679391
1789141061074620200,8.9796201171875,0.37002825783166826,0.6430840952705861,-0.48882998581236436
1789141061084592000,8.989592041015625,0.7865701523177505,0.1836248367529741,-1.2552411125126428
1789141061094564600,8.999564697265624,1.1517400507750115,0.34891866287097567,-0.5384244783685472
1789141061104537600,9.00953759765625,1.295244112297587,0.3632754659082521,-0.7304957768067227
1789141061114509800,9.019509765625,1.0164004979345787,0.13788825317760903,-0.6038151840441434
1789141061124481800,9.029481689453124,-0.22890386087472836,0.42922969762812785,-0.49282942100044164
1789141061134454800,9.039454833984376,0.4311116276329319,0.18947202335151223,-0.9346014316629615
1789141061144426800,9.0494267578125,-0.17993462112353673,-0.5396115660572359,-0.5194421987856167
1789141061154398700,9.059398681640625,-0.45648492149402353,-0.14528364545923175,-0.6245651949992617
1789141061164371700,9.069371826171874,-0.5440233191736191,-0.4399340602282107,-0.3462481007576622
1789141061174344000,9.079343994140626,0.8568812949507413,-0.476765015775231,0.9004512541446906
1789141061184315600,9.089315673828125,0.4707115844660549,0.597628878130511,-0.21147863001364323
1789141061194288600,9.09928857421875,0.5990067134348434,0.6115377716373714,-0.43020750356258364
1789141061204260900,9.1092607421875,0.9639147388423285,0.1367432590773456,0.20910136666871304
1789141061214232600,9.119232666015623,1.1928979371578872,0.07965843285579924,0.6361856888866735
1789141061224205800,9.129205810546877,-0.3200298742272093,-0.49716052047374637,-0.6306208451047719
1789141061234177800,9.139177734375,-0.9614666296077022,-1.1316438879381396,1.087077570332127
1789141061244150500,9.149150634765626,0.5985703937662998,-1.2317272613367454,0.3194464086437633
1789141061254122800,9.159122802734377,0.05091338329943075,-0.5564871347126346,0.6406769694223153
1789141061264094700,9.1690947265625,-0.16989872026399108,-0.18946275200382856,0.8170140773099382
1789141061274067700,9.179067626953126,1.8560486261449873,0.17199952468300525,-0.17643210451565006
1789141061284039700,9.189039794921875,2.3525579659345532,0.3705337935707351,-0.6459936692649967
1789141061294012000,9.199011962890625,0.46781038131737923,0.6604913541433911,-0.14105297726359178
1789141061303984600,9.208984619140624,-0.7203694848820494,0.16558174218074612,-0.30941141515295817
1789141061313956900,9.218956787109375,0.5042718947706327,-0.12978799165404703,0.46644232792909524
1789141061323928800,9.2289287109375,0.05483720003538733,-0.7215434284838169,-0.4759566901082827
1789141061333901600,9.238901611328124,-1.733394868718298,-0.8145786818029429,-0.19466078365904282
1789141061343873800,9.248873779296876,-0.9561797622834409,-0.5868123881646454,0.31999756784436756
1789141061353845800,9.258845703125,0.38008510903187004,-0.44176051978213904,-0.7237886144409268
1789141061363818800,9.26881884765625,0.8464921930767165,-0.35524937338227763,-0.4171209245960794
1789141061373790700,9.278790771484376,-0.6371251175778573,-0.3240680945155085,-0.3504569491486004
1789141061383762700,9.2887626953125,0.13077095906702152,0.1258338651348762,-0.6291087958260287
1789141061393735700,9.298735595703125,0.7748773408912354,0.1422886647011813,-0.48649162950401803
1789141061403707600,9.308707763671874,0.7718009764679655,0.14249206602065892,-0.47588774401071937
1789141061413679600,9.3186796875,0.4925012184259709,0.5025644635254767,-0.648440505370388
1789141061423652600,9.328652587890623,-0.9941655917000615,0.5745062373394968,0.03567239275256771
1789141061433624800,9.338624755859374,1.3799839034909884,0.7403457526859806,-0.7575287103367162
1789141061443596500,9.348596435546876,0.1817364706727573,0.8088797089570419,-0.13735950899191848
1789141061453569500,9.358569580078123,-1.7807859009070166,0.7610030995463646,-0.43365413451172624
1789141061463541800,9.368541748046876,-1.2397237646285906,0.4784654485109072,-0.676711552352128
1789141061473514800,9.3785146484375,0.29810427652097526,0.3113541989531718,0.28239876051211626
1789141061483486700,9.38848681640625,-0.4837448165287039,-0.4265598946234468,0.3208294240804887
1789141061493458700,9.398458740234377,-1.2529259670866986,-1.3619390269682055,0.1260714424726929
1789141061503431700,9.408431640625,-0.8681958988902949,-0.8461729928348607,-0.2029690245679217
1789141061513403600,9.418403564453126,0.08192323992458922,0.21379019253486997,0.2849659635101595
1789141061523375900,9.4283759765625,0.08154897074044451,0.441417616424909,0.6190803946085741
1789141061533348900,9.438348876953125,0.4926586721335041,0.4645012227810172,1.197015757556268
1789141061543320600,9.448320556640626,0.3635610680961674,0.6109965056545407,0.46931101626708177
1789141061553292800,9.458292724609375,-1.5303871721616247,-0.16500370836663428,0.9506100799857247
1789141061563265800,9.468265869140623,-0.7357771998345275,-0.40258906923587184,0.5517197324315796
1789141061573237800,9.47823779296875,0.2919921401738031,-0.5958493853479063,1.1883279873445383
1789141061583209700,9.488209716796876,0.11148864776621242,-0.8979888728787355,0.567388424839219
1789141061593182700,9.4981826171875,-0.17462649431127863,-0.5543099640213411,0.15435262116888424
1789141061603154700,9.50815478515625,0.7105124777808954,0.09646495784892103,0.29963405198430526
1789141061613126700,9.518126708984376,0.667805757885284,0.2170444028898018,0.5354423360651782
1789141061623100000,9.528099853515624,0.48686385923663655,0.43041960383680616,-0.11221210278332014
1789141061633071600,9.538071533203125,0.056869003339062085,0.351441044991807,0.29877453138392934
1789141061643043800,9.5480439453125,0.00902262242034019,-0.32545412802521845,0.3649650357233194
1789141061653016800,9.558016845703126,0.353320194154123,-0.1664283165186581,-0.23771671886001863
1789141061662988500,9.567988525390623,-0.3049159852308092,-0.05503400202372135,-0.1891785951452983
1789141061672961800,9.5779619140625,0.21211404356084904,0.18424686255940703,0.4674171025536577
1789141061682933800,9.587933837890626,0.7804759577556936,0.6346999126467974,-0.5022958650996969
1789141061692905700,9.59790576171875,-0.5024950345041094,0.2079566593946819,-0.37001811449453526
1789141061702878700,9.607878662109377,-0.6552648680554911,-0.40799214664546685,0.0899375658028283
1789141061712850700,9.6178505859375,-0.05540170839291088,-0.0021317056818113906,0.4000541609017288
1789141061722822700,9.62782275390625,-0.3701299258499881,-0.04045826667775431,0.35210439297588725
1789141061732795600,9.637795654296877,0.293295002911162,-0.43500599747839463,0.6986356761713253
1789141061742767900,9.647767822265624,-0.2579371387342316,0.29732875100963496,0.9632939181814301
1789141061752739600,9.657739501953126,0.10073730471883949,0.10094799606801434,0.08933924709589834
1789141061762712800,9.667712890625,0.44656545532798325,0.4781886333918277,0.4875705061550408
1789141061772684800,9.677684814453125,0.9632686079114311,0.8724126337291676,-0.08542062709160281
1789141061782656800,9.68765673828125,0.914658824476269,0.141046399489584,0.2199024213697988
1789141061792629800,9.697629638671875,1.4531195734885436,0.49985256381810456,0.40737277575905306
1789141061802601700,9.707601806640625,-1.5730737958827294,0.4643913700982008,0.8132335640900078
1789141061812573700,9.71757373046875,-0.311612502710326,-0.40319576237111265,-0.28582312171257274
1789141061822546700,9.727546630859376,0.690008541400763,-0.4881075787751771,1.1352470770105818
1789141061832519000,9.737518798828123,-0.6463741460087027,-0.40161830553636524,0.4806403800812932
1789141061842490600,9.74749072265625,-1.606803022628852,-0.5235099779040264,0.13689688649104853
1789141061852463600,9.757463623046876,0.3544723257507687,-0.6411546275317432,-0.0032374815406371205
1789141061862435800,9.767435791015624,0.9931138966449564,-0.5300823227968956,0.8068112514962422
1789141061872407600,9.777407470703125,0.025602280327833862,-0.16078786942463952,0.2392736258381466
1789141061882380800,9.787380859375,0.6595756839494055,-0.19320328975430526,-0.3186033004558073
1789141061892352800,9.797352783203126,2.091521533035404,-0.3309027819116871,-0.0756567357139297
1789141061902325500,9.807325439453123,1.4960393725987482,0.16434982866273865,0.642272432389368
1789141061912297700,9.817297607421876,0.24285133390847988,0.8991124702997568,-0.3946357797908782
1789141061922269700,9.827269775390626,-0.9424679852885824,0.7199764771543464,-0.02355500682291363
1789141061932242700,9.83724267578125,0.30793417455613886,0.292345954542872,0.681828128907577
1789141061942214700,9.847214599609377,0.3223482236246437,0.20509641207711687,0.9565751711849863
1789141061952187000,9.857186767578124,-1.6651142668507015,-0.3777430990801153,0.8786610536430127
1789141061962159600,9.86715966796875,-0.5026927825255552,-1.0980459924989212,0.2818310075454812
1789141061972131800,9.8771318359375,0.429909908375166,-0.5305525941379853,0.34782716077829506
1789141061982103800,9.887103759765624,-0.7372112584521087,-0.33382763419599043,1.4405033465867296
1789141061992076500,9.89707666015625,-0.7704844069296084,0.04459023917687589,0.2348086013044417
1789141062002048800,9.907048828125,-0.061953535620636914,0.48395138987860353,1.4755091869319898
1789141062012020700,9.917020751953125,0.5307515539878993,1.0824648329429738,0.6179331958540671
1789141062021993700,9.92699365234375,0.029797658130682515,0.674821757148663,0.5724887730507247
1789141062031965700,9.936965576171875,0.2826251278061558,-0.021415304312707602,-0.2751475996113173
1789141062041938000,9.94693798828125,-0.3853994797572222,-0.4113199690166894,0.7149587850552896
1789141062051910700,9.95691064453125,-0.03163443698380072,-0.5885976870358031,-0.11751996021500564
1789141062061882600,9.966882568359376,-1.549941144987566,-0.5299645755571131,0.5881367677845917
1789141062071854800,9.976854736328123,-1.5507652959932825,-0.5302357741752862,0.6001407742225896
1789141062081827600,9.98682763671875,0.27379810135729465,-0.6913552739203056,0.5077793347549935
1789141062091798800,9.996798828125,-1.1576462498725553,-0.10241212338700749,0.521398610027679
1789141062101770800,10.006770751953123,-0.0031561330574568463,-0.2508765237557653,0.6966808676395837
1789141062111743700,10.01674365234375,1.0147621680250045,-0.16635854692902816,0.29445685534470223
1789141062121715700,10.0267158203125,0.1799339039673433,0.32552573087756415,0.7938056897212132
1789141062131689000,10.03668896484375,-0.3929739235124621,0.5016121163588821,0.6131004234703051
1789141062141660700,10.04666064453125,0.5023268799426283,0.16022859675581483,-0.3486233130833432
1789141062151633000,10.0566328125,-1.1720132034683688,0.3650530018507023,0.8663950918050892
1789141062161606000,10.06660595703125,-0.3322962752335642,0.39582910145250383,0.12962011646769236
1789141062171577600,10.07657763671875,0.20098828477162584,0.35977116388354435,1.4877483574996455
1789141062181549800,10.0865498046875,-0.02268544482316762,0.23070665497263507,-0.3430535350672115
1789141062191522600,10.0965224609375,0.13931034024092678,-0.06449281400371938,0.20912206244481726
1789141062201494800,10.106494873046875,0.6380168829066142,-0.34833111441368036,0.29286651422217386
1789141062211466800,10.116466796875,-0.061071016792852505,-0.2820696846135789,0.743618960466358
1789141062221439500,10.126439453125,-0.2510096204312127,-0.5881949932170832,-0.5956748388072575
1789141062231411700,10.13641162109375,-0.34046224074866704,-0.5075864578145518,1.811177646354165
1789141062241383700,10.1463837890625,0.0795569986205838,-0.976784833567061,0.667747572870686
1789141062251356700,10.156356689453125,0.07232866205222141,-0.758847189389713,1.1055087607480842
1789141062261328600,10.16632861328125,-0.04009985913139523,0.5193554591783761,0.8629998384196084
1789141062271300900,10.17630078125,1.7877627565622927,0.8405196549085228,0.41019046345276294
1789141062281273600,10.186273681640625,2.7547934833995287,0.8890940922897027,0.7417249658920415
1789141062291245800,10.196245849609374,0.247247344306376,1.000593422697646,0.6009332910873024
1789141062301217800,10.2062177734375,-1.5112027407312456,0.0815988226773929,0.5650853344062158
1789141062311190500,10.2161904296875,0.6470866751732203,-0.5195619796127968,1.2714891097856187
1789141062321162800,10.226162841796874,0.7025308212753504,-0.3624638980318587,0.7365079494768367
1789141062331134700,10.236134765625,-2.2299904049679604,-0.9939749825321957,0.2977106529111665
1789141062341107700,10.246107666015623,-1.240821876052051,-1.4676524806429938,0.8047382322640042
1789141062351079700,10.25607958984375,1.2566330023119199,-0.9004729663700403,0.47974599951883923
1789141062361052000,10.266052001953126,0.5599557185472844,0.07532986535094052,0.3837123242023633
1789141062371024600,10.276024658203124,-0.45004910802580095,0.11814782657256857,0.3362924089707967
1789141062380996600,10.28599658203125,1.9069634269336182,0.01895428423422242,0.30873551839834573
1789141062390969900,10.295969970703124,1.3536124479003893,-0.13068756558997796,0.18246779944451738
1789141062400941600,10.305941650390626,0.35441377989951195,0.6261854503825732,-0.587704906931732
1789141062410913800,10.315913818359377,-0.7118330023020981,0.652331862026098,-0.8789429673626075
1789141062420886800,10.32588671875,-0.44966244118924475,0.32147619365565855,-0.021500838900523442
1789141062430858500,10.3358583984375,0.6298194293463009,-0.06430174471953048,-0.2916320858159297
1789141062440830700,10.345830810546875,0.16120429659183877,0.4409175132481588,-0.6679316639732167
1789141062450803700,10.3558037109375,0.1635087617433264,0.44095554872869663,-0.6686965731003824
1789141062460775700,10.365775634765624,0.40903014389681425,-0.26691605425158643,-1.0335670692370034
1789141062470747600,10.37574755859375,-0.06704257406041939,-0.10727367877392052,-0.06398155877304211
1789141062480720600,10.385720703125,0.5029021141564247,-0.013089936562044418,-0.17203679611548467
1789141062490692600,10.395692626953124,0.47985805464162334,-0.2652796645114778,-0.5610649693560685
1789141062500664800,10.405664794921876,0.0855494793440844,-0.013349434184505024,-0.1313167174105053
1789141062510637800,10.415637939453124,-0.7079296883577959,-0.18026600748991278,-0.01673936249577413
1789141062520609500,10.425609619140625,0.20444150560163557,-0.43648147598429854,-0.07834030494935976
1789141062530581800,10.435581787109374,-0.20874709065328378,-0.38982492089886667,-0.20842950054155338
1789141062540554800,10.4455546875,-2.0519991410653846,-0.6610697811041714,0.44925328961526145
1789141062550526700,10.455526611328125,-0.7221907331265756,-0.5785200958258778,-0.027519204999044353
1789141062560498700,10.465498779296874,0.8859759362211305,-0.13801322514207856,0.4871042331382181
1789141062570471700,10.4754716796875,0.0817006741943276,0.5613131776923262,0.8012983253465155
1789141062580443600,10.485443603515623,0.23634672302817977,0.5611283440948984,1.1140278377141524
1789141062590415600,10.49541552734375,0.34634122679031615,-0.0030113562802810876,1.6776221699706177
1789141062600388900,10.505388916015624,0.9136272682023299,0.08575707273067992,1.0172808571698226
1789141062610360600,10.515360595703124,-0.042068195174775655,0.6040213093722159,1.421611293032888
1789141062620332800,10.525332763671877,-0.12802749997277407,0.2198129088382221,0.3581100214426489
1789141062630305800,10.535305908203124,-0.9161357569590565,-0.13603203612577164,0.6172635324224255
1789141062640277500,10.545277587890626,-0.7605076963959868,-0.40251271313249243,1.1930817296055336
1789141062650250800,10.555250732421875,-0.08418872961846133,-0.2762377023033468,0.6957636644635711
1789141062660222700,10.56522265625,-0.4798184222492445,-0.33864202336648674,0.3616158267906501
1789141062670194700,10.575194580078126,-0.36985865490593184,-0.32717711118498044,0.59059969365652
1789141062680167700,10.585167724609375,0.5933026205683547,0.20133025608998092,-0.21609999521002432
1789141062690139600,10.5951396484375,0.48858194006328587,0.45298981510447117,-0.5132210358098913
1789141062700111600,10.605111572265624,0.4906490737016778,0.4532981503266391,-0.5241589174930246
1789141062710084600,10.615084716796876,-0.2464904351807382,0.47392588864253826,0.5958736301698571
1789141062720056800,10.625056884765623,0.5323855399798769,-0.09182425172367714,0.9719638013895674
1789141062730028500,10.635028564453124,-0.6141162689550229,-0.2018799595908324,0.2707738006217735
1789141062740001800,10.645001708984376,-0.9727205731555714,-0.19775243976173715,0.18409643245659527
1789141062749973800,10.654973876953123,-0.09737149098967761,-0.8003153893964796,0.14725484549278187
1789141062759945700,10.66494580078125,-0.4738527550823864,-0.2874798996706075,-0.21565653081654385
1789141062769918700,10.674918701171874,0.1095699258420434,0.08505564998226993,0.11291172429085879
1789141062779890700,10.684890625,0.9871571290441301,0.27916916784415374,0.7839112436253679
1789141062789862700,10.694862548828125,0.5398454065308772,0.5636361181184536,0.11808657331127806
1789141062799835600,10.704835693359374,0.42710000024391426,0.13609178182881135,0.778379308973574
1789141062809808000,10.714807861328126,1.2896039022421788,0.4983744344689869,0.5095394030574615
1789141062819779600,10.724779541015623,-0.2873892100876881,0.9328243281937252,0.3869266943893281
1789141062829752600,10.734752685546876,-0.6643375777802395,-0.08822301684108699,-0.11596853022354385
1789141062839724800,10.744724853515624,-0.41166781703398286,-0.6436174412877151,0.6793810750775776
1789141062849696500,10.754696533203123,-0.5665869983180497,-0.8305521864887481,0.41330959423801783
1789141062859669800,10.764669677734377,-0.863626828114751,-1.6052223993800854,-0.11451334760823556
1789141062869641700,10.774641845703124,-0.3864631283103918,-0.5842498714856874,0.20718261983935668
1789141062879613700,10.78461376953125,0.5171890667597928,-0.36792713013249545,0.5639088769351814
1789141062889586700,10.794586669921877,2.0132982414972003,-0.1292591036849515,-0.2694508258257502
1789141062899558700,10.80455859375,1.6793725068009118,1.0749892848128202,0.5644624796368319
1789141062909532000,10.814531982421874,0.39936838760612764,1.8904763983250237,0.7519557314316073
1789141062919503600,10.824503662109375,-0.2052509827426262,1.032413576618435,0.8109373591222064
1789141062929475800,10.834475830078125,0.8578741198169295,0.2875138451920645,0.8079101140804625
1789141062939448800,10.84444873046875,0.09038960116779265,0.6956522355989193,0.6525835278533779
1789141062949420800,10.8544208984375,0.0968028783531289,0.6955951960935017,0.6388868852449928
1789141062959392800,10.864392822265623,-1.255384333228245,-1.1466971629091087,-1.117366858735711
1789141062969365800,10.87436572265625,-0.7970297613497644,-1.423967944219861,0.6972570428196214
1789141062979337700,10.884337646484376,-0.199000133736325,-1.1940775484399682,0.013807145979814119
1789141062989309700,10.894309814453123,0.18822582040956004,-0.06499493756553752,0.05069183715344148
1789141062999282700,10.90428271484375,0.0854911383775004,0.26142983404110376,-0.2986486471712932
1789141063009254700,10.914254638671874,1.4675683913033477,0.5977456379936533,-1.0747853343379203
1789141063019227000,10.924226806640624,1.4656793005717184,0.5834988486456866,0.2899205644035978
1789141063029199600,10.93419970703125,0.5831901359462357,0.23096872575809807,0.4779935895836662
1789141063039171600,10.944171630859374,0.11451938753589493,-0.18756880389683794,0.5414417782480045
1789141063049143800,10.954143798828126,-1.3231940520267853,-0.5083262780084823,0.8919792176832514
1789141063059116500,10.964116455078123,-1.253060160013262,-1.2879543062419425,0.6269086259053102
1789141063069088800,10.9740888671875,-1.2539787757482541,-1.2880714345242916,0.621003422864403
1789141063079060700,10.984060791015626,-0.060128736983892504,-0.31073992443406817,0.8160025078379506
1789141063089034000,10.994033935546875,-0.1728038392956423,0.2516471819055574,0.11267847547702729
1789141063099006000,11.004005859375,1.20630791305064,0.7101814756898913,0.653637902575432
1789141063108978000,11.01397802734375,1.5441659759716155,0.8539879797499144,-0.022692258587471818
1789141063118951200,11.023951171875,0.5636678841634735,0.4990200819120858,0.8893304868139056
1789141063128923000,11.0339228515625,-0.5002007170539674,-0.2007303421099038,0.6338997148289731
1789141063138895000,11.04389501953125,-0.8344885727790727,-0.8927844130215039,1.141058337900534
1789141063148868000,11.0538681640625,-1.2941947626366204,-0.912012290983917,-0.8553864202107612
1789141063158840000,11.063840087890624,-1.4436147267526913,-0.2852969697144676,-0.578146505156722
1789141063168813000,11.07381298828125,-1.230253245254027,-0.22143186424317865,-0.8145070115552631
1789141063178785000,11.083784912109374,-0.11510715083077945,-0.2164868830112663,-1.200965969639218
1789141063188757000,11.093757080078126,-0.847032380232435,0.04368015223552913,-0.18452078189565524
1789141063198730000,11.10372998046875,-0.8503692385885966,0.04366990786545396,-0.18490142059226544
1789141063208702000,11.113701904296876,1.4848131700385832,0.5166691024938219,-0.4142585738216034
1789141063218674000,11.123673828125,0.22616874825371872,0.2828507109961936,0.24383632083204151
1789141063228647000,11.13364697265625,-0.6538129045858625,-0.3097524924634955,-0.22874050205282292
1789141063238619000,11.143618896484377,-0.9601926975493055,-0.8185302457841521,-1.279726701604305
1789141063248590800,11.1535908203125,-1.254069734217442,-0.5222548882722002,-0.5776022039975371
1789141063258564000,11.163564208984376,-0.577983325375966,-0.39619044955655935,-0.8428428199975687
1789141063268535800,11.173535888671877,0.7245715560519921,0.29390316311345055,-0.35332079640529845
1789141063278508000,11.183508056640624,0.6288519981544062,0.6730201313429123,-0.32050583762672896
1789141063288481000,11.19348095703125,0.7034330588963765,0.8980456016075202,0.0636084667196066
1789141063298452700,11.20345263671875,1.2094261886275468,0.8187875387779849,-0.26970017586198514
1789141063308425000,11.213425048828125,0.7375413384970362,0.8094127088830653,0.03155065057786805
1789141063318398000,11.22339794921875,-0.38178142396793846,-0.011651116773446575,-0.8331442939377748
1789141063328370000,11.233369873046875,-0.103280575695444,-0.7588584430503167,0.49325468973204106
1789141063338342000,11.243341796875,-0.901187281970741,-0.9451491976916524,-0.47802252694938635
1789141063348315000,11.25331494140625,0.0793690499528129,-1.4094498239889428,0.003146495468119339
1789141063358286800,11.263286865234376,0.5867445290282046,-0.5456811340755304,0.867884973712526
1789141063368259000,11.273259033203123,0.14735826535728283,-0.12560442198197905,-0.17740784248578131
1789141063378232000,11.283232177734376,1.8031306262135702,-0.5193223642379595,0.4291488776275965
1789141063388203800,11.293203857421876,2.7688311777757124,0.17092219778688975,-0.4997993341149076
1789141063398176000,11.303176025390623,0.5818109281134618,0.9959684188144127,-0.4145050136343341
1789141063408149000,11.31314892578125,1.038727171728147,0.7707838385839364,-0.5900760289470751
1789141063418121000,11.323120849609374,1.9060780160216881,1.0824311090468273,0.11131135316814517
1789141063428094000,11.333093994140626,0.6627625342031511,0.9782720544330228,-1.0803948656504268
1789141063438066000,11.34306591796875,-0.3984781339022403,0.5769707215120964,-0.6739057689408663
1789141063448038000,11.353037841796874,-0.39639108889194763,0.5770341456620502,-0.6691787730736188
1789141063458011000,11.363010986328124,-1.2373790520845849,-0.8021861106972334,-0.8908813527351054
1789141063467983000,11.372983154296875,-1.2477956572194917,-1.446454549386027,0.11669225765468737
1789141063477954800,11.382954833984376,-0.4578639521165523,-1.1892337950859744,0.14684228150345074
1789141063487927800,11.392927734375,-0.5421220262472135,-0.5998551703101278,-0.30923247865280606
1789141063497900000,11.402900146484376,-0.6698451296460562,-0.35873490963778054,-0.27109637565356803
1789141063507871700,11.412871826171877,1.8465828786097322,-0.24319150754116595,0.22334748756618272
1789141063517845000,11.422844970703125,1.5525408337340416,-0.16026947951804793,-0.1411532324418943
1789141063527817000,11.43281689453125,-0.7360462062264875,0.7267688162435713,-0.4919454755748332
1789141063537789000,11.442788818359375,-0.9770780456168854,0.5499322873169631,-0.07674368163911151
1789141063547762000,11.452761962890625,0.735566931647142,-0.40824006660741385,0.6193789514443796
1789141063557734000,11.46273388671875,-0.5035968525065658,-0.34648664979345845,0.25421792892215966
1789141063567705900,11.472705810546875,-0.9660078296039231,-0.2978601674153418,-0.16195764259719547
1789141063577678800,11.482678955078123,0.9310187411161337,-0.06363289627067126,-0.23065584546525472
1789141063587651000,11.492651123046874,2.434709955124444,0.47108327084516727,1.0734720761314414
1789141063597622800,11.502622802734376,-0.0054731122859989195,0.0712391282190653,0.13354193934107686
1789141063607596000,11.512595947265623,-0.35048245186866606,-0.13108580127162137,0.3339163504390287
1789141063617568000,11.522568115234376,-0.5933627601388407,-0.1413162716462283,0.16549886302769976
1789141063627540000,11.5325400390625,-0.5542412466882434,-0.15056658616691176,0.3955068742281005
1789141063637513000,11.542512939453124,-1.0746705007678847,-0.49427614149899485,0.5175864169249084
1789141063647485000,11.55248486328125,-0.24918509931674043,-0.7392997637218482,0.12273565344710295
1789141063657457000,11.562456787109374,0.17069974119902304,-0.0056163831620265545,-0.1215125293731428
1789141063667430000,11.572429931640626,-0.1790538745168787,0.6324323452617896,0.10984315187904434
1789141063677402000,11.582402099609377,0.08052354763715579,0.5724895184118103,0.45249981600358763
1789141063687375000,11.592375,-0.004756585114692818,0.449404293968103,0.15781325813735406
1789141063697346800,11.602346923828126,-0.9028507754282761,0.13429656468152804,0.14951453096092762
1789141063707319000,11.612319091796875,-0.41768697886343414,-0.20404684627505432,0.5407209508851336
1789141063717292000,11.6222919921875,-0.26054584940583414,-0.687831361441865,1.194640701225803
1789141063727264000,11.632263916015624,-1.0408299552842404,-1.1756702961056877,-0.008413764586159993
1789141063737236000,11.642236083984375,-1.043226899870459,-1.1757820262605123,0.003057580988587724
1789141063747209000,11.652208984375,0.32818189841057915,-0.6820896729594644,0.43127839200214824
1789141063757181000,11.662180908203124,0.5885636605177,-0.5503022046748854,0.038573794572024214
1789141063767153200,11.672153076171876,0.5525219208389412,0.8888170289038111,0.35309630410706383
1789141063777126100,11.682126220703124,1.1602880009019514,1.5292230031478358,-0.014460399298327686
1789141063787097900,11.692097900390625,1.1594503473099094,1.5291362492324012,-0.008276562109761463
1789141063797070000,11.702070068359374,0.19074440587505972,1.0498134363759284,0.0935343175955186
1789141063807043000,11.71204296875,-1.2054915110466822,0.5942134434638303,0.5412684541405784
1789141063817015000,11.72201513671875,-1.2663017958940646,-0.4351824156747835,-0.09412728828799989
1789141063826987000,11.731987060546874,-1.0357318072952955,-0.5918256317138442,-0.022684514600848176
1789141063836960000,11.7419599609375,-0.7404029234502307,-0.7981336945245484,0.2524590182921802
1789141063846932000,11.751931884765623,-1.432182599510784,-1.0606822912719414,0.49631052537261316
1789141063856904000,11.761904052734376,0.577406933077868,-0.28308991643636067,0.6872524446410434
1789141063866877200,11.771877197265624,1.2709123468798469,-0.12448086337683621,0.14824360339444057
1789141063876849000,11.781848876953124,1.219203532760238,-0.39946993349757165,1.4852246226315853
1789141063886821000,11.791821044921877,-0.5381612193324891,0.5060148399094738,0.6846304193041112
1789141063896794000,11.801794189453124,-0.22196338480649733,0.37244926370291737,1.1071120207043124
1789141063906765800,11.811765869140626,2.3363447113297293,0.687169076049939,1.483653240607136
1789141063916738000,11.821738037109377,0.8895710542899997,1.4767641532730609,0.5138850899009985
1789141063926711000,11.8317109375,-0.21173309620791803,0.7677821445943114,0.5539996391282694
1789141063936683000,11.84168310546875,0.37611515803872053,0.2790270550941709,0.8804031445284615
1789141063946655000,11.851655029296875,-0.012638551397455136,0.24315964927805944,0.2202934801211339
1789141063956628000,11.8616279296875,-0.5127180882879662,-1.2871931199731266,0.686001789656153
1789141063966600000,11.871599853515624,0.6516086376771322,-0.5902671635350205,1.1595123146641528
1789141063976573000,11.881572998046876,-0.4527737574509299,-0.22062289463251417,0.9369083458732715
1789141063986545200,11.891545166015623,0.3127244121301459,-0.550841458506307,0.38402897892167287
1789141063996516900,11.901516845703124,0.9481653072659139,0.04893716343750822,0.8427121276726414
1789141064006490000,11.911489990234376,0.23475078516755304,0.5753887033216394,0.4575370983471737
1789141064016461800,11.9214619140625,-0.6553524754867501,0.20608143565616707,0.9128234034217262
1789141064026434000,11.93143408203125,-0.5037663281071969,0.3859255316733721,1.5975582468211813
1789141064036407000,11.941406982421874,-0.37568838510772745,0.38577702717547885,1.2060130993100733
1789141064046378800,11.951378662109375,-0.7014448510614849,0.17592429946614832,0.6458820552946232
1789141064056351000,11.96135107421875,0.21633095330536817,-0.33378354678069266,0.208424283542578
1789141064066324000,11.971323974609374,0.7998730276954865,-0.23113046671246534,1.0020033610348933
1789141064076296000,11.9812958984375,-0.3010002031725199,0.13932178034050058,0.979070375732537
1789141064086268000,11.991267822265623,0.08905086378463888,-0.20426741997360773,0.32217337698059983
1789141064096241400,12.001241455078125,0.04941734523565433,-0.7757624202910554,-0.0157838804143245
1789141064106213600,12.011213623046874,-0.46155321658404896,-0.5650626145754767,1.1543389581185317
1789141064116185300,12.021185302734375,-0.33492142842141037,-0.21112747124629977,1.2931912477819583
1789141064126158600,12.03115869140625,0.008618853606380558,0.0314487540501295,0.5692359571099382
1789141064136130600,12.041130615234374,0.8107272873805657,0.3129382909351587,0.2558904774448735
1789141064146102500,12.0511025390625,0.9287538338005792,0.471175772406502,1.6637617484015783
1789141064156075500,12.061075439453123,0.2100471920732119,0.17567065158297232,-0.3199623875831085
1789141064166047500,12.071047607421876,0.45406714798104275,0.3800319156259622,0.3904343885386637
1789141064176019500,12.08101953125,-0.42911335909836335,0.005216416048118434,1.058791517825218
1789141064185992400,12.090992431640624,-0.9937204704841961,-0.4090641375502701,0.7212268335507276
1789141064195964700,12.100964599609377,-0.2573010783458537,-0.5876323837514874,0.7609588688305718
1789141064205937400,12.1109375,0.013593528909442598,-0.7490845628451267,1.6432647794828181
1789141064215909400,12.120909423828126,-0.4404642040734784,-0.9848438053221497,1.2875219111414034
1789141064225881600,12.130881591796877,-1.40337366258064,-0.6170345245852976,1.1803409425521398
1789141064235854300,12.140854248046876,-1.3947732412476215,0.06126470189599992,0.08920115510982188
1789141064245826600,12.15082666015625,0.4822050792413521,0.14892189147173673,0.7784161297170601
1789141064255798500,12.160798583984375,0.7890335921066354,-0.07802898351449211,1.8431827812446027
1789141064265771300,12.170771240234377,-0.011167606315670363,0.18135981104400048,1.2368347668619013
1789141064275743500,12.180743408203124,0.8098528364484339,0.4649442035458345,0.5967101971160276
1789141064285715500,12.190715576171876,0.8073862178617818,0.464697441569626,0.6018095148491684
1789141064295688400,12.2006884765625,-0.5074126356632206,1.1196633564082994,0.6551698470229843
1789141064305660400,12.210660400390625,-0.7722897502606451,0.9954131911193542,0.8448768718693556
1789141064315632600,12.220632568359376,-0.6959371614469381,0.16456389866621432,0.14571040457342183
1789141064325605400,12.23060546875,-0.954741947993678,-0.5516520043169638,0.17938129967208705
1789141064335577600,12.24057763671875,-0.6891787461843062,-1.034416041247513,0.6655376826905347
1789141064345549600,12.250549560546874,-0.8371150870839665,-1.0116682805876374,0.2015830132997965
1789141064355522300,12.260522216796875,0.1630859233480896,-0.2635591525049192,-0.3961995790210049
1789141064365494500,12.27049462890625,0.7915476803450912,-0.40333343555228224,-0.8867258006250256
1789141064375466500,12.280466552734374,0.3040008160643816,0.2169273720709662,-0.5130072651401957
1789141064385439500,12.290439453125,-0.8433281773813389,0.7706673985550913,-0.5275271102803097
1789141064395411500,12.300411376953123,0.7570267165693595,0.7483372730408238,-0.25497129122939355
1789141064405383400,12.310383544921876,0.7536778327825926,0.74826222859393,-0.25345957891578963
1789141064415356400,12.3203564453125,-1.6028745493640235,0.26424226142895807,-0.33686605704319245
1789141064425328400,12.330328369140624,1.246372685265434,-0.077102922766757,-0.8562378214352622
1789141064435300400,12.34030029296875,1.2076314438209113,0.3461385014545424,-0.2040427245207714
1789141064445273300,12.3502734375,-0.27496488886389303,-0.2434479602755638,-0.12173894483233988
1789141064455245600,12.36024560546875,0.04159828456642529,-0.7390801013681313,0.5397251952894225
1789141064465218600,12.370218505859375,0.23520538873466196,-0.6635970541844919,0.6245883021745394
1789141064475190500,12.3801904296875,-0.5398979896106285,-1.2830295334530177,0.6486903649095858
1789141064485162500,12.39016259765625,0.8520564504884969,-0.2667098543656108,0.9107456842151314
1789141064495135500,12.400135498046875,1.020461845713815,0.13070320539623595,0.38772156398304164
1789141064505107500,12.410107421875,0.6878862408026923,-0.05168427699462802,0.38893871387683365
1789141064515079400,12.420079345703124,0.9723889311955364,0.6482936526992497,0.4799324512015904
1789141064525052700,12.430052734375,-0.6293705671545963,0.3418137365601795,0.6614914458573348
1789141064535024400,12.4400244140625,-0.3390048647024224,-0.272682247990054,0.7975677323468571
1789141064544996600,12.44999658203125,-0.6611662169613434,-0.018213339235979745,1.1618115809380503
1789141064554969600,12.459969482421876,-0.929162573124427,-0.4650481152637523,-0.2848833454724674
1789141064564941300,12.46994140625,-0.2652238639475724,-0.4453214138804019,0.25441070118129017
1789141064574913500,12.47991357421875,1.6844141592161397,-0.15138701371729457,0.3707925574426697
1789141064584886500,12.489886474609374,0.9738689942900092,0.16141252271493933,0.8899793737128108
1789141064594858500,12.4998583984375,0.27861844053056245,0.3833651420718375,-0.1569168958570458
1789141064604830500,12.50983056640625,-0.3753366684665248,0.6484281957426293,0.723215147744169
1789141064614803500,12.519803466796876,0.2772471707612204,0.2582443099462187,0.441683753706806
1789141064624775400,12.529775390625,0.24156869597803465,0.2434862481963158,0.43043981883290283
1789141064634747400,12.539747314453123,0.22305041251179678,0.04852861181514153,0.47627095389013285
1789141064644720600,12.549720703125,0.1873497656746456,0.10868825042295856,-0.16238562560724265
1789141064654692400,12.5596923828125,0.705274985568737,0.23932139278139247,0.302097016842136
1789141064664664600,12.56966455078125,0.6542252152327954,0.054328337600211885,-0.02324901764603798
1789141064674637600,12.579637451171877,-0.3612616636083295,-0.24117461422942127,0.3675654884617437
1789141064684609500,12.589609619140624,-0.8069119609414619,-0.5536989890477323,0.8638810320119846
1789141064694581500,12.59958154296875,0.16626342897057364,-1.117855192340045,-0.21616157120861149
1789141064704554500,12.609554443359375,0.5728850025610166,-0.7945514824999231,-0.11010930082049195
1789141064714526500,12.6195263671875,-1.052028805140085,-0.4151717602534724,0.4304301024069866
1789141064724498400,12.62949853515625,0.8136522123798144,-0.2921911768486946,-0.27541726077766043
1789141064734471700,12.6394716796875,1.0923300725396279,-0.25932360988735254,-0.19529272100774447
1789141064744443400,12.649443359375,-1.1842483616537098,0.06189373135388665,0.7702755416470191
1789141064754416400,12.65941650390625,-0.2741551404282972,0.11734391252642211,-0.23330895727600762
1789141064764388600,12.669388671875,-1.264426112826154,-0.15481189299472053,0.7429417005237303
1789141064774360300,12.6793603515625,0.5991364856800689,-0.23205776402267314,0.18516976594947193
1789141064784333600,12.68933349609375,0.5990687180938932,-0.2317868956864499,0.17853761852224645
1789141064794305500,12.699305419921876,-1.1378940715614505,0.8258295070447903,-0.274053878959718
1789141064804277500,12.709277587890623,0.947497881272775,1.1111691212150927,0.2580433491816901
1789141064814250500,12.71925048828125,1.5838654793290936,0.8088591908939609,-0.06773128036574687
1789141064824222500,12.729222412109374,-0.9638699018256376,0.2101836395509499,0.952886181051692
1789141064834194400,12.7391943359375,-1.0321429230252044,-0.1794365886910154,0.7855734773885648
1789141064844167400,12.74916748046875,-0.5068169220680037,-0.14035958955938357,0.9564795315183333
1789141064854139600,12.7591396484375,-0.26147083412951816,-0.05031867319101216,0.571418575178867
1789141064864111400,12.769111328125,-0.715838430625197,0.392291238516759,0.4948126369949015
1789141064874084400,12.77908447265625,-1.2540794518706504,0.4017299984346597,0.16971190136201633
1789141064884056600,12.789056640625,0.31553336802309156,-0.7145786494222566,0.4934708086674619
1789141064894028500,12.799028564453126,0.5644035100780436,-0.9160875421420288,0.9572797109721601
1789141064904001500,12.80900146484375,-1.897809335434339,-0.19707812343970307,0.12138431980546556
1789141064913973500,12.818973388671877,-0.09610047642182279,-0.021569602526592485,0.6977211539256908
1789141064923945500,12.828945556640624,2.3163746582871236,0.08858627934815885,0.27013898168682154
1789141064933918500,12.83891845703125,0.5215464053219164,0.10312871298064347,0.0021534527837208067
1789141064943890700,12.848890625,0.08188633858880688,-0.4066001547942662,-0.1391833336412761
1789141064953862400,12.8588623046875,0.37053770255730323,0.5767320449390342,0.22407210666396027
1789141064963835400,12.86883544921875,0.45059574712113415,0.323741884163808,-0.5476361317351331
1789141064973807600,12.8788076171875,-0.38179552418723217,-0.33054108159862217,-0.09950212998610233
1789141064983779300,12.888779296875,0.5611536270575486,-0.5584264509731574,0.42710006717254345
1789141064993752600,12.898752685546874,0.28249542793854665,-0.41695000398282966,-0.08087848901425168
1789141065003724500,12.908724609375,-0.1304057268794638,0.0911803704448395,0.0493019153426539
1789141065013697300,12.918697265625,0.25228523791709717,0.18725233830201726,0.4003130992737865
1789141065023669500,12.92866943359375,0.9983401687119294,-0.7266106401102994,0.6001532950296964
1789141065033641500,12.938641357421876,0.6591236760578779,-0.19195911202801516,1.1362945165340914
1789141065043614500,12.948614501953124,-0.09083676702111788,-0.6750944924748253,0.23949578600335386
1789141065053586400,12.95858642578125,0.8167577323922083,-0.34058873784911964,1.0775435265374762
1789141065063558700,12.96855859375,-0.0024541525105641815,0.36944081096114745,0.6726642427508384
1789141065073531400,12.978531494140626,0.08275418866672322,0.2575895123161572,0.4470562381681588
1789141065083503400,12.98850341796875,0.35912788301910037,-0.19048735567269837,1.3156869204116552
1789141065093475300,12.998475341796874,-0.7556385526895527,0.46133195770228747,0.6062059014552312
1789141065103448300,13.0084482421875,0.013504280588992593,0.2947912727112289,0.6141704497770885
1789141065113420500,13.018420654296875,0.2789279699996782,0.0733870428051265,0.33882603183991716
1789141065123392300,13.028392333984376,0.6091894719855631,0.3016807095220407,-0.3565159437793351
1789141065133365500,13.038365478515624,-0.5147870925067859,0.04251909944180504,0.3671125813802662
1789141065143337500,13.04833740234375,0.9646708183681999,-0.41381056542532585,0.7181962506757359
1789141065153309400,13.058309326171877,0.8214441003494709,-0.4221059515637595,0.3064365225679852
1789141065163282400,13.068282470703124,-0.01110963480548799,0.14896497967247696,-0.35470015446679537
1789141065173254400,13.07825439453125,-0.4013249223233894,0.22329665458745482,-0.35827515730390264
1789141065183226400,13.088226318359377,0.6764706225561425,-0.03040401936376544,0.13253805744822497
1789141065193199400,13.098199462890625,-0.1257561706043733,-0.05251965445973183,-0.6815279477805611
1789141065203171600,13.108171630859376,-1.4284205718964145,-0.535738941193719,0.3058910548741631
1789141065213143300,13.118143310546875,-0.3900177088462991,-1.5579243915800696,0.019104139072472087
1789141065223116300,13.1281162109375,-0.5828381658009082,-1.5516182989279315,-0.08134140395092668
1789141065233088500,13.138088623046874,-0.5909520534266691,-1.3922442729939377,-0.26455414239359515
1789141065243060200,13.148060302734375,0.12429891771553407,-0.18939821402503643,0.06743849343217889
1789141065253033500,13.158033447265623,1.3099002426992237,0.9964824261919268,-0.34094592127605233
1789141065263005400,13.16800537109375,2.428024647098195,1.950563343703881,0.3455874215341236
1789141065272977400,13.177977294921876,0.7870738852202748,1.3288836298826832,0.3135265236082118
1789141065282950400,13.187950439453124,-1.1755898866782748,0.4863092764559152,0.22504062860486698
1789141065292922600,13.197922607421877,-0.8998692475095235,-0.17029004751582452,0.9544600739166168
1789141065302895400,13.207895263671874,-0.16716982351869875,-0.47119373115555135,0.5735045347894023
1789141065312867300,13.217867431640624,-2.4504588463229027,-0.6784341380821945,-0.615174113567519
1789141065322839600,13.227839599609377,-1.7381405209006628,-0.8585216806529106,-0.1591604858981656
1789141065332812300,13.237812255859374,0.2790628473775665,-1.007214380688152,0.5050781544177692
1789141065342784500,13.247784423828126,-0.11778315140549843,-0.43461681252468626,-0.07488259853877223
1789141065352756500,13.257756591796875,-0.9091947119720467,0.3928823719145137,-0.07057279453325722
1789141065362729200,13.267729248046876,0.057916544542362745,0.33461789122704405,0.1305766635307288
1789141065372701400,13.277701416015624,1.2578162005965374,0.3686159814051966,0.30664036324048266
1789141065382673400,13.28767333984375,-0.3736490352526389,0.4484357129264959,-0.9497709185128714
1789141065392646400,13.297646484375,-1.0310230473329616,0.3594007275269021,-1.1063629332354157
1789141065402618400,13.307618408203124,-0.03249521654478226,-0.22910384446081428,-0.6816110520507594
1789141065412590300,13.31759033203125,0.48141466511074843,0.1927300834824928,-0.9526260754713941
1789141065422563300,13.327563232421875,-0.46400366034505336,0.4815516293936426,-1.2153554223103324
1789141065432535300,13.337535400390625,-1.2465290242510105,-0.13374856187679326,-0.7316900757322755
1789141065442507300,13.34750732421875,0.025521621652120654,-0.45373156227321787,-0.07543393613225993
1789141065452480300,13.357480224609375,-0.3383104627715499,-0.7038605360810248,-0.4954971757736801
1789141065462452500,13.367452392578125,-0.1596997447528585,-0.6981313560970533,-0.7226084511723405
1789141065472424200,13.377424072265624,-0.22018834629086145,-0.5292598636369523,-0.5538604765694491
1789141065482397400,13.3873974609375,1.5191240307793719,0.06862184202934148,0.1453624319747876
1789141065492369400,13.397369384765623,2.298717900438628,1.1341597653028888,-0.8288622039983901
1789141065502341400,13.40734130859375,0.8529618779244658,1.0197063145340797,-0.606727153261381
1789141065512314400,13.417314453125,-0.4006404515967092,0.48354678857412353,-0.33461353449231973
1789141065522286300,13.427286376953123,-0.5808460446494621,0.24513257945932404,0.05910600668662063
1789141065532258300,13.43725830078125,-0.12333757996215604,-0.7431647940005628,-0.7032061127693744
1789141065542231300,13.447231201171874,0.02708676176240097,-1.5602343850511013,0.12971765554151857
1789141065552203500,13.45720361328125,-0.06513412801552737,-1.438008988399541,-0.5895990887643323
1789141065562175200,13.46717529296875,0.18265637913332816,-1.4606534021634294,0.05508726011006959
1789141065572148200,13.477148193359374,1.2434808935744093,0.2038816501367292,-0.1959447583818636
1789141065582120400,13.487120361328126,1.767337657001321,1.2502590656471777,-0.09029610283673316
1789141065592093400,13.497093505859375,1.4007874861635206,0.7868332160720755,0.44860956378802985
1789141065602065400,13.5070654296875,0.6270551575114607,0.31843707029900525,-0.5761391082081754
1789141065612037400,13.517037353515626,-2.856966678111321,-0.7555431215955369,-0.24752340862669917
1789141065622010400,13.52701025390625,-2.8088564239323084,-2.656374147065515,0.5588926969241496
1789141065631982300,13.536982421875,-0.14360153452725763,-1.729589893769987,1.0358483357271562
1789141065641954300,13.546954345703124,2.1888008536654895,0.7943638918014377,-0.8111483755304683
1789141065651927600,13.556927490234376,3.4049257180548045,3.851033874124317,1.1345369257737472
1789141065661899300,13.566899169921877,6.0573596667156,4.4111206367112725,-1.8862008276141906
1789141065671871500,13.57687158203125,2.838045146197504,3.349996814356275,-1.0704275265746162
1789141065681844500,13.586844482421874,-4.870688870650158,-0.2593853638104151,-0.7722191935235028
1789141065691816400,13.59681640625,-5.078491643504122,-3.521806328515663,0.384554626377942
1789141065701788400,13.606788330078125,-2.974338554243636,-3.591528585871623,0.32644332621252536
1789141065711761400,13.616761474609374,1.106363464372294,0.12392536700454619,1.2805597152670527
1789141065721733400,13.6267333984375,0.18307239660316846,0.12917512747026652,-1.4647432869204218
1789141065731705300,13.636705322265623,-1.4775493436958882,-2.291585866269618,-0.8270291164159144
1789141065741678600,13.6466787109375,-1.4820483793547496,-2.291412989562118,-0.8225812718816358
1789141065751650300,13.656650390625,-0.5707305637381733,0.7547998861373906,-1.1807285276860393
1789141065761622500,13.66662255859375,0.20175679211007166,1.718410412367155,-0.9627731660569809
1789141065771595500,13.676595458984377,3.803563928781907,1.2675927374619627,0.7518419109886302
1789141065781567200,13.686567138671874,2.803800615635479,0.5011636874273875,-0.7779366278413241
1789141065791539500,13.69653955078125,-0.5943116876001491,0.4599853487872188,-1.543530166126675
1789141065801512400,13.706512451171877,-0.6579776745570665,-0.11705691206508342,-1.7115164344372955
1789141065811484400,13.716484375,-0.10888215618681034,-0.8684585522956405,-1.6114299718777214
1789141065821456400,13.726456298828126,-1.9852745808424719,-1.4670358068730565,-0.9240409509434109
1789141065831429400,13.736429443359375,-2.836422205482624,-1.269732671002086,-1.5698084646085158
1789141065841401300,13.7464013671875,-1.0532868353154825,-0.6194554919723386,-0.641512950488674
1789141065851373300,13.756373291015626,0.5175218057049553,-0.2550434725108139,-0.2656711440622872
1789141065861346600,13.7663466796875,2.388080703474021,0.30040382061988746,-0.07799655805694901
1789141065871318300,13.776318359375,1.9428565193145761,0.5772773818344534,-0.5933841140651229
1789141065881291300,13.786291259765624,1.7287119127164488,0.044441907633270945,-0.25653456270969843
1789141065891263500,13.796263427734376,-0.36358521699431207,0.04445937934570408,-0.1711231616716056
1789141065901235500,13.8062353515625,-2.1435105909298833,0.7589417428313664,0.17399450983580497
1789141065911208400,13.81620849609375,-2.850062316867562,1.5091656983249797,1.348140663336641
1789141065921180400,13.826180419921876,-1.9089733491169554,0.7332032800870358,-0.1406689747066654
1789141065931152400,13.83615234375,0.30357719674043726,0.38121431917897286,-0.1838234749185185
1789141065941125400,13.84612548828125,0.9416371351975644,-0.6073748074538189,2.3578790712412085
1789141065951097600,13.85609765625,0.9338886773380237,-0.6071001118314058,2.3698232010595817
1789141065961069300,13.8660693359375,-0.5572648693543512,-0.7935281881495817,0.49227540673174996
1789141065971042300,13.876042236328123,-0.6205273453392878,0.1048545734611469,1.278520293733637
1789141065981014500,13.8860146484375,1.8240023429202912,1.3909736219271829,0.8643184087115449
1789141065990986200,13.895986328125,-0.5538553903414354,1.226952739605545,1.0066214691527706
1789141066000959500,13.90595947265625,-1.2337377201196091,-0.06451856712544823,1.621777681257413
1789141066010931500,13.915931396484376,-0.04933608319993561,-0.77433418597552,1.0869482573166898
1789141066020903400,13.9259033203125,-0.9419155638832943,-1.2170441668778638,0.2911990226255195
1789141066030876400,13.93587646484375,-0.4159469643456631,-1.0281528100137114,1.0196676742079547
