time,seconds_elapsed,z,y,x
1789141053635243000,1.540242919921875,-0.042387598164589785,-0.18217390316932525,-0.047957721855623116
1789141053645214700,1.550214599609375,-0.036961895023287006,-0.17677629406765283,-0.06647827745002906
1789141053655188000,1.56018798828125,-0.03732103949585269,-0.15964074651589016,-0.021852534172113604
1789141053665160000,1.570159912109375,-0.053289528465968274,-0.15487263892411662,-0.047749508147587286
1789141053675132000,1.5801318359375,-0.04456858359747259,-0.15445660157735713,-0.022144456694721322
1789141053685105000,1.59010498046875,-0.03892433089963444,-0.15029511901535883,-0.019372890030745098
1789141053695076900,1.600076904296875,0.0022748347849151965,-0.1473100380555891,0.037006367007107
1789141053705048800,1.610048828125,0.018745813060488913,-0.1123286285305149,0.0681775517186185
1789141053715021800,1.620021728515625,0.018850282662239846,-0.10781158612567072,0.06347758561175706
1789141053724994000,1.629994140625,0.07230525289602491,-0.11130473443874812,-0.004875015167438211
1789141053734965800,1.6399658203125,0.0700450626972207,-0.10023000991382452,-0.0035191881705220465
1789141053744938800,1.649938720703125,0.012712962117565525,-0.1387948302581486,0.014601607455150769
1789141053754911000,1.659910888671875,0.03139884297871506,-0.14964335254672717,-0.03964466918148996
1789141053764883700,1.6698837890625,0.032792769205095065,-0.1693623413602996,-0.03878720336769295
1789141053774856000,1.67985595703125,0.024901230473154623,-0.21927793244972726,0.0429945856131755
1789141053784828000,1.689827880859375,0.022163582363272347,-0.20869297198165035,0.0824373772050786
1789141053794800600,1.699800537109375,0.04392587602030646,-0.20014739318302344,0.03693346005043656
1789141053804772900,1.70977294921875,0.012463667362204467,-0.26469327764521705,0.10219505723380863
1789141053814744800,1.719744873046875,-0.003877807468362252,-0.2518870829451815,0.09481062476778844
1789141053824717800,1.7297177734375,0.03807696439998902,-0.198058098098002,0.05880404462936839
1789141053834689800,1.739689697265625,0.08019603870853916,-0.21531724011053696,0.05931838995559862
1789141053844662000,1.749662109375,0.10627728694029047,-0.19117000408621138,0.02363806991698072
1789141053854634800,1.759634765625,0.08369597932527881,-0.1372709659733647,0.009549555815831093
1789141053864607000,1.76960693359375,0.07671456488818312,-0.11650878354984649,-0.0117215848123497
1789141053874579000,1.779578857421875,0.0734847367047289,-0.09648640567841038,-0.005121892219536768
1789141053884551700,1.7895517578125,0.09253908090385778,-0.0634827903959925,-0.026644411244162242
1789141053894524000,1.79952392578125,0.10300242908922741,-0.06069159194834749,0.008662384288507205
1789141053904497000,1.809496826171875,0.11292230746463343,-0.04811722697268581,0.04669908382369344
1789141053914468900,1.81946875,0.10911387536360011,-0.05292395570392916,0.062492797741504034
1789141053924440800,1.82944091796875,0.14129761909625443,-0.04619413119024667,0.045329826034400444
1789141053934413800,1.839413818359375,0.1308442379240784,-0.047367609682170325,0.054059221877067416
1789141053944385800,1.8493857421875,0.09543498896028471,-0.061956668875364836,0.045783117190258
1789141053954357800,1.859357666015625,0.10795656723788222,-0.061374562730647404,0.022102045872573424
1789141053964331000,1.8693310546875,0.14247356582421086,-0.03244369999550901,0.008929848076449622
1789141053974302700,1.879302734375,0.14846649534257023,0.01021531759911111,-0.024489265504503564
1789141053984275000,1.88927490234375,0.13661975761704856,8.57161575587694e-06,0.01685970894535528
1789141053994248000,1.899248046875,0.13558264281589957,0.01788134332440817,-0.004036574399320456
1789141054004219600,1.9092197265625,0.15846497801055695,0.026016852155483234,-0.00973075415647749
1789141054014193000,1.91919287109375,0.15407312610313245,0.016548222794001272,0.05669670602213431
1789141054024164900,1.929164794921875,0.16337289486138365,0.033747432029199845,0.040833408103895075
1789141054034136800,1.93913671875,0.1409358443142594,0.02814406089218699,0.032935314789676894
1789141054044109800,1.94910986328125,0.14783679416818016,0.01611600210535158,0.05693698049792665
1789141054054081800,1.959081787109375,0.1306633875876741,0.02249504618545055,0.03323375291081243
1789141054064053800,1.9690537109375,0.14605871038004428,0.03934649174227847,-0.027059312212486145
1789141054074026800,1.97902685546875,0.1174889709960132,0.05397237254140603,-0.00232410636440951
1789141054083999000,1.9889990234375,0.13574237337309114,0.06022088794008998,0.01591612240751619
1789141054093970700,1.998970703125,0.17049366018418954,0.0725327496985165,0.004841513984891378
1789141054103944000,2.00894384765625,0.1664920194084883,0.07179460014706818,-0.015260183783620868
1789141054113916000,2.018916015625,0.14512080876202507,0.05858877603371714,-0.003575096749913295
1789141054123887900,2.028887939453125,0.14734305326479777,0.06376550999711415,-0.0025948180896106215
1789141054133860900,2.03886083984375,0.14210634024854615,0.0613163798674049,-0.024600853796630014
1789141054143832800,2.048832763671875,0.1265781424802761,0.043699808364780546,0.01219356790164264
1789141054153805800,2.058805908203125,0.1130266813968865,0.05419643711965019,0.04090447675698692
1789141054163777800,2.06877783203125,0.12110961518916012,0.07894081009782541,0.05795589696766235
1789141054173750000,2.07875,0.14921970692645134,0.08908681940121117,0.06774115813441918
1789141054183722800,2.08872265625,0.15403525239016574,0.1186163274591632,0.06002329741351853
1789141054193694700,2.09869482421875,0.14403441606410208,0.12145368734694012,0.00548368664344356
1789141054203667000,2.1086669921875,0.14775221024616442,0.10982416738180809,-0.02935986005093612
1789141054213639700,2.1186396484375,0.11108680048338082,0.14432286175731016,0.01062168211444682
1789141054223612000,2.12861181640625,0.13619106759837174,0.17413274806335535,-0.004767068981965813
1789141054233583900,2.138583984375,0.1241751226684453,0.182153565804494,-0.007602752342402228
1789141054243556900,2.148556884765625,0.16618179932993246,0.1968762357268026,0.03350188357447055
1789141054253528800,2.15852880859375,0.14090131386024213,0.21853988466317395,0.028303714640000397
1789141054263501800,2.168501708984375,0.1446483185588356,0.18697562482103497,0.04120066832453891
1789141054273473800,2.178473876953125,0.1397791431517914,0.21547754904473165,0.015442334992303998
1789141054283445800,2.18844580078125,0.09065770651752957,0.2178040312406179,0.0045553045385204344
1789141054293419000,2.1984189453125,0.08757074746650884,0.20099372239643332,-0.0016841070738749643
1789141054303390700,2.208390625,0.11123603987764213,0.1905348687200315,0.002694247047621123
1789141054313363000,2.218363037109375,0.10738537649052582,0.23492891296863322,-0.06372526570496234
1789141054323336000,2.2283359375,0.10422361681752469,0.23412837664996464,-0.005151427617051782
1789141054333307600,2.2383076171875,0.0888059224432865,0.20052888708727293,0.05434309482491064
1789141054343279900,2.24827978515625,0.09187233475002123,0.18572899842169818,0.007632641314580944
1789141054353252900,2.2582529296875,0.0690191515559503,0.21037683886412414,0.0030994918512565754
1789141054363224800,2.268224853515625,0.06015467165435886,0.22712351704175154,0.06435054135277328
1789141054373196800,2.27819677734375,0.0418338105620089,0.2002210344586515,0.04558061921691472
1789141054383169800,2.288169677734375,0.055104965429072915,0.19390959075773373,-0.05747476220795902
1789141054393141800,2.298141845703125,-0.013813077508939517,0.18089601645890988,-0.018535027123172305
1789141054403114800,2.30811474609375,0.010851794816528225,0.17854375368262768,-0.0314111567729555
1789141054413087000,2.3180869140625,0.019623505892408244,0.1639003021608301,-0.025046456391326535
1789141054423058700,2.32805859375,0.028813443073432702,0.20103015459342946,-0.07361473720224973
1789141054433031700,2.33803173828125,0.03237111285180047,0.14871215911847285,-0.057826485714630685
1789141054443004000,2.34800390625,-0.001633507759237797,0.09665557681573617,-0.056956520492166804
1789141054452975900,2.357975830078125,-0.03558549547112467,0.07181604707433055,-0.05977687486320432
1789141054462948900,2.367948974609375,-0.020640744467741324,0.05751764040257635,-0.050031843364695336
1789141054472920800,2.3779208984375,-0.0408197918180031,0.01533196079544227,-0.00674967114072544
1789141054482892800,2.387892822265625,-0.04249729482127211,-0.019491210454864426,0.010063647177144433
1789141054492865800,2.39786572265625,-0.056487775806098005,-0.04767006284293016,0.03124085085985863
1789141054502838000,2.407838134765625,-0.059428025698543836,-0.05589158039109339,0.0298101633489124
1789141054512811000,2.41781103515625,-0.08576078678808063,-0.07034783986958362,-0.01742743775714442
1789141054522782700,2.42778271484375,-0.06970867745022279,-0.10140816701490152,-0.02358841790150495
1789141054532755000,2.4377548828125,-0.05803407275905096,-0.07463967395698881,-0.00931925566686671
1789141054542728000,2.44772802734375,-0.03784025709234966,-0.05436503506925727,0.015626087104657804
1789141054552700000,2.457699951171875,-0.04971651169263339,-0.050155348418686775,-0.015502095480927534
1789141054562671900,2.467671875,-0.050183545878033205,-0.041045071714358554,-0.011429032999266727
1789141054572644900,2.477644775390625,-0.07699817971756769,-0.02003633006114578,-0.03437078289094306
1789141054582616800,2.487616943359375,-0.08183715191607403,-0.02813764150692084,-0.0675749113627047
1789141054592588800,2.4975888671875,-0.06877956309469177,-0.0266750549411245,-0.042388058858202744
1789141054602562000,2.50756201171875,-0.06999305723230644,0.004855750610450517,-0.025565003087781264
1789141054612533800,2.51753369140625,-0.034655329284874886,0.0031628486421691796,-0.04688767918242895
1789141054622506000,2.527506103515625,-0.03153141486664691,0.014979097509999973,-0.07537021573049574
1789141054632479000,2.53747900390625,-0.0648870620086602,0.02014412423636023,-0.016871184634360745
1789141054642450700,2.54745068359375,-0.09608820520817282,0.031584102820141645,-0.03291810528408316
1789141054652424000,2.557423828125,-0.06090892415620572,0.007612732921771302,-0.019859589822431866
1789141054662396000,2.56739599609375,-0.07460075725150339,0.038344567296593725,0.003209648815950931
1789141054672367900,2.577367919921875,-0.052636764927242785,0.04193321899625224,0.04959917416698247
1789141054682340900,2.5873408203125,-0.030130266964167516,0.03660916623338839,0.03757309297471361
1789141054692312800,2.597312744140625,-0.03270922024064902,0.032727819985512,0.08018536493138612
1789141054702284800,2.607284912109375,-0.06719362563009436,0.010987799701501258,0.114269703032754
1789141054712257800,2.6172578125,-0.05671533004907574,-0.002913294259399732,0.0780393290139426
1789141054722230000,2.62722998046875,-0.04281755404366433,0.014423230444237987,0.06206700387810134
1789141054732201700,2.63720166015625,-0.05265784021252562,0.027880032044749193,0.07757598510464872
1789141054742175000,2.647175048828125,-0.052537192038674026,0.0004523772286623226,0.08535681916796349
1789141054752147000,2.65714697265625,-0.05081124801303116,-0.029469997331967288,0.07559481465708659
1789141054762119000,2.667118896484375,-0.07620626272985917,-0.044055727691936955,0.05535085649017251
1789141054772092000,2.677091796875,-0.07297765145149096,-0.06698087954520178,0.0338657893472916
1789141054782063600,2.687063720703125,-0.06561781602810994,-0.08110304514946347,0.012943336309025293
1789141054792036900,2.697036865234375,-0.08638998984778222,-0.07353500547338235,0.00981674513314814
1789141054802008800,2.7070087890625,-0.06897718802180633,-0.09069731635893798,0.02393177754171826
1789141054811980800,2.716980712890625,-0.05043860996184355,-0.09774283771411943,0.023238479321348964
1789141054821953800,2.726953857421875,-0.033364640929850115,-0.10159798597113648,0.05496432459295444
1789141054831925800,2.73692578125,-0.05218059194820473,-0.09254480110051988,0.07756531514756844
1789141054841897700,2.746897705078125,-0.01348132174687622,-0.11429731761427218,0.11109215307645513
1789141054851870700,2.75687060546875,-0.033076734412715164,-0.12176210364405089,0.10349582460531469
1789141054861843000,2.766843017578125,-0.02235067766834698,-0.11164864829341097,0.15802137416644835
1789141054871814700,2.776814697265625,-0.0564853749841799,-0.13491337150358657,0.21454871088154298
1789141054881788000,2.786787841796875,-0.023048267527194678,-0.13492186123074137,0.19053814586327866
1789141054891759900,2.796759765625,-0.017746446646148304,-0.11104749351225073,0.16735044965032414
1789141054901731800,2.80673193359375,-0.0029417855632811497,-0.09899429174083799,0.11464042768172618
1789141054911704800,2.816704833984375,-0.02623967003792258,-0.10684415446134178,0.1446778830695946
1789141054921676800,2.8266767578125,-0.019493942122640703,-0.09345316139086447,0.08207690857193349
1789141054931650000,2.836650146484375,-0.02558909376210766,-0.08430540703352041,-0.04264964806137527
1789141054941621800,2.846621826171875,-0.0020967705420311014,-0.09659105329800877,-0.04280349715641462
1789141054951594000,2.856593994140625,-0.009575127451807995,-0.0626362556730039,-0.16718163930325886
1789141054961567000,2.86656689453125,0.048072778791590526,0.0005551951405379174,-0.19770144096348083
1789141054971538700,2.87653857421875,0.02367176471944611,0.001986934671610844,-0.1567521340801838
1789141054981511000,2.886510986328125,0.049342946135715236,-0.04812966052606795,-0.04037915860751903
1789141054991484000,2.89648388671875,0.06088171021392069,0.008543548507151966,-0.1459321285736993
1789141055001455900,2.906455810546875,0.030352658202780155,-0.013852062953608604,0.01422986673152878
1789141055011427800,2.916427734375,0.043015355327581814,-0.04844317482317364,0.0592278965858151
1789141055021400800,2.92640087890625,0.00799363015214954,-0.07736482481306298,0.07707311186988826
1789141055031372800,2.936372802734375,-0.0068563806030274765,-0.05446787879821974,0.017329917340299168
1789141055041345800,2.946345703125,-0.02641433957623335,-0.07405454596023617,-0.023734780127450852
1789141055051318000,2.956318115234375,-0.012083881318524363,-0.05895001104670086,-0.057175673813894046
1789141055061289700,2.966289794921875,-0.00841918071518178,-0.03733103757451441,-0.09123095580497022
1789141055071262700,2.9762626953125,0.028111014680164834,0.012867251381330172,-0.1369708859907685
1789141055081235000,2.98623486328125,0.05693835460925449,0.06048323345233984,-0.09614611800186303
1789141055091207700,2.996207763671875,0.0603157927095741,0.08105847375478373,-0.035710778483930714
1789141055101180700,3.0061806640625,0.08495171749547985,0.06528237410017669,-0.007009979610336188
1789141055111153000,3.01615283203125,0.09017885480696712,0.029592310241159495,0.022898146166656738
1789141055121124900,3.026124755859375,0.056139130946050914,-0.015586799273058744,0.055331012607291424
1789141055131097900,3.036097900390625,0.005976625588077546,-0.0476453182988581,0.020719321378602534
1789141055141069800,3.04606982421875,-0.04541545872869743,-0.09643379951597823,-0.04746921847910721
1789141055151041800,3.056041748046875,-0.04223221312362766,-0.1036741689447447,-0.12502692529007817
1789141055161014800,3.066014892578125,-0.016004171841370377,-0.0851756351256374,-0.19264215049287242
1789141055170987000,3.075987060546875,0.04780661626359709,-0.051799670531985434,-0.22649415572043452
1789141055180960000,3.0859599609375,0.08893308152084475,-0.024943091759651093,-0.18787791227907105
1789141055190931700,3.095931640625,0.10251911910120762,0.0005145701868614098,-0.145621304959523
1789141055200904000,3.105904052734375,0.089267216904512,-0.011021187319858313,-0.12300188191319998
1789141055210877000,3.115876953125,0.061770399658364776,-0.0038923881228740383,-0.1623546048166198
1789141055220849000,3.125848876953125,-0.004426712937699941,-0.054971629034078096,-0.07328632565612804
1789141055230820900,3.13582080078125,-0.05545948687970712,-0.0766856856369317,-0.060867806021908416
1789141055240793900,3.1457939453125,-0.010255059626096075,-0.097944395225886,-0.04597542902371525
1789141055250765800,3.155765869140625,0.0005774136138681707,-0.04335541104600415,-0.04937535707325295
1789141055260737800,3.16573779296875,0.03301034339473591,-0.012768792081126648,-0.033534404255257874
1789141055270711000,3.1757109375,0.06391215306899707,-0.007858976318156699,-0.05363663412736009
1789141055280682800,3.185682861328125,0.09973446305187779,0.00898918861975626,-0.05480016774324654
1789141055290655000,3.195655029296875,0.12725484765834094,0.036863516085108294,-0.10557214820407403
1789141055300628000,3.2056279296875,0.10229211128787506,0.011718652503778246,-0.09152149137154776
1789141055310599700,3.215599609375,0.08136262419181853,-0.03093233056770062,-0.0731421337433269
1789141055320573000,3.225572998046875,0.02716856285777482,-0.038242793309912246,-0.037552740548860306
1789141055330545000,3.235544921875,0.04031178926235612,-0.008556781414308514,0.017565245167943975
1789141055340516900,3.245516845703125,0.02788435412991936,0.024952966057776135,0.04960012604843141
1789141055350489900,3.25548974609375,0.030842335477790733,0.06364630850136091,0.11368979777272
1789141055360461800,3.2654619140625,0.02039431263815907,0.10775720942117194,0.08205810000301687
1789141055370433800,3.275433837890625,0.06942961585735036,0.11805931486870826,0.04482174116191362
1789141055380406800,3.28540673828125,0.069060809080653,0.09914156305119641,0.0010810669067346718
1789141055390379000,3.29537890625,0.06229250908116208,0.07624811052690379,-0.07189847008622721
1789141055400350700,3.305350830078125,0.059215841466215995,0.0704186871706754,-0.15871904067495068
1789141055410324000,3.315323974609375,0.06810056006122547,0.07827942437056698,-0.14226262957352256
1789141055420296000,3.3252958984375,0.08025453181394113,0.11311436072366274,-0.1818594117997292
1789141055430268700,3.3352685546875,0.05316190960670725,0.09964241877279463,-0.18906854894429614
1789141055440241000,3.345240966796875,0.06030974343261445,0.1122700034797409,-0.16310477041747445
1789141055450212900,3.355212890625,0.0398377714326582,0.11653149476797389,-0.0737318374805341
1789141055460185900,3.365185791015625,0.021383690909367117,0.11627740308970531,-0.014854799155906864
1789141055470157800,3.37515771484375,0.04714092083114981,0.08982056022545101,0.043854636967002404
1789141055480130000,3.385130126953125,0.034274332866687865,0.1044952584629806,0.06252565962639167
1789141055490102800,3.395102783203125,0.06117252278864131,0.05511746200782091,0.16348741537873443
1789141055500074800,3.40507470703125,0.029483897893897566,0.07032341812578714,0.09081052662233702
1789141055510047000,3.415046875,0.01607379161032481,0.033781263504798875,0.0834945359010378
1789141055520019700,3.425019775390625,-0.06399290632713421,-0.009546801207314262,0.02201108742264883
1789141055529992000,3.434991943359375,-0.02708079905723177,-0.008901168471968575,-0.005020527606062988
1789141055539964000,3.4449638671875,-0.018708139945694414,0.024476753312815572,-0.06716937285387856
1789141055549937000,3.45493701171875,0.013222638261296937,0.039639781814558114,-0.07865849702235317
1789141055559908900,3.464908935546875,0.0035173027275398356,0.03159715990426176,-0.11882566589824688
1789141055569881900,3.4748818359375,0.024816690439310455,0.013825265972910308,-0.09716384276830117
1789141055579853800,3.484853759765625,0.012520163354483327,0.008933726625656677,-0.11312744898427664
1789141055589825800,3.49482568359375,0.01707284067711068,-0.04566186350661404,-0.08147194631692511
1789141055599799000,3.504799072265625,-0.01906493055315145,-0.02704170111305881,-0.14001135105181853
1789141055609770800,3.514770751953125,-0.05028852224700612,-0.07263186483558294,-0.02971711429186762
1789141055619743000,3.524742919921875,-0.035752752455905326,-0.0029074976895693684,-0.003170933581766584
1789141055629716000,3.534716064453125,-0.04873836280971405,-0.03149604779045033,0.05903990042860642
1789141055639687700,3.544687744140625,-0.06885883395468236,-0.059695608904176835,0.09905324970244017
1789141055649660000,3.554659912109375,-0.0520567689597046,-0.038701299556473896,0.1406012678779088
1789141055659633000,3.5646328125,-0.01344493101639251,0.015575194493475239,0.12082931600527838
1789141055669604900,3.57460498046875,-0.03112579280468098,0.02378407887002238,0.11474968398407685
1789141055679576800,3.584576904296875,-0.025403509223430695,0.03256385190855942,0.06282738344138306
1789141055689549800,3.5945498046875,-0.021637005577376987,0.055745417818153016,-0.005508626148219003
1789141055699521800,3.604521728515625,-0.02575797024347891,0.06287409872284692,0.002539030435002948
1789141055709494800,3.614494873046875,0.02191635708349478,0.10242062456202916,-0.011822812048238148
1789141055719467000,3.624467041015625,0.04684946175047708,0.11577621893434409,-0.02287649897346389
1789141055729438700,3.634438720703125,0.04923321273388711,0.10271117217472904,-0.08412469010742143
1789141055739411700,3.64441162109375,0.058571479043869494,0.11891402106310726,-0.019169707954278678
1789141055749384000,3.654384033203125,0.05564181418005567,0.12249283911322605,-0.015872972497414428
1789141055759356000,3.66435595703125,0.009986954176461078,0.09377895765658413,-0.034533180830426856
1789141055769329000,3.674328857421875,0.004317160324360342,0.0715166348468524,-0.06873255141753919
1789141055779300900,3.68430078125,-0.021455143082679866,0.06954392601549045,-0.06545442503126879
1789141055789272800,3.69427294921875,-0.05845799415786442,0.0330142888107825,-0.057125376374871244
1789141055799245800,3.704245849609375,-0.056494426639447155,0.01765327094038254,-0.05201707441856033
1789141055809218000,3.714218017578125,-0.012864069213983993,0.06352970875969624,-0.041671227268377076
1789141055819189800,3.724189697265625,-0.012614589822100414,0.08186169431858382,0.02901722388480349
1789141055829162800,3.734162841796875,0.023206237057896203,0.10586262373842124,0.05223643481792034
1789141055839135000,3.744135009765625,0.027980747365726193,0.11200842223169447,0.11353839951801913
1789141055849107700,3.754107666015625,0.0067642608357673115,0.09486641017828104,0.15429821600501425
1789141055859080000,3.764079833984375,-0.021417896125004564,0.08663336508115822,0.15094359244724437
1789141055869052000,3.774052001953125,-0.036740075883235086,0.0991028644363078,0.14683437091705506
1789141055879024600,3.784024658203125,-0.034345235744206934,0.08187905949013889,0.18902882459448953
1789141055888996900,3.793996826171875,-0.02367055174127033,0.10227606803040429,0.13289618466355307
1789141055898968800,3.80396875,-0.001764938865227964,0.14501081178384756,0.13284653428503662
1789141055908941800,3.81394189453125,0.0209996326276474,0.14091370612743673,0.15506998135964617
1789141055918913800,3.823913818359375,0.011062402595654447,0.12045560782848969,0.10277158811123693
1789141055928886000,3.833885986328125,0.028163752341928958,0.10402763146102341,0.07161430950338024
1789141055938858800,3.843858642578125,0.03240407443312562,0.10239773385373424,0.027275452001485397
1789141055948830700,3.853830810546875,0.006642992260083051,0.06720207715923765,0.024469780000277254
1789141055958803000,3.863802978515625,0.0016135848703757016,0.026486808343125022,0.07974092917835345
1789141055968775700,3.873775634765625,-0.02524351739925538,0.04612258463049374,0.06367194753489619
1789141055978748000,3.883747802734375,-0.021767722282520902,0.019544581018354226,0.06777379966505791
1789141055988721000,3.893720947265625,-0.04388521048629033,-0.007734186069091252,0.035687416624066055
1789141055998692900,3.90369287109375,-0.06593988760638132,-0.006419484557226748,0.0782421551278423
1789141056008664800,3.913664794921875,-0.03448704457557667,0.019256354333096724,0.007930892622619475
1789141056018637800,3.923637939453125,-0.002876782897555964,0.02493001320344207,-0.021901202231262063
1789141056028609800,3.93360986328125,-0.030414936729512152,0.05547740566494366,0.009526407720492147
1789141056038581800,3.943581787109375,-0.013966666159673215,0.08397711863254202,0.024078513828810745
1789141056048555000,3.953554931640625,0.026006904249621703,0.10324728670304643,0.013210461186061725
1789141056058526700,3.963526611328125,0.023270623200228813,0.09750621781363689,0.03895508125591792
1789141056068499000,3.9734990234375,0.0020983174844675795,0.10516645564651982,0.0009446046199342699
1789141056078472000,3.983471923828125,0.021769280985567685,0.10670462591461095,0.0051633967059212865
1789141056088443400,3.993443359375,-0.008950540142206228,0.10704119897484504,-0.011171957898947501
1789141056098415600,4.00341552734375,-0.014355673206850895,0.11170609267283939,-0.005535626169809242
1789141056108388600,4.013388671875,-0.007858554685781189,0.09159943714643733,-0.015564332186871904
1789141056118360600,4.023360595703125,-0.033925627897612706,0.07008201996864048,-0.002372782264483239
1789141056128333600,4.03333349609375,-0.02494140236474753,0.08081850142237981,-0.005298441809354879
1789141056138305800,4.043305908203125,-0.022145168400172874,0.05299203575725539,-0.0036415778124950712
1789141056148277500,4.053277587890625,-0.016069527689095493,0.016758298297954402,0.006232348192501476
1789141056158250500,4.06325048828125,-0.004376747827864472,0.0032225667792130457,-0.01274791187347619
1789141056168222700,4.07322265625,-0.019898708504652238,-0.003857284914448857,0.0016745552249318345
1789141056178194400,4.0831943359375,-0.02229247953783254,-0.021607446102547407,0.04333902594083519
1789141056188167700,4.093167724609375,-0.03732682250146227,-0.03764451745158704,0.05834912520124881
1789141056198139600,4.1031396484375,-0.0048437493565938105,-0.032219645583707615,0.008625766092964747
1789141056208111600,4.113111572265625,-0.027312574217956718,-0.04477408943482501,0.016083018580382007
1789141056218084600,4.123084716796875,-0.07484020686459565,-0.06897096128951702,0.015595754269292151
1789141056228056600,4.133056640625,-0.0594559829864136,-0.0586682985190197,-0.02856080210475896
1789141056238028500,4.143028564453125,-0.03656609500806405,-0.04696042075192375,-0.038539175239302954
1789141056248001500,4.15300146484375,-0.013786189434007652,-0.049354506616808666,-0.005733290649116537
1789141056257973800,4.162973876953125,-0.028644873704545114,-0.022130633266751888,-0.05548677465885262
1789141056267946500,4.172946533203125,-0.02386473016601331,-0.0266141508287846,-0.04000073560040725
1789141056277918500,4.18291845703125,-0.03791951176384959,-0.028062657772102484,0.012050244900655023
1789141056287890700,4.192890625,-0.034882843174431306,0.00237649709253839,0.002520057196265432
1789141056297863400,4.202863525390625,-0.007965104863400234,0.00032643939635529015,-0.00366068404304382
1789141056307835600,4.212835693359375,0.02560969524458774,0.006871419218293706,-0.009489868712332384
1789141056317807600,4.2228076171875,0.014377391900936889,0.026338239462291305,-0.02431913322679692
1789141056327780600,4.232780517578125,-0.004855133924534135,0.003554207809410278,0.016180819605771963
1789141056337752600,4.242752685546875,-0.027656402283688854,0.01327203817314036,0.0070674419298058285
1789141056347724800,4.252724853515625,-0.02375407253727537,0.01741532881926362,-0.029156170156947353
1789141056357697500,4.262697509765625,-0.033133529909217634,0.017165023712122335,-0.04163433854235423
1789141056367669500,4.27266943359375,-4.668873969339372e-05,0.016921705706451233,-0.023340284483520005
1789141056377641700,4.282641845703125,0.0007357578314867138,0.004555708159342572,-0.0756493144325918
1789141056387614500,4.292614501953125,-0.01636114579496597,-0.01795297295024408,-0.058993647722880245
1789141056397586700,4.302586669921875,-0.04389999294399642,-0.04330450584412176,-0.0767681770794151
1789141056407559700,4.3125595703125,-0.03404766505357585,-0.060880564842335984,-0.08452247284477823
1789141056417531400,4.322531494140625,-0.03975640383326162,-0.06301557656428726,-0.02505129840045219
1789141056427503600,4.332503662109375,-0.051189780918655066,-0.08171423267855493,0.00022185345927504241
1789141056437476600,4.3424765625,-0.016359781759454708,-0.08279293197911443,-0.007007246392157667
1789141056447448600,4.352448486328125,-0.04462480165007848,-0.0811637445407716,-0.017367421489703085
1789141056457420500,4.362420654296875,-0.08733423243228726,-0.12193384324502086,0.003911432875234586
1789141056467393500,4.3723935546875,-0.04473204973662231,-0.10582359630860076,-0.006564152189728079
1789141056477365500,4.382365478515625,-0.05256933528560892,-0.07342419487778896,-0.008757851953346468
1789141056487337500,4.39233740234375,-0.07896860628344991,-0.08798502844908031,-0.015711295656491382
1789141056497310700,4.402310791015625,-0.024559600819285557,-0.08463384138980325,-0.03204079957703844
1789141056507282400,4.412282470703125,-0.08983836967574048,-0.1018539630704616,0.010700888204415133
1789141056517254700,4.422254638671875,-0.08154478328244567,-0.12434352741690703,0.014127152455913844
1789141056527227600,4.4322275390625,-0.0332019071820645,-0.0819164493117412,-0.08255110105547529
1789141056537199600,4.44219970703125,-0.035295402378755114,-0.08035312251880544,-0.0023856672483514615
1789141056547172600,4.452172607421875,-0.06963169984577305,-0.11603094965760982,0.047558357586593984
1789141056557144600,4.46214453125,-0.05617813462610394,-0.10942766237399786,-0.0004630713554205053
1789141056567116500,4.472116455078125,-0.07151820403041187,-0.09977405452908171,0.03598502305931322
1789141056577089500,4.482089599609375,-0.07235577682346664,-0.09924552888642808,0.01244386078874618
1789141056587061800,4.492061767578125,-0.07926064549626356,-0.1291673915611956,0.026761763354623276
1789141056597033500,4.502033447265625,-0.020965113386302643,-0.10171208184398088,-0.02187841767380504
1789141056607006500,4.51200634765625,-0.05393894155470956,-0.1397969593442386,-0.0029420590522310454
1789141056616978700,4.521978759765625,-0.04715584942229136,-0.17552676250276464,0.006974741259797498
1789141056626950400,4.531950439453125,-0.06550644542987456,-0.1359961089339785,-0.00582569963726451
1789141056636923600,4.541923583984375,-0.06735419301535532,-0.12011498133317708,-0.0014671651895418818
1789141056646895600,4.5518955078125,-0.04034135152700133,-0.1401564373912108,-0.0113732995650339
1789141056656867600,4.56186767578125,-0.08581914016474482,-0.12703857025771026,0.009392485879310745
1789141056666840600,4.571840576171875,-0.08129856712845622,-0.1163872462751224,0.015270312148057881
1789141056676812500,4.5818125,-0.010468589541902374,-0.12379725099789758,-0.007449754714782222
1789141056686785800,4.591785888671875,-0.011829634125942507,-0.09868814204801542,-0.006487404425911075
1789141056696757500,4.601757568359375,-0.03757205335300934,-0.07063699409866298,0.024623080220898833
1789141056706729700,4.611729736328125,-0.003637122224042265,-0.09631767393362325,0.03625776917499996
1789141056716702700,4.62170263671875,-0.007115598954088771,-0.10081266993249631,0.025197779617029053
1789141056726674400,4.63167431640625,0.008581673831848257,-0.0759719841089031,0.022701241398774368
1789141056736646700,4.641646728515625,-0.010270879463307613,-0.06199081137629871,0.01937307876541645
1789141056746619600,4.65161962890625,-0.008320016591679179,-0.06791859664024953,0.01691385741688617
1789141056756591600,4.661591552734375,-0.006086601840632271,-0.07586876970557498,0.02825024434411966
1789141056766563600,4.6715634765625,-0.020832373395288692,-0.06993312310452844,0.026835729812478882
1789141056776536600,4.68153662109375,-0.02478536640198899,-0.05345577723759123,-0.016387483177515146
1789141056786508500,4.691508544921875,0.009321059416054291,-0.04849702809870034,0.00812694416303069
1789141056796480800,4.701480712890625,0.026452830951612705,-0.03096350020939304,-0.04539395694255543
1789141056806453800,4.711453857421875,0.011539674093664009,-0.02755853026554115,-0.032489106614857446
1789141056816425500,4.721425537109375,0.015527225673586277,-0.013407269983590951,-0.02742359204134791
1789141056826397700,4.731397705078125,0.018707836678684708,0.014882813676917375,0.003373908000518573
1789141056836370700,4.74137060546875,0.03162235954208337,0.004283229792877143,0.04135485372171308
1789141056846342700,4.7513427734375,0.04692597619724665,-0.00048273083644829085,0.023972579243940285
1789141056856315600,4.761315673828125,0.028100013981015987,0.014281355535261775,-0.00244194713676567
1789141056866287600,4.77128759765625,0.0031918957335425897,-0.0055320846881997295,0.07699311208021604
1789141056876259600,4.781259521484375,-0.0007437768689518001,0.024660974995604913,0.04653923572724469
1789141056886232600,4.791232666015625,0.01630157487703432,0.029194288937084915,0.05140905506464957
1789141056896204800,4.801204833984375,0.01877906508487503,0.04068570328420734,0.066512893506424
1789141056906176500,4.811176513671875,0.03604862762054336,0.08428859988693274,0.054770431315923566
1789141056916149500,4.8211494140625,0.07214553609156943,0.09604193238961346,0.03266320206815642
1789141056926121500,4.83112158203125,0.0495230379704473,0.05998515139512406,0.04411699790937845
1789141056936093700,4.84109375,0.04678311584259669,0.0490171746584314,0.004719063506701224
1789141056946066700,4.851066650390625,0.012164139935120319,0.03818126513689199,0.006688113260478109
1789141056956038400,4.861038330078125,-0.02772920682065807,0.031987496122275465,-0.0024130562731573056
1789141056966010600,4.8710107421875,-0.016349229847942882,0.019740413868534236,-0.011107199592653978
1789141056975983600,4.880983642578125,0.03198961444455588,0.06104134142747618,-0.026255585686007
1789141056985955600,4.89095556640625,0.04724280418195627,0.09526935247536601,-0.005155811282390762
1789141056995928600,4.900928466796875,0.05021451488261189,0.05786203449885501,0.0006942223263516502
1789141057005900500,4.910900634765625,0.05794479514104126,0.045979755731215266,-0.02304160222794915
1789141057015872500,4.92087255859375,0.0367588409934463,0.034246837462684185,0.030210041364535454
1789141057025845500,4.930845458984375,-0.0031194783692290776,0.015300946291897044,0.0004181227202902203
1789141057035817700,4.940817626953125,0.055445255539539585,0.007785985621719415,-0.006061920378242089
1789141057045789400,4.95078955078125,0.03960855635382801,0.015919047078829157,-0.02066176851749734
1789141057055762400,4.960762451171875,0.03624387680641562,0.02468549573773544,-0.009798121607664613
1789141057065734700,4.970734619140625,0.027485624068575368,0.026025415428209183,-0.03845775127728953
1789141057075706400,4.980706298828125,0.022966071679544047,0.0009024260632172591,0.027226850325681236
1789141057085679000,4.99067919921875,0.024936276336161578,0.010060955747112476,-0.003458645382741724
1789141057095651000,5.000651123046875,0.053075321324434314,0.014085249372113655,-0.003130110560646841
1789141057105623000,5.010623046875,0.01440290712735177,0.01952038658424567,0.0347440066917551
1789141057115596000,5.020595947265625,0.01730598181267114,0.01918513475142228,0.024054880911883306
1789141057125568300,5.030568359375,-0.01219299369036309,0.025505184856649647,0.009304539968767817
1789141057135541200,5.040541259765625,0.006486789224822955,0.04263813374075078,0.026976299232539126
1789141057145513000,5.050512939453125,-0.016893195820824453,0.03030365512200623,0.007286868826017962
1789141057155485200,5.060485107421875,-0.007219177133338484,0.023325837203405936,-0.03494888721191194
1789141057165458200,5.070458251953125,-0.0058303515955388414,0.033896057584565674,-0.016492339174025726
1789141057175430100,5.08043017578125,0.008292511787706534,0.07107893890237095,-0.07323556144688158
1789141057185402000,5.090402099609375,-0.008315928136674061,0.04544747438834121,-0.07361198036152504
1789141057195375000,5.100375,0.014886465916817715,0.045323362814975315,-0.07660370613221916
1789141057205347000,5.11034716796875,-0.024954333510089362,0.010219256081896638,-0.06338900358209369
1789141057215319000,5.120319091796875,-0.025485780378706146,-0.0169082385401049,-0.05949788822690009
1789141057225292300,5.130292236328125,-0.039629578377086146,-0.05344054811131364,0.02376975557347475
1789141057235264000,5.140263916015625,-0.03942386394092312,-0.0972859459092342,0.03317446451728772
1789141057245236200,5.150236328125,-0.03974473998628997,-0.13144983532875779,0.015615343514714566
1789141057255209200,5.160209228515625,-0.04602734021087085,-0.13597609351443007,-0.010310319416446102
1789141057265181200,5.17018115234375,-0.07410107458514348,-0.15234164426018318,-0.021967428456879566
1789141057275154200,5.180154296875,-0.05993528250285526,-0.1853999308013879,-0.009774103699569986
1789141057285126100,5.190126220703125,-0.03360203092749043,-0.18228924939243835,-0.03002102301364804
1789141057295098000,5.20009814453125,-0.013115904923580269,-0.11078191486805462,-0.07189293940208244
1789141057305071000,5.210071044921875,-0.0015121817076896471,-0.12309415956203042,0.011633254718265925
1789141057315043000,5.22004296875,0.01944709760278746,-0.1408028904801351,0.04213648837147111
1789141057325015000,5.23001513671875,-0.010990355830721072,-0.1449502150888467,0.007970562588112136
1789141057334988000,5.239988037109375,0.0020524286899465806,-0.1574997111507207,-0.015089985601023658
1789141057344960000,5.2499599609375,-0.017315578833418107,-0.1515392068507807,-0.004391944978252955
1789141057354932000,5.259931884765625,-0.02694292523173676,-0.14170488581854168,-0.002369503630490681
1789141057364905200,5.2699052734375,0.0021670395409528077,-0.13197671789280294,-0.00916769321564856
1789141057374877000,5.279876953125,0.03402066600082636,-0.07820685767873138,-0.013794147177464858
1789141057384849200,5.28984912109375,0.03984176991431137,-0.058495591102146444,0.020240882976480294
1789141057394822100,5.299822265625,0.059384299543514894,-0.06783603542298428,0.05416089608409533
1789141057404793900,5.3097939453125,0.05611887230224856,-0.07792720094252745,0.042312658828327826
1789141057414766000,5.31976611328125,0.03565586566722744,-0.09882167197670459,0.0570335641229256
1789141057424739000,5.329739013671875,0.005194634333233794,-0.11892698710397233,0.05667782451841325
1789141057434711000,5.3397109375,0.02157858917528356,-0.12357666501192748,0.028806310588997117
1789141057444684000,5.34968408203125,0.05399555729773611,-0.11934668849670992,0.045946238637084955
1789141057454656000,5.359656005859375,0.06485809028147697,-0.09731854151727612,0.03343224779636388
1789141057464628000,5.3696279296875,0.05895457088163548,-0.10312733603765385,-0.005676440744336076
1789141057474601000,5.37960107421875,0.06895850923278217,-0.11128188042264738,-0.022684392344722835
1789141057484573200,5.3895732421875,0.054750872148369684,-0.09435016288049781,-0.02476155161314478
1789141057494545000,5.399544921875,0.08526092670680795,-0.07360736414008014,-0.016097323328333264
1789141057504518100,5.40951806640625,0.06974282977007583,-0.056672164464594145,-0.019837888159957583
1789141057514490000,5.419489990234375,0.09379056445532268,-0.061258127660432406,0.02586323038246693
1789141057524462000,5.429462158203125,0.11759123704319487,-0.02819259425440615,0.006171805984846715
1789141057534435000,5.43943505859375,0.13183609625139026,-0.010623924550040922,0.03895787679814765
1789141057544407000,5.449406982421875,0.12097174589243058,-0.013680214712306465,0.036910014799178985
1789141057554379000,5.45937890625,0.1556617542729523,0.005530117530032078,-0.005013510263685291
1789141057564352000,5.46935205078125,0.14945789473925097,0.037484292946996,-0.0010110664892437138
1789141057574324200,5.47932421875,0.12162662376190875,0.03245959354887109,0.015809560658667565
1789141057584296000,5.4892958984375,0.1439638836501785,0.0506178565114786,-0.0030127748911100093
1789141057594269000,5.49926904296875,0.16900370797969227,0.1088856562594592,-0.017706972011551806
1789141057604241200,5.5092412109375,0.18654489102870953,0.1296598072071468,0.006738932897980582
1789141057614214100,5.519214111328125,0.22483526837457218,0.14947593618705785,-0.03129322400893336
1789141057624186000,5.52918603515625,0.19104568157042273,0.16504868227126607,-0.007277406079809527
1789141057634158000,5.539157958984375,0.18232494471534566,0.18774833335960692,0.0222367291241686
1789141057644131000,5.549131103515625,0.16441191415885134,0.19729691027106286,-0.025139783550565023
1789141057654103000,5.55910302734375,0.15457967997197758,0.16455025428539885,0.03085768286131449
1789141057664075300,5.5690751953125,0.1468887217144894,0.17751253014600774,0.03567731695580392
1789141057674048300,5.57904833984375,0.16637289004031888,0.17507330509180627,0.06329990535398827
1789141057684020000,5.58902001953125,0.19790329092390954,0.16107856440895682,0.027569779876323308
1789141057693992200,5.5989921875,0.18693720554938445,0.1589862778920483,-0.025942249783901437
1789141057703965200,5.608965087890625,0.15447485284851403,0.16844994905590338,-0.011465935324333924
1789141057713937200,5.618937255859375,0.16455305917963045,0.15054337512192767,-0.03716489682448676
1789141057723909000,5.6289091796875,0.13709627114243517,0.15037602742754475,-0.08095329520609229
1789141057733882000,5.638882080078125,0.09512667217589267,0.15025763695784863,-0.07945241497044264
1789141057743854000,5.64885400390625,0.07441275352224191,0.146984383359944,-0.06170016086262335
1789141057753827000,5.6588271484375,0.0973689038457958,0.19216765795558008,-0.044251051334584936
1789141057763799300,5.66879931640625,0.1567931339258767,0.20860428855736143,-0.015158425177656176
1789141057773771000,5.67877099609375,0.16024598953460348,0.18196391381845956,0.015677769190657293
1789141057783744000,5.688743896484375,0.11304831863387736,0.16437232131151605,0.029747527283171742
1789141057793716200,5.69871630859375,0.09965025362593656,0.16830920247589584,-0.013525857230042895
1789141057803688000,5.70868798828125,0.09355050886880896,0.12928499954410422,0.009359364230953873
1789141057813661200,5.7186611328125,0.11003928622434639,0.1438549063520552,-0.0005089550669815835
1789141057823633200,5.728633056640625,0.06642019805460457,0.1916765044410717,-0.07844577878435863
1789141057833605000,5.738605224609375,0.06233483994879063,0.18134146905125476,-0.08562296001436355
1789141057843578000,5.748578125,0.06986407730435391,0.1584256074733419,-0.06116812467359511
1789141057853550000,5.758550048828125,0.07583353889355898,0.20355234447641304,-0.07818567893802557
1789141057863522000,5.76852197265625,0.10387298451686729,0.23263484515635033,-0.10500364291197047
1789141057873495000,5.7784951171875,0.09623296898277317,0.2133605720724475,-0.05586866272239974
1789141057883467300,5.78846728515625,0.03898440116346713,0.1894260162880613,0.018454588214177448
1789141057893439000,5.79843896484375,0.05239781278893358,0.21163966773297518,0.036833589114909866
1789141057903412200,5.808412109375,0.05360715567812627,0.236259938829764,-0.0015165176564230646
1789141057913384200,5.81838427734375,0.07113908756702793,0.23097446128059096,0.012852946139377132
1789141057923357000,5.82835693359375,0.040681449397597116,0.19314576666504743,0.03860287116821596
1789141057933329200,5.8383291015625,0.0324178755678518,0.19756695100569951,-0.017280934589082485
1789141057943301000,5.848301025390625,0.0029862069859916437,0.1980849219746378,-0.08343473087849056
1789141057953274000,5.858274169921875,-0.014083589938894645,0.1922144570875996,-0.09775893993278634
1789141057963246000,5.86824609375,-0.0026003183474162662,0.20243375148181153,-0.11686653089815051
1789141057973218300,5.87821826171875,0.014041101229433044,0.22363601398257626,-0.12739208594206022
1789141057983191000,5.88819091796875,0.024067068836632118,0.22261795628901157,-0.07456904772631442
1789141057993163000,5.8981630859375,0.006267284345152679,0.2198966017817183,-0.04121608266684056
1789141058003135200,5.90813525390625,0.01301137245384583,0.19692598867057995,0.00020841277975660406
1789141058013108000,5.91810791015625,-0.021143147083163897,0.18367327865786406,0.042385717621245544
1789141058023080200,5.928080078125,-0.07761936650419608,0.18435272327504687,0.03553394081700093
1789141058033052200,5.93805224609375,-0.05405711630702368,0.17646442918202798,-0.0009490833719280747
1789141058043025000,5.94802490234375,-0.058157762634842645,0.17065122273921546,-0.01667367503968438
1789141058052997000,5.9579970703125,-0.0675072166570736,0.1604516315522744,-0.020891371567965566
1789141058062969000,5.967968994140625,-0.0670477140085418,0.15600629970574703,-0.03651191840618048
1789141058072942000,5.977942138671875,-0.0868756578880998,0.16871273349981758,-0.053287917509943016
1789141058082914000,5.9879140625,-0.06501216529428507,0.15423721267561738,-0.021454391625451666
1789141058092887000,5.997886962890625,-0.06281023757153967,0.1642184988228491,-0.04610574094838185
1789141058102859300,6.007859375,-0.050033695088318196,0.12691621643216988,0.0008803768813211793
1789141058112831200,6.017831298828125,-0.0589562351728805,0.10386644587396049,-0.0004911155670964887
1789141058122804200,6.02780419921875,-0.0965981095974298,0.07087454429532743,0.04256275763084123
1789141058132776200,6.037776123046875,-0.12549062988637757,0.029493316707159798,0.045493703548987796
1789141058142748400,6.04774853515625,-0.11264401133926051,0.01671232035420561,-0.03311553735724271
1789141058152721200,6.05772119140625,-0.14511111207280472,-0.015044804969836185,0.007957904397406332
1789141058162693400,6.067693359375,-0.11545683132356324,0.006867214816977155,-0.006842049803192179
1789141058172665300,6.077665283203125,-0.12522004270528833,-0.00034437267383959167,0.0047640963321407305
1789141058182638000,6.08763818359375,-0.12458707036867604,-0.03140023305058945,0.0012142906482708873
1789141058192610300,6.0976103515625,-0.13574915723333814,-0.04973920985096259,0.0027209667912615775
1789141058202582300,6.107582275390625,-0.1069170757965398,-0.02369990243616289,0.007111530664041303
1789141058212555300,6.11755517578125,-0.14567340340433416,-0.03869208878616035,0.042099860010058505
1789141058222527200,6.12752734375,-0.11513207572801998,-0.03414483278620698,0.002589089312698992
1789141058232500200,6.137500244140625,-0.14526590741157341,-0.06056203289754884,0.021727728005850256
1789141058242472200,6.14747216796875,-0.1375270503466223,-0.08131874759452258,0.01673982619300031
1789141058252444200,6.157444091796875,-0.14641716132945615,-0.059284245240349705,0.031109786972140768
1789141058262417400,6.16741748046875,-0.12193434750830705,-0.05324141405463019,0.00038594680000642105
1789141058272389000,6.17738916015625,-0.09976428290066847,-0.056755468938734795,-0.03298834204339784
1789141058282361300,6.187361328125,-0.11621542793814595,-0.04648898648489362,0.013938451995222399
1789141058292334300,6.197334228515625,-0.11475147255699593,-0.020441640900785596,0.01150155528707263
1789141058302306000,6.20730615234375,-0.10188638979174279,-0.04959213474737664,0.04176018442001732
1789141058312278300,6.2172783203125,-0.10990365563511442,-0.059491691903425375,0.08375631807762232
1789141058322251300,6.227251220703125,-0.13466697087096,-0.05258752148511376,0.08589455998077523
1789141058332223200,6.23722314453125,-0.11747287552367255,-0.02347119056306031,0.05596149335942837
1789141058342195200,6.2471953125,-0.10640934916039888,-0.04158264484744132,0.06522503603720385
1789141058352168400,6.25716845703125,-0.07780766248227716,-0.012560974760843223,0.003685928015799881
1789141058362140200,6.26714013671875,-0.08458276032156224,-0.0018523120617772082,-0.02066496068804537
1789141058372112400,6.2771123046875,-0.09964287753803648,-0.029948450940660884,0.013459474865076817
1789141058382085400,6.28708544921875,-0.10940728713586789,-0.043143699504624086,-0.024502185034278635
1789141058392057000,6.29705712890625,-0.10811459038408139,-0.03201287341045407,-0.06986196431337108
1789141058402030300,6.3070302734375,-0.10821548250426219,-0.04804394532619055,0.04872927048990363
1789141058412002300,6.317002197265625,-0.11008067483492512,-0.052363886998556174,0.054621608853988014
1789141058421974300,6.326974365234375,-0.04735603732741723,-0.06276291278788124,0.0216058179686057
1789141058431947300,6.336947265625,-0.07196289713720001,-0.0501798456664251,0.03256328543579685
1789141058441919200,6.346919189453125,-0.06251328785029747,-0.06849799802354349,0.08855392365198148
1789141058451891200,6.35689111328125,-0.06742191907688044,-0.08334668828946491,0.06855025069731563
1789141058461864200,6.3668642578125,-0.08201333266411101,-0.09410089227070666,0.02104274633877814
1789141058471836400,6.37683642578125,-0.08655782434506833,-0.10210431000661739,0.053431279528238354
1789141058481808100,6.38680810546875,-0.08532361761370026,-0.1084741359128212,0.023106106649713506
1789141058491781000,6.396781005859375,-0.057434029160511955,-0.13816324009639797,0.0030483164512258654
1789141058501753300,6.40675341796875,-0.03226650396451991,-0.10856117138647463,-0.030818533188872097
1789141058511725300,6.416725341796875,-0.008969881698342369,-0.09768838312734586,0.0048452987787843205
1789141058521698300,6.4266982421875,-0.010733514711578254,-0.10785131931918468,0.018804495024810262
1789141058531670300,6.436670166015625,-0.0212557319747449,-0.12191852056325776,0.028173280448588953
1789141058541642200,6.446642333984375,-0.05520312699238561,-0.1253534103501743,0.0015569802163236345
1789141058551615200,6.456615234375,-0.03667088629270546,-0.12390279991754756,0.029950209929616122
1789141058561587500,6.46658740234375,-0.016174876543103966,-0.07749991658042707,-0.022300464312661084
1789141058571560200,6.476560302734375,0.02616113528900124,-0.07756207468274622,-0.01998274689535514
1789141058581532200,6.4865322265625,0.03281009858179089,-0.04857917194487187,-0.08469076800819977
1789141058591504400,6.49650439453125,0.028244317185269905,-0.04316195147146875,-0.053731331560200206
1789141058601477000,6.50647705078125,-0.010311371168478783,-0.04142199676500882,-0.04866684288166545
1789141058611449300,6.516449462890625,0.018840392684314273,-0.04442165386648738,-0.039798588609162
1789141058621421300,6.52642138671875,0.04915958439428527,-0.01497605836136095,-0.06250402454810473
1789141058631394000,6.53639404296875,0.059810123252803465,0.006511059647540936,-0.052678568955522274
1789141058641366300,6.5463662109375,0.041100120784974506,-0.03357447008947939,-0.002701626683695022
1789141058651338200,6.556338134765625,0.06185287763015862,-0.03642713838703546,0.001958412794599836
1789141058661311200,6.566311279296875,0.0396569396331447,0.008702185027945791,-0.02589132963219989
1789141058671283200,6.576283203125,0.05819648562841834,0.0021398554776499543,-0.04113391050786202
1789141058681255400,6.58625537109375,0.0619279349440057,-0.03551222058980417,0.004629186843149111
1789141058691228200,6.596228271484375,0.07314467694697405,0.004223905612635947,-0.04348511123336165
1789141058701200100,6.6062001953125,0.041902337041097644,0.010888903967932637,-0.03889191073698946
1789141058711172400,6.61617236328125,0.041599451338405716,-0.02317409262102808,-0.011165137305692218
1789141058721145000,6.62614501953125,0.0563364343660538,-0.024718347739980304,0.05986813770223903
1789141058731117300,6.636117431640625,0.11513576824044239,0.019187620175259802,0.002720208202188505
1789141058741090300,6.64609033203125,0.12490782948575267,-0.002772679865383448,-0.03149829791173335
1789141058751062300,6.656062255859375,0.09330467285364666,-0.019256164094815727,-0.026335980545816207
1789141058761034200,6.6660341796875,0.07387920724852745,-0.038977375802304336,0.013225318110965804
1789141058771007200,6.67600732421875,0.05094658148826488,0.01208097553111862,-0.07848682841169854
1789141058780979200,6.685979248046875,0.0821826626380632,0.030974048355237756,-0.05327720381342861
1789141058790951200,6.695951171875,0.06087002521925285,0.03212804450828474,-0.0274285580388909
1789141058800924400,6.70592431640625,0.10057011965660724,0.0410543862975957,0.001028219881764347
1789141058810896100,6.715896240234375,0.10964067206649115,0.06867017615842542,0.001531580246611618
1789141058820868400,6.725868408203125,0.08953836459868234,0.06321695252022151,0.009852717722647555
1789141058830841300,6.73584130859375,0.09058973968680425,0.07173407221610661,0.012462357675659215
1789141058840813000,6.74581298828125,0.1336511174271677,0.08204073773087026,0.04635975286280458
1789141058850785300,6.755785400390625,0.1411630910551475,0.08201441387916253,0.035711771938047344
1789141058860758300,6.76575830078125,0.09716273145662445,0.08399389686636323,-0.00028234220032539287
1789141058870730200,6.775730224609375,0.06941731693893013,0.08171737086504488,0.005044115070807601
1789141058880703200,6.785703125,0.0838456608621757,0.10256121044994501,-0.017573362060568268
1789141058890675200,6.79567529296875,0.09341820778707266,0.11668732942218171,-0.02827528657430098
1789141058900647200,6.805647216796875,0.12348810559299879,0.1235281159006903,-0.008565451579075558
1789141058910620200,6.8156201171875,0.10667500147838666,0.14587815628024783,-0.0451935509855474
1789141058920592400,6.82559228515625,0.10181510248816852,0.16411928889976246,-0.023860281212978306
1789141058930564000,6.835564208984375,0.09605290113679904,0.16435715004680077,0.05087438905903722
1789141058940537000,6.845537109375,0.09200898693503387,0.1711511970667635,-0.04491581864067959
1789141058950509300,6.85550927734375,0.11437704145347806,0.1799079969854371,-0.049546147691078325
1789141058960481300,6.865481201171875,0.0767964890681117,0.18202379790031137,0.0420037152413453
1789141058970454300,6.875454345703125,0.06184752918890981,0.17927122538429985,0.04069996281602494
1789141058980426200,6.88542626953125,0.08462072365235439,0.19142370322579,-0.02167694034837389
1789141058990398200,6.895398193359375,0.06224444131968177,0.17274840842976577,0.013900064307074037
1789141059000371200,6.90537109375,0.06268055418172204,0.1838323847750916,0.006321268744324157
1789141059010343400,6.915343505859375,0.06605450592079887,0.22120312836340805,-0.05608906825655159
1789141059020315100,6.925315185546875,0.0460196537944689,0.2030079281225457,-0.027304012770391097
1789141059030288100,6.9352880859375,0.05200174636226944,0.19467761841668563,-0.008097072584254943
1789141059040260400,6.94526025390625,0.04505264117009328,0.21897038133232896,-0.023066094727502873
1789141059050232000,6.955232177734375,0.0455042700429809,0.2192041193709248,0.011835727073339049
1789141059060205300,6.965205322265625,0.03335334154589024,0.20830745869086714,0.005166893999538359
1789141059070177300,6.97517724609375,0.03527337375439924,0.2044344385387393,0.007222840690441994
1789141059080150300,6.985150390625,-0.0038674931317467225,0.2040305754013229,0.01721343848618579
1789141059090122200,6.995122314453125,-0.021047180733244637,0.18032574846684793,0.026249649832045547
1789141059100094000,7.005093994140625,0.0008914161306338002,0.19001373187087015,-0.015380181207989821
1789141059110067200,7.015067138671875,0.0031456783885665247,0.18624469630533688,-0.01982465977203113
1789141059120039200,7.0250390625,-0.024548747088662233,0.18760486546350555,-0.008354360984140339
1789141059130011100,7.03501123046875,-0.014163600620422297,0.18265206623044003,-0.026583125546701766
1789141059139984100,7.044984130859375,-0.0506939462971502,0.16838382691673054,0.01677326867261495
1789141059149956400,7.054956298828125,-0.04657980532028628,0.15260115946613872,0.014844512264754424
1789141059159928000,7.064927978515625,-0.027663407340191553,0.18237245742382222,-0.03846421653559996
1789141059169901000,7.074901123046875,-0.04302799578320965,0.1420024465115317,0.03954550143259773
1789141059179873300,7.084873291015625,-0.07399612061102809,0.150242999287022,-0.0015751290545383265
1789141059189845000,7.094844970703125,-0.11406671287315491,0.1406287415764003,0.04347432916810803
1789141059199818200,7.104818359375,-0.09820890563935672,0.16088663796553415,0.045346019131606276
1789141059209790200,7.114790283203125,-0.0872950850691836,0.14854554516597326,0.07497499870091974
1789141059219762200,7.12476220703125,-0.09488328816781605,0.1344672534803174,0.04707233669968975
1789141059229735200,7.134735107421875,-0.1332181872250725,0.08986757401696996,0.052358239185763704
1789141059239707100,7.14470703125,-0.10559819866065318,0.10079173253492611,0.10809743794071004
1789141059249679000,7.15467919921875,-0.1325874546215655,0.08888183966539238,0.10333741656740471
1789141059259652000,7.164652099609375,-0.09206777283610372,0.05296571831358249,0.06965115386476031
1789141059269624300,7.174624267578125,-0.140843372430314,0.029837753060952644,0.08918810474627308
1789141059279597000,7.18459716796875,-0.175304684630653,0.025353414821808747,0.017420379885950046
1789141059289569000,7.194569091796875,-0.17933101511248314,0.01731910331603358,-0.00664680997600642
1789141059299541200,7.204541259765625,-0.14616242850401123,-0.04150858267030371,0.10620442760500579
1789141059309514000,7.214513916015625,-0.17527140143772107,-0.002078815793831702,-0.006545295520446625
1789141059319486200,7.224486328125,-0.1589590286011047,-0.0880900462546294,0.09058617072387848
1789141059329458200,7.234458251953125,-0.24993470170790938,-0.035733237541725374,0.046321898336142454
1789141059339431200,7.24443115234375,-0.24877740166890377,-0.17511625574160886,0.19154178198750643
1789141059349403100,7.254403076171875,-0.2322016662008065,-0.12841721862009495,0.005659699360630845
1789141059359375400,7.264375244140625,-0.16720462635338057,-0.15910514689307018,0.1210351552302485
1789141059369348000,7.27434814453125,-0.20931568297043626,-0.08758626632158818,0.064687627746581
1789141059379320000,7.284320068359375,-0.1639381139083801,-0.12150996987212176,0.0620138330218559
1789141059389292300,7.294292236328125,-0.16176670194365342,-0.08365968108206569,0.030034253889722497
1789141059399265000,7.30426513671875,-0.24205523408053775,-0.09299617624086753,-0.10701645537664418
1789141059409237200,7.3142373046875,-0.26715909555583844,-0.13824426577000534,-0.19341250309312688
1789141059419209200,7.324209228515625,-0.2712580943281103,-0.14217388094435401,-0.21832771965286277
1789141059429182000,7.334181884765625,-0.1942444415097887,-0.03328241131743825,-0.24139318248379527
1789141059439154200,7.344154296875,-0.1683666324659498,0.025173825902304745,-0.025308600293282236
1789141059449127200,7.354127197265625,-0.10680372900909693,-0.04683077958967514,0.08832956802221933
1789141059459099100,7.36409912109375,-0.07728112225745687,-0.011585452208788849,-0.1616150470031147
1789141059469071000,7.374071044921875,-0.20424881822656765,-0.11075718267798106,0.1164758472212033
1789141059479044000,7.384044189453125,-0.2880780115703046,-0.10699251659037465,0.08132460350906945
1789141059489016000,7.39401611328125,-0.28671084931311935,-0.16421716222772736,0.06145328358108127
1789141059498988000,7.403988037109375,-0.30039462410015094,-0.1857260020520711,0.044608493409253
1789141059508961300,7.413961181640625,-0.2597396164219471,-0.14596562547800043,-0.04027745416269131
1789141059518933000,7.42393310546875,-0.18330809783261354,-0.12732308914278034,-0.03636102515816157
1789141059528905200,7.4339052734375,-0.21637132689273386,-0.13047803456343035,-0.04501863091696093
1789141059538878200,7.443878173828125,-0.1443638945195561,-0.12048841511794063,-0.04432369580382122
1789141059548850200,7.45385009765625,-0.1516913283503167,-0.13360126598027078,-0.05546721641191465
1789141059558822100,7.463822265625,-0.1898541479327812,-0.17879337779142085,-0.06872690318187195
1789141059568795100,7.473795166015625,-0.2762812511317297,-0.21813025352440685,-0.12329628678843693
1789141059578767000,7.48376708984375,-0.2068765504788967,-0.2564999436017227,0.0324214602838515
1789141059588739000,7.493739013671875,-0.27236630776778287,-0.24935005947846625,0.07173869942044922
1789141059598712300,7.50371240234375,-0.23042995962429846,-0.248740481236944,-0.005328597109304556
1789141059608684000,7.51368408203125,-0.20753237150602663,-0.2761641262345433,-0.03229029591452426
1789141059618657000,7.523656982421875,-0.2256984665168956,-0.3178453676458675,0.0013377174246797586
1789141059628629200,7.533629150390625,-0.25370006258331823,-0.33038301475648,-0.12680409353099428
1789141059638601000,7.54360107421875,-0.1817967412732183,-0.28765415159272073,-0.2375680014336412
1789141059648574200,7.55357421875,-0.13734049881738816,-0.23510390504309053,-0.12904879131471297
1789141059658546200,7.563546142578125,-0.15912533917276375,-0.247999046064454,-0.04473226256207472
1789141059668518100,7.57351806640625,-0.19151508976886172,-0.34720076989356397,0.10794526380140713
1789141059678491100,7.5834912109375,-0.19213745684844694,-0.35761595283451686,0.1607499546219844
1789141059688463000,7.593463134765625,-0.2254725833046265,-0.3772106496835975,0.279256088749499
1789141059698435000,7.60343505859375,-0.1492828349154418,-0.34210418798703157,0.15330622578800818
1789141059708408000,7.613407958984375,-0.15100644779474034,-0.3591808261180341,0.1404950312413142
1789141059718380300,7.62338037109375,-0.12054469424405542,-0.3343603063689527,0.023803254869395774
1789141059728352000,7.63335205078125,-0.1289572662011068,-0.3692827599967679,-0.012124208896142193
1789141059738325000,7.643324951171875,-0.13734222142317334,-0.3481213803706902,-0.09608467572540458
1789141059748297200,7.653297119140625,-0.11739893766448185,-0.33924408782893023,0.026286943227741815
1789141059758269200,7.663269287109375,-0.10085588126264547,-0.3097497813448914,0.027294256570254995
1789141059768242200,7.6732421875,-0.061282357955803314,-0.3492334254957707,0.09004970008002493
1789141059778214100,7.683214111328125,-0.08236595414590026,-0.3189805914916228,0.07457709206755178
1789141059788187100,7.693187255859375,-0.07154959986127826,-0.3306427009158693,0.1203011998062793
1789141059798159000,7.7031591796875,-0.1323681021586732,-0.356319938364932,0.047791254846484596
1789141059808131300,7.71313134765625,-0.10603697901988508,-0.377586173284264,0.03665185830925325
1789141059818104000,7.72310400390625,-0.17622024940808026,-0.3783037470532137,0.036374134909040394
1789141059828076000,7.733075927734375,-0.09093238800580869,-0.3377993903759538,0.024983347117629034
1789141059838048300,7.74304833984375,-0.052519297174175514,-0.2795947861469622,-0.010403239182578568
1789141059848021000,7.75302099609375,-0.03856372036471922,-0.270031556101258,0.08901188839248399
1789141059857993200,7.7629931640625,-0.0071469404347335955,-0.23809519599138673,0.07296199086422181
1789141059867965200,7.772965087890625,0.01265162288346016,-0.22733730570519695,0.04842131151622289
1789141059877938000,7.78293798828125,0.001960320463897035,-0.24473335387621561,0.015615751065841676
1789141059887910100,7.79291015625,-0.058285345155679485,-0.28722910257157436,0.07491808657003629
1789141059897882000,7.802882080078125,-0.03700655765595135,-0.2428710200653293,0.003264772765158078
1789141059907855000,7.812855224609375,-0.02154439650740871,-0.22105474164394182,0.018978168714808914
1789141059917827000,7.8228271484375,0.017210405611578352,-0.19155979991870742,-0.017653013635081052
1789141059927799300,7.83279931640625,0.026340741011855632,-0.17765379077731536,-0.03525376129397572
1789141059937772000,7.84277197265625,0.05603998193833519,-0.16304947077858917,-0.0054108784252741475
1789141059947744300,7.852744140625,0.04581793726824494,-0.15107924380052978,-0.0021482989941885083
1789141059957716200,7.86271630859375,0.061918596692962354,-0.14249409107432465,-0.01456322264105866
1789141059967689000,7.87268896484375,0.05529144105486544,-0.16250546283285286,0.047746834881397006
1789141059977661200,7.8826611328125,0.06255735128416255,-0.18422033720291334,0.09032563280798148
1789141059987634200,7.89263427734375,0.0453436493475212,-0.1921323936473007,0.08532095606026457
1789141059997606100,7.902606201171875,0.03389029029498283,-0.1847421034256362,0.07580688561550315
1789141060007578000,7.912578125,0.03148640167692839,-0.1994554965394115,0.12140695222083814
1789141060017551000,7.922551025390625,0.06914334889774373,-0.17791244142213467,0.06296445179879556
1789141060027523000,7.932523193359375,0.026416162809910562,-0.2004843834728481,0.025059687236109057
1789141060037495000,7.9424951171875,0.04930710839715524,-0.18397052254155907,0.025089658250439628
1789141060047468300,7.95246826171875,0.05554208198646903,-0.17424692164614286,0.004445920895908322
1789141060057440000,7.96243994140625,0.043568153900335825,-0.19541692982863929,-0.003585327186041824
1789141060067412200,7.972412109375,0.04711911557645507,-0.2104968214959417,0.0034110837988816436
1789141060077385200,7.98238525390625,0.06371096684922296,-0.2014126255685242,0.04707160734159055
1789141060087357200,7.992357177734375,0.07626439362475759,-0.22008514439565577,0.07441838511041172
1789141060097329200,8.0023291015625,0.08768291321365734,-0.19997242388086445,0.0710804078817116
1789141060107302100,8.01230224609375,0.08117040720006002,-0.1826166273528668,0.0943860295322489
1789141060117274400,8.0222744140625,0.03780891945020808,-0.2010343646909723,0.04043325125272222
1789141060127246000,8.03224609375,0.0506479610552151,-0.21918132095252915,0.04098427987065782
1789141060137219000,8.042218994140624,0.04403447314249688,-0.17654979472244378,-0.0422636673248014
1789141060147191300,8.05219140625,0.08294251219550348,-0.13441519436930852,-0.039302709062785
1789141060157163300,8.062163330078125,0.10098776698119322,-0.13038571561459023,0.017616650583982086
1789141060167136300,8.07213623046875,0.13277044561536896,-0.11670834655262222,-0.03341200392834864
1789141060177108200,8.082108154296876,0.1179075841387777,-0.1045806949489821,0.008719240972321206
1789141060187081200,8.092081298828125,0.11575819996158489,-0.1044604402473031,0.023253554495127116
1789141060197053200,8.10205322265625,0.12172536944729047,-0.10927712546059276,-0.03519264437191691
1789141060207025400,8.112025390625,0.08557025700838336,-0.08963317235904006,0.0031390024064956554
1789141060216998100,8.121998046875,0.08040852176420196,-0.057014963030239105,0.016516197057761663
1789141060226970000,8.13197021484375,0.14634831581693072,-0.04457830235965013,-0.007644337758166861
1789141060236942300,8.1419423828125,0.15294887396548895,-0.07086420331673396,0.0034509525637682094
1789141060246915000,8.1519150390625,0.1389814598266374,-0.07293595554610215,0.012756965101335168
1789141060256887300,8.16188720703125,0.1552507215523619,-0.017960396207656496,-0.009135454282550744
1789141060266859300,8.171859375,0.15202930827398203,0.019337950956360754,-0.04672839945525354
1789141060276832000,8.18183203125,0.13376331652423332,-0.013819321257779278,-0.018250676635523412
1789141060286804200,8.19180419921875,0.13635665807556777,0.008516933950238274,0.02453789444527701
1789141060296776200,8.201776123046875,0.12538805828940305,0.06562152435397042,-0.05701252914361467
1789141060306749200,8.211749267578124,0.17532521194510647,0.04051496696235434,0.008127601212398396
1789141060316721200,8.22172119140625,0.17943516928034006,0.0920560160243786,0.009248996191617646
1789141060326693400,8.231693359375,0.15159182273385957,0.09229094208825576,-0.01682414689969462
1789141060336666000,8.241666015625,0.16107676866049928,0.05269355564826066,-0.00044658839320201016
1789141060346638000,8.25163818359375,0.10419993129006451,0.05516626515907723,0.008091402866861736
1789141060356610300,8.2616103515625,0.1231077897284663,0.036207635636484645,0.038521952205098846
1789141060366583000,8.2715830078125,0.15287321911509993,0.037768631581552185,0.03548064569639873
1789141060376555300,8.28155517578125,0.16465101721448772,0.05898334916847877,0.008889133916655757
1789141060386527200,8.29152734375,0.1362452156898335,0.024716165628302058,0.03770687292803604
1789141060396500200,8.301500244140625,0.11660756202372859,0.02157032864031547,0.02288262852022047
1789141060406472200,8.31147216796875,0.12471229640673452,0.04787021505112308,-0.0008593113291191991
1789141060416445200,8.321445068359376,0.14744404293827937,0.03957265425580722,0.007954936528838042
1789141060426417200,8.331417236328125,0.15954475206178528,0.038817062374311324,0.006462475382013681
1789141060436389000,8.34138916015625,0.12119940736945035,0.04822627595505371,0.01959245562004245
1789141060446362400,8.3513623046875,0.09538839696495299,0.03573368959030511,0.01172600374329288
1789141060456334000,8.361333984375,0.1261848493363438,0.017029981881850148,0.004428791744305679
1789141060466306300,8.371306396484375,0.14050271619275206,0.054415395538362464,-0.015714345869054933
1789141060476279300,8.381279296875,0.14676386860194116,0.056883724297415644,0.04097212679645072
1789141060486251000,8.3912509765625,0.15419844593340826,0.051884710233406205,0.02548000640634312
1789141060496223200,8.40122314453125,0.11923171044586302,0.04766916784166222,0.04308213398472142
1789141060506196200,8.4111962890625,0.09312300040710188,0.040828468893933496,0.03700272238152918
1789141060516168200,8.421168212890626,0.11075605946673425,0.044123660434098114,-0.0013964612251085031
1789141060526140200,8.43114013671875,0.07686130845685765,0.07089065286119961,-0.005506223254871035
1789141060536113200,8.441113037109375,0.08804314557238797,0.07944213621648716,0.006284192633242561
1789141060546085000,8.451085205078124,0.10612234581641726,0.11324255773588077,-0.009583317488268005
1789141060556057000,8.46105712890625,0.15787456619243587,0.1505445802992109,0.03452677576152411
1789141060566030300,8.4710302734375,0.13981071421387972,0.16306006563860312,0.007480005127581905
1789141060576002000,8.481001953125,0.13251769876837777,0.15182124632343036,0.026927557178766687
1789141060585975300,8.490975341796876,0.07598306019601303,0.1364584795403049,0.03263368042279937
1789141060595947300,8.500947265625,0.06103778569222008,0.10296666427411512,0.024577737557551816
1789141060605919200,8.510919189453125,0.0428143320238124,0.12249267408389376,-0.005206349439220087
1789141060615892200,8.520892333984374,0.04666829937632644,0.1277359045276756,-0.012302274424004106
1789141060625864200,8.5308642578125,0.08853562220822103,0.12985887932483076,-0.006750881307957773
1789141060635836200,8.540836181640625,0.07518890152575375,0.15708576830264737,-0.03411831457916251
1789141060645809200,8.55080908203125,0.07751276832455431,0.16493095282546977,-0.009211001525640371
1789141060655781400,8.560781494140626,0.05753075638688131,0.15424828988883088,0.010033498058571016
1789141060665753000,8.570753173828125,0.05473941087507605,0.1632096643012685,-0.050623636965246535
1789141060675726000,8.58072607421875,0.06213952413635444,0.16906156743860096,-0.015181869024422269
1789141060685698300,8.5906982421875,0.023287926434845434,0.15958602232867955,0.005849896537576946
1789141060695670000,8.600669921875,0.030812916737089475,0.14954290786816166,0.019911633268124056
1789141060705643300,8.610643310546875,0.0705656409893657,0.18407419865315625,-0.0017091033634181903
1789141060715615200,8.620615234375,0.05466243196518353,0.2199184807801027,0.01920168826760593
1789141060725587200,8.630587158203125,0.0757856527140224,0.19526334463192582,0.0011978073679593587
1789141060735560200,8.640560302734375,0.05975354154517318,0.15230433786458783,0.01009632895151487
1789141060745532200,8.6505322265625,0.019612273979811187,0.15086369427384558,0.001725801971945694
1789141060755504000,8.660504150390626,0.01813381910396406,0.1079604784154647,0.07640877208735822
1789141060765477000,8.67047705078125,0.06320659123562633,0.12492054490101445,0.006212493229360609
1789141060775449300,8.680449462890625,0.059060980494421565,0.10178643069782752,0.046765434028873565
1789141060785422300,8.69042236328125,0.009855906880923035,0.0863911203667731,0.024209237397584127
1789141060795394300,8.700394287109376,0.00580770081353382,0.05604194283107635,-0.0007645845985995083
1789141060805366300,8.7103662109375,-0.054518445348942755,0.028265908661414773,-0.03484602367813458
1789141060815339300,8.72033935546875,-0.033353246711277935,0.022792079206281977,-0.001198052363946465
1789141060825311200,8.730311279296876,-0.02881705177235147,0.05995203854115361,-0.09728427180939161
1789141060835283200,8.740283203125,0.0246408936016398,0.04788366551061525,-0.040101684462714865
1789141060845256400,8.75025634765625,-0.02265893212258209,0.035328494632047736,0.004942997211992142
1789141060855228200,8.760228271484374,0.009873857001285472,0.005700023482956715,0.05544072457129688
1789141060865200400,8.770200439453125,-0.030835444437309227,-0.0026468552848464277,0.04309194932964911
1789141060875173400,8.78017333984375,-0.023335579416087254,-0.00368790259634565,0.06140542167965732
1789141060885145000,8.79014501953125,-0.034797547161416593,-0.003540902607696299,0.032911874168626024
1789141060895117300,8.800117431640626,-0.012935651184441578,-0.022396414381222675,0.03622336485040848
1789141060905090300,8.81009033203125,-0.025008949120896858,-0.025184927988526996,-0.03547217602786184
1789141060915062300,8.820062255859375,-0.02987995423803628,-0.04001741634635835,-0.07721938453525144
1789141060925034200,8.8300341796875,-0.04414133937655862,-0.0700942954470002,-0.03718155352262253
1789141060935007200,8.84000732421875,-0.029270089749617832,-0.08798571844035183,-0.014740511440663639
1789141060944979200,8.849979248046875,-0.03764267565218089,-0.1064975905030978,-0.011782285306928635
1789141060954951200,8.859951171875,-0.04769110919789745,-0.1557273719923936,-0.014983820138757301
1789141060964924400,8.86992431640625,-0.11801739295982945,-0.23043754024230234,0.02542135579338884
1789141060974896000,8.879896240234375,-0.10857598004944666,-0.24864901754773439,0.015363836443359188
1789141060984868400,8.889868408203125,-0.11205264593807053,-0.2539607016503898,0.01273967601178133
1789141060994841000,8.899841064453126,-0.1193996388819203,-0.2487740870164853,-0.004206564078655976
1789141061004813300,8.909813232421875,-0.09518094474538483,-0.2579828806131522,0.021799338969746517
1789141061014786300,8.919786376953125,-0.08993600573287672,-0.22902253121815117,-0.009121036846952152
1789141061024758000,8.929758056640624,-0.08479679376669742,-0.22609218487974198,0.025282988400104386
1789141061034730200,8.939730224609375,-0.11195014668189461,-0.2234298151110701,-0.00289154186473565
1789141061044703200,8.949703125,-0.06877466715485925,-0.21684957439738983,-0.024818791102766108
1789141061054675200,8.95967529296875,-0.10167044163492658,-0.20294051451820727,-0.016675373904936237
1789141061064647200,8.969647216796876,-0.07561006489912815,-0.19348790469352314,0.0004515019999707712
1789141061074620200,8.9796201171875,-0.09195869432125886,-0.1940265786998047,-0.024460946446504532
1789141061084592000,8.989592041015625,-0.09720571094033457,-0.16761091113368498,-0.024876107297737662
1789141061094564600,8.999564697265624,-0.056853665498089595,-0.17522495688763054,0.02514825758456505
1789141061104537600,9.00953759765625,-0.09010166224019137,-0.20495638820585235,-0.04024251595914312
1789141061114509800,9.019509765625,-0.09037344176680402,-0.19307839795299525,-0.053567729198530846
1789141061124481800,9.029481689453124,-0.06881390180206937,-0.15486246047846128,-0.0662010668600418
1789141061134454800,9.039454833984376,-0.04299807633567188,-0.16096598941032722,-0.005437973234794683
1789141061144426800,9.0494267578125,-0.033541372932384204,-0.15246867647644974,-0.004815881342037912
1789141061154398700,9.059398681640625,-0.02755622700797025,-0.14233914937158137,-0.022610811804168306
1789141061164371700,9.069371826171874,-0.053950673221529945,-0.1580645596761015,-0.0023842278870301165
1789141061174344000,9.079343994140626,-0.09428460065421553,-0.1705104836469017,0.04014337087082631
1789141061184315600,9.089315673828125,-0.03357846314836553,-0.20067724423644204,0.01436027760760288
1789141061194288600,9.09928857421875,-0.05075824925491479,-0.20449700201860715,0.011804139487156123
1789141061204260900,9.1092607421875,-0.031495149348188894,-0.17853687659779757,0.0340470153294074
1789141061214232600,9.119232666015623,-0.036177137915031514,-0.18620692938568847,0.02936144371196991
1789141061224205800,9.129205810546877,-0.007699990577881345,-0.17104806863869693,-0.03300359168676738
1789141061234177800,9.139177734375,-0.01825919277915027,-0.1720846336724926,0.01153193912970555
1789141061244150500,9.149150634765626,0.013605198595586988,-0.1775740438099121,0.031788890547607515
1789141061254122800,9.159122802734377,0.019342521741133024,-0.15613938662398338,0.004681995520174681
1789141061264094700,9.1690947265625,-0.004305814419539876,-0.19155925197311593,0.03317210726785975
1789141061274067700,9.179067626953126,0.029792047548638085,-0.20594770946691665,0.0644253953964105
1789141061284039700,9.189039794921875,0.03705439247249462,-0.1736509554941088,0.017602070433943618
1789141061294012000,9.199011962890625,0.031432926628575254,-0.1600059085332228,-0.01580115520468198
1789141061303984600,9.208984619140624,0.05234621510286258,-0.12770362498536128,0.005832976562305883
1789141061313956900,9.218956787109375,0.07941020359631676,-0.12017824355486668,0.028544751264999856
1789141061323928800,9.2289287109375,0.08846875734872263,-0.09315508598775374,-0.042363823626777965
1789141061333901600,9.238901611328124,0.09735618847996559,-0.06824586184116246,0.013935578005155875
1789141061343873800,9.248873779296876,0.12966240645704755,-0.05016458958216785,0.02763976699985482
1789141061353845800,9.258845703125,0.13197379480861665,-0.0649480350413042,0.012544084231315944
1789141061363818800,9.26881884765625,0.11671416736835974,-0.06923048403168966,0.04819708078564772
1789141061373790700,9.278790771484376,0.12675690451792127,-0.039974301730041246,0.01710720657726942
1789141061383762700,9.2887626953125,0.10463272670085835,-0.02243064000720517,0.004594123444927228
1789141061393735700,9.298735595703125,0.09615294395381968,-0.010151324871810977,0.030352865581896375
1789141061403707600,9.308707763671874,0.10711122052326706,0.02103155488217975,0.0002669387805630172
1789141061413679600,9.3186796875,0.12277015275987548,0.04058189716467494,-0.006356725475208584
1789141061423652600,9.328652587890623,0.1175599408367686,0.07535905492114525,-0.034588664795383986
1789141061433624800,9.338624755859374,0.15931728857862143,0.08560818079188716,-0.0074568289174808495
1789141061443596500,9.348596435546876,0.1623554376873786,0.12897704820560485,-0.0709700795699775
1789141061453569500,9.358569580078123,0.14133131127162765,0.1309319372334861,-0.052654506460891225
1789141061463541800,9.368541748046876,0.14611385764520055,0.14520605160127448,0.0006139622484563755
1789141061473514800,9.3785146484375,0.12049784591529332,0.15190688554887832,-0.015902923043775292
1789141061483486700,9.38848681640625,0.13042016392044178,0.16581150912700246,-0.03704967256080066
1789141061493458700,9.398458740234377,0.1098224777725427,0.15712058949261057,-0.030672442523993076
1789141061503431700,9.408431640625,0.12837250074667575,0.1488003370572079,-0.008739870602064374
1789141061513403600,9.418403564453126,0.11008947450982635,0.12792386328678748,-0.00896892508321781
1789141061523375900,9.4283759765625,0.12368564202343728,0.15456474844321647,0.004408851433815288
1789141061533348900,9.438348876953125,0.10765668101579494,0.169115999201565,0.0034179507994323848
1789141061543320600,9.448320556640626,0.13828867133447742,0.17157623629907817,-0.021217351337882037
1789141061553292800,9.458292724609375,0.11636359851009155,0.141815919712064,-0.004122882428129847
1789141061563265800,9.468265869140623,0.09563752773895028,0.1311931445734975,0.0018255464966769205
1789141061573237800,9.47823779296875,0.10633488774097646,0.13813806100922596,-0.0010644637367280144
1789141061583209700,9.488209716796876,0.11561814113754902,0.12641769010733192,-0.0009003595133511764
1789141061593182700,9.4981826171875,0.11607748979646068,0.09593239568563759,0.026846071300759486
1789141061603154700,9.50815478515625,0.06172140063940985,0.09147208198840387,-0.01755055582227725
1789141061613126700,9.518126708984376,0.026688105669059943,0.04653111457749254,0.003878695144683401
1789141061623100000,9.528099853515624,0.030745079022749262,0.02791170773082536,-0.017546777196211918
1789141061633071600,9.538071533203125,0.052814503788781074,0.06997493893760108,-0.02622627985211016
1789141061643043800,9.5480439453125,0.06505135389525987,0.09727081300516902,-0.04600682481564601
1789141061653016800,9.558016845703126,0.08916943187446609,0.0890137888782447,-0.04431744393261074
1789141061662988500,9.567988525390623,0.08042315060382,0.09610238057619845,-0.031268725037235254
1789141061672961800,9.5779619140625,0.04270540356795939,0.0905747097682304,-0.026208884543655935
1789141061682933800,9.587933837890626,0.06247451696370585,0.08729410640558231,-0.05314999208368239
1789141061692905700,9.59790576171875,0.04452276146526316,0.08295798073211814,-0.015239858455188644
1789141061702878700,9.607878662109377,0.035461558452205506,0.07613972805840813,-0.023674906901151187
1789141061712850700,9.6178505859375,0.037761614859802374,0.10072733722140571,-0.03017155735069989
1789141061722822700,9.62782275390625,0.010509991590946215,0.09302481921725898,-0.018779395216747256
1789141061732795600,9.637795654296877,0.004428126039802514,0.04713367772193676,0.0021718578705049243
1789141061742767900,9.647767822265624,0.020184100707114544,0.06401088060342718,0.012074785135835917
1789141061752739600,9.657739501953126,0.011005056443087543,0.06192866692689849,0.024746929621155607
1789141061762712800,9.667712890625,0.045517035469927226,0.014634668913113913,0.030244897759782206
1789141061772684800,9.677684814453125,0.01777721284907508,-0.0022585379522196795,-0.02016410381242382
1789141061782656800,9.68765673828125,0.0025973729278522106,-0.005990584675628745,0.0018711650826757442
1789141061792629800,9.697629638671875,-0.03172439988679869,-0.013412527747204112,-0.04739705940399434
1789141061802601700,9.707601806640625,-0.027204781716700766,-0.005504197255632966,-0.07874066104850237
1789141061812573700,9.71757373046875,-0.022381095411173082,-0.026404449633214994,0.012721488564522637
1789141061822546700,9.727546630859376,-0.004551872119087151,-0.028321447344984402,0.028110368908806457
1789141061832519000,9.737518798828123,0.008558484153568979,-0.030484753074983745,-0.043103801388972435
1789141061842490600,9.74749072265625,0.02923366705994228,-0.03524899692603731,0.012521443131075585
1789141061852463600,9.757463623046876,0.0023689782693786135,-0.04913719067901797,0.06751472373870243
1789141061862435800,9.767435791015624,0.005242044631482299,-0.03616860899373486,0.024679906560450868
1789141061872407600,9.777407470703125,0.00816484836638134,-0.06367966017877674,0.028726627581255756
1789141061882380800,9.787380859375,0.022714946513413624,-0.03252222467656792,0.008714153701276893
1789141061892352800,9.797352783203126,0.03745003633944805,-0.01286829387844185,0.02199014910005901
1789141061902325500,9.807325439453123,0.02523165854505562,-0.004056104616897088,-0.04017787747471684
1789141061912297700,9.817297607421876,0.047033918108846995,-0.010374616366166961,-0.05862352566793251
1789141061922269700,9.827269775390626,0.02169594718380276,0.012587669338918264,-0.07774631795640229
1789141061932242700,9.83724267578125,0.024989619671852432,0.00849128747440709,-0.03297984815814831
1789141061942214700,9.847214599609377,0.040012236956126504,0.042715390970641406,-0.07330321651344902
1789141061952187000,9.857186767578124,0.06934109392009469,0.054173705988173525,-0.08804779237288163
1789141061962159600,9.86715966796875,0.0854104055904247,0.05527182590005563,-0.04162048247576567
1789141061972131800,9.8771318359375,0.08353743690909132,0.05333907225599126,-0.02498320548937745
1789141061982103800,9.887103759765624,0.03155148801112483,0.021214252817499897,-0.04428454830244465
1789141061992076500,9.89707666015625,0.06563053778399647,-0.0017269786327633618,-0.0025579236258742714
1789141062002048800,9.907048828125,0.07438738226186174,0.038819849144928746,0.010597615326962389
1789141062012020700,9.917020751953125,0.08695441821361993,0.03945429508123068,0.025225986303893316
1789141062021993700,9.92699365234375,0.07921203961358679,0.034079025423730314,0.021367891686430284
1789141062031965700,9.936965576171875,0.07859176190049531,0.03988310059760611,0.011025498086288605
1789141062041938000,9.94693798828125,0.09087201292049732,0.04555747818902074,-0.017393880311053184
1789141062051910700,9.95691064453125,0.10540852788523618,0.05828125361117351,-0.023803207942878865
1789141062061882600,9.966882568359376,0.10239063944153246,0.0886971292790976,0.008484215515002069
1789141062071854800,9.976854736328123,0.09362673027221145,0.10338155688116767,0.004321432299470025
1789141062081827600,9.98682763671875,0.1290251843868431,0.10661311165379814,0.04370527342792463
1789141062091798800,9.996798828125,0.07136550607663192,0.1270226971027946,-0.003559962439281925
1789141062101770800,10.006770751953123,0.12237151872084989,0.1116076422327365,0.07649812906463864
1789141062111743700,10.01674365234375,0.1469182190849661,0.16057995520045656,0.043352333559507204
1789141062121715700,10.0267158203125,0.16515110720912937,0.17907813263022837,0.03853020360001301
1789141062131689000,10.03668896484375,0.10303237998658452,0.15879352534048322,0.014349963253634421
1789141062141660700,10.04666064453125,0.1359493246461522,0.17738232999944278,0.021776803905775844
1789141062151633000,10.0566328125,0.09198986745698834,0.2099404108942958,-0.02213886993632563
1789141062161606000,10.06660595703125,0.13949819706128372,0.20273386026685294,0.013321546780314851
1789141062171577600,10.07657763671875,0.103988150941674,0.2076513186568851,-0.00852733692830723
1789141062181549800,10.0865498046875,0.1160828215015628,0.18478809337560212,0.012496967122216868
1789141062191522600,10.0965224609375,0.11821360631674474,0.2241086544857778,-0.006861093027407796
1789141062201494800,10.106494873046875,0.11937936355720184,0.21070235834589515,0.034151230042691466
1789141062211466800,10.116466796875,0.09182556447764578,0.1881719397849042,-0.009950390777554087
1789141062221439500,10.126439453125,0.09953231745245798,0.20395856195091003,0.005559972111190731
1789141062231411700,10.13641162109375,0.0778327945324101,0.22877705748507818,0.023793055391420796
1789141062241383700,10.1463837890625,0.0895103451326314,0.20481689494555363,0.00758879724437056
1789141062251356700,10.156356689453125,0.12575173175187582,0.2317466260756842,0.02847523690071784
1789141062261328600,10.16632861328125,0.1269848299643578,0.23153410322419843,0.03863797190708154
1789141062271300900,10.17630078125,0.0833481770423419,0.19461484298763151,0.0715041715925271
1789141062281273600,10.186273681640625,0.046256650865530546,0.16257131895340657,0.030200634950423102
1789141062291245800,10.196245849609374,0.04932818242320434,0.16215841581046492,-0.0417512458524434
1789141062301217800,10.2062177734375,0.03413646682796302,0.16972302394155533,-0.018852393919199403
1789141062311190500,10.2161904296875,0.056807390879187895,0.12736183461749906,0.030841686132975568
1789141062321162800,10.226162841796874,0.07027940325004346,0.13936551703489028,-0.04923519350652269
1789141062331134700,10.236134765625,0.0294747288296249,0.14175997641812235,-0.04313336825633838
1789141062341107700,10.246107666015623,0.026765757060924315,0.10389774849509578,0.056608005952446125
1789141062351079700,10.25607958984375,0.00539833915544562,0.05241346642560416,0.055614261559651844
1789141062361052000,10.266052001953126,0.00582004216923503,0.07207916629885106,0.034094175040144704
1789141062371024600,10.276024658203124,-0.009444998968720905,0.06911161050803187,0.03244684038400128
1789141062380996600,10.28599658203125,-0.02336379120913271,0.041436193217604916,0.055200357196332074
1789141062390969900,10.295969970703124,-0.005144047134713233,0.06816698534579418,0.018661956848907046
1789141062400941600,10.305941650390626,-0.024747281801096265,0.07520378190078268,-0.024829809773850485
1789141062410913800,10.315913818359377,0.006027257017044478,0.07402493526007656,-0.008255360835609687
1789141062420886800,10.32588671875,-0.050387207178299524,0.08776905233240588,-0.011647378523916074
1789141062430858500,10.3358583984375,-0.004168942341930272,0.1001558222806885,0.02109902146169786
1789141062440830700,10.345830810546875,0.003581073580711312,0.12932846872694723,-0.024931825215452397
1789141062450803700,10.3558037109375,-0.029343602333366043,0.13441031001126638,-0.02797759798768043
1789141062460775700,10.365775634765624,-0.022721040031256176,0.11297537473275289,0.0317123276702327
1789141062470747600,10.37574755859375,-0.04900467913720425,0.15142570043336256,-0.007535128029071769
1789141062480720600,10.385720703125,-0.06757386412242712,0.15203444314858147,0.002134116177997679
1789141062490692600,10.395692626953124,-0.05591410957361555,0.16194434439581096,0.01825887189024984
1789141062500664800,10.405664794921876,-0.037027842305341806,0.17744597878596527,0.006487066229199384
1789141062510637800,10.415637939453124,-0.04662467284405737,0.19751010057389187,-0.011652884917211141
1789141062520609500,10.425609619140625,-0.05055902573022739,0.17925469413848055,-0.01789818443563937
1789141062530581800,10.435581787109374,-0.05938160183402956,0.18304720208057115,-0.04319832617292081
1789141062540554800,10.4455546875,-0.09376247350880922,0.19049113885769603,-0.008662795649759865
1789141062550526700,10.455526611328125,-0.08111400027997301,0.17568377026908508,0.04453405485309186
1789141062560498700,10.465498779296874,-0.06526341476503071,0.17044325954629433,0.0714049606321759
1789141062570471700,10.4754716796875,-0.09856503975695842,0.17469206064081283,0.025874932982766136
1789141062580443600,10.485443603515623,-0.06070330078499618,0.16014369045047905,0.05458785816715866
1789141062590415600,10.49541552734375,-0.11091305498180963,0.14692391518143155,0.01786364689723767
1789141062600388900,10.505388916015624,-0.07832109809042705,0.10701606396762516,0.037832618501494275
1789141062610360600,10.515360595703124,-0.11764561198798326,0.0928932567815997,-0.04364902778642763
1789141062620332800,10.525332763671877,-0.09837952450552476,0.07050072405180986,-0.04292254012766222
1789141062630305800,10.535305908203124,-0.1078822587317071,0.08315036756719744,-0.02437898443257481
1789141062640277500,10.545277587890626,-0.10465544106813456,0.05877549952084655,-0.010671724846108363
1789141062650250800,10.555250732421875,-0.11419229994578506,0.051075095894566484,-0.036484447395635215
1789141062660222700,10.56522265625,-0.09883876601886811,0.038488469388057105,0.009094349562315154
1789141062670194700,10.575194580078126,-0.12143316504127777,0.03204466559219801,0.009603912803183264
1789141062680167700,10.585167724609375,-0.0982930343798203,0.024148895597229707,0.024053621847810677
1789141062690139600,10.5951396484375,-0.10328598450596947,0.04999032692546534,-0.0073914489758525655
1789141062700111600,10.605111572265624,-0.1136104531264895,0.039255880526780376,-0.0022348345933123023
1789141062710084600,10.615084716796876,-0.1310047066457152,0.050739201212535855,-0.010626479265370276
1789141062720056800,10.625056884765623,-0.10864428355859013,0.08317514802494469,-0.009877677031351955
1789141062730028500,10.635028564453124,-0.0875320553799562,0.09883116138557005,-0.024825848572848877
1789141062740001800,10.645001708984376,-0.0772626265271072,0.09084784432341415,0.012091747866074823
1789141062749973800,10.654973876953123,-0.10686699400522823,0.09082783050747488,0.007382458566504084
1789141062759945700,10.66494580078125,-0.04703713161663881,0.10413974919385775,-0.0031632894529322005
1789141062769918700,10.674918701171874,-0.10452859130593876,0.08145374051922127,0.04404094851346252
1789141062779890700,10.684890625,-0.13788009677440577,0.06020639084913199,0.04026945402129259
1789141062789862700,10.694862548828125,-0.11368761673805503,0.05046761429518872,0.006102706897786477
1789141062799835600,10.704835693359374,-0.11778380615723788,0.03730543386232859,0.034674674504748065
1789141062809808000,10.714807861328126,-0.09983112551855566,0.05667519890212919,-0.03282867928773656
1789141062819779600,10.724779541015623,-0.08962968070644031,0.060701676800094036,-0.05371166076497141
1789141062829752600,10.734752685546876,-0.12961440097149607,0.023262793654763966,0.0061890783384953955
1789141062839724800,10.744724853515624,-0.1518404061815608,0.004028389941491282,0.007761670379125528
1789141062849696500,10.754696533203123,-0.15379687190854843,0.005772592328504436,-0.03107012793248375
1789141062859669800,10.764669677734377,-0.16064888066948133,-0.03386650096461448,0.02070931577354521
1789141062869641700,10.774641845703124,-0.14152866121265473,-0.0518805193225181,0.0403283133571949
1789141062879613700,10.78461376953125,-0.17232623510579492,-0.07047301952462366,0.035572836694077674
1789141062889586700,10.794586669921877,-0.15704918330237502,-0.09961556297954047,0.05750011453099622
1789141062899558700,10.80455859375,-0.17466769794761744,-0.09306886174796591,0.01182868296650975
1789141062909532000,10.814531982421874,-0.17853407423581816,-0.11172861496783096,-0.019839876713026307
1789141062919503600,10.824503662109375,-0.18585535401919626,-0.1198100163531234,-0.02720516017902666
1789141062929475800,10.834475830078125,-0.1336607150393748,-0.1218065621899678,-0.041548192998279804
1789141062939448800,10.84444873046875,-0.13487597664329726,-0.10174170947841196,-0.07855909644400802
1789141062949420800,10.8544208984375,-0.14058700126066082,-0.13937258691960178,-0.05437425420419533
1789141062959392800,10.864392822265623,-0.15811828956702964,-0.17703869835953723,-0.013418639259469749
1789141062969365800,10.87436572265625,-0.17246273548664667,-0.19080806839066924,0.03036632913010361
1789141062979337700,10.884337646484376,-0.17055265791123583,-0.22150178852628133,0.03192602619116414
1789141062989309700,10.894309814453123,-0.15517109144403102,-0.21510099232196653,0.057787005123852465
1789141062999282700,10.90428271484375,-0.12859502788094135,-0.19132387685302535,0.022211587641640253
1789141063009254700,10.914254638671874,-0.1333101300777182,-0.22324135938501946,0.043617601752498854
1789141063019227000,10.924226806640624,-0.17233180505919346,-0.22035368012670903,0.012701516390227555
1789141063029199600,10.93419970703125,-0.1097132930835614,-0.20898729373327715,-0.023132980922577737
1789141063039171600,10.944171630859374,-0.09553981184676494,-0.12689423495619262,-0.03927810084453673
1789141063049143800,10.954143798828126,-0.07125003050401033,-0.1060156260896435,-0.026451533128384337
1789141063059116500,10.964116455078123,-0.07198109376394417,-0.15817557552682085,0.001301199059799243
1789141063069088800,10.9740888671875,-0.02212039763905049,-0.16923403876909238,0.019878350266495468
1789141063079060700,10.984060791015626,-0.0769940134556052,-0.1663686150806299,0.01972354861135402
1789141063089034000,10.994033935546875,-0.03388714458853128,-0.18559828334626813,0.03361097008015707
1789141063099006000,11.004005859375,-0.08344112031322902,-0.2332569099709515,0.03804171655725885
1789141063108978000,11.01397802734375,-0.08009224025227347,-0.24586495216509605,-0.00604581735533011
1789141063118951200,11.023951171875,-0.08226003895251544,-0.25101036136899085,-0.020781003043696823
1789141063128923000,11.0339228515625,-0.05838192811926681,-0.21297654316541254,-0.04928614724510067
1789141063138895000,11.04389501953125,-0.014917994756838556,-0.20024887832942612,-0.03316193641728582
1789141063148868000,11.0538681640625,0.027429089752991964,-0.20017570673268748,-0.037602496141650656
1789141063158840000,11.063840087890624,-0.006766922228307027,-0.2078806295964402,-0.011559100312027
1789141063168813000,11.07381298828125,-0.011077997480159951,-0.25728133156771343,0.006347474237946171
1789141063178785000,11.083784912109374,0.03312411942329334,-0.2217290167222164,0.025523392526611576
1789141063188757000,11.093757080078126,-0.02161887647591364,-0.16337191086665714,0.007111100689456554
1789141063198730000,11.10372998046875,0.025431630176499638,-0.18208630305913878,0.06488420022913952
1789141063208702000,11.113701904296876,0.03434245467404794,-0.17449118283600926,0.03982683186599043
1789141063218674000,11.123673828125,0.0349107775206012,-0.10945816295844207,0.012153874728643745
1789141063228647000,11.13364697265625,0.03105380793676421,-0.10879809578970509,0.005990874060316995
1789141063238619000,11.143618896484377,0.07790621647836685,-0.0868625953077278,-0.008740273796686116
1789141063248590800,11.1535908203125,0.06221293865860471,-0.07285342106815024,0.010158464406154543
1789141063258564000,11.163564208984376,0.08882267387561692,-0.07023080540442386,0.03989890485617255
1789141063268535800,11.173535888671877,0.055492191076167936,-0.08559253457234813,0.046906954274377265
1789141063278508000,11.183508056640624,0.031921506525140884,-0.08347557920915022,0.03141150046332671
1789141063288481000,11.19348095703125,0.009415405060580587,-0.080136904358708,0.04335098339862781
1789141063298452700,11.20345263671875,0.03744538281155049,-0.05853749858439813,0.0020526381195990592
1789141063308425000,11.213425048828125,0.058655386994936755,-0.07370020453505699,-0.029543631619346488
1789141063318398000,11.22339794921875,0.059767703456586954,-0.05600660543524224,-0.03188878058051824
1789141063328370000,11.233369873046875,0.06005344633801379,-0.04727177732346952,-0.009152539747143877
1789141063338342000,11.243341796875,0.07306977967442384,-0.0249061845200158,-0.03669185893567541
1789141063348315000,11.25331494140625,0.07476666961940498,-0.06217507523792252,0.041175469473049814
1789141063358286800,11.263286865234376,0.006182213357355522,-0.08439009092336566,0.055792981435313686
1789141063368259000,11.273259033203123,0.07364933566065542,-0.07926839942222608,0.03785719823895685
1789141063378232000,11.283232177734376,0.03294927924620589,-0.08479739298587276,0.06902190671642175
1789141063388203800,11.293203857421876,0.09202049237802276,-0.06512560650167591,0.06893562256664804
1789141063398176000,11.303176025390623,0.06666268116139532,-0.061775843687963655,0.017311737830495125
1789141063408149000,11.31314892578125,0.04740087104356849,-0.06306299905526112,0.019406816990794842
1789141063418121000,11.323120849609374,0.06223035499455233,-0.055703238859218344,0.02248131960745428
1789141063428094000,11.333093994140626,0.04008313981076879,-0.04271865181134667,-0.04973165487243683
1789141063438066000,11.34306591796875,0.08528548601143639,-0.037584607073381696,-0.0365955538159907
1789141063448038000,11.353037841796874,0.036397554072801916,-0.026600197680683706,-0.058755746892824055
1789141063458011000,11.363010986328124,0.0708008711989703,0.001529817629609177,-0.08163306918305127
1789141063467983000,11.372983154296875,0.06467588359333842,-0.011786887344779744,-0.014130279896789054
1789141063477954800,11.382954833984376,0.08935606262189538,0.013040109205968254,0.003380148676558619
1789141063487927800,11.392927734375,0.0825632188946181,0.04561874008882016,-0.003927925799162476
1789141063497900000,11.402900146484376,0.1105625857320024,0.03962272382003074,0.03552997498106234
1789141063507871700,11.412871826171877,0.06806125067154012,0.010488653933668346,0.07052961963570831
1789141063517845000,11.422844970703125,0.07352153032577428,0.04825606852622151,0.01925360427423087
1789141063527817000,11.43281689453125,0.06055412723359717,0.04929394122309475,-0.0041834379139821945
1789141063537789000,11.442788818359375,0.06389425680669353,0.04907039117378943,-0.008218577711591527
1789141063547762000,11.452761962890625,0.043608241242517005,0.030239344668206644,0.02588426158105061
1789141063557734000,11.46273388671875,0.08699419766382696,0.0747993796778153,-0.015336285606820012
1789141063567705900,11.472705810546875,0.07958905015228826,0.06571868561693697,0.013921032126887608
1789141063577678800,11.482678955078123,0.06862097110237098,0.032390717852869885,0.05835354264264082
1789141063587651000,11.492651123046874,0.03497149652961906,0.012726846821941112,0.017386338245470652
1789141063597622800,11.502622802734376,0.03995068697294431,0.01950200374938626,-0.05375755470395742
1789141063607596000,11.512595947265623,0.05552365857212668,-0.01018918589712096,-0.028194416264689815
1789141063617568000,11.522568115234376,0.05084152025791645,0.002644609416973855,-0.03624380885961179
1789141063627540000,11.5325400390625,0.09292156290869619,0.03227156740956319,-0.027597022808947123
1789141063637513000,11.542512939453124,0.07765468977718451,0.038724084165428295,-0.027211816730630355
1789141063647485000,11.55248486328125,0.09072903534965676,0.027009489081207476,0.016751876571884157
1789141063657457000,11.562456787109374,0.0794192120546991,0.02493356837451669,0.01888366241344736
1789141063667430000,11.572429931640626,0.05565296265683221,0.02184165041907739,0.0180976883713709
1789141063677402000,11.582402099609377,0.04501013529793309,0.025573728614082893,0.03458903879695493
1789141063687375000,11.592375,0.05504423289386974,0.04225888158894802,0.04191781062269163
1789141063697346800,11.602346923828126,0.07830741806259492,0.06023096659788362,-0.0009963884469695531
1789141063707319000,11.612319091796875,0.09443269448293735,0.05046884595360271,0.022663038753656637
1789141063717292000,11.6222919921875,0.0956865440754276,0.08515774710600826,0.019636809872428142
1789141063727264000,11.632263916015624,0.12297817816270079,0.09100971352232694,0.033357324457853416
1789141063737236000,11.642236083984375,0.10332706928335021,0.06620271835165882,0.048684046184040645
1789141063747209000,11.652208984375,0.06983948592168401,0.04982461560039558,0.036174064669653366
1789141063757181000,11.662180908203124,0.1198949819166854,0.07293432278128328,0.0395365624562439
1789141063767153200,11.672153076171876,0.08181090736625508,0.09059753583742342,-0.003334583837646058
1789141063777126100,11.682126220703124,0.08053766234058311,0.07944497910291258,-0.00018033901604315507
1789141063787097900,11.692097900390625,0.07222417283904235,0.07434476511901503,-0.0014223956535513544
1789141063797070000,11.702070068359374,0.06424250435559348,0.1034681160641961,-0.02938068761422873
1789141063807043000,11.71204296875,0.07704643395965985,0.14779853030048537,-0.07366809114567864
1789141063817015000,11.72201513671875,0.08731395286572292,0.17101103462148773,-0.055146281335392074
1789141063826987000,11.731987060546874,0.09297347087089826,0.16064163816659746,-0.011969416767295741
1789141063836960000,11.7419599609375,0.08437646400559018,0.1773880615840077,0.005767441666864734
1789141063846932000,11.751931884765623,0.08481573421694226,0.20014620613820508,-0.008318882760040771
1789141063856904000,11.761904052734376,0.09007503686769924,0.1594394051018955,0.021120935445482273
1789141063866877200,11.771877197265624,0.09785499743281918,0.15301445288753793,0.03516264006097377
1789141063876849000,11.781848876953124,0.05052045736488749,0.1643355128939962,0.009196506262125204
1789141063886821000,11.791821044921877,0.09796732748825726,0.16167904716037876,-0.033049898913964836
1789141063896794000,11.801794189453124,0.08670346918170453,0.15931021643490456,0.01403980222638366
1789141063906765800,11.811765869140626,0.09669564501188421,0.15224161091789615,0.013619678949746113
1789141063916738000,11.821738037109377,0.07483260235189523,0.1491052908900244,-0.05756095228463163
1789141063926711000,11.8317109375,0.05376015720775652,0.1422910607421096,-0.0354651527605862
1789141063936683000,11.84168310546875,0.04596448035649645,0.12914392398248134,-0.05087058550862378
1789141063946655000,11.851655029296875,0.07025993176527823,0.1242722541186534,-0.06077955745453144
1789141063956628000,11.8616279296875,0.04016200238113392,0.1324299651248083,-0.013321588104575757
1789141063966600000,11.871599853515624,0.06384944271931213,0.12454432661231203,-0.021776227579874213
1789141063976573000,11.881572998046876,0.0863509765048035,0.1282139584981801,-0.02322172995788856
1789141063986545200,11.891545166015623,0.09131533183251128,0.13946137135109854,-0.010372022300309435
1789141063996516900,11.901516845703124,0.08524735104691637,0.13277947677555565,-0.03284478825082008
1789141064006490000,11.911489990234376,0.07523361645092838,0.11447256726570788,-0.060810147754999815
1789141064016461800,11.9214619140625,0.053530843140333496,0.1105577209443037,-0.022701363224619697
1789141064026434000,11.93143408203125,0.04809964500381559,0.1550695068270712,-0.054494832091684875
1789141064036407000,11.941406982421874,0.07819893422838389,0.14935906916755948,-0.03832726294439678
1789141064046378800,11.951378662109375,0.04655053709466554,0.14830560512133656,-0.04477449379175763
1789141064056351000,11.96135107421875,0.08260741504576906,0.12963072302042034,-0.011315505751696101
1789141064066324000,11.971323974609374,0.06292198195445653,0.1254429802556117,-0.024503514461749382
1789141064076296000,11.9812958984375,0.06660699212066862,0.12302128490322407,-0.02353659477638462
1789141064086268000,11.991267822265623,0.06430805546568813,0.11740297450922334,-0.035489182005806544
1789141064096241400,12.001241455078125,0.08419584589865091,0.12307701311847474,-0.023209772949456302
1789141064106213600,12.011213623046874,0.07610279226491186,0.13788317561229008,-0.04264741849113574
1789141064116185300,12.021185302734375,0.08453448493590922,0.13978813063732787,-0.008978000304231676
1789141064126158600,12.03115869140625,0.0868744344552025,0.14497553561992285,-0.04331087794210078
1789141064136130600,12.041130615234374,0.09073796928590915,0.14128708910128096,-0.011210063272993233
1789141064146102500,12.0511025390625,0.0429441737377926,0.1401642450909638,-0.015533013372421791
1789141064156075500,12.061075439453123,0.07489680581776384,0.13179529085204303,-0.08551625360647183
1789141064166047500,12.071047607421876,0.09617020903255037,0.16126574106408534,-0.06224203189637094
1789141064176019500,12.08101953125,0.07995442656701278,0.1817825874133369,-0.038962423299977636
1789141064185992400,12.090992431640624,0.08725400609652462,0.1578981600434359,0.0016993651082019684
1789141064195964700,12.100964599609377,0.09482273727543555,0.17726167645678623,0.017339427575326978
1789141064205937400,12.1109375,0.0967829175574046,0.19393614437282866,0.004582599909033645
1789141064215909400,12.120909423828126,0.09854609386759257,0.16575971329459974,-0.018012098861523204
1789141064225881600,12.130881591796877,0.09489707354123841,0.12366680297120052,-0.01497372036300786
1789141064235854300,12.140854248046876,0.08725326903413579,0.09825628701274411,0.044982321078875495
1789141064245826600,12.15082666015625,0.03941890588345196,0.1138948623317212,0.04994830885865481
1789141064255798500,12.160798583984375,0.053564519447891715,0.11390802789618465,0.0651464598466926
1789141064265771300,12.170771240234377,0.087513820505134,0.12583583757595715,0.026045567063366054
1789141064275743500,12.180743408203124,0.08450788710380415,0.08597010571062536,0.05523056663430387
1789141064285715500,12.190715576171876,0.03896652592241952,0.05841023287854426,0.03249709661210926
1789141064295688400,12.2006884765625,0.04257908691396249,0.051938530121100265,-0.008645546333948276
1789141064305660400,12.210660400390625,0.03155445525148859,0.04783724764564458,0.026643254171752298
1789141064315632600,12.220632568359376,0.03802370446999414,0.03183893122564006,0.034949963386984396
1789141064325605400,12.23060546875,0.024919881622908792,0.03969675586349673,-0.002373368993216859
1789141064335577600,12.24057763671875,0.06334525501886279,0.049333775936214394,0.022762062576541855
1789141064345549600,12.250549560546874,0.03295896966534745,0.05226191670811652,0.039245229920756124
1789141064355522300,12.260522216796875,0.0434403196037265,0.06103871542357096,0.04011728027402002
1789141064365494500,12.27049462890625,0.046377788658104074,0.04203202839166486,0.03334410272102257
1789141064375466500,12.280466552734374,0.0011039974103043847,0.052244446222672415,0.013593023598630983
1789141064385439500,12.290439453125,0.0028399253647440367,0.05742245799336782,0.034050344833646606
1789141064395411500,12.300411376953123,0.019458206558095256,0.08046909022505146,0.030959814371132714
1789141064405383400,12.310383544921876,0.04138160649442808,0.12107107643053917,0.013663558075915037
1789141064415356400,12.3203564453125,0.014331197386065654,0.17317873387776384,-0.011040390835763697
1789141064425328400,12.330328369140624,0.007172836275499655,0.13858679329399254,0.062439530662547586
1789141064435300400,12.34030029296875,0.008849411996668041,0.17810293647926792,-0.024081580306906124
1789141064445273300,12.3502734375,-0.018469170498586054,0.18093156320186693,-0.04316156385645017
1789141064455245600,12.36024560546875,-0.008303170854837507,0.17970191281927597,-0.019637543427340507
1789141064465218600,12.370218505859375,0.014968621961178716,0.16807202835740315,-0.018104461293452702
1789141064475190500,12.3801904296875,0.02371272245820777,0.17747958037809167,0.0181377240835112
1789141064485162500,12.39016259765625,0.009447657150238308,0.1735420130488519,0.013336191707836368
1789141064495135500,12.400135498046875,0.003980951039887397,0.1486793831099775,-0.017693415085367186
1789141064505107500,12.410107421875,-0.021778242140314926,0.12566988632196066,0.013622514597959079
1789141064515079400,12.420079345703124,-0.040596082627515004,0.1222323164211883,-0.03728426612169309
1789141064525052700,12.430052734375,-0.05660582095274611,0.10782198881658833,-0.04105648131306422
1789141064535024400,12.4400244140625,-0.06627122578568209,0.09913087129716645,-0.029606141831696284
1789141064544996600,12.44999658203125,-0.05457806321863192,0.09904940061769424,-0.026332452999978665
1789141064554969600,12.459969482421876,-0.01872766102881676,0.09900200212131294,-0.02484021526333079
1789141064564941300,12.46994140625,-0.019693364547761504,0.08475558260807273,0.052812109545301175
1789141064574913500,12.47991357421875,-0.01585664127272334,0.10396607349893174,0.020074150692348334
1789141064584886500,12.489886474609374,-0.04441277844128511,0.09377689553309537,-0.02154719881122356
1789141064594858500,12.4998583984375,-0.06468758287877224,0.054060821956968326,-4.666114081236348e-05
1789141064604830500,12.50983056640625,-0.0700204477818289,0.08241525121360517,-0.022561598788480946
1789141064614803500,12.519803466796876,-0.025256992123134307,0.0827161599975791,-0.015701857949912038
1789141064624775400,12.529775390625,-0.008196293487982034,0.08612290831771784,-0.0029001819494078045
1789141064634747400,12.539747314453123,-0.03574867740351739,0.08076802448314402,0.010791765881929694
1789141064644720600,12.549720703125,-0.03619397044054852,0.08656357162344477,-0.007031438482329659
1789141064654692400,12.5596923828125,-0.07157156029442265,0.07641689754658018,0.012736908201302698
1789141064664664600,12.56966455078125,-0.06305571271672794,0.0708059124319225,-0.026747338826306477
1789141064674637600,12.579637451171877,-0.07325666151460664,0.08044826348800281,-0.04527224963182482
1789141064684609500,12.589609619140624,-0.07059337367329124,0.07298143414631723,-0.020727508106336664
1789141064694581500,12.59958154296875,-0.06547832752734978,0.08140149818609049,0.001630176021882088
1789141064704554500,12.609554443359375,-0.05129058116045556,0.11463012165521147,-0.040294148121270315
1789141064714526500,12.6195263671875,-0.040196115995869044,0.06565535151069248,0.011861403437322155
1789141064724498400,12.62949853515625,-0.08463237006288905,0.05526768962535285,0.06350477411527691
1789141064734471700,12.6394716796875,-0.05467213229919005,0.1288639989800053,0.0009338968916130453
1789141064744443400,12.649443359375,-0.06392193369267042,0.1357492172333795,-0.03658771994984367
1789141064754416400,12.65941650390625,-0.07275919829061869,0.09806312672557037,0.009175538701990203
1789141064764388600,12.669388671875,-0.11055599567956767,0.11145571088915822,0.010359638986959279
1789141064774360300,12.6793603515625,-0.08875348290287191,0.08826506070557481,0.015707314075750985
1789141064784333600,12.68933349609375,-0.05483336392873265,0.11373822339170216,0.008534178866457041
1789141064794305500,12.699305419921876,-0.06672914874394861,0.11787166122429078,0.0406254807700722
1789141064804277500,12.709277587890623,-0.07383844826379289,0.11216316925076301,0.04445353151942087
1789141064814250500,12.71925048828125,-0.11332370678853182,0.10373324392271746,-0.011953525080309047
1789141064824222500,12.729222412109374,-0.14227737825348802,0.08580994295348313,-0.03356619343604631
1789141064834194400,12.7391943359375,-0.12301321394057954,0.06995852290836184,-0.00020500974406943205
1789141064844167400,12.74916748046875,-0.06437118209718543,0.1233343272814498,-0.02086265271013664
1789141064854139600,12.7591396484375,-0.014328690061087593,0.12977022966021234,-0.01380188922387936
1789141064864111400,12.769111328125,-0.05763532535304761,0.11142240768531458,-0.020313082797473753
1789141064874084400,12.77908447265625,-0.08728087878697798,0.06517913391292918,-0.01435711926360934
1789141064884056600,12.789056640625,-0.1311395216295208,0.03307436897681533,0.02739534290894517
1789141064894028500,12.799028564453126,-0.11371242164885659,0.050399518425298905,-0.00200597085291219
1789141064904001500,12.80900146484375,-0.09202430089928695,0.06034977082333335,-0.0046976972743618785
1789141064913973500,12.818973388671877,-0.13387569829676274,0.02747949078647815,0.08528190286818299
1789141064923945500,12.828945556640624,-0.12541881328744936,0.027288824444138955,0.04028853666964365
1789141064933918500,12.83891845703125,-0.10556651964251952,0.03158227666117831,0.0372189778170938
1789141064943890700,12.848890625,-0.14756391448977116,0.02986488100891344,0.011635459570556481
1789141064953862400,12.8588623046875,-0.11041749110571249,0.054259299703306,0.025847614590956403
1789141064963835400,12.86883544921875,-0.1023171898825661,0.09008227425017337,0.004480023047691932
1789141064973807600,12.8788076171875,-0.08798605587923668,0.09918606627947796,0.01700606191709123
1789141064983779300,12.888779296875,-0.09117986913123674,0.08862138721872202,0.030255758723646907
1789141064993752600,12.898752685546874,-0.09297636317593735,0.09888689803068149,0.04295095645490628
1789141065003724500,12.908724609375,-0.1076073422397859,0.11251314720784517,0.022568864287076683
1789141065013697300,12.918697265625,-0.08837951647722837,0.10237076943421561,0.03158672246408177
1789141065023669500,12.92866943359375,-0.11976710195857646,0.0867166582278106,0.036418249181433104
1789141065033641500,12.938641357421876,-0.1084660675710593,0.10284427034417752,0.021058653112184238
1789141065043614500,12.948614501953124,-0.10714567486826021,0.10541047031312852,0.007505855486182836
1789141065053586400,12.95858642578125,-0.13092918818551225,0.05018047950748088,0.052145854974290765
1789141065063558700,12.96855859375,-0.1098016909462881,0.03702665290461711,0.01103713244541947
1789141065073531400,12.978531494140626,-0.117316390459845,0.04201506901802281,-0.006250798625306208
1789141065083503400,12.98850341796875,-0.1290208255126375,0.014997123799065922,0.006497878737112084
1789141065093475300,12.998475341796874,-0.11263367325650264,-0.005060144779573465,0.015189596952291832
1789141065103448300,13.0084482421875,-0.14568742127265694,-0.006780560124113977,0.05681010233872429
1789141065113420500,13.018420654296875,-0.15243394233212262,-0.04943672277263579,0.04257656625605195
1789141065123392300,13.028392333984376,-0.12393847829613297,-0.06227441496119216,0.024695275479741482
1789141065133365500,13.038365478515624,-0.14938792523275188,-0.06402290330313334,0.040441139649136745
1789141065143337500,13.04833740234375,-0.160620834873898,-0.09304540032483291,0.06301700382199232
1789141065153309400,13.058309326171877,-0.1405106916064735,-0.0884078758066681,0.05061129921849244
1789141065163282400,13.068282470703124,-0.13625990925941328,-0.08541250795519263,0.02015117554573875
1789141065173254400,13.07825439453125,-0.15158362760755642,-0.09808089972367619,-0.013992537301983445
1789141065183226400,13.088226318359377,-0.14282910390359108,-0.11751678737021541,0.01689586890877797
1789141065193199400,13.098199462890625,-0.12399326744270715,-0.08010116114571927,-0.04298389929456322
1789141065203171600,13.108171630859376,-0.15873567031290053,-0.10075883825990638,-0.00839704685854138
1789141065213143300,13.118143310546875,-0.16064518418264134,-0.10621233660182619,0.029780677933217203
1789141065223116300,13.1281162109375,-0.1570794161493789,-0.10262382448976393,0.03316392545668317
1789141065233088500,13.138088623046874,-0.16317496601001613,-0.11005343085788451,-0.008478094677967922
1789141065243060200,13.148060302734375,-0.1341130972723107,-0.14784631477160548,0.05428804119887317
1789141065253033500,13.158033447265623,-0.13285864222780103,-0.10713800600858908,0.03712900959508999
1789141065263005400,13.16800537109375,-0.13614576410910317,-0.12010083986480183,0.027942378474153404
1789141065272977400,13.177977294921876,-0.1770644600285625,-0.16319915529186405,-0.008310389142019509
1789141065282950400,13.187950439453124,-0.18933834795317972,-0.19750988629560443,-0.02701882208091579
1789141065292922600,13.197922607421877,-0.17627827785977784,-0.17300244843077453,-0.04269199970176699
1789141065302895400,13.207895263671874,-0.12723110219832517,-0.18391069258497822,-0.025110419438236047
1789141065312867300,13.217867431640624,-0.10555498955727902,-0.17649649526446756,-0.03269713837015636
1789141065322839600,13.227839599609377,-0.12197366825745948,-0.22849527851721213,0.012651003165422378
1789141065332812300,13.237812255859374,-0.14680231480470876,-0.29016574069543966,0.06253696760456139
1789141065342784500,13.247784423828126,-0.15266275359965553,-0.2846447532943114,0.004864585992677331
1789141065352756500,13.257756591796875,-0.14499644200809306,-0.2717246233617141,-0.014148412975713294
1789141065362729200,13.267729248046876,-0.10928172598700091,-0.30425627745762385,0.055289203387210446
1789141065372701400,13.277701416015624,-0.14395496187461967,-0.27482182457800575,0.010519428689050876
1789141065382673400,13.28767333984375,-0.0741697602198735,-0.23309337363951016,-0.02892756308290476
1789141065392646400,13.297646484375,-0.08582701550962239,-0.23842659295836435,-0.00013907809468264334
1789141065402618400,13.307618408203124,-0.09415699237142287,-0.2469619891383184,0.038791207365402786
1789141065412590300,13.31759033203125,-0.08493300463239756,-0.21384171969753238,-0.006320026656763249
1789141065422563300,13.327563232421875,-0.08219635350707079,-0.1981510420313192,-0.03482191539851732
1789141065432535300,13.337535400390625,-0.0740515636371235,-0.2087879685387845,0.011731602127114674
1789141065442507300,13.34750732421875,-0.07479932888088418,-0.19302933648836693,0.0342023572947262
1789141065452480300,13.357480224609375,-0.049150832887035444,-0.15372925662299936,-0.00873276219128163
1789141065462452500,13.367452392578125,-0.05517588704235559,-0.16875483255868307,0.021101509490562446
1789141065472424200,13.377424072265624,-0.045594272079468486,-0.1774466442270024,0.03450026887379765
1789141065482397400,13.3873974609375,-0.05589090133859286,-0.18103954818792603,0.04085289582315089
1789141065492369400,13.397369384765623,-0.012880078399636456,-0.15034066535271984,-0.0013163558704775422
1789141065502341400,13.40734130859375,-0.06183562137477124,-0.13181445975073428,-0.006901400944725711
1789141065512314400,13.417314453125,-0.053929152852812294,-0.15647977032063184,0.016043121712338158
1789141065522286300,13.427286376953123,-0.050834597660921556,-0.15123692881545855,-0.005652200846817414
1789141065532258300,13.43725830078125,0.011064357170382486,-0.12002520688731193,0.03458413345086118
1789141065542231300,13.447231201171874,-0.0009245944821644761,-0.10469634524912587,0.03132746969062299
1789141065552203500,13.45720361328125,0.0012380316555804028,-0.1305207182681325,0.02037794839026839
1789141065562175200,13.46717529296875,-0.03686171778249768,-0.16018881542823066,0.06809718550776771
1789141065572148200,13.477148193359374,-0.010553470855401004,-0.15290334345709253,0.0180808187758869
1789141065582120400,13.487120361328126,-0.02137647882355878,-0.14535545505592776,0.013072997713922197
1789141065592093400,13.497093505859375,-0.049892930522069376,-0.1489829998374848,0.003168331066517519
1789141065602065400,13.5070654296875,0.008309705116908013,-0.16135882183599118,-0.020554952330612785
1789141065612037400,13.517037353515626,-0.027409293500572772,-0.12624661862939765,-0.03665081723030937
1789141065622010400,13.52701025390625,-0.012073530036257904,-0.12417142684600166,0.055114602594317275
1789141065631982300,13.536982421875,0.03258939526672685,-0.14427486340653575,0.10353324580274907
1789141065641954300,13.546954345703124,0.0871198273754542,-0.12947262326954967,0.06720868179292602
1789141065651927600,13.556927490234376,0.03309159456177624,-0.16080391733100366,0.0475602210924727
1789141065661899300,13.566899169921877,-0.00998389986338941,-0.22060669143803255,0.006070922371737144
