time,seconds_elapsed,z,y,x
1790174133919035600,0.05203564453125,0.09241168946027756,-0.010399111546576023,-0.1375589221715927
1790174133929105700,0.062105712890625,0.07410725206136703,0.020670657977461815,-0.033884197473526
1790174133939176700,0.0721767578125,0.05192045494914055,-0.003742273896932602,0.039083488285541534
1790174133949247000,0.0822470703125,0.07397355884313583,-0.0341302715241909,0.09210196137428284
1790174133959317800,0.09231787109375,0.053401440382003784,0.005357481073588133,0.03633217513561249
1790174133969387800,0.1023876953125,0.05845212563872337,0.004339620936661959,0.039683498442173004
1790174133979457800,0.112457763671875,0.12661492824554443,-0.05703505501151085,0.03507889062166214
1790174133989528600,0.122528564453125,0.09928184747695923,-0.007625695317983627,-0.0008285093936137855
1790174133999598800,0.132598876953125,0.13758715987205505,-0.011204451322555542,0.0049196574836969376
1790174134009670000,0.142669921875,0.1534513384103775,0.018266888335347176,-0.039260853081941605
1790174134019740000,0.152739990234375,0.1529402732849121,0.02527419663965702,-0.025366077199578285
1790174134029810700,0.162810791015625,0.17968693375587463,0.06996044516563416,-0.022347649559378624
1790174134039880700,0.172880615234375,0.15636137127876282,0.10171730816364288,0.02678367681801319
1790174134049950700,0.18295068359375,0.17901475727558136,0.0582963302731514,-0.00464641721919179
1790174134060021800,0.193021728515625,0.2430800199508667,0.07212799042463303,0.04542926698923111
1790174134070091800,0.203091796875,0.19136463105678558,0.07914994657039642,0.032594695687294006
1790174134080162800,0.213162841796875,0.20859049260616302,0.0866725742816925,0.01884639263153076
1790174134090232800,0.22323291015625,0.2721146047115326,0.17744269967079163,0.03879506513476372
1790174134100303600,0.2333037109375,0.2753356993198395,0.1613268405199051,-0.05187331885099411
1790174134110373600,0.24337353515625,0.3255842328071594,0.1678909957408905,-0.06848239153623581
1790174134120444000,0.25344384765625,0.29757604002952576,0.1832617074251175,0.052855756133794785
1790174134130515000,0.263514892578125,0.23017966747283936,0.1472749412059784,0.08738763630390167
1790174134140584700,0.273584716796875,0.269279420375824,0.16229863464832306,0.12043479830026627
1790174134150655700,0.28365576171875,0.3741368353366852,0.21916989982128143,-0.058343201875686646
1790174134160725800,0.293725830078125,0.36525627970695496,0.27322888374328613,-0.06443518400192261
1790174134170796800,0.303796875,0.277763694524765,0.26076263189315796,-0.017945710569620132
1790174134180866800,0.31386669921875,0.2578757405281067,0.22903664410114288,0.0653209462761879
1790174134190936800,0.323936767578125,0.31272009015083313,0.26129764318466187,-0.006113818846642971
1790174134201007900,0.3340078125,0.3638796806335449,0.308619886636734,-0.013727796263992786
1790174134211077600,0.34407763671875,0.309997022151947,0.3204706907272339,-0.01870657689869404
1790174134221148700,0.354148681640625,0.21726654469966888,0.2832263708114624,0.010872621089220047
1790174134231218700,0.36421875,0.20153072476387024,0.24045415222644806,0.01966744475066662
1790174134241288700,0.374288818359375,0.17154139280319214,0.20865388214588165,0.15480849146842957
1790174134251359700,0.38435986328125,0.11700677871704102,0.2490931749343872,0.06142128258943558
1790174134261429800,0.3944296875,0.1273971050977707,0.27900874614715576,-0.015558719635009766
1790174134271500800,0.404500732421875,0.13534744083881378,0.22479236125946045,0.00028069718973711133
1790174134281570600,0.414570556640625,0.11569757014513016,0.21456636488437653,-0.09610123187303543
1790174134291641600,0.4246416015625,0.08518413454294205,0.2526996433734894,-0.06345727294683456
1790174134301712000,0.4347119140625,-0.038772694766521454,0.20572279393672943,0.014669490046799183
1790174134311782000,0.444781982421875,-0.017121994867920876,0.20388121902942657,-0.02021871879696846
1790174134321852700,0.454852783203125,0.04806046932935715,0.216380774974823,-0.07010398805141449
1790174134331922700,0.464922607421875,-0.012829778715968132,0.11341097950935364,0.009058210067451
1790174134341993700,0.47499365234375,-0.09409267455339432,0.05728672444820404,0.07769745588302612
1790174134352063700,0.485063720703125,-0.07345584034919739,0.0655803382396698,0.11257527768611908
1790174134362134800,0.495134765625,-0.12333578616380692,0.10934886336326599,0.10258869081735611
1790174134372204800,0.505204833984375,-0.11272788047790527,0.09109102934598923,0.046070024371147156
1790174134382274800,0.51527490234375,-0.07699891179800034,0.09345351904630661,0.023518908768892288
1790174134392345600,0.525345703125,-0.08137927949428558,0.06759369373321533,0.05113855004310608
1790174134402415900,0.535415771484375,-0.09327775239944458,0.04011918976902962,0.10233595967292786
1790174134412487000,0.54548681640625,-0.11828269809484482,0.07044807076454163,0.07835126668214798
1790174134422557000,0.555556884765625,-0.09529855847358704,0.11735964566469193,0.046836480498313904
1790174134432627700,0.565627685546875,-0.11958658695220947,0.10518021136522293,-0.009101619012653828
1790174134442697700,0.57569775390625,-0.15870442986488342,0.04952733963727951,-0.03340695798397064
1790174134452767700,0.585767822265625,-0.14652632176876068,0.05272579565644264,0.019937755540013313
1790174134462838500,0.595838623046875,-0.1612064689397812,0.029264144599437714,-0.014855644665658474
1790174134472908800,0.60590869140625,-0.19918127357959747,0.04218846559524536,-0.026582075282931328
1790174134482979800,0.615979736328125,-0.23206785321235657,0.08356679975986481,-0.08653382956981659
1790174134493049900,0.6260498046875,-0.22509357333183289,0.11248447000980377,-0.16609150171279907
1790174134503120600,0.63612060546875,-0.21790489554405212,0.08826062083244324,-0.18011997640132904
1790174134513190700,0.646190673828125,-0.23633503913879395,0.045456163585186005,-0.03587890416383743
1790174134523261000,0.656260986328125,-0.28441283106803894,-0.0055180699564516544,0.031321436166763306
1790174134533332000,0.66633203125,-0.2861606478691101,0.07171066850423813,0.03957697004079819
1790174134543401700,0.676401611328125,-0.3137962818145752,0.12194481492042542,0.032534774392843246
1790174134553472800,0.68647265625,-0.2734259366989136,0.050866641104221344,0.001395230065099895
1790174134563542800,0.696542724609375,-0.2764457166194916,-0.010811368934810162,0.09249051660299301
1790174134573612800,0.70661279296875,-0.28603947162628174,-0.018912971019744873,0.12377121299505234
1790174134583683800,0.716683837890625,-0.333725243806839,0.04201642423868179,0.07548357546329498
1790174134593753900,0.72675390625,-0.3004644811153412,0.023875771090388298,-0.016867397353053093
1790174134603825000,0.736824951171875,-0.27945268154144287,0.004385693464428186,0.05420171841979027
1790174134613894700,0.746894775390625,-0.2905988097190857,-0.038911446928977966,0.0630897507071495
1790174134623965700,0.756965576171875,-0.3942093551158905,-0.020498083904385567,-0.011742942035198212
1790174134634035700,0.76703564453125,-0.4402783215045929,-0.03917616605758667,-0.041189782321453094
1790174134644105700,0.777105712890625,-0.40156659483909607,-0.0928894579410553,0.019527895376086235
1790174134654176800,0.7871767578125,-0.3641449213027954,-0.11728747934103012,0.0031015174463391304
1790174134664246800,0.797246826171875,-0.41948649287223816,-0.1282743513584137,0.015588014386594296
1790174134674317800,0.80731787109375,-0.4566951096057892,-0.1745568960905075,-0.01853666640818119
1790174134684387600,0.8173876953125,-0.45290011167526245,-0.19803611934185028,0.005311142187565565
1790174134694458600,0.827458740234375,-0.4420924484729767,-0.25074461102485657,0.00498117646202445
1790174134704529000,0.83752880859375,-0.4632145166397095,-0.2643589377403259,0.018803248181939125
1790174134714598700,0.8475986328125,-0.45594117045402527,-0.2814497947692871,0.01477575022727251
1790174134724669700,0.857669677734375,-0.43796348571777344,-0.2887212932109833,0.010147443041205406
1790174134734739700,0.86773974609375,-0.37402552366256714,-0.3002051115036011,0.01332645770162344
1790174134744810800,0.877810791015625,-0.3591634929180145,-0.27261313796043396,0.03978576138615608
1790174134754880800,0.887880859375,-0.3871234953403473,-0.2292635440826416,-0.026252109557390213
1790174134764951800,0.897951904296875,-0.40874621272087097,-0.23178449273109436,-0.027941353619098663
1790174134775021800,0.908021728515625,-0.36141014099121094,-0.2119428813457489,0.013742444105446339
1790174134785091800,0.918091796875,-0.27127784490585327,-0.20141912996768951,0.013017797842621803
1790174134795162600,0.92816259765625,-0.24244806170463562,-0.19185225665569305,0.06984725594520569
1790174134805232600,0.938232666015625,-0.21923089027404785,-0.1697150021791458,0.09315018355846405
1790174134815303700,0.9483037109375,-0.2143261432647705,-0.14857588708400726,0.11836925148963928
1790174134825373700,0.958373779296875,-0.20971781015396118,-0.11985582858324051,0.07651527971029282
1790174134835443700,0.968443603515625,-0.16092176735401154,-0.12587590515613556,0.04578826203942299
1790174134845514800,0.9785146484375,-0.11695884168148041,-0.13919730484485626,-0.012573315761983395
1790174134855584800,0.988584716796875,-0.1256154477596283,-0.13480335474014282,-0.042996734380722046
1790174134865655600,0.998655517578125,-0.1622096747159958,-0.12674783170223236,-0.058343466371297836
1790174134875725800,1.008725830078125,-0.14364264905452728,-0.16248451173305511,-0.07118070125579834
1790174134885796900,1.018796875,-0.10143528133630753,-0.17365354299545288,-0.017956096678972244
1790174134895867000,1.028866943359375,-0.06250998377799988,-0.19884918630123138,0.011694739572703838
1790174134905936600,1.0389365234375,-0.10912489145994186,-0.18389792740345,0.03527596592903137
1790174134916007700,1.049007568359375,-0.1382867693901062,-0.15586203336715698,0.033181656152009964
1790174134926078000,1.059077880859375,-0.07286009192466736,-0.14283278584480286,-0.003924434073269367
1790174134936149000,1.06914892578125,0.009021990932524204,-0.13128770887851715,-0.04264040291309357
1790174134946218800,1.07921875,0.035000063478946686,-0.09284605085849762,0.0361177921295166
1790174134956289800,1.089289794921875,0.022415826097130775,-0.10675626993179321,0.03365116938948631
1790174134966359800,1.09935986328125,-0.022669626399874687,-0.12104599922895432,0.01882748305797577
1790174134976429800,1.109429931640625,-0.06335952877998352,-0.07987672090530396,-0.010059557855129242
1790174134986500900,1.1195009765625,-0.032392293214797974,-0.05149328336119652,0.006956975441426039
1790174134996571000,1.12957080078125,-0.03056376799941063,-0.046180546283721924,-0.00917219277471304
1790174135006642000,1.139641845703125,-0.018704712390899658,-0.060815148055553436,0.020624052733182907
1790174135016711700,1.149711669921875,-0.03043939918279648,-0.07055538892745972,0.06316059082746506
1790174135026782700,1.15978271484375,-0.0675651952624321,-0.043362122029066086,0.030723823234438896
1790174135036852700,1.169852783203125,-0.06810128688812256,-0.014283864758908749,0.01564234308898449
1790174135046922800,1.1799228515625,-0.030065223574638367,-0.02081473357975483,0.03268710523843765
1790174135056993800,1.189993896484375,-0.03790450468659401,0.0016269250772893429,0.062432751059532166
1790174135067063800,1.200063720703125,-0.03629595413804054,0.015562714077532291,-0.04560982808470726
1790174135077134800,1.210134765625,-0.03308791294693947,0.009393768385052681,-0.039254993200302124
1790174135087204600,1.22020458984375,-0.06341119855642319,0.017356086522340775,0.0035451999865472317
1790174135097275600,1.230275634765625,-0.021518608555197716,-0.02299106866121292,0.06771460175514221
1790174135107346000,1.240345947265625,0.0193148422986269,-0.04036499932408333,0.04574058949947357
1790174135117415700,1.250415771484375,-0.01895158737897873,-0.041847050189971924,0.05977092310786247
1790174135127486700,1.26048681640625,-0.07347209006547928,-0.06503039598464966,0.01842055283486843
1790174135137556700,1.270556640625,-0.12694276869297028,-0.06278828531503677,0.08271964639425278
1790174135147627800,1.280627685546875,-0.12632597982883453,-0.07047709822654724,0.01842161826789379
1790174135157697800,1.29069775390625,-0.09415126591920853,-0.07916060090065002,-0.04777124896645546
1790174135167767800,1.300767822265625,-0.0693279430270195,-0.09756703674793243,-0.0006029396899975836
1790174135177838800,1.3108388671875,-0.10395276546478271,-0.10684575885534286,-0.11027617007493973
1790174135187908600,1.32090869140625,-0.1475045084953308,-0.1014760211110115,-0.07620422542095184
1790174135197979600,1.330979736328125,-0.12862108647823334,-0.12199541181325912,0.05486750975251198
1790174135208049700,1.341049560546875,-0.0946791023015976,-0.1644427329301834,0.09686316549777985
1790174135218120700,1.35112060546875,-0.10932249575853348,-0.17611031234264374,0.03344850242137909
1790174135228190700,1.361190673828125,-0.15948393940925598,-0.19028206169605255,-0.07651527971029282
1790174135238260700,1.3712607421875,-0.1868838667869568,-0.19484831392765045,-0.08135957270860672
1790174135248331800,1.381331787109375,-0.15063664317131042,-0.21620526909828186,-0.010412427596747875
1790174135258401800,1.39140185546875,-0.16317640244960785,-0.2555798292160034,0.08891522139310837
1790174135268472600,1.40147265625,-0.20207133889198303,-0.2812998592853546,0.07331469655036926
1790174135278542800,1.41154296875,-0.17942968010902405,-0.2869497537612915,-0.0009139968897216022
1790174135288614000,1.42161376953125,-0.12602025270462036,-0.2454632967710495,-0.022412631660699844
1790174135298684000,1.431683837890625,-0.1259230375289917,-0.21816721558570862,-0.019719641655683517
1790174135308753700,1.441753662109375,-0.10701273381710052,-0.22802197933197021,0.015501461923122406
1790174135318824700,1.45182470703125,-0.0798434317111969,-0.23967091739177704,-0.009222527034580708
1790174135328895000,1.46189501953125,-0.06252223253250122,-0.21270987391471863,-0.025437982752919197
1790174135338965800,1.4719658203125,-0.08118273317813873,-0.18061505258083344,0.05795437842607498
1790174135349035800,1.482035888671875,-0.09209637343883514,-0.1881488710641861,0.004286357667297125
1790174135359106800,1.49210693359375,-0.08588987588882446,-0.1766112595796585,-0.022419555112719536
1790174135369176800,1.5021767578125,-0.07462336868047714,-0.18077883124351501,0.05132390931248665
1790174135379246600,1.51224658203125,0.02346457913517952,-0.1964174509048462,0.01401515118777752
1790174135389317600,1.522317626953125,0.055760469287633896,-0.19064106047153473,0.05591759458184242
1790174135399388000,1.532387939453125,-0.0025872609112411737,-0.19005249440670013,0.04909750446677208
1790174135409459000,1.542458984375,-0.01696673221886158,-0.19751466810703278,0.05005864053964615
1790174135419528700,1.55252880859375,0.07266035676002502,-0.18811771273612976,0.011962653137743473
1790174135429598700,1.5625986328125,0.12552890181541443,-0.1923031359910965,0.018156100064516068
1790174135439669800,1.572669677734375,0.14909733831882477,-0.20453104376792908,-0.09231235086917877
1790174135449739800,1.58273974609375,0.13389600813388824,-0.2180367261171341,-0.04279699921607971
1790174135459810800,1.592810791015625,0.12133068591356277,-0.22916793823242188,0.04427744820713997
1790174135469880800,1.602880859375,0.1699616014957428,-0.22834183275699615,-0.05843667685985565
1790174135479952000,1.612951904296875,0.1570170521736145,-0.19817966222763062,-0.03791888803243637
1790174135490021600,1.623021728515625,0.18561220169067383,-0.1974496841430664,0.0792791098356247
1790174135500092000,1.633091796875,0.1812582015991211,-0.17789490520954132,0.04890362545847893
1790174135510163000,1.643162841796875,0.1530316323041916,-0.16524195671081543,-0.00956953689455986
1790174135520232700,1.653232666015625,0.1998254954814911,-0.17068332433700562,0.03638357296586037
1790174135530303700,1.6633037109375,0.24526354670524597,-0.15759947896003723,0.060980264097452164
1790174135540373800,1.673373779296875,0.24972860515117645,-0.14132995903491974,0.03735429793596268
1790174135550444800,1.68344482421875,0.21680714190006256,-0.16173750162124634,0.018552912399172783
1790174135560514800,1.693514892578125,0.23475977778434753,-0.15887780487537384,-0.05860259383916855
1790174135570584800,1.703584716796875,0.25110572576522827,-0.15186622738838196,0.03543682023882866
1790174135580655900,1.71365576171875,0.2588978707790375,-0.14052648842334747,-0.010495783761143684
1790174135590725600,1.7237255859375,0.26210030913352966,-0.14901238679885864,-0.09980648756027222
1790174135600796700,1.733796630859375,0.28756654262542725,-0.13110210001468658,-0.07367262244224548
1790174135610866700,1.74386669921875,0.34973856806755066,-0.10308324545621872,-0.0043321643024683
1790174135620937000,1.75393701171875,0.40026378631591797,-0.09317068755626678,0.04935237020254135
1790174135631007700,1.7640078125,0.39315155148506165,-0.04632488638162613,0.024921061471104622
1790174135641077800,1.774077880859375,0.36673805117607117,-0.002484995638951659,-0.007984955795109272
1790174135651148800,1.784148681640625,0.3776948153972626,0.022054968401789665,-0.10547982156276703
1790174135661218800,1.79421875,0.4247177243232727,0.07214103639125824,-0.10983595252037048
1790174135671289600,1.80428955078125,0.4846265912055969,0.07145127654075623,-0.026489930227398872
1790174135681360000,1.81435986328125,0.48111414909362793,0.07608544826507568,0.030614901334047318
1790174135691430000,1.824429931640625,0.45617684721946716,0.10297910869121552,0.024564998224377632
1790174135701500700,1.834500732421875,0.4682047665119171,0.11860600858926773,0.014362161047756672
1790174135711570700,1.84457080078125,0.5442856550216675,0.13398922979831696,0.04984398931264877
1790174135721641700,1.854641845703125,0.5959305167198181,0.14070838689804077,0.0590105876326561
1790174135731711700,1.864711669921875,0.6253435015678406,0.1495700478553772,-0.008144479244947433
1790174135741782800,1.87478271484375,0.587957501411438,0.1505514234304428,-0.035470109432935715
1790174135751852800,1.884852783203125,0.529233992099762,0.15969805419445038,-0.045108623802661896
1790174135761922800,1.8949228515625,0.5676634311676025,0.17812339961528778,-0.10634108632802963
1790174135771993900,1.904993896484375,0.612908124923706,0.1816403716802597,-0.08232017606496811
1790174135782063600,1.915063720703125,0.6423262357711792,0.18027496337890625,-0.10302198678255081
1790174135792134700,1.925134765625,0.6001020669937134,0.20132246613502502,-0.06473878026008606
1790174135802205000,1.935204833984375,0.6179100871086121,0.2167128622531891,0.08247943222522736
1790174135812274700,1.945274658203125,0.647656261920929,0.24255084991455078,0.11843929439783096
1790174135822345700,1.955345703125,0.6365258693695068,0.22678734362125397,-0.004279699642211199
1790174135832415700,1.965415771484375,0.5811060070991516,0.21604600548744202,-0.09800592809915543
1790174135842486800,1.97548681640625,0.5505097508430481,0.25212040543556213,-0.06455981731414795
1790174135852556800,1.985556884765625,0.5601447820663452,0.2500620484352112,0.0382097028195858
1790174135862627800,1.9956279296875,0.5514732599258423,0.24345099925994873,0.048478320240974426
1790174135872697900,2.00569775390625,0.4737244248390198,0.27589043974876404,-0.017240505665540695
1790174135882768000,2.015767822265625,0.46787506341934204,0.30068445205688477,-0.05945560336112976
1790174135892838700,2.025838623046875,0.5214935541152954,0.304099440574646,-0.046482812613248825
1790174135902909000,2.035908935546875,0.5159030556678772,0.31600216031074524,-0.000026365294615970924
1790174135912980000,2.04597998046875,0.5292819738388062,0.30539798736572266,0.13210797309875488
1790174135923049700,2.0560498046875,0.4956963062286377,0.31012964248657227,0.09128890186548233
1790174135933120800,2.066120849609375,0.5117309093475342,0.33066821098327637,-0.10584706813097
1790174135943190800,2.076190673828125,0.5031054615974426,0.3654743731021881,-0.11350791901350021
1790174135953260800,2.0862607421875,0.48758935928344727,0.3763746917247772,-0.032094020396471024
1790174135963331600,2.09633154296875,0.4602576196193695,0.37268248200416565,0.058890216052532196
1790174135973401900,2.10640185546875,0.45145347714424133,0.35916587710380554,-0.14196673035621643
1790174135983473000,2.116472900390625,0.5352836847305298,0.34983310103416443,0.08054943382740021
1790174135993543000,2.12654296875,0.5400794744491577,0.40909910202026367,0.17025801539421082
1790174136003613700,2.13661376953125,0.366750031709671,0.3587280511856079,0.0631970763206482
1790174136013683700,2.14668359375,0.2818000018596649,0.32324251532554626,-0.13543158769607544
1790174136023754000,2.15675390625,0.3712824583053589,0.39183834195137024,-0.17138373851776123
1790174136033825000,2.166824951171875,0.5004191398620605,0.37859469652175903,0.3004165589809418
1790174136043894800,2.176894775390625,0.46479618549346924,0.3526395559310913,0.46668142080307007
1790174136053965800,2.1869658203125,0.15505856275558472,0.23236186802387238,0.30491968989372253
1790174136064035800,2.197035888671875,0.19089138507843018,0.3011031150817871,-0.050992876291275024
1790174136074105900,2.20710595703125,0.4900195002555847,0.5009856224060059,-0.3768647313117981
1790174136084177000,2.217177001953125,0.4117412269115448,0.4258032441139221,-0.23454539477825165
1790174136094247000,2.227246826171875,0.23421409726142883,0.3605949282646179,0.12493927031755447
1790174136104318000,2.23731787109375,0.1790267378091812,0.38070419430732727,0.26108404994010925
1790174136114387700,2.2473876953125,0.23454833030700684,0.3450543284416199,0.04530330002307892
1790174136124458800,2.257458740234375,0.38614344596862793,0.4124717116355896,-0.14149081707000732
1790174136134528800,2.26752880859375,0.4381914734840393,0.49719300866127014,-0.10509179532527924
1790174136144598800,2.277598876953125,0.34222179651260376,0.45089608430862427,0.06584532558917999
1790174136154669800,2.287669921875,0.310899019241333,0.3679519295692444,0.03651513531804085
1790174136164739800,2.29773974609375,0.31119436025619507,0.3832813501358032,0.030964041128754616
1790174136174811000,2.307810791015625,0.3143875002861023,0.4159950911998749,0.07576347142457962
1790174136184880600,2.317880615234375,0.27923083305358887,0.44546055793762207,-0.02911367639899254
1790174136194951700,2.32795166015625,0.2104688137769699,0.4267425239086151,0.00999404489994049
1790174136205022000,2.33802197265625,0.3360815942287445,0.40245795249938965,0.2109929323196411
1790174136215091700,2.348091796875,0.42608392238616943,0.44400009512901306,0.1915513277053833
1790174136225162800,2.358162841796875,0.39361920952796936,0.42144152522087097,0.1856532245874405
1790174136235232800,2.368232666015625,0.2300715446472168,0.47870132327079773,0.06834523379802704
1790174136245303800,2.3783037109375,0.20309852063655853,0.5112672448158264,-0.04020361229777336
1790174136255373800,2.388373779296875,0.2415553629398346,0.4845970571041107,-0.0171427670866251
1790174136265443800,2.39844384765625,0.24606889486312866,0.5104355812072754,0.13416047394275665
1790174136275515000,2.408514892578125,0.2834290564060211,0.518467366695404,0.05030364915728569
1790174136285584600,2.418584716796875,0.20949649810791016,0.48608362674713135,0.007199323270469904
1790174136295655700,2.42865576171875,0.17022205889225006,0.4913170039653778,0.0734715536236763
1790174136305725700,2.4387255859375,0.1649245023727417,0.5267439484596252,0.2096315175294876
1790174136315796700,2.448796630859375,0.1845458745956421,0.5116094946861267,0.20232300460338593
1790174136325866800,2.45886669921875,0.1682625114917755,0.48039138317108154,0.2021206021308899
1790174136335936800,2.468936767578125,-0.06622855365276337,0.48340287804603577,0.024352477863430977
1790174136346007800,2.4790078125,-0.16489148139953613,0.43143343925476074,0.11221601814031601
1790174136356077800,2.489077880859375,-0.042747464030981064,0.4210050106048584,0.12742292881011963
1790174136366148600,2.499148681640625,-0.019463978707790375,0.39260798692703247,0.16227838397026062
1790174136376219000,2.509218994140625,-0.09808129072189331,0.34488070011138916,0.1984555721282959
1790174136386290000,2.5192900390625,-0.1900937706232071,0.3206837475299835,0.18359273672103882
1790174136396360000,2.52935986328125,-0.2616390585899353,0.2911865711212158,0.16180168092250824
1790174136406429700,2.5394296875,-0.25783687829971313,0.24722710251808167,0.17654840648174286
1790174136416500700,2.549500732421875,-0.24477912485599518,0.2319461554288864,0.19679322838783264
1790174136426571000,2.559571044921875,-0.3108329772949219,0.17831620573997498,0.20105907320976257
1790174136436641800,2.569641845703125,-0.4168315827846527,0.13460175693035126,0.12372886389493942
1790174136446711800,2.5797119140625,-0.4301958680152893,0.09607460349798203,0.19291406869888306
1790174136456781800,2.58978173828125,-0.489096462726593,0.04963386431336403,0.10167975723743439
1790174136466852900,2.599852783203125,-0.5394283533096313,0.0073135728016495705,0.01787327229976654
1790174136476922600,2.609922607421875,-0.5114225149154663,-0.012266519479453564,0.06338056921958923
1790174136486993700,2.61999365234375,-0.5226703882217407,0.0009440905996598303,0.012478773482143879
1790174136497064000,2.63006396484375,-0.5222157835960388,-0.008136489428579807,0.013220730237662792
1790174136507135000,2.640135009765625,-0.5500759482383728,-0.014394119381904602,0.1011415347456932
1790174136517204700,2.650204833984375,-0.5906859040260315,-0.052618205547332764,0.06847759336233139
1790174136527274800,2.660274658203125,-0.566132128238678,-0.10285980254411697,-0.09281861782073975
1790174136537345800,2.670345703125,-0.5721426010131836,-0.09464980661869049,-0.05807262286543846
1790174136547415800,2.680415771484375,-0.5893881916999817,-0.09695584326982498,-0.021516477689146996
1790174136557486800,2.69048681640625,-0.5312069058418274,-0.11165622621774673,-0.035287681967020035
1790174136567556900,2.700556884765625,-0.5474122166633606,-0.10969001054763794,0.02070501260459423
1790174136577628000,2.7106279296875,-0.5833835601806641,-0.1652776449918747,0.08298543095588684
1790174136587697700,2.72069775390625,-0.6419848203659058,-0.19827820360660553,0.14360590279102325
1790174136597768000,2.730767822265625,-0.5584717988967896,-0.19292418658733368,-0.008733037859201431
1790174136607839000,2.7408388671875,-0.4557739198207855,-0.15412938594818115,-0.022789468988776207
1790174136617908700,2.75090869140625,-0.45445379614830017,-0.13882073760032654,0.04271017760038376
1790174136627979800,2.760979736328125,-0.43553683161735535,-0.1500190645456314,0.07898243516683578
1790174136638049800,2.7710498046875,-0.4015437066555023,-0.1423097401857376,0.010119745507836342
1790174136648119800,2.781119873046875,-0.36933064460754395,-0.0972684994339943,-0.08333057910203934
1790174136658190800,2.79119091796875,-0.294839084148407,-0.0840136781334877,-0.10836881399154663
1790174136668260900,2.8012607421875,-0.15667375922203064,-0.08391141146421432,0.008198541589081287
1790174136678332000,2.811331787109375,-0.10619913786649704,-0.05127676948904991,0.09454488009214401
1790174136688401700,2.821401611328125,-0.07953770458698273,-0.06076587736606598,-0.015962455421686172
1790174136698472700,2.83147265625,-0.08358757197856903,-0.029579197987914085,-0.025105087086558342
1790174136708542700,2.841542724609375,-0.0686887800693512,0.035055987536907196,-0.09205003082752228
1790174136718612700,2.85161279296875,0.019294070079922676,0.035647209733724594,-0.04788443446159363
1790174136728683800,2.861683837890625,0.10204886645078659,0.04711904376745224,0.014333132654428482
1790174136738753500,2.87175341796875,0.1545134037733078,0.06289827078580856,0.003034672001376748
1790174136748824600,2.881824462890625,0.15069709718227386,0.0838959664106369,-0.021392639726400375
1790174136758894600,2.89189453125,0.10961570590734482,0.1045927181839943,-0.007023554760962725
1790174136768964600,2.901964599609375,0.07726762443780899,0.12359810620546341,0.03419605270028114
1790174136779035600,2.91203564453125,0.0831577405333519,0.12615473568439484,0.041735194623470306
1790174136789105700,2.922105712890625,0.10853633284568787,0.11925262212753296,-0.005029379855841398
1790174136799176700,2.9321767578125,0.1059887483716011,0.1402207612991333,0.01164813432842493
1790174136809246500,2.94224658203125,0.10543161630630493,0.1535530686378479,-0.011801797896623611
1790174136819317500,2.9523173828125,0.08315160870552063,0.14694763720035553,0.025110146030783653
1790174136829387800,2.9623876953125,0.09727515280246735,0.1587262600660324,0.030230605974793434
1790174136839457800,2.972457763671875,0.075820192694664,0.16635994613170624,0.009512544609606266
1790174136849528600,2.982528564453125,0.02534104324877262,0.14893142879009247,-0.021704230457544327
1790174136859598600,2.9925986328125,0.0073380740359425545,0.13823643326759338,-0.018848787993192673
1790174136869669600,3.002669677734375,-0.03971971571445465,0.13626116514205933,-0.0016801883466541767
1790174136879739600,3.01273974609375,-0.040466465055942535,0.11163625121116638,-0.010321080684661865
1790174136889810700,3.022810791015625,-0.013022058643400669,0.07188377529382706,-0.02449575625360012
1790174136899880700,3.032880615234375,-0.02237508073449135,0.07835578918457031,0.051474377512931824
1790174136909950700,3.04295068359375,-0.15352989733219147,0.08091455698013306,0.1406652331352234
1790174136920021500,3.053021484375,-0.23080284893512726,0.0313563235104084,-0.04375839978456497
1790174136930091500,3.063091552734375,-0.19451062381267548,0.009317335672676563,-0.0545005276799202
1790174136940162600,3.07316259765625,-0.151319220662117,0.024213461205363274,-0.04129018262028694
1790174136950232800,3.08323291015625,-0.18211893737316132,0.0288204625248909,0.06772471964359283
1790174136960303600,3.0933037109375,-0.23238450288772583,-0.02022404596209526,0.1669093519449234
1790174136970373600,3.10337353515625,-0.24484063684940338,-0.05144428089261055,-0.020189689472317696
1790174136980443600,3.113443603515625,-0.25812822580337524,-0.027525633573532104,-0.06575024873018265
1790174136990514700,3.1235146484375,-0.20507937669754028,0.003552656853571534,-0.022958844900131226
1790174137000584700,3.133584716796875,-0.2035033255815506,-0.008955145254731178,-0.006357498001307249
1790174137010655700,3.14365576171875,-0.2721404433250427,-0.0038743666373193264,-0.05730030685663223
1790174137020725800,3.153725830078125,-0.28676626086235046,-0.016216786578297615,0.0007962851668708026
1790174137030795500,3.16379541015625,-0.27774637937545776,0.013523798435926437,0.06027212738990784
1790174137040866600,3.173866455078125,-0.2398568093776703,-0.015052452683448792,0.045824479311704636
1790174137050936600,3.1839365234375,-0.2415178120136261,-0.019586218520998955,-0.006932741031050682
1790174137061007600,3.194007568359375,-0.25172439217567444,-0.013994112610816956,0.0248401015996933
1790174137071077600,3.20407763671875,-0.2574986517429352,-0.0022983080707490444,-0.05301980674266815
1790174137081148700,3.214148681640625,-0.2213989645242691,0.018501246348023415,-0.02147253416478634
1790174137091218700,3.22421875,-0.15760187804698944,0.016892697662115097,0.0794101357460022
1790174137101288400,3.234288330078125,-0.12745197117328644,-0.0036037894897162914,0.04815740883350372
1790174137111359500,3.244359375,-0.13496553897857666,-0.007816644385457039,-0.024873923510313034
1790174137121429800,3.2544296875,-0.1661146730184555,0.04727643355727196,-0.010758904740214348
1790174137131500800,3.264500732421875,-0.11156248301267624,0.03074752539396286,0.05055585131049156
1790174137141570600,3.274570556640625,-0.04379861429333687,0.034865837544202805,0.026567162945866585
1790174137151641600,3.2846416015625,0.003753991797566414,0.04288328438997269,-0.01878300867974758
1790174137161711600,3.294711669921875,0.014425544999539852,0.024236897006630898,-0.0021763353142887354
1790174137171781600,3.30478173828125,-0.006956176832318306,0.043663591146469116,-0.025613484904170036
1790174137181852700,3.314852783203125,0.007601194549351931,0.048588041216135025,-0.005859753116965294
1790174137191922700,3.324922607421875,0.060379188507795334,0.04712170735001564,0.01140099298208952
1790174137201993700,3.33499365234375,0.054125819355249405,0.08932188898324966,-0.09149768948554993
1790174137212063500,3.3450634765625,0.039018239825963974,0.09998012334108353,-0.06703443080186844
1790174137222133800,3.3551337890625,0.0638897642493248,0.09222739934921265,0.006484530866146088
1790174137232204800,3.365204833984375,0.06059597060084343,0.08888992667198181,0.03437954559922218
1790174137242274600,3.375274658203125,0.017462080344557762,0.07494987547397614,0.03574974089860916
1790174137252345600,3.385345703125,0.05060165748000145,0.0753386989235878,0.01637284830212593
1790174137262415600,3.39541552734375,0.09117545187473297,0.07215701788663864,0.001496430253610015
1790174137272486700,3.405486572265625,0.06979212909936905,0.0761975646018982,-0.010128534398972988
1790174137282556400,3.415556396484375,-0.012748552486300468,0.09286442399024963,-0.004495415836572647
1790174137292626700,3.425626708984375,-0.04796832427382469,0.08271458745002747,0.019884224981069565
1790174137302697700,3.43569775390625,-0.014712367206811905,0.05368639901280403,0.023383885622024536
1790174137312767700,3.445767822265625,-0.005559614859521389,0.06456194818019867,0.049559030681848526
1790174137322838500,3.455838623046875,-0.025592710822820663,0.052680253982543945,0.130232036113739
1790174137332908500,3.465908447265625,-0.11361071467399597,0.024775654077529907,0.07816271483898163
1790174137342978800,3.475978759765625,-0.2162894308567047,0.010463293641805649,-0.030438067391514778
1790174137353049900,3.4860498046875,-0.23352380096912384,0.03681713715195656,-0.04947753623127937
1790174137363119600,3.49611962890625,-0.1843477338552475,-0.003769704606384039,-0.0433243028819561
1790174137373190700,3.506190673828125,-0.13177214562892914,-0.03880838304758072,0.0777677670121193
1790174137383260700,3.5162607421875,-0.13878771662712097,-0.03039652109146118,0.08753278106451035
1790174137393331500,3.52633154296875,-0.22787737846374512,-0.030820496380329132,0.04535523056983948
1790174137403401700,3.536401611328125,-0.2796199321746826,-0.039556730538606644,0.04658188298344612
1790174137413471700,3.5464716796875,-0.2639285922050476,-0.05802095681428909,0.041608963161706924
1790174137423542800,3.556542724609375,-0.24985085427761078,-0.10310348123311996,0.10560338944196701
1790174137433612500,3.566612548828125,-0.2829856276512146,-0.17017599940299988,0.06345140933990479
1790174137443683600,3.57668359375,-0.28824350237846375,-0.1948653608560562,0.04183479771018028
1790174137453753600,3.586753662109375,-0.36191853880882263,-0.16305629909038544,0.10096310079097748
1790174137463824600,3.59682470703125,-0.4115324318408966,-0.19190898537635803,0.08314868062734604
1790174137473894700,3.606894775390625,-0.3457571268081665,-0.2580997347831726,0.08329009264707565
1790174137483964700,3.616964599609375,-0.36213183403015137,-0.22774474322795868,0.008311991579830647
1790174137494035700,3.62703564453125,-0.3953148424625397,-0.2305130958557129,-0.02286962978541851
1790174137504105500,3.63710546875,-0.35830941796302795,-0.2161613255739212,-0.020564131438732147
1790174137514176500,3.647176513671875,-0.2764212191104889,-0.22076380252838135,-0.0004495415778364986
1790174137524246800,3.657246826171875,-0.34359011054039,-0.24087172746658325,0.050338003784418106
1790174137534316500,3.667316650390625,-0.42167505621910095,-0.27470719814300537,-0.007514907978475094
1790174137544387600,3.6773876953125,-0.35954833030700684,-0.2710783779621124,-0.08693729341030121
1790174137554457600,3.68745751953125,-0.3051876127719879,-0.27253004908561707,-0.05778180807828903
1790174137564528600,3.697528564453125,-0.23757366836071014,-0.27058330178260803,0.002694852650165558
1790174137574598700,3.7075986328125,-0.2326364368200302,-0.27813148498535156,0.0960085541009903
1790174137584669700,3.717669677734375,-0.23745836317539215,-0.29384440183639526,0.009526659734547138
1790174137594739700,3.72773974609375,-0.1898900419473648,-0.2710045874118805,-0.0688038319349289
1790174137604809500,3.7378095703125,-0.17105910181999207,-0.23302818834781647,-0.011451059952378273
1790174137614880500,3.747880615234375,-0.11308979988098145,-0.2325166016817093,-0.06505463272333145
1790174137624950500,3.757950439453125,-0.0675465539097786,-0.20921766757965088,-0.048958223313093185
1790174137635021600,3.768021484375,0.011951734311878681,-0.18915128707885742,0.06271770596504211
1790174137645091600,3.778091552734375,0.07035832107067108,-0.1670699417591095,0.18015699088573456
1790174137655161600,3.78816162109375,0.10117295384407043,-0.1372276246547699,0.11978605389595032
1790174137665232600,3.798232666015625,0.1300663948059082,-0.0909046083688736,0.017136909067630768
1790174137675302700,3.808302734375,0.1157606840133667,-0.040098149329423904,0.0016104135429486632
1790174137685373400,3.81837353515625,0.17313475906848907,-0.026924291625618935,0.0032256206031888723
1790174137695443700,3.828443603515625,0.24615225195884705,-0.014368819072842598,-0.001972869737073779
1790174137705514800,3.8385146484375,0.30309489369392395,-0.0014775217277929187,-0.024341825395822525
1790174137715583700,3.848583740234375,0.283924400806427,-0.021191038191318512,0.06702856719493866
1790174137725653800,3.85865380859375,0.25932157039642334,0.006518619135022163,0.12127875536680222
1790174137735724800,3.868724853515625,0.258183091878891,0.02377403900027275,0.09844614565372467
1790174137745794800,3.878794921875,0.2542594373226166,0.02431652508676052,0.016937172040343285
1790174137755865900,3.888865966796875,0.2602134644985199,0.0609552301466465,-0.06310972571372986
1790174137765935900,3.898935791015625,0.24755626916885376,0.06893885135650635,-0.03575187176465988
1790174137776006000,3.909005859375,0.28323251008987427,0.04484656825661659,0.06835375726222992
1790174137786076700,3.91907666015625,0.2895428538322449,0.0489204041659832,0.07124808430671692
1790174137796147000,3.92914697265625,0.280037522315979,0.03985420614480972,0.05134095251560211
1790174137806218000,3.939218017578125,0.2641434967517853,0.04798004403710365,0.026685141026973724
1790174137816288000,3.9492880859375,0.27931180596351624,0.04760746657848358,-0.025492843240499496
1790174137826358800,3.95935888671875,0.21987271308898926,0.05631813406944275,-0.06054696813225746
1790174137836428800,3.9694287109375,0.1534356325864792,0.04897872731089592,-0.04404628649353981
1790174137846499000,3.9794990234375,0.14024285972118378,0.01619761250913143,-0.023441942408680916
1790174137856570000,3.989570068359375,0.16441796720027924,0.009652361273765564,0.04264812916517258
1790174137866640000,3.999639892578125,0.15021294355392456,-0.004538292996585369,0.127375528216362
1790174137876711000,4.0097109375,0.10498101264238358,-0.026851054280996323,0.031498804688453674
1790174137886781000,4.019781005859375,0.06547807902097702,-0.01876809448003769,-0.03279975801706314
1790174137896851700,4.029851806640625,0.03250893950462341,0.003997404593974352,0.03436596319079399
1790174137906922000,4.039921875,0.010632670484483242,0.011700864881277084,0.029896646738052368
1790174137916992000,4.049991943359375,0.0186447910964489,-0.005432316102087498,-0.011378355324268341
1790174137927063000,4.06006298828125,0.013748835772275925,-0.03389671444892883,-0.00971281435340643
1790174137937132800,4.0701328125,0.0047087352722883224,-0.03296593949198723,-0.003156378399580717
1790174137947203800,4.080203857421875,-0.03202637657523155,-0.011316570453345776,0.05895226448774338
1790174137957273900,4.09027392578125,-0.008026501163840294,-0.010455303825438023,0.044010866433382034
1790174137967343900,4.10034375,-0.004172374494373798,-0.03630287945270538,-0.06655159592628479
1790174137977415000,4.110414794921875,-0.02672668546438217,-0.04111894220113754,-0.10218842327594757
1790174137987485000,4.12048486328125,-0.027003655210137367,-0.03767414018511772,-0.06925630569458008
1790174137997556000,4.130555908203125,-0.025060612708330154,-0.03582164645195007,-0.06544531881809235
1790174138007625700,4.140625732421875,-0.016105201095342636,-0.026825223118066788,0.023913055658340454
1790174138017696800,4.15069677734375,-0.0389133095741272,-0.011301922611892223,0.05219263210892677
1790174138027767000,4.16076708984375,-0.0043952809646725655,-0.03338298946619034,0.03560113534331322
1790174138037836800,4.1708369140625,0.0402132011950016,-0.03561525046825409,-0.055684566497802734
1790174138047907800,4.180907958984375,0.02948279120028019,-0.005605954211205244,-0.08736686408519745
1790174138057977900,4.190977783203125,0.03917723149061203,-0.0006191849242895842,-0.05035238713026047
1790174138068049000,4.201048828125,0.06244420260190964,0.006653641816228628,0.027995148673653603
1790174138078119000,4.211118896484375,0.12294589728116989,-0.0038149782922118902,0.09030752629041672
1790174138088189000,4.22118896484375,0.09126546233892441,0.013008209876716137,0.04122892767190933
1790174138098260000,4.231260009765625,0.08592343330383301,0.00628932099789381,0.0733831375837326
1790174138108329700,4.241329833984375,0.0603293851017952,0.017653828486800194,0.022356970235705376
1790174138118400800,4.25140087890625,0.05609682574868202,0.04364441707730293,0.024292290210723877
1790174138128470800,4.261470703125,0.09366150945425034,0.05523449182510376,0.05789206176996231
1790174138138541800,4.271541748046875,0.09221674501895905,0.0456622950732708,-0.06192115694284439
1790174138148611800,4.28161181640625,0.0674930214881897,0.03863101452589035,-0.01384124718606472
1790174138158681900,4.291681884765625,0.06187162175774574,0.040044888854026794,0.09097597748041153
1790174138168753000,4.3017529296875,0.03771888464689255,0.047095075249671936,-0.00433109886944294
1790174138178823000,4.311822998046875,0.031572841107845306,0.03229935094714165,-0.04092346504330635
1790174138188893700,4.321893798828125,0.033839721232652664,0.03501204773783684,-0.051300205290317535
1790174138198964000,4.3319638671875,0.06753696501255035,0.05404379218816757,-0.07351629436016083
1790174138209034000,4.342033935546875,0.03801635652780533,0.06605757772922516,-0.04514244571328163
1790174138219105000,4.35210498046875,0.06662909686565399,0.060142964124679565,0.02754853665828705
1790174138229174800,4.3621748046875,0.12980753183364868,0.07153676450252533,0.06511694937944412
1790174138239245800,4.372245849609375,0.13914111256599426,0.02093271166086197,0.08540331572294235
1790174138249316000,4.382316162109375,0.06793137639760971,-0.012927782721817493,0.04869057238101959
1790174138259387000,4.392386962890625,-0.02949663996696472,0.0006458165589720011,-0.044375453144311905
1790174138269457000,4.402456787109375,-0.06520270556211472,0.0035537220537662506,-0.014375743456184864
1790174138279527000,4.41252685546875,-0.060876134783029556,0.005504221189767122,-0.055026501417160034
1790174138289598000,4.422597900390625,-0.01571344956755638,-0.009547166526317596,-0.06547381728887558
1790174138299667700,4.432667724609375,0.024046747013926506,-0.01690228469669819,-0.043226566165685654
1790174138309738800,4.44273876953125,0.05313964933156967,0.005327120888978243,-0.02315698377788067
1790174138319809000,4.45280908203125,0.07590807974338531,0.034382209181785583,-0.022064821794629097
1790174138329880000,4.462880126953125,0.06801926344633102,0.06883285939693451,-0.019707391038537025
1790174138339949800,4.47294970703125,0.06431107968091965,0.0788777694106102,-0.021864552050828934
1790174138350019800,4.483019775390625,0.05751176178455353,0.09140820801258087,-0.04469556733965874
1790174138360091000,4.4930908203125,0.08556336909532547,0.10992223769426346,-0.06034163758158684
1790174138370161000,4.503160888671875,0.139139786362648,0.11471299827098846,0.0004655205411836505
1790174138380232000,4.51323193359375,0.14981772005558014,0.1168627068400383,0.05470505729317665
1790174138390302000,4.523302001953125,0.1283252090215683,0.09193631261587143,0.030884146690368652
1790174138400371700,4.533371826171875,0.08563873916864395,0.10637065023183823,-0.006690925918519497
1790174138410442800,4.54344287109375,0.028329908847808838,0.14485891163349152,0.030184267088770866
1790174138420513000,4.553512939453125,0.045937396585941315,0.12549534440040588,0.044185571372509
1790174138430584000,4.563583984375,0.023985493928194046,0.11999644339084625,0.04481753706932068
1790174138440653800,4.57365380859375,0.009140235371887684,0.10239481180906296,0.02917466312646866
1790174138450724900,4.583724853515625,0.01889406330883503,0.08221684396266937,0.006440056022256613
1790174138460795000,4.593794921875,-0.013279053382575512,0.12250380963087082,0.08816474676132202
1790174138470865000,4.603864990234375,-0.02479136548936367,0.12132829427719116,0.024595357477664948
1790174138480936000,4.61393603515625,-0.03714283928275108,0.11936261504888535,-0.010541058145463467
1790174138491006000,4.624005859375,-0.03524800017476082,0.13357430696487427,-0.024523718282580376
1790174138501077000,4.634076904296875,-0.036318857222795486,0.12984907627105713,-0.02996162697672844
1790174138511146800,4.644146728515625,-0.03208150342106819,0.13525795936584473,-0.05139235034584999
1790174138521216800,4.654216796875,-0.02322063408792019,0.1148030161857605,-0.010600713081657887
1790174138531287800,4.664287841796875,-0.03322719410061836,0.08591091632843018,0.049251437187194824
1790174138541358000,4.674358154296875,-0.052601158618927,0.08449890464544296,-0.022819828242063522
1790174138551428900,4.684428955078125,-0.11503497511148453,0.07157405465841293,-0.018455972895026207
1790174138561499000,4.694498779296875,-0.1317276656627655,0.04935663193464279,-0.02003815583884716
1790174138571570000,4.70456982421875,-0.141890287399292,0.018918031826615334,-0.019786754623055458
1790174138581640000,4.714639892578125,-0.1743590235710144,-0.017783790826797485,-0.0031372036319226027
1790174138591710000,4.7247099609375,-0.16803240776062012,-0.02532160095870495,-0.010038785636425018
1790174138601781000,4.734781005859375,-0.1939002275466919,-0.014945926144719124,-0.03684137016534805
1790174138611851000,4.74485107421875,-0.20721204578876495,-0.018159296363592148,-0.0035108451265841722
1790174138621921800,4.754921875,-0.20097118616104126,-0.05257505923509598,0.09829993546009064
1790174138631991800,4.76499169921875,-0.18130134046077728,-0.07980029284954071,0.055318381637334824
1790174138642061800,4.775061767578125,-0.20482318103313446,-0.07519275695085526,-0.02220144309103489
1790174138652132900,4.7851328125,-0.23697713017463684,-0.06240665167570114,-0.07357967644929886
1790174138662203000,4.795202880859375,-0.22299739718437195,-0.05681641027331352,-0.07577864825725555
1790174138672274000,4.80527392578125,-0.20004041492938995,-0.0632745772600174,-0.0461571104824543
1790174138682344000,4.815343994140625,-0.1695493459701538,-0.0994349792599678,0.03605227544903755
1790174138692415000,4.8254150390625,-0.1910245418548584,-0.09292061626911163,0.08340274542570114
1790174138702484700,4.835484619140625,-0.19350607693195343,-0.09084175527095795,0.11378169059753418
1790174138712555000,4.845554931640625,-0.1966872215270996,-0.09489242732524872,0.03352893143892288
1790174138722626000,4.8556259765625,-0.18585242331027985,-0.09094535559415817,-0.024522652849555016
1790174138732695800,4.86569580078125,-0.1676582396030426,-0.0866941511631012,0.028837507590651512
1790174138742766800,4.875766845703125,-0.17307990789413452,-0.07824873179197311,-0.01991751603782177
1790174138752836900,4.8858369140625,-0.14794978499412537,-0.06999426335096359,0.05649257078766823
1790174138762908000,4.895907958984375,-0.13428457081317902,-0.08209087699651718,0.06948134303092957
1790174138772978000,4.90597802734375,-0.15081854164600372,-0.05525606498122215,0.030705448240041733
1790174138783048000,4.9160478515625,-0.15539970993995667,-0.04657362774014473,0.05910592898726463
1790174138793119000,4.926118896484375,-0.11325358599424362,-0.04235810786485672,0.051919125020504
1790174138803189000,4.93618896484375,-0.09525568038225174,-0.02497752197086811,0.018500713631510735
1790174138813259800,4.946259765625,-0.1189998909831047,-0.04158312827348709,0.05014306306838989
1790174138823330000,4.956330078125,-0.11643686145544052,-0.0345904678106308,0.09381198137998581
1790174138833400000,4.966400146484375,-0.11491912603378296,-0.0337638221681118,0.04184172302484512
1790174138843471000,4.97647119140625,-0.11885847896337509,-0.040645696222782135,-0.013047358952462673
1790174138853540900,4.986540771484375,-0.09136160463094711,-0.05357640981674194,-0.04008004069328308
1790174138863612000,4.99661181640625,-0.06982355564832687,-0.06529511511325836,-0.07959868758916855
1790174138873682000,5.006681884765625,-0.12220633774995804,-0.05988437309861183,-0.027161579579114914
1790174138883752700,5.016752685546875,-0.1617438942193985,-0.0430273599922657,0.02702336199581623
1790174138893823000,5.026822998046875,-0.13279452919960022,-0.05777621269226074,0.07999150454998016
1790174138903893000,5.03689306640625,-0.11767842620611191,-0.07805085927248001,0.05226773023605347
1790174138913964000,5.046964111328125,-0.09818968176841736,-0.09450466930866241,0.030551783740520477
1790174138924033800,5.05703369140625,-0.1226968914270401,-0.062177885323762894,-0.0324905663728714
1790174138934104800,5.067104736328125,-0.13090714812278748,-0.058929361402988434,-0.04885169491171837
1790174138944175000,5.077175048828125,-0.11670264601707458,-0.0778798833489418,0.004161987919360399
1790174138954244900,5.087244873046875,-0.11791545152664185,-0.061953913420438766,0.04048484191298485
1790174138964316000,5.09731591796875,-0.13704520463943481,-0.07217060029506683,0.06396007537841797
1790174138974386000,5.107385986328125,-0.20804214477539062,-0.06262423098087311,-0.0057249972596764565
1790174138984457000,5.11745703125,-0.2509629726409912,-0.04289473593235016,-0.02334340661764145
1790174138994527000,5.12752685546875,-0.22599159181118011,-0.04944318160414696,-0.0133850472047925
1790174139004598000,5.137597900390625,-0.17515982687473297,-0.07833421975374222,-0.03819159418344498
1790174139014668000,5.14766796875,-0.18742182850837708,-0.0895618423819542,-0.01732839085161686
1790174139024737800,5.15773779296875,-0.24971316754817963,-0.1150064766407013,0.022654179483652115
1790174139034808800,5.167808837890625,-0.32263824343681335,-0.11430101096630096,0.04703968018293381
1790174139044878800,5.17787890625,-0.34013545513153076,-0.10218868404626846,-0.002005626680329442
1790174139054950000,5.187949951171875,-0.3068254590034485,-0.11156913638114929,-0.01164706889539957
1790174139065020000,5.19802001953125,-0.2825949490070343,-0.1394955813884735,0.012327772565186024
1790174139075091000,5.208091064453125,-0.30009031295776367,-0.15671850740909576,0.033661555498838425
1790174139085161000,5.218160888671875,-0.31948956847190857,-0.16962231695652008,0.0935073122382164
1790174139095230700,5.228230712890625,-0.3389008343219757,-0.18155062198638916,0.11239365488290787
1790174139105301800,5.2383017578125,-0.34273046255111694,-0.18614350259304047,0.01467827893793583
1790174139115372000,5.2483720703125,-0.3596266210079193,-0.19152282178401947,-0.006244580261409283
1790174139125443000,5.258443115234375,-0.36336809396743774,-0.22746537625789642,-0.0332287922501564
1790174139135512800,5.268512939453125,-0.3420766592025757,-0.25991201400756836,0.018580075353384018
1790174139145582800,5.278582763671875,-0.33616018295288086,-0.26769083738327026,0.08317957818508148
1790174139155654000,5.28865380859375,-0.3514198064804077,-0.26683834195137024,0.09635529667139053
1790174139165724200,5.29872412109375,-0.38494181632995605,-0.27008020877838135,0.028149345889687538
1790174139175795000,5.308794921875,-0.36470791697502136,-0.28728610277175903,-0.003689809702336788
1790174139185865000,5.318864990234375,-0.32752248644828796,-0.2921173572540283,-0.05717114359140396
1790174139195935000,5.32893505859375,-0.28105536103248596,-0.30951204895973206,-0.04830548167228699
1790174139206006000,5.339006103515625,-0.2981691062450409,-0.346206933259964,0.05807608738541603
1790174139216075800,5.34907568359375,-0.34408998489379883,-0.3550925850868225,0.06251690536737442
1790174139226146800,5.359146728515625,-0.31707754731178284,-0.3808027505874634,0.033666085451841354
1790174139236217000,5.369217041015625,-0.26961150765419006,-0.3382504880428314,0.04653261601924896
1790174139246288000,5.379287841796875,-0.20162685215473175,-0.34701788425445557,0.09125667810440063
1790174139256358000,5.38935791015625,-0.16717487573623657,-0.3402007222175598,0.10296206921339035
1790174139266428000,5.399427978515625,-0.1757662296295166,-0.30795568227767944,0.13831952214241028
1790174139276499000,5.4094990234375,-0.11284931749105453,-0.2937954068183899,0.05595168098807335
1790174139286569000,5.41956884765625,-0.03140106424689293,-0.2791155278682709,-0.022662168368697166
1790174139296640000,5.429639892578125,0.002665824256837368,-0.24829423427581787,-0.01943282037973404
1790174139306710000,5.4397099609375,-0.0006554039428010583,-0.2021070271730423,-0.014536598697304726
1790174139316781000,5.449781005859375,0.01643490046262741,-0.18299245834350586,-0.007772701792418957
1790174139326850800,5.459850830078125,0.06623707711696625,-0.14842276275157928,-0.08229940384626389
1790174139336921000,5.469921142578125,0.14085112512111664,-0.1307244598865509,-0.03351987525820732
1790174139346992000,5.4799921875,0.21195831894874573,-0.13703827559947968,-0.08115184307098389
1790174139357062000,5.490061767578125,0.20206362009048462,-0.0876518189907074,-0.0839923694729805
1790174139367133000,5.5001328125,0.18197353184223175,-0.06257683038711548,-0.0020532971248030663
1790174139377203000,5.510202880859375,0.2069891393184662,-0.07490114122629166,-0.04548652470111847
1790174139387273000,5.52027294921875,0.21732433140277863,-0.0726664811372757,0.01013678964227438
1790174139397344000,5.530343994140625,0.2295655459165573,-0.07243771106004715,0.009008408524096012
1790174139407414000,5.5404140625,0.24026000499725342,-0.0711255744099617,0.08055822551250458
1790174139417485000,5.550485107421875,0.2655555009841919,-0.06640805304050446,-0.0011472897604107857
1790174139427554800,5.560554931640625,0.21913793683052063,-0.060864683240652084,-0.048107873648405075
1790174139437625900,5.5706259765625,0.1615777164697647,-0.07264091074466705,0.004679972771555185
1790174139447696000,5.58069580078125,0.1874183565378189,-0.08791227638721466,0.021032048389315605
1790174139457766000,5.590765869140625,0.22980709373950958,-0.09947598725557327,0.03682113066315651
1790174139467837000,5.6008369140625,0.18831399083137512,-0.11143038421869278,0.06316165626049042
1790174139477907000,5.610906982421875,0.08280060440301895,-0.0900297611951828,0.10082647949457169
1790174139487978000,5.62097802734375,0.03996552526950836,-0.08269195258617401,-0.00021837920940015465
1790174139498047700,5.6310478515625,0.07195168733596802,-0.12012533843517303,-0.010554639622569084
1790174139508118000,5.641117919921875,0.09616381675004959,-0.15131601691246033,-0.004491687286645174
1790174139518189000,5.65118896484375,0.061946459114551544,-0.17145989835262299,0.06397765129804611
1790174139528259000,5.661259033203125,0.0032386700622737408,-0.19032441079616547,0.014336861670017242
1790174139538329900,5.671329833984375,-0.0272047221660614,-0.1878676414489746,-0.00812184251844883
1790174139548399900,5.68139990234375,-0.037041109055280685,-0.18634085357189178,-0.00010120012302650139
1790174139558471000,5.691470947265625,-0.01563568413257599,-0.22912533581256866,-0.006609699688851833
1790174139568541000,5.701541015625,0.0029883331153541803,-0.2725479006767273,-0.03068041428923607
1790174139578611000,5.71161083984375,-0.009766610339283943,-0.26851746439933777,0.025127191096544266
1790174139588682000,5.721681884765625,0.03550446406006813,-0.2804090082645416,0.042574889957904816
1790174139598752000,5.731751953125,0.1379016786813736,-0.30191856622695923,0.08499771356582642
1790174139608822800,5.74182275390625,0.14653590321540833,-0.2790771722793579,0.09654225409030914
1790174139618892800,5.751892822265625,0.1280900537967682,-0.2643056809902191,0.016679910942912102
1790174139628963000,5.761963134765625,0.16379931569099426,-0.2581058442592621,-0.030495591461658478
1790174139639034000,5.7720341796875,0.26052984595298767,-0.21836642920970917,-0.05824839323759079
1790174139649104000,5.782103759765625,0.30137768387794495,-0.18786869943141937,-0.07034926116466522
1790174139659175000,5.7921748046875,0.34250861406326294,-0.1687043309211731,-0.032216258347034454
1790174139669245000,5.802244873046875,0.4136400520801544,-0.14360536634922028,0.0018197379540652037
1790174139679316000,5.81231591796875,0.45157864689826965,-0.08861055970191956,-0.039747945964336395
1790174139689386000,5.822385986328125,0.48100337386131287,-0.048643168061971664,-0.06071128323674202
1790174139699456000,5.8324560546875,0.528852641582489,-0.005161738954484463,-0.0499555766582489
1790174139709527000,5.842527099609375,0.5340969562530518,0.05035398527979851,-0.05722014605998993
1790174139719596800,5.8525966796875,0.6071298718452454,0.03653697296977043,-0.044667068868875504
1790174139729667600,5.86266748046875,0.6538183093070984,0.06935617327690125,0.01998409442603588
1790174139739737900,5.87273779296875,0.6879426836967468,0.09550148993730545,0.06883259117603302
1790174139749809000,5.882808837890625,0.6883520483970642,0.11299525946378708,0.01859951764345169
1790174139759879000,5.89287890625,0.6545764803886414,0.14613084495067596,-0.04451100900769234
1790174139769948700,5.90294873046875,0.64720219373703,0.18193864822387695,-0.03989681601524353
1790174139780019700,5.913019775390625,0.6558138132095337,0.20417283475399017,-0.02592294290661812
1790174139790089700,5.92308984375,0.6711307168006897,0.20785892009735107,0.04433976858854294
1790174139800160800,5.933160888671875,0.6741102337837219,0.20548151433467865,-0.033250898122787476
1790174139810230800,5.943230712890625,0.6327716112136841,0.23821842670440674,-0.05648484826087952
1790174139820300800,5.95330078125,0.5954058766365051,0.2878110110759735,-0.012643356807529926
1790174139830371800,5.963371826171875,0.5958175659179688,0.29063501954078674,-0.02809102274477482
1790174139840441600,5.973441650390625,0.6057482361793518,0.274286687374115,-0.12994255125522614
1790174139850512600,5.9835126953125,0.5733098983764648,0.26841095089912415,-0.0831657275557518
1790174139860583000,5.9935830078125,0.5482774972915649,0.2546538710594177,-0.0005502090789377689
1790174139870654000,6.003654052734375,0.5282979011535645,0.23830284178256989,0.02887985110282898
1790174139880723700,6.0137236328125,0.4916355013847351,0.2414858639240265,0.023090405389666557
1790174139890793700,6.023793701171875,0.45893216133117676,0.23716701567173004,0.027648672461509705
1790174139900864800,6.03386474609375,0.43929988145828247,0.2203265130519867,-0.0006354302167892456
1790174139910934800,6.043934814453125,0.4132576286792755,0.22181575000286102,-0.03181891515851021
1790174139921005800,6.054005859375,0.39272916316986084,0.19904039800167084,-0.014123275876045227
1790174139931075800,6.064075927734375,0.4192659854888916,0.17229905724525452,0.0733485147356987
1790174139941145600,6.0741455078125,0.39554840326309204,0.17623122036457062,0.06515104323625565
1790174139951216600,6.084216552734375,0.39236724376678467,0.18519115447998047,0.06735400855541229
1790174139961286700,6.09428662109375,0.33595484495162964,0.21461322903633118,0.04249180108308792
1790174139971357700,6.104357666015625,0.312467098236084,0.2126355618238449,0.0010692591313272715
1790174139981427700,6.114427734375,0.34056130051612854,0.20554757118225098,0.0882403776049614
1790174139991498800,6.124498779296875,0.36952558159828186,0.22308474779129028,0.11740678548812866
1790174140001568800,6.13456884765625,0.36244797706604004,0.22368982434272766,0.09085986763238907
1790174140011638800,6.144638671875,0.3100987374782562,0.22331218421459198,0.02955682761967182
1790174140021709600,6.15470947265625,0.3156711459159851,0.24856559932231903,-0.022970030084252357
1790174140031779800,6.16477978515625,0.30477482080459595,0.2668024003505707,-0.059358399361371994
1790174140041851000,6.174850830078125,0.3251972794532776,0.2678396999835968,-0.06151928752660751
1790174140051920600,6.184920654296875,0.33282989263534546,0.27807316184043884,0.036555081605911255
1790174140061990700,6.19499072265625,0.32940611243247986,0.2811906635761261,0.02929929830133915
1790174140072061700,6.205061767578125,0.3242188096046448,0.2858535945415497,0.05088954418897629
1790174140082132000,6.215132080078125,0.3195796012878418,0.2777056396007538,0.028233768418431282
1790174140092202800,6.22520263671875,0.3162418603897095,0.28722885251045227,0.014041783288121223
1790174140102272800,6.235272705078125,0.2771245539188385,0.3074486255645752,-0.03929707035422325
1790174140112343800,6.24534375,0.2451290637254715,0.3297789692878723,0.04500449076294899
1790174140122413800,6.255413818359375,0.3089416027069092,0.31520935893058777,0.0010407633380964398
1790174140132483800,6.26548388671875,0.3206629753112793,0.30824464559555054,0.070216104388237
1790174140142555000,6.275554931640625,0.30559372901916504,0.2989528775215149,0.10465317219495773
1790174140152625000,6.285625,0.30221179127693176,0.2881678640842438,0.043357059359550476
1790174140162695700,6.29569580078125,0.29149389266967773,0.30563822388648987,-0.012075837701559067
1790174140172765700,6.305765625,0.26308223605155945,0.3466700613498688,0.04350033774971962
1790174140182836700,6.315836669921875,0.22754234075546265,0.3202456533908844,0.1645556539297104
1790174140192906800,6.32590673828125,0.21485371887683868,0.2896789610385895,0.10639301687479019
1790174140202976800,6.335976806640625,0.14999189972877502,0.3260713219642639,0.055938899517059326
1790174140213047800,6.3460478515625,0.15738722681999207,0.3234750032424927,0.06864617019891739
1790174140223117800,6.356117919921875,0.12838727235794067,0.3666333854198456,0.04021373391151428
1790174140233188900,6.36618896484375,0.060989849269390106,0.38311782479286194,0.03145885467529297
1790174140243258600,6.376258544921875,0.07010744512081146,0.39042872190475464,0.033299099653959274
1790174140253329000,6.386328857421875,0.11451911926269531,0.3934610188007355,0.04303748160600662
1790174140263400000,6.39639990234375,0.06632363051176071,0.38794001936912537,0.10737945139408112
1790174140273469700,6.4064697265625,0.015505456365644932,0.3564273715019226,0.1376209855079651
1790174140283540700,6.416540771484375,0.01703064888715744,0.3193279206752777,0.09774360060691833
1790174140293610800,6.42661083984375,0.0016295883106067777,0.3218928277492523,0.019087141379714012
1790174140303681800,6.436681884765625,-0.037874143570661545,0.3046744167804718,-0.005994775798171759
1790174140313751800,6.446751708984375,-0.05419958755373955,0.28472787141799927,0.0056392434053123
1790174140323821800,6.45682177734375,-0.08171270787715912,0.2670106589794159,0.09526899456977844
1790174140333892900,6.466892822265625,-0.10996751487255096,0.23829512298107147,0.06804429739713669
1790174140343962600,6.476962646484375,-0.13036812841892242,0.23030270636081696,0.11767363548278809
1790174140354033700,6.48703369140625,-0.13728675246238708,0.20007237792015076,0.1075672060251236
1790174140364103700,6.497103759765625,-0.17824670672416687,0.18431657552719116,0.03365250304341316
1790174140374174000,6.507174072265625,-0.21755282580852509,0.17388257384300232,0.02515888214111328
1790174140384244700,6.51724462890625,-0.20217441022396088,0.17394889891147614,0.11397290974855423
1790174140394314800,6.527314697265625,-0.23540931940078735,0.16763773560523987,0.07979762554168701
1790174140404385800,6.5373857421875,-0.2712416350841522,0.15688282251358032,0.08637537062168121
1790174140414455600,6.54745556640625,-0.2797064781188965,0.16623477637767792,0.09702987968921661
1790174140424526600,6.557526611328125,-0.2714157998561859,0.1334209144115448,0.01770096644759178
1790174140434596900,6.567596923828125,-0.263192743062973,0.1552891880273819,0.07409925758838654
1790174140444667000,6.5776669921875,-0.2850663661956787,0.15202414989471436,0.16397401690483093
1790174140454737700,6.587737548828125,-0.29479941725730896,0.12143215537071228,0.15155011415481567
1790174140464807700,6.5978076171875,-0.3916812241077423,0.14164048433303833,0.1168227568268776
1790174140474878700,6.607878662109375,-0.4196294844150543,0.13420388102531433,0.03977803885936737
1790174140484949000,6.617948974609375,-0.3592495024204254,0.09959050267934799,0.07299964129924774
1790174140495018800,6.628018798828125,-0.2869825065135956,0.08978527784347534,0.058457184582948685
1790174140505089800,6.63808984375,-0.3126969337463379,0.09404953569173813,0.16794000566005707
1790174140515159800,6.648159912109375,-0.37738457322120667,0.08834264427423477,0.22868111729621887
1790174140525230800,6.65823095703125,-0.36326903104782104,0.057669688016176224,0.12403299659490585
1790174140535300600,6.668300537109375,-0.4047040641307831,0.06089024990797043,0.08481848239898682
1790174140545371600,6.67837158203125,-0.4154065251350403,0.035775307565927505,0.014446050859987736
1790174140555442000,6.68844189453125,-0.41985026001930237,0.038248587399721146,-0.05970674008131027
1790174140565511700,6.69851171875,-0.42390599846839905,0.02106134220957756,-0.0162988118827343
1790174140575582700,6.708582763671875,-0.4286176562309265,-0.031369905918836594,0.05065758526325226
1790174140585652700,6.71865283203125,-0.47793087363243103,-0.06907334178686142,0.012432967312633991
1790174140595723800,6.728723876953125,-0.4615500569343567,-0.08605366200208664,-0.02026958577334881
1790174140605793800,6.738793701171875,-0.48455551266670227,-0.07808947563171387,0.0405048169195652
1790174140615863800,6.74886376953125,-0.49700844287872314,-0.12075438350439072,0.08181310445070267
1790174140625934800,6.758934814453125,-0.49302542209625244,-0.15263721346855164,0.08497854322195053
1790174140636004600,6.769004638671875,-0.47215449810028076,-0.16446857154369354,0.10903487354516983
1790174140646075600,6.77907568359375,-0.45096105337142944,-0.21843193471431732,0.09937772154808044
1790174140656146000,6.78914599609375,-0.49417537450790405,-0.2322833091020584,0.04590544104576111
1790174140666217000,6.799217041015625,-0.49889183044433594,-0.22263839840888977,0.049752376973629
1790174140676286700,6.80928662109375,-0.47427597641944885,-0.25580912828445435,0.01587616838514805
1790174140686356700,6.819356689453125,-0.4804009795188904,-0.2540855407714844,-0.009498430415987968
1790174140696427800,6.829427734375,-0.4749950170516968,-0.24621430039405823,-0.01158794667571783
1790174140706497800,6.839497802734375,-0.4688612222671509,-0.23986132442951202,-0.08756260573863983
1790174140716569600,6.849569580078125,-0.4573800563812256,-0.22510315477848053,-0.035101260989904404
1790174140726639600,6.8596396484375,-0.48239195346832275,-0.2168545424938202,-0.046117428690195084
1790174140736709600,6.869709716796875,-0.4117364287376404,-0.22310206294059753,-0.06315233558416367
1790174140746780700,6.87978076171875,-0.3390539586544037,-0.20063430070877075,-0.043296873569488525
1790174140756850400,6.889850341796875,-0.3042765259742737,-0.17129318416118622,-0.07043102383613586
1790174140766921500,6.89992138671875,-0.3004927337169647,-0.13194765150547028,0.0015110776294022799
1790174140776991500,6.909991455078125,-0.3307696580886841,-0.12277492135763168,-0.009340505115687847
1790174140787062500,6.9200625,-0.2767655551433563,-0.16500306129455566,-0.0063196811825037
1790174140797132500,6.930132568359375,-0.17532281577587128,-0.1666414439678192,0.015211976133286953
1790174140807202600,6.94020263671875,-0.11453882604837418,-0.13755865395069122,0.06819343566894531
1790174140817273600,6.950273681640625,-0.10907482355833054,-0.14572738111019135,0.059252139180898666
1790174140827343400,6.96034326171875,-0.12787726521492004,-0.12669669091701508,-0.016378706321120262
1790174140837414400,6.970414306640625,-0.111729197204113,-0.08898686617612839,0.0255141481757164
1790174140847484700,6.980484619140625,-0.08880656957626343,-0.08125730603933334,-0.030890271067619324
1790174140857554700,6.9905546875,-0.03339257836341858,-0.09891193360090256,0.03879852965474129
1790174140867625500,7.00062548828125,0.017114538699388504,-0.08844012022018433,0.009109076112508774
1790174140877695500,7.010695556640625,0.01312059536576271,-0.054963115602731705,0.024869663640856743
1790174140887766500,7.0207666015625,-0.030249249190092087,-0.06667729467153549,-0.030308637768030167
1790174140897836500,7.03083642578125,-0.02305125631392002,-0.06076987460255623,-0.061830878257751465
1790174140907907600,7.040907470703125,0.04664473235607147,-0.07365851104259491,-0.034446392208337784
1790174140917977600,7.0509775390625,0.06717344373464584,-0.06445834785699844,-0.0738111063838005
1790174140928047600,7.061047607421875,-0.014994928613305092,-0.036075711250305176,-0.12930898368358612
1790174140938118400,7.071118408203125,-0.03610873594880104,-0.08678043633699417,-0.1014360785484314
1790174140948188400,7.0811884765625,0.055511996150016785,-0.09313686937093735,-0.08280567079782486
1790174140958259500,7.091259521484375,0.08710826933383942,-0.09240849316120148,0.014082795940339565
1790174140968329700,7.101329833984375,0.08012599498033524,-0.08317238092422485,0.03458594158291817
1790174140978400500,7.111400390625,-0.008323177695274353,-0.04243401065468788,0.007136738859117031
1790174140988470500,7.121470458984375,-0.0329667367041111,-0.038056571036577225,-0.061285994946956635
1790174140998540500,7.13154052734375,0.03516358137130737,-0.06664294004440308,0.03434306010603905
1790174141008611300,7.141611328125,0.07485879212617874,-0.07093515992164612,-0.01323937252163887
1790174141018681600,7.151681640625,0.027530428022146225,-0.06403118371963501,0.008446748368442059
1790174141028752600,7.161752685546875,0.01561384741216898,-0.0892806127667427,-0.01942749321460724
1790174141038822700,7.17182275390625,-0.023272300139069557,-0.03773326426744461,-0.0354839563369751
1790174141048892400,7.181892333984375,0.011272361502051353,-0.06636304408311844,0.020538831129670143
1790174141058963500,7.19196337890625,0.033727336674928665,-0.09797636419534683,0.03521258011460304
1790174141069033700,7.20203369140625,0.007695470005273819,-0.06859929859638214,-0.008470450527966022
1790174141079104800,7.212104736328125,-0.023196931928396225,-0.06215311959385872,-0.015847139060497284
1790174141089174500,7.222174560546875,0.018340125679969788,-0.08900124579668045,-0.021379057317972183
1790174141099244500,7.23224462890625,0.09492678195238113,-0.08376893401145935,-0.029950974509119987
1790174141109315600,7.242315673828125,0.08916716277599335,-0.04345586523413658,-0.029930468648672104
1790174141119385600,7.252385498046875,0.0736052468419075,-0.0495249405503273,-0.07487264275550842
1790174141129456600,7.26245654296875,0.055078696459531784,-0.10895418375730515,-0.0054602790623903275
1790174141139526700,7.272526611328125,0.001719869440421462,-0.07059694081544876,-0.0002966761530842632
1790174141149597700,7.28259765625,0.033852770924568176,-0.03581791743636131,0.031329426914453506
1790174141159667500,7.29266748046875,0.09088782966136932,-0.050459180027246475,0.012348012998700142
1790174141169737500,7.302737548828125,0.10191944241523743,-0.07304118573665619,0.003385676769539714
1790174141179808500,7.31280859375,0.10842181742191315,-0.04898298904299736,-0.023001722991466522
1790174141189878500,7.32287841796875,0.10122755169868469,0.01492302305996418,0.01061908807605505
1790174141199949600,7.332949462890625,0.07996460795402527,0.018372083082795143,-0.007418768014758825
1790174141210019600,7.34301953125,0.11994291841983795,-0.015537148341536522,0.05850245803594589
1790174141220090600,7.353090576171875,0.2144816666841507,-0.0011720572365447879,0.086092010140419
1790174141230160400,7.363160400390625,0.1625489592552185,0.015691079199314117,0.09754014015197754
1790174141240230700,7.373230712890625,0.10012846440076828,0.02749074622988701,0.011634285561740398
1790174141250301700,7.3833017578125,0.040535975247621536,0.09082470834255219,0.01643170416355133
1790174141260371500,7.393371337890625,0.16935893893241882,-0.0009680590592324734,-0.05999436229467392
1790174141270442500,7.4034423828125,0.23371662199497223,-0.0098640825599432,-0.036497022956609726
1790174141280512500,7.413512451171875,0.15730918943881989,-0.01426602154970169,0.017551297321915627
1790174141290582800,7.423582763671875,0.07690330594778061,-0.007456052117049694,0.030913706868886948
1790174141300653600,7.433653564453125,0.08617882430553436,-0.03797800838947296,-0.0015571502735838294
1790174141310723600,7.4437236328125,0.1436285376548767,-0.06403224915266037,0.030431142076849937
1790174141320794600,7.453794677734375,0.14583949744701385,-0.06574492156505585,0.00660410663112998
1790174141330864600,7.46386474609375,0.1341460794210434,-0.03627491742372513,-0.04562101513147354
1790174141340935400,7.473935302734375,0.16161739826202393,-0.007120760157704353,-0.07453415542840958
1790174141351005400,7.48400537109375,0.20231981575489044,-0.008013451471924782,0.015991749241948128
1790174141361075700,7.49407568359375,0.20472198724746704,-0.010041182860732079,0.05826277285814285
1790174141371146500,7.504146484375,0.2078874111175537,0.029193570837378502,0.061167482286691666
1790174141381216500,7.514216552734375,0.2529081702232361,0.062188271433115005,0.029388248920440674
1790174141391287600,7.52428759765625,0.2425742894411087,0.08180058747529984,-0.014533402398228645
1790174141401357600,7.534357666015625,0.22024261951446533,0.0924186110496521,-0.0054613444954156876
1790174141411427600,7.544427490234375,0.27014973759651184,0.13396978378295898,-0.04435468092560768
1790174141421498600,7.55449853515625,0.31843602657318115,0.11041519045829773,0.08418998122215271
1790174141431568600,7.564568603515625,0.3539293110370636,0.05468854680657387,0.08188287913799286
1790174141441639700,7.5746396484375,0.31010138988494873,0.13233833014965057,0.1070401668548584
1790174141451709400,7.58470947265625,0.21505825221538544,0.18359166383743286,0.15941736102104187
1790174141461780500,7.594780517578125,0.20882432162761688,0.18151706457138062,-0.05126718059182167
1790174141471850800,7.604850830078125,0.2662724256515503,0.17582163214683533,-0.03526504710316658
1790174141481920500,7.61492041015625,0.3361966609954834,0.1728237122297287,-0.029204756021499634
1790174141491991600,7.624991455078125,0.3647769093513489,0.1852249801158905,-0.06132248044013977
1790174141502061600,7.6350615234375,0.30644702911376953,0.25570768117904663,-0.05896398425102234
1790174141512132600,7.645132568359375,0.2570453882217407,0.2881103456020355,-0.050882622599601746
1790174141522202400,7.655202392578125,0.30712053179740906,0.26535603404045105,-0.09809061139822006
1790174141532272600,7.665272705078125,0.3606359362602234,0.21975499391555786,-0.034876223653554916
1790174141542343700,7.67534375,0.24408990144729614,0.17222610116004944,0.05120246857404709
1790174141552413400,7.685413330078125,0.1549333930015564,0.13241423666477203,0.011747736483812332
1790174141562484500,7.695484375,0.18799494206905365,0.17568953335285187,0.02694879285991192
1790174141572554500,7.705554443359375,0.23755396902561188,0.14931252598762512,-0.030459638684988022
1790174141582625500,7.71562548828125,0.2143181562423706,0.12679043412208557,-0.027040138840675354
1790174141592695600,7.725695556640625,0.1885203719139099,0.08077127486467361,0.033729203045368195
1790174141602765600,7.735765625,0.18657493591308594,0.09267400950193405,-0.037523139268159866
1790174141612836600,7.745836669921875,0.23696807026863098,0.19872428476810455,-0.12409505248069763
1790174141622906400,7.75590625,0.2686642110347748,0.24234898388385773,-0.0973217561841011
1790174141632977400,7.765977294921875,0.2261473834514618,0.1893872320652008,-0.002287921728566289
1790174141643047700,7.776047607421875,0.19193188846111298,0.19101469218730927,0.04747191071510315
1790174141653117700,7.78611767578125,0.23719097673892975,0.22932852804660797,-0.00866406224668026
1790174141663188500,7.7961884765625,0.2502697706222534,0.2993997633457184,-0.014481737278401852
1790174141673258500,7.806258544921875,0.26390302181243896,0.28707438707351685,-0.04088138788938522
1790174141683329500,7.81632958984375,0.2974335551261902,0.24452079832553864,-0.06762778013944626
1790174141693399600,7.826399658203125,0.23487935960292816,0.2541092336177826,-0.04146222025156021
1790174141703470600,7.836470703125,0.19095131754875183,0.2869199216365814,-0.0624585822224617
1790174141713540600,7.84654052734375,0.20372968912124634,0.3501734435558319,-0.016152605414390564
1790174141723610400,7.8566103515625,0.20049315690994263,0.3410169780254364,-0.055512793362140656
1790174141733681200,7.86668115234375,0.17060768604278564,0.289528489112854,0.04367318004369736
1790174141743751200,7.876751220703125,0.10236632078886032,0.2443050742149353,0.11102452129125595
1790174141753822200,7.886822265625,0.10265953093767166,0.231588214635849,0.12582184374332428
1790174141763892500,7.896892578125,0.10605745762586594,0.28388896584510803,0.05589708685874939
1790174141773962200,7.906962158203125,0.12096849828958511,0.31815987825393677,-0.01618056744337082
1790174141784033300,7.917033203125,0.11234598606824875,0.32973477244377136,-0.03508022427558899
1790174141794103300,7.927103271484375,0.08233988285064697,0.3035084903240204,-0.05180540680885315
1790174141804174300,7.93717431640625,0.03494147211313248,0.29872918128967285,0.04982747882604599
1790174141814244400,7.947244384765625,-0.04116687923669815,0.2462148368358612,0.15456773340702057
1790174141824315400,7.9573154296875,-0.14629116654396057,0.21687957644462585,0.15379860997200012
1790174141834385400,7.967385498046875,-0.20406951010227203,0.27428001165390015,0.11844834685325623
1790174141844455200,7.977455078125,-0.17995458841323853,0.3049178421497345,0.022958844900131226
1790174141854526200,7.987526123046875,-0.14669384062290192,0.23992390930652618,-0.02129596658051014
1790174141864596500,7.997596435546875,-0.13625584542751312,0.14013953506946564,-0.016087623313069344
1790174141874667500,8.00766748046875,-0.15044330060482025,0.10771101713180542,0.04243747144937515
1790174141884737300,8.0177373046875,-0.2754203975200653,0.12891270220279694,0.11317262798547745
1790174141894807300,8.027807373046874,-0.3770812451839447,0.07982079684734344,0.11454389244318008
1790174141904878300,8.03787841796875,-0.46238094568252563,0.04596589505672455,0.10636132955551147
1790174141914948400,8.0479482421875,-0.5026969313621521,-0.003207244910299778,0.07170934230089188
1790174141925019400,8.058019287109374,-0.5371686220169067,-0.041494179517030716,0.008719189092516899
1790174141935089400,8.06808935546875,-0.5965360999107361,-0.09202899038791656,0.08602675795555115
1790174141945160400,8.078160400390624,-0.6443265080451965,-0.1656630039215088,0.027936292812228203
1790174141955230200,8.088230224609376,-0.6483649611473083,-0.1968345046043396,0.07199083268642426
1790174141965300200,8.09830029296875,-0.6293017864227295,-0.2405787855386734,0.07329338788986206
1790174141975371300,8.108371337890626,-0.7001775503158569,-0.2287207990884781,0.05036783218383789
1790174141985441300,8.118441162109375,-0.8152468800544739,-0.24118785560131073,0.036911677569150925
1790174141995512300,8.12851220703125,-0.8631773591041565,-0.31604132056236267,0.008549545891582966
1790174142005582300,8.138582275390625,-0.8004138469696045,-0.4067312777042389,0.020493824034929276
1790174142015653400,8.1486533203125,-0.7664441466331482,-0.432315468788147,-0.0029345371294766665
1790174142025723100,8.15872314453125,-0.770420253276825,-0.4496670365333557,0.04621356725692749
1790174142035793400,8.16879345703125,-0.8037417531013489,-0.44418516755104065,-0.03875964507460594
1790174142045864400,8.178864501953125,-0.7562453150749207,-0.4120301604270935,-0.013107546605169773
1790174142055934200,8.188934326171875,-0.7258901000022888,-0.4796241223812103,0.09332408756017685
1790174142066005200,8.199005126953125,-0.725510835647583,-0.5249886512756348,0.005380117800086737
1790174142076075300,8.2090751953125,-0.68971848487854,-0.48533952236175537,0.03640035167336464
1790174142086145300,8.219145263671875,-0.6553458571434021,-0.5091308951377869,0.019602729007601738
1790174142096216300,8.22921630859375,-0.6154376268386841,-0.5128702521324158,0.0845620185136795
1790174142106286300,8.239286376953125,-0.5812548995018005,-0.5181925296783447,0.09477365016937256
1790174142116357400,8.249357421875,-0.4965386688709259,-0.5195435881614685,0.07641647756099701
1790174142126427400,8.259427490234375,-0.48642024397850037,-0.5479022264480591,0.0926084965467453
1790174142136497200,8.2694970703125,-0.4889774024486542,-0.5505582094192505,0.024042218923568726
1790174142146568200,8.279568115234374,-0.4054822623729706,-0.5387484431266785,0.09488736093044281
1790174142156638500,8.289638427734374,-0.3053697645664215,-0.5475243330001831,0.03808533400297165
1790174142166709500,8.29970947265625,-0.21237164735794067,-0.4600248634815216,0.059897687286138535
1790174142176779300,8.309779296875,-0.14594681560993195,-0.4250918924808502,0.08263362944126129
1790174142186850300,8.319850341796876,-0.12703144550323486,-0.40684446692466736,0.028916336596012115
1790174142196920300,8.32992041015625,-0.011669439263641834,-0.35013723373413086,0.05331169068813324
1790174142206990300,8.339990234375,0.12222710996866226,-0.29596641659736633,0.08440329879522324
1790174142217061400,8.350061279296876,0.18756483495235443,-0.25555187463760376,0.00020453077740967274
1790174142227131400,8.36013134765625,0.2263825386762619,-0.1666981726884842,-0.0599546805024147
1790174142237202400,8.370202392578125,0.2938622534275055,-0.07293599098920822,0.04114770144224167
1790174142247272200,8.380272216796875,0.343066543340683,-0.01811056025326252,0.07218844443559647
1790174142257343200,8.39034326171875,0.41351914405822754,0.032635971903800964,-0.018602978438138962
1790174142267413500,8.40041357421875,0.5028184056282043,0.06433584541082382,-0.07885433733463287
1790174142277483300,8.410483154296875,0.5172463059425354,0.09011098742485046,-0.013498231768608093
1790174142287554300,8.42055419921875,0.5457744002342224,0.14463335275650024,0.027774373069405556
1790174142297624300,8.430624267578125,0.5817973613739014,0.227289080619812,-0.024897359311580658
1790174142307695400,8.4406953125,0.5992162823677063,0.2520708441734314,-0.062127288430929184
1790174142317765000,8.45076513671875,0.6211770176887512,0.21146617829799652,-0.0709410160779953
1790174142327835400,8.46083544921875,0.6426301002502441,0.19785049557685852,-0.07778267562389374
1790174142337906400,8.470906494140625,0.6230313777923584,0.15724395215511322,0.013648434542119503
1790174142347976200,8.48097607421875,0.5639467239379883,0.14978070557117462,0.09833882004022598
1790174142358047200,8.491047119140624,0.5416182279586792,0.2159416228532791,-0.008217183873057365
1790174142368117200,8.5011171875,0.596243143081665,0.25533348321914673,-0.11363308876752853
1790174142378187500,8.5111875,0.6551578640937805,0.2519369125366211,-0.1863861232995987
1790174142388258300,8.52125830078125,0.6383852958679199,0.20983178913593292,-0.14142078161239624
1790174142398328300,8.531328369140626,0.5520594120025635,0.14059412479400635,-0.0626005306839943
1790174142408399400,8.5413994140625,0.4995515048503876,0.15852360427379608,-0.0025129588320851326
1790174142418469000,8.55146923828125,0.4568746089935303,0.19997969269752502,0.000004261057711119065
1790174142428540200,8.5615400390625,0.5125914216041565,0.24400600790977478,-0.07731316238641739
1790174142438610400,8.5716103515625,0.5284228324890137,0.2844405174255371,-0.061715297400951385
1790174142448680400,8.581680419921875,0.4703773558139801,0.2660713493824005,-0.038657914847135544
1790174142458751200,8.591751220703125,0.4436456263065338,0.24440601468086243,-0.11857831478118896
1790174142468821200,8.6018212890625,0.423909455537796,0.1961553990840912,0.12605993449687958
1790174142478892300,8.611892333984375,0.49592798948287964,0.22715485095977783,0.15766260027885437
1790174142488962300,8.62196240234375,0.5226541757583618,0.3435693383216858,0.061225008219480515
1790174142499033000,8.632033203125,0.49199557304382324,0.3575890362262726,-0.02298254705965519
1790174142509103400,8.642103271484375,0.3652440309524536,0.33479318022727966,0.04554644599556923
1790174142519173400,8.65217333984375,0.32299697399139404,0.3377018868923187,-0.0000876179983606562
1790174142529244400,8.662244384765625,0.29728519916534424,0.4089030921459198,-0.07170721143484116
1790174142539314200,8.672314208984375,0.28962570428848267,0.372317373752594,-0.07073355466127396
1790174142549385200,8.68238525390625,0.2586459219455719,0.32309550046920776,0.03373399376869202
1790174142559455500,8.69245556640625,0.23245321214199066,0.2694642245769501,0.02858264185488224
1790174142569525200,8.702525146484374,0.23154747486114502,0.2602315843105316,0.006185724399983883
1790174142579596300,8.71259619140625,0.16411863267421722,0.2681467533111572,-0.0032842103391885757
1790174142589666300,8.722666259765624,0.1555456519126892,0.2474992722272873,-0.09678033739328384
1790174142599737300,8.7327373046875,0.1489546000957489,0.2078661173582077,-0.0583525225520134
1790174142609807400,8.742807373046874,0.06466181576251984,0.19072574377059937,0.011418569833040237
1790174142619878400,8.75287841796875,0.050707653164863586,0.16339026391506195,0.0550728403031826
1790174142629948400,8.762948486328124,0.07528463751077652,0.21470484137535095,0.06807173043489456
1790174142640018200,8.77301806640625,0.06137494370341301,0.19780682027339935,0.05371489375829697
1790174142650089200,8.783089111328126,0.014153103344142437,0.15232881903648376,-0.01245081052184105
1790174142660159200,8.7931591796875,0.011292335577309132,0.14121171832084656,0.022664565593004227
1790174142670230300,8.803230224609376,-0.03674496337771416,0.09215442836284637,0.117213174700737
1790174142680300300,8.81330029296875,-0.09336536377668381,0.10835044085979462,0.14822834730148315
1790174142690371300,8.823371337890626,-0.07429074496030807,0.15435068309307098,0.11568079143762589
1790174142700441300,8.83344140625,-0.03657399117946625,0.08620519191026688,0.08652903139591217
1790174142710511000,8.843510986328125,-0.10307445377111435,0.10598502308130264,0.021678131073713303
1790174142720582400,8.85358251953125,-0.20197919011116028,0.080405093729496,0.05561612546443939
1790174142730652400,8.86365234375,-0.21680474281311035,-0.03218163922429085,0.12702985107898712
1790174142740723500,8.873723388671875,-0.2851622402667999,0.015852199867367744,0.1506025642156601
1790174142750793500,8.88379345703125,-0.19395188987255096,0.045752573758363724,0.15261884033679962
1790174142760863200,8.89386328125,-0.2668468654155731,0.04880082979798317,0.018805911764502525
1790174142770934300,8.903934326171875,-0.3465576767921448,-0.024706678465008736,-0.023427028208971024
1790174142781004500,8.914004638671875,-0.37832361459732056,0.012292352505028248,-0.020481839776039124
1790174142791075600,8.92407568359375,-0.2915796637535095,-0.036563605070114136,-0.03172517195343971
1790174142801145300,8.934145263671875,-0.25512123107910156,-0.04080308973789215,0.009967679157853127
1790174142811216400,8.94421630859375,-0.28998440504074097,-0.027953337877988815,0.06595371663570404
1790174142821286400,8.954286376953124,-0.3014884889125824,-0.060501161962747574,0.05643504485487938
1790174142831356200,8.964356201171874,-0.3383101522922516,-0.09430146962404251,0.035825908184051514
1790174142841427200,8.97442724609375,-0.4204643964767456,-0.10962928831577301,0.0382150299847126
1790174142851497500,8.98449755859375,-0.4681522846221924,-0.1389182060956955,0.01095517911016941
1790174142861568500,8.994568603515624,-0.4147351384162903,-0.13429363071918488,-0.039921049028635025
1790174142871638300,9.00463818359375,-0.350762277841568,-0.18140681087970734,0.029043102636933327
1790174142881708300,9.014708251953126,-0.40423882007598877,-0.23247691988945007,-0.007131412625312805
1790174142891779300,9.024779296875,-0.4598837196826935,-0.19479797780513763,0.03405943140387535
1790174142901849600,9.034849609375,-0.4395078718662262,-0.17229054868221283,0.06548339873552322
1790174142911920400,9.04492041015625,-0.3685697615146637,-0.21432827413082123,-0.03952397406101227
1790174142921990400,9.054990478515625,-0.3232901692390442,-0.25170814990997314,-0.012271846644580364
1790174142932061400,9.0650615234375,-0.3155864477157593,-0.23972657322883606,-0.033904969692230225
1790174142942131200,9.075131103515625,-0.31167906522750854,-0.15759068727493286,-0.021515412256121635
1790174142952201500,9.085201416015625,-0.23237624764442444,-0.1553507000207901,0.0032860743813216686
1790174142962272500,9.0952724609375,-0.1502494215965271,-0.175624281167984,-0.024899490177631378
1790174142972342500,9.105342529296875,-0.11055580526590347,-0.17987336218357086,0.0807342603802681
1790174142982413300,9.115413330078125,-0.1912120282649994,-0.14170466363430023,0.12463168054819107
1790174142992483300,9.1254833984375,-0.22020640969276428,-0.07657653093338013,-0.16967186331748962
1790174143002553300,9.13555322265625,-0.14347566664218903,-0.028070516884326935,-0.2647767961025238
1790174143012624400,9.145624267578125,0.01395895890891552,-0.07374239712953568,-0.04066886752843857
1790174143022694400,9.1556943359375,0.08059391379356384,-0.07199349999427795,0.16079872846603394
1790174143032765400,9.165765380859375,0.08606857061386108,-0.09907252341508865,0.16747181117534637
1790174143042835500,9.17583544921875,0.09992766380310059,-0.05465072765946388,0.13712243735790253
1790174143052906200,9.18590625,0.1484648436307907,0.033475134521722794,-0.034445326775312424
1790174143062976300,9.195976318359374,0.12826210260391235,0.05757088586688042,-0.13468484580516815
1790174143073046500,9.206046630859374,0.1642744243144989,0.03397767245769501,0.015312910079956055
1790174143083117600,9.21611767578125,0.1734040081501007,0.022231269627809525,0.08465203642845154
1790174143093187300,9.226187255859376,0.18274664878845215,0.04946475476026535,0.08397559076547623
1790174143103258400,9.23625830078125,0.22306397557258606,0.09004653245210648,-0.026634540408849716
1790174143113328400,9.246328369140626,0.2437514066696167,0.08778844028711319,-0.011570636183023453
1790174143123399400,9.2563994140625,0.2935037910938263,0.08291778713464737,0.045454833656549454
1790174143133469400,9.266469482421876,0.24334341287612915,0.11908964067697525,0.03706108033657074
1790174143143539500,9.27653955078125,0.22083650529384613,0.13435009121894836,-0.09906799346208572
1790174143153610500,9.286610595703126,0.25418034195899963,0.16551439464092255,-0.08010681718587875
1790174143163680300,9.29668017578125,0.28236937522888184,0.17790208756923676,0.05074413865804672
1790174143173751300,9.306751220703125,0.27394500374794006,0.14961665868759155,0.11549703776836395
1790174143183821300,9.3168212890625,0.2063065618276596,0.12522342801094055,0.1521836817264557
1790174143193891300,9.326891357421875,0.2070666253566742,0.12097568809986115,0.09119915217161179
1790174143203962400,9.33696240234375,0.24359402060508728,0.1695176661014557,0.002082591876387596
1790174143214032400,9.347032470703125,0.25150465965270996,0.19071029126644135,-0.11278779804706573
1790174143224103400,9.357103515625,0.18299564719200134,0.15338343381881714,-0.05688032507896423
1790174143234173200,9.367173095703125,0.10312878340482712,0.14911171793937683,0.06221091002225876
1790174143244244200,9.377244140625,0.10993236303329468,0.17167535424232483,0.12674862146377563
1790174143254314500,9.387314453125,0.1337047964334488,0.1859634816646576,0.11100134998559952
1790174143264384500,9.397384521484375,0.15306518971920013,0.17934605479240417,0.030422354117035866
1790174143274455300,9.407455322265625,0.11961720883846283,0.18634191155433655,0.006454969756305218
1790174143284525300,9.417525390625,0.06533107161521912,0.1529187113046646,-0.033368077129125595
1790174143294596400,9.427596435546874,-0.03235580772161484,0.09717927873134613,-0.0223215501755476
1790174143304666400,9.437666259765624,-0.07145074754953384,0.08756100386381149,0.04709267616271973
1790174143314736400,9.447736328125,-0.09234404563903809,0.057730939239263535,0.008497081696987152
1790174143324807400,9.457807373046874,-0.15754061937332153,0.007337274961173534,0.05885213240981102
1790174143334877400,9.46787744140625,-0.2407689392566681,-0.04466067999601364,-0.055317848920822144
1790174143344948200,9.4779482421875,-0.27726462483406067,-0.05927024781703949,-0.08537162095308304
1790174143355018500,9.4880185546875,-0.26729056239128113,-0.08541236817836761,-0.005811550188809633
1790174143365089500,9.498089599609376,-0.25112757086753845,-0.14496730268001556,0.02491999790072441
1790174143375159600,9.50815966796875,-0.2633642554283142,-0.15050828456878662,0.03551565110683441
1790174143385229300,9.518229248046875,-0.2727857232093811,-0.13753069937229156,0.04188007116317749
1790174143395300400,9.52830029296875,-0.3065176010131836,-0.13588406145572662,0.04597654566168785
1790174143405370400,9.538370361328125,-0.30314841866493225,-0.15163452923297882,-0.05714238062500954
1790174143415441200,9.548441162109375,-0.2992208003997803,-0.12413979321718216,-0.1156805232167244
1790174143425511400,9.558511474609375,-0.28458911180496216,-0.14971865713596344,-0.09609697014093399
1790174143435582500,9.56858251953125,-0.2792694568634033,-0.14776335656642914,-0.10812141001224518
1790174143445652500,9.578652587890625,-0.2621493339538574,-0.13466326892375946,-0.04529557749629021
1790174143455722200,9.58872216796875,-0.1988326758146286,-0.14991146326065063,0.07291948050260544
1790174143465793300,9.598793212890625,-0.1820555478334427,-0.15235625207424164,0.1564740240573883
1790174143475863600,9.608863525390625,-0.14207911491394043,-0.1287185698747635,0.08981937170028687
1790174143485934600,9.6189345703125,-0.11782463639974594,-0.11362616717815399,-0.02316018007695675
1790174143496004400,9.62900439453125,-0.11929123848676682,-0.10401428490877151,-0.007832356728613377
1790174143506074400,9.639074462890624,-0.07630915194749832,-0.10594960302114487,0.04368835687637329
1790174143516145400,9.6491455078125,-0.017589645460247993,-0.08560784161090851,0.011475827544927597
1790174143526215400,9.65921533203125,0.03899267315864563,-0.07073649019002914,0.08379955589771271
1790174143536286500,9.669286376953124,0.07920534163713455,-0.03204794600605965,0.08617430180311203
1790174143546356500,9.6793564453125,0.10044298321008682,0.018003234639763832,0.05674370750784874
1790174143556427500,9.689427490234374,0.14294303953647614,0.04032398760318756,0.0493590272963047
1790174143566497300,9.699497314453126,0.22822491824626923,0.06523413211107254,-0.032832249999046326
1790174143576567300,9.7095673828125,0.2327331155538559,0.12941178679466248,-0.043652404099702835
1790174143586638300,9.719638427734376,0.2122984081506729,0.16020432114601135,-0.02190796099603176
1790174143596708400,9.729708251953125,0.23575127124786377,0.17022418975830078,0.004040548112243414
1790174143606779400,9.739779296875,0.269391268491745,0.17761047184467316,-0.07355277985334396
1790174143616849400,9.749849365234375,0.2445058822631836,0.17260266840457916,-0.02400386892259121
1790174143626919400,9.75991943359375,0.15504097938537598,0.22113558650016785,-0.039676304906606674
1790174143636990200,9.769990234375,0.22494922578334808,0.16765610873699188,-0.0559476874768734
1790174143647060500,9.780060546875,0.21738184988498688,0.16079314053058624,0.027234550565481186
1790174143657131500,9.790131591796875,0.12310515344142914,0.1987660974264145,0.053048036992549896
1790174143667201300,9.800201171875,0.17249320447444916,0.15490595996379852,0.011374627240002155
1790174143677272300,9.810272216796875,0.14975087344646454,0.1601364016532898,0.024464329704642296
1790174143687342300,9.82034228515625,0.1565222293138504,0.15054716169834137,-0.07664204388856888
1790174143697412600,9.83041259765625,0.12702453136444092,0.1603531837463379,0.005372927524149418
1790174143707483400,9.8404833984375,0.0904899537563324,0.1798778921365738,-0.033604566007852554
1790174143717553400,9.850553466796875,0.04961815103888512,0.16175960004329681,-0.04098205268383026
1790174143727625000,9.860625,0.05553463101387024,0.10177057236433029,0.09848662465810776
1790174143737695000,9.870695068359375,0.044546693563461304,0.08098486065864563,0.11760439723730087
1790174143747764700,9.8807646484375,-0.006739927921444178,0.0886680856347084,-0.07748626917600632
1790174143757835800,9.890835693359374,-0.061225805431604385,0.09220635890960693,-0.09706849604845047
1790174143767906000,9.900906005859374,-0.07484281808137894,0.057047039270401,-0.039803337305784225
1790174143777977000,9.91097705078125,-0.15350539982318878,0.026992201805114746,0.023088540881872177
1790174143788046800,9.921046875,-0.207548126578331,0.002237854292616248,-0.005531918257474899
1790174143798118000,9.931117919921874,-0.18278898298740387,-0.021648837253451347,0.06141595542430878
1790174143808188000,9.94118798828125,-0.19915758073329926,-0.05783533677458763,0.018940135836601257
1790174143818258000,9.9512578125,-0.23259888589382172,-0.08579985797405243,-0.009642506949603558
1790174143828329000,9.961328857421876,-0.26896968483924866,-0.09468123316764832,0.06340986490249634
1790174143838399000,9.97139892578125,-0.2639954388141632,-0.13744521141052246,0.00418489146977663
1790174143848470000,9.981469970703126,-0.2575630843639374,-0.14223623275756836,0.03136484697461128
1790174143858539800,9.991539794921875,-0.28353849053382874,-0.1657993495464325,0.0335606224834919
1790174143868609800,10.00160986328125,-0.32839253544807434,-0.20437763631343842,0.028025776147842407
1790174143878680800,10.011680908203125,-0.3066086769104004,-0.22950802743434906,0.014277206733822823
1790174143888751000,10.021751220703125,-0.29281216859817505,-0.23536831140518188,-0.00993385724723339
1790174143898822000,10.03182177734375,-0.28050675988197327,-0.23424366116523743,-0.05859779939055443
1790174143908892000,10.041891845703125,-0.26721465587615967,-0.22115981578826904,-0.12067235261201859
1790174143918963000,10.051962890625,-0.23773746192455292,-0.2118813544511795,-0.030846862122416496
1790174143929033000,10.062032958984375,-0.17661285400390625,-0.22145462036132812,0.0134439030662179
1790174143939103000,10.07210302734375,-0.13821299374103546,-0.2187107652425766,0.05487922579050064
1790174143949174000,10.082174072265625,-0.08465017378330231,-0.20801950991153717,-0.03073713928461075
1790174143959244000,10.092244140625,-0.07728147506713867,-0.19082960486412048,-0.07057856023311615
1790174143969314800,10.102314697265625,-0.09671695530414581,-0.17227669060230255,-0.06939531862735748
1790174143979384800,10.112384765625,-0.08073239773511887,-0.16700470447540283,-0.014087589457631111
1790174143989455000,10.122455078125,-0.024523185566067696,-0.13265365362167358,0.0004261057765688747
1790174143999526100,10.132526123046874,0.030823426321148872,-0.12104466557502747,-0.008595085702836514
1790174144009596000,10.142595947265624,0.119893379509449,-0.12345296144485474,-0.026552515104413033
1790174144019667000,10.1526669921875,0.1284799426794052,-0.0645022913813591,-0.0036069853231310844
1790174144029737000,10.162737060546876,0.13906094431877136,-0.05318332836031914,0.03449086472392082
1790174144039808000,10.17280810546875,0.1659301072359085,-0.04459170252084732,0.03609408810734749
1790174144049877800,10.182877685546876,0.1638810783624649,0.01647830940783024,-0.11165942251682281
1790174144059948000,10.192947998046876,0.14898069202899933,0.022708507254719734,-0.09488443285226822
1790174144070019000,10.20301904296875,0.16287493705749512,0.030648190528154373,-0.07251281291246414
1790174144080088800,10.2130888671875,0.18432430922985077,0.028810875490307808,-0.033785127103328705
1790174144090159900,10.223159912109375,0.21265287697315216,0.03159680962562561,-0.08922814577817917
1790174144100230000,10.23322998046875,0.25511884689331055,0.026559438556432724,-0.08033372461795807
1790174144110301000,10.243301025390625,0.25844806432724,0.052921537309885025,-0.04056473821401596
1790174144120371000,10.253370849609375,0.21949107944965363,0.08288556337356567,-0.042029209434986115
1790174144130441000,10.26344091796875,0.22646403312683105,0.08075156807899475,-0.04999419301748276
1790174144140512000,10.273511962890625,0.28612497448921204,0.0987100675702095,-0.03471031039953232
1790174144150581800,10.283581787109375,0.285869300365448,0.10679515451192856,-0.0873735174536705
1790174144160652800,10.29365283203125,0.25378620624542236,0.11648932844400406,-0.08759988844394684
1790174144170723000,10.30372314453125,0.26001960039138794,0.11194038391113281,-0.0048946235328912735
1790174144180794000,10.313794189453125,0.2291378527879715,0.1189572811126709,0.0003211772127542645
1790174144190864000,10.32386376953125,0.20782271027565002,0.10521350800991058,0.011451859027147293
1790174144200934000,10.333933837890624,0.23825757205486298,0.09016664326190948,-0.003970772959291935
1790174144211005000,10.3440048828125,0.21121637523174286,0.11161840707063675,-0.025469141080975533
1790174144221075000,10.354074951171874,0.18473869562149048,0.0929882600903511,0.005507949739694595
1790174144231146000,10.36414599609375,0.15667510032653809,0.06477340310811996,-0.007728493306785822
1790174144241216000,10.374216064453124,0.12548309564590454,0.04057086259126663,-0.009097091853618622
1790174144251286000,10.3842861328125,0.07607532292604446,0.02834269218146801,-0.011477159336209297
1790174144261356800,10.394356689453126,0.03683444857597351,0.024814536795020103,-0.004677576012909412
1790174144271426800,10.4044267578125,0.07143237441778183,0.021339111030101776,0.013039901852607727
1790174144281497900,10.414497802734376,0.07412908971309662,0.02935842052102089,0.04002038761973381
1790174144291568000,10.424568115234376,0.06809170544147491,0.014466557651758194,0.06297443807125092
1790174144301638000,10.434637939453125,0.0008578042034059763,-0.004403004422783852,0.13500255346298218
1790174144311709000,10.444708984375,-0.04832572117447853,-0.017601629719138145,0.10836588591337204
1790174144321779000,10.454779052734375,-0.06377817690372467,-0.056000418961048126,0.02328774519264698
1790174144331849700,10.464849609375,-0.09722615033388138,-0.07605908066034317,-0.031182153150439262
1790174144341920000,10.474919921875,-0.12299143522977829,-0.06273102760314941,-0.09127797931432724
1790174144351991000,10.484990966796875,-0.1560164988040924,-0.045289184898138046,-0.10008345544338226
1790174144362061000,10.49506103515625,-0.11674126237630844,-0.046731553971767426,-0.03584694862365723
1790174144372130800,10.505130859375,-0.10476475954055786,-0.08575671911239624,-0.0029755497816950083
1790174144382201900,10.515201904296875,-0.14574308693408966,-0.07382841408252716,0.07355091720819473
1790174144392272000,10.52527197265625,-0.10868386924266815,-0.0931222215294838,0.013250557705760002
1790174144402343000,10.535343017578125,-0.08413804322481155,-0.09580881893634796,0.0028301412239670753
1790174144412413000,10.545412841796875,-0.036076243966817856,-0.07733713090419769,0.03213449940085411
1790174144422484000,10.55548388671875,-0.015389609150588512,-0.08929898589849472,0.02305152267217636
1790174144432554000,10.565553955078125,-0.07753686606884003,-0.03922436758875847,-0.03744537755846977
1790174144442623700,10.575623779296874,-0.09271502494812012,-0.024661405012011528,-0.09928743541240692
1790174144452694800,10.58569482421875,-0.019646672531962395,-0.04098311811685562,-0.07430752366781235
1790174144462765000,10.59576513671875,0.09815825521945953,-0.029938191175460815,0.026944799348711967
1790174144472836000,10.605836181640624,0.14142903685569763,-0.004679706413298845,0.05879753455519676
1790174144482905900,10.61590576171875,0.15629373490810394,-0.011143997311592102,0.03369884192943573
1790174144492975900,10.625975830078126,0.19367998838424683,0.005754025653004646,0.09803921729326248
1790174144503047000,10.636046875,0.23455338180065155,0.05145280435681343,0.10854379087686539
1790174144513117000,10.646116943359376,0.2213377207517624,0.04104597121477127,0.08050283044576645
1790174144523188000,10.65618798828125,0.202128067612648,0.05089327320456505,0.05760550498962402
1790174144533258000,10.666258056640626,0.2228807508945465,0.07862876355648041,-0.035825639963150024
1790174144543329000,10.6763291015625,0.2719540297985077,0.08442167192697525,-0.10672644525766373
1790174144553398800,10.686398681640625,0.33431512117385864,0.11546561121940613,-0.04772491008043289
1790174144563469000,10.696468994140625,0.39521870017051697,0.12523354589939117,0.03623044118285179
1790174144573540000,10.7065400390625,0.4095899164676666,0.11777590215206146,0.10241451859474182
1790174144583609900,10.71660986328125,0.350803017616272,0.17609061300754547,0.056945040822029114
1790174144593681000,10.726680908203125,0.3376525938510895,0.20583997666835785,-0.02762017585337162
1790174144603751000,10.7367509765625,0.35634294152259827,0.2100837230682373,-0.007701595313847065
1790174144613822000,10.746822021484375,0.3932002782821655,0.21497754752635956,-0.02798023633658886
1790174144623891700,10.7568916015625,0.3572225868701935,0.22921907901763916,-0.019453592598438263
1790174144633962000,10.7669619140625,0.33695992827415466,0.24785959720611572,-0.038655783981084824
1790174144644033000,10.777032958984375,0.3365103602409363,0.2781727612018585,0.004063184838742018
1790174144654103000,10.78710302734375,0.36854127049446106,0.26127395033836365,0.02575383335351944
1790174144664173800,10.797173828125,0.34755903482437134,0.2565290033817291,-0.020615262910723686
1790174144674243800,10.807243896484374,0.3736809194087982,0.2610289454460144,-0.014153636060655117
1790174144684314000,10.817314208984374,0.3224371671676636,0.2832415699958801,-0.0692291408777237
1790174144694385000,10.827385009765624,0.28945392370224,0.2902427315711975,-0.11953572183847427
1790174144704455000,10.837454833984374,0.31725946068763733,0.2802923619747162,-0.01366148330271244
1790174144714526000,10.84752587890625,0.2979467511177063,0.29470834136009216,-0.013413543812930584
1790174144724595200,10.85759521484375,0.27122750878334045,0.29667747020721436,-0.06595877557992935
1790174144734666200,10.867666259765626,0.26135170459747314,0.30666857957839966,-0.08637084066867828
1790174144744736300,10.877736328125,0.27491945028305054,0.32309070229530334,-0.07485213875770569
1790174144754806300,10.88780615234375,0.28004735708236694,0.30265626311302185,-0.05349411815404892
1790174144764877300,10.897877197265625,0.22788375616073608,0.314109742641449,0.01913055032491684
1790174144774947000,10.907947021484375,0.2613953948020935,0.30557215213775635,0.0010985539993271232
1790174144785018000,10.91801806640625,0.222956120967865,0.3295283615589142,-0.021196365356445312
1790174144795088400,10.92808837890625,0.20945149660110474,0.30000242590904236,0.10279162228107452
1790174144805158400,10.938158447265625,0.16901858150959015,0.2930390536785126,0.10245100408792496
1790174144815229200,10.948229248046875,0.151431605219841,0.2566448450088501,0.04235650971531868
1790174144825299200,10.95829931640625,0.14241333305835724,0.2150220274925232,0.08945717662572861
1790174144835370200,10.968370361328125,0.10627104341983795,0.23179247975349426,0.002118544653058052
1790174144845440300,10.978440185546875,0.06626370549201965,0.22210469841957092,-0.07519595324993134
1790174144855511300,10.98851123046875,0.053596381098032,0.1845400184392929,-0.051953479647636414
1790174144865581300,10.998581298828125,0.06423357874155045,0.15774035453796387,0.030656445771455765
1790174144875651300,11.0086513671875,0.06364075839519501,0.1507921814918518,-0.007647533435374498
1790174144885722000,11.01872216796875,0.019997144117951393,0.14151692390441895,0.03111157938838005
1790174144895792000,11.028792236328124,-0.008710667490959167,0.13060994446277618,0.05693758651614189
1790174144905863200,11.03886328125,-0.035282623022794724,0.12159034609794617,0.010787134058773518
1790174144915933400,11.048933349609374,-0.07712540775537491,0.11870134621858597,0.017978200688958168
1790174144926003200,11.059003173828126,-0.08986224234104156,0.1037847176194191,0.06893991678953171
1790174144936074200,11.06907421875,-0.09108597040176392,0.09295550733804703,0.04861147701740265
1790174144946144300,11.079144287109376,-0.1269156038761139,0.0804346576333046,0.030179740861058235
1790174144956215300,11.08921533203125,-0.14155367016792297,0.05765371024608612,0.01350329164415598
1790174144966285300,11.099285400390626,-0.12252432107925415,0.06430495530366898,0.06710366904735565
1790174144976356400,11.1093564453125,-0.1134360134601593,0.05380197986960411,0.09220343083143234
1790174144986426400,11.11942626953125,-0.17658674716949463,0.05825744569301605,0.07368247956037521
1790174144996496100,11.12949609375,-0.2192966639995575,0.051847219467163086,0.013501161709427834
1790174145006567200,11.139567138671875,-0.2255668193101883,0.03891996666789055,-0.05100752413272858
1790174145016637400,11.149637451171875,-0.22195982933044434,0.042151980102062225,-0.02587367594242096
1790174145026708500,11.15970849609375,-0.23122070729732513,0.05835225433111191,0.041302964091300964
1790174145036778200,11.1697783203125,-0.23958489298820496,0.026517894119024277,0.10068586468696594
1790174145046849300,11.179849365234375,-0.2504782974720001,-0.007984955795109272,0.05265841633081436
1790174145056919300,11.189919189453125,-0.2609194815158844,-0.030708910897374153,0.10315088927745819
1790174145066989000,11.199989013671875,-0.26272162795066833,-0.03484320268034935,0.07896991819143295
1790174145077060000,11.21006005859375,-0.28813084959983826,-0.04737523943185806,0.0023281353060156107
1790174145087130400,11.22013037109375,-0.28660035133361816,-0.04072772338986397,-0.050755590200424194
1790174145097201400,11.230201416015625,-0.23006808757781982,-0.04513738304376602,-0.044132307171821594
1790174145107271200,11.240271240234375,-0.253102570772171,-0.060805559158325195,-0.02215323969721794
1790174145117341200,11.250341064453124,-0.2939471900463104,-0.0631486102938652,0.06437818706035614
1790174145127412200,11.260412109375,-0.2812550961971283,-0.07019932568073273,0.1186816394329071
1790174145137482200,11.270482177734374,-0.26525136828422546,-0.09216374903917313,0.014815431088209152
1790174145147553300,11.28055322265625,-0.2848152220249176,-0.08506083488464355,-0.027182085439562798
1790174145157623300,11.290623291015624,-0.24220065772533417,-0.08562808483839035,-0.09415499120950699
1790174145167694300,11.3006943359375,-0.2691909968852997,-0.07337461411952972,-0.09157253056764603
1790174145177764000,11.31076416015625,-0.28394490480422974,-0.058212704956531525,-0.08899485319852829
1790174145187834400,11.32083447265625,-0.22591009736061096,-0.07029653340578079,-0.05416097119450569
1790174145197905400,11.330905517578126,-0.19136835634708405,-0.08117714524269104,-0.049425072968006134
1790174145207975200,11.34097509765625,-0.18707481026649475,-0.08588588237762451,-0.034445859491825104
1790174145218046200,11.351046142578125,-0.18583804368972778,-0.07253385335206985,-0.043772246688604355
1790174145228116200,11.3611162109375,-0.1549735963344574,-0.043472643941640854,-0.021389445289969444
1790174145238186200,11.371186279296875,-0.1133129745721817,-0.03320722281932831,0.021569207310676575
1790174145248257300,11.38125732421875,-0.09605755656957626,-0.05267652869224548,0.00446825148537755
1790174145258327300,11.391327392578125,-0.07900134474039078,-0.07180547714233398,-0.009411877952516079
1790174145268398300,11.4013984375,-0.08988727629184723,-0.03365596383810043,-0.043305929750204086
1790174145278468400,11.41146826171875,-0.04451633617281914,-0.01392593514174223,-0.017360081896185875
1790174145288539100,11.4215390625,-0.019291140139102936,0.002511627273634076,0.060089968144893646
1790174145298609200,11.431609130859375,0.005854693241417408,0.020976655185222626,0.03862409293651581
1790174145308679400,11.441679443359375,0.020987840369343758,0.013597301207482815,0.00948032084852457
1790174145318750500,11.45175048828125,-0.009412409737706184,0.05651627108454704,-0.00833809096366167
1790174145328820200,11.4618203125,0.02346591092646122,0.07724418491125107,0.018024539574980736
1790174145338891300,11.471891357421875,0.07000278681516647,0.09909728914499283,-0.0016982977977022529
1790174145348961300,11.481961181640624,0.09678300470113754,0.11798442900180817,-0.014645255170762539
1790174145359032000,11.492031982421874,0.08187942206859589,0.12913428246974945,-0.043593816459178925
1790174145369102300,11.502102294921874,0.08521236479282379,0.12246306240558624,-0.06723655760288239
1790174145379172400,11.51217236328125,0.0792069360613823,0.14833781123161316,-0.011924037709832191
1790174145389243400,11.522243408203124,0.0967843309044838,0.13759247958660126,0.09893003851175308
1790174145399313200,11.532313232421876,0.13672775030136108,0.09881100058555603,0.08585605025291443
1790174145409384200,11.54238427734375,0.09054827690124512,0.09960249066352844,0.0009888317435979843
1790174145419454500,11.552454345703126,0.037285320460796356,0.08696286380290985,0.005972671322524548
1790174145429524200,11.562524169921875,0.06840622425079346,0.07731209695339203,0.027463847771286964
1790174145439595300,11.57259521484375,0.0831899642944336,0.09013841301202774,0.1332310289144516
1790174145449665300,11.582665283203125,0.11320644617080688,0.06095895916223526,0.074268639087677
1790174145459736300,11.592736328125,0.09171607345342636,0.03887975588440895,0.02533278614282608
1790174145469806000,11.60280615234375,0.014216486364603043,0.08158674091100693,-0.019658390432596207
1790174145479877000,11.612877197265625,-0.012013519182801247,0.07589849084615707,0.02369760535657406
1790174145489947400,11.622947509765625,0.03767494112253189,0.05706381797790527,0.03488634526729584
1790174145500017200,11.63301708984375,0.09028222411870956,0.05530746281147003,-0.010868893004953861
1790174145510088200,11.643088134765625,0.0757184624671936,0.061941396445035934,0.015862585976719856
1790174145520158200,11.653158203125,0.05290103331208229,0.0483211949467659,0.03999854996800423
1790174145530229200,11.663229248046875,-0.02605503611266613,0.059482499957084656,0.05089220777153969
1790174145540299300,11.67329931640625,-0.08698336780071259,0.05354152247309685,0.02972620353102684
1790174145550370300,11.683370361328125,-0.021395303308963776,0.02545742318034172,-0.04535096883773804
1790174145560440300,11.6934404296875,0.026381805539131165,0.01432274654507637,-0.037997450679540634
1790174145570510000,11.703510009765624,0.00875301193445921,0.029470806941390038,0.021280255168676376
1790174145580581000,11.7135810546875,-0.001187237212434411,0.027272900566458702,0.04379461705684662
1790174145590651400,11.7236513671875,0.016222912818193436,0.02635331079363823,0.017645306885242462
1790174145600722400,11.733722412109374,-0.0009680590592324734,0.03503628075122833,0.029471606016159058
1790174145610792200,11.743792236328124,-0.01732812449336052,0.011442803777754307,0.11820866167545319
1790174145620862200,11.7538623046875,0.07126246392726898,-0.010969826951622963,0.06742990761995316
1790174145630933200,11.763933349609376,0.03941824659705162,0.023148462176322937,-0.03514067828655243
1790174145641003300,11.774003173828126,-0.04523006081581116,0.06157761067152023,-0.01677871309220791
1790174145651074000,11.784073974609376,0.04261057823896408,0.019045330584049225,0.006326605565845966
1790174145661144300,11.794144287109376,0.12470651417970657,-0.014177071861922741,-0.05877489969134331
1790174145671215400,11.80421533203125,0.1503399759531021,-0.002116147894412279,-0.023186279460787773
1790174145681285400,11.814285400390625,0.1710449755191803,0.022542327642440796,0.07806124538183212
1790174145691355100,11.824355224609375,0.17197708785533905,0.017076188698410988,0.010912569239735603
1790174145701426200,11.83442626953125,0.1521565169095993,0.037083983421325684,-0.012548282742500305
1790174145711496400,11.844496337890625,0.19193002581596375,0.06106735020875931,-0.05639217048883438
1790174145721567700,11.854567626953125,0.19914798438549042,0.08370288461446762,-0.051119644194841385
1790174145731637800,11.8646376953125,0.1944962441921234,0.07870227098464966,-0.03407701104879379
1790174145741708800,11.874708740234375,0.2519603371620178,0.09347055852413177,0.043526437133550644
1790174145751778600,11.884778564453125,0.2695350646972656,0.12513847649097443,0.12935346364974976
1790174145761848600,11.8948486328125,0.25391802191734314,0.15988047420978546,0.08109325170516968
1790174145771919600,11.904919677734375,0.1693514734506607,0.1718769520521164,-0.001406947965733707
1790174145781989600,11.91498974609375,0.16049513220787048,0.18721570074558258,-0.0019238675013184547
1790174145792060700,11.925060791015625,0.1376686543226242,0.21851103007793427,-0.007367901504039764
1790174145802130700,11.935130615234375,0.17860330641269684,0.2124808430671692,0.018076738342642784
1790174145812200400,11.945200439453124,0.23316161334514618,0.19395296275615692,0.05566033348441124
1790174145822271500,11.955271484375,0.17597103118896484,0.19417640566825867,0.036506347358226776
1790174145832341800,11.965341796875,0.04325772449374199,0.20185641944408417,-0.06374302506446838
1790174145842412800,11.975412841796874,-0.011863583698868752,0.18704046308994293,-0.01543781254440546
1790174145852482600,11.985482666015624,0.04843517765402794,0.18494614958763123,0.08404536545276642
1790174145862553600,11.9955537109375,0.09015945345163345,0.16424912214279175,0.005844307132065296
1790174145872623600,12.00562353515625,0.06077493354678154,0.15702290832996368,-0.02034601755440235
1790174145882693600,12.015693603515626,0.02984924241900444,0.1469215303659439,-0.014402109198272228
1790174145892764700,12.0257646484375,-0.011432950384914875,0.15967914462089539,-0.019662916660308838
1790174145902834700,12.035834716796876,-0.05161578953266144,0.1557733565568924,0.08050230145454407
1790174145912905700,12.04590576171875,-0.07185821235179901,0.1564125120639801,0.0754244476556778
1790174145922975500,12.0559755859375,-0.0811409279704094,0.13431653380393982,0.043659064918756485
1790174145933045500,12.06604541015625,-0.09106013178825378,0.13141155242919922,0.026621490716934204
1790174145943116500,12.076116455078125,-0.1169990599155426,0.13632269203662872,-0.021748172119259834
1790174145953186800,12.086186767578125,-0.15815049409866333,0.14511963725090027,0.05914747714996338
1790174145963257600,12.096257568359375,-0.16609230637550354,0.11125941574573517,0.11279872059822083
1790174145973327600,12.10632763671875,-0.1685333549976349,0.056475259363651276,0.09164922684431076
1790174145983398700,12.116398681640625,-0.22985237836837769,0.03628530353307724,0.024814004078507423
1790174145993468400,12.126468505859375,-0.28082022070884705,0.004463457968086004,0.03910905122756958
1790174146003538700,12.13653857421875,-0.2864155173301697,-0.015659652650356293,0.02291730046272278
1790174146013609700,12.146609619140625,-0.27659377455711365,-0.032411471009254456,-0.07343906164169312
1790174146023679700,12.1566796875,-0.29856592416763306,-0.04861866682767868,-0.10110451281070709
1790174146033750500,12.16675048828125,-0.3183864951133728,-0.08663395792245865,-0.11136274039745331
1790174146043820500,12.176820556640624,-0.3313867151737213,-0.07337621599435806,-0.03068654052913189
1790174146053891600,12.1868916015625,-0.2947288453578949,-0.06771885603666306,0.04344760999083519
1790174146063961900,12.1969619140625,-0.26819896697998047,-0.08985665440559387,0.057807907462120056
1790174146074031600,12.207031494140624,-0.27445605397224426,-0.10515331476926804,0.06381919234991074
1790174146084102700,12.2171025390625,-0.3042254149913788,-0.11758122593164444,0.03309563547372818
1790174146094172700,12.227172607421876,-0.3250097930431366,-0.13936641812324524,-0.05776875838637352
1790174146104243700,12.23724365234375,-0.3096979260444641,-0.1306283175945282,0.011200456880033016
1790174146114313700,12.247313720703126,-0.26259779930114746,-0.13264192640781403,-0.022223280742764473
1790174146124383700,12.2573837890625,-0.2523709833621979,-0.17353077232837677,-0.0007880293414928019
1790174146134454800,12.267454833984376,-0.24944524466991425,-0.1662542223930359,-0.015206383541226387
1790174146144524500,12.277524658203125,-0.2333299219608307,-0.14306554198265076,0.06903765350580215
1790174146154595600,12.287595703125,-0.13887585699558258,-0.16119500994682312,0.10758131742477417
1790174146164665600,12.29766552734375,-0.19831281900405884,-0.10039903968572617,0.10780635476112366
