time,seconds_elapsed,z,y,x
1790174133924071000,0.05707080078125,0.09501159191131592,-0.012075519189238548,-0.020597979426383972
1790174133934142000,0.067141845703125,0.03736628592014313,-0.02712329477071762,0.05410989373922348
1790174133944211700,0.077211669921875,0.03655428811907768,-0.03386934846639633,0.06216089054942131
1790174133954281700,0.08728173828125,0.06437835842370987,-0.011527309194207191,0.018433410674333572
1790174133964352800,0.097352783203125,0.0827602967619896,-0.004931724164634943,-0.005808544810861349
1790174133974422800,0.1074228515625,0.11089526116847992,-0.03164699673652649,-0.044141411781311035
1790174133984493800,0.117493896484375,0.08489774912595749,-0.03532508760690689,0.004497229121625423
1790174133994563800,0.127563720703125,0.08041133731603622,-0.03184965252876282,-0.03800232335925102
1790174134004635000,0.137634765625,0.12319129705429077,0.008659690618515015,0.02025778591632843
1790174134014704600,0.14770458984375,0.17563581466674805,0.025327853858470917,0.04684741422533989
1790174134024775000,0.15777490234375,0.17210818827152252,0.041454095393419266,0.01354192290455103
1790174134034846000,0.167845947265625,0.22561369836330414,0.05638321489095688,0.0020272936671972275
1790174134044915700,0.177915771484375,0.18792037665843964,0.06300542503595352,0.0665503591299057
1790174134054986800,0.18798681640625,0.22409191727638245,0.033938635140657425,0.015306835062801838
1790174134065056800,0.198056884765625,0.18729102611541748,0.08215569704771042,0.05113114416599274
1790174134075126500,0.20812646484375,0.18418695032596588,0.07522164285182953,0.029774952679872513
1790174134085197600,0.218197509765625,0.23485305905342102,0.14874832332134247,-0.04092451557517052
1790174134095267800,0.228267822265625,0.3140392601490021,0.1848311871290207,-0.015556533820927143
1790174134105339000,0.2383388671875,0.3138374090194702,0.19007815420627594,-0.0002683920320123434
1790174134115408600,0.24840869140625,0.2824733853340149,0.16193774342536926,-0.01106205489486456
1790174134125479700,0.258479736328125,0.27055254578590393,0.08531541377305984,0.058552708476781845
1790174134135549700,0.2685498046875,0.23731876909732819,0.1338137984275818,0.12390852719545364
1790174134145620000,0.278619873046875,0.27492764592170715,0.2291930466890335,0.050563737750053406
1790174134155690800,0.288690673828125,0.3622804582118988,0.26226377487182617,-0.022846674546599388
1790174134165760800,0.2987607421875,0.3427216708660126,0.20334666967391968,-0.0005014209309592843
1790174134175831800,0.308831787109375,0.276606947183609,0.19160926342010498,0.006287642754614353
1790174134185901800,0.31890185546875,0.24699579179286957,0.23919515311717987,0.019259367138147354
1790174134195972600,0.32897265625,0.33099398016929626,0.2732055187225342,-0.0011572325602173805
1790174134206043000,0.33904296875,0.3498217463493347,0.3221528232097626,-0.07913964986801147
1790174134216113000,0.34911279296875,0.30413249135017395,0.33527442812919617,-0.028245199471712112
1790174134226183700,0.35918359375,0.24052421748638153,0.28709039092063904,0.02695280686020851
1790174134236253700,0.369253662109375,0.16825328767299652,0.2207193821668625,0.06909167021512985
1790174134246324700,0.37932470703125,0.10993298888206482,0.20699505507946014,0.10152124613523483
1790174134256394800,0.389394775390625,0.14691776037216187,0.23481135070323944,0.04318596050143242
1790174134266465500,0.399465576171875,0.13373830914497375,0.2472589612007141,0.013864025473594666
1790174134276535800,0.409535888671875,0.09820086508989334,0.19870887696743011,0.038413941860198975
1790174134286605800,0.419605712890625,0.09576140344142914,0.2409151792526245,-0.03202959895133972
1790174134296676900,0.4296767578125,0.04359186440706253,0.18702536821365356,0.06741860508918762
1790174134306746600,0.43974658203125,-0.020459555089473724,0.13491849601268768,0.06111384183168411
1790174134316817700,0.449817626953125,0.03088930994272232,0.18533316254615784,-0.03134758397936821
1790174134326888000,0.459887939453125,0.06024613231420517,0.1594190150499344,0.005227737594395876
1790174134336958700,0.469958740234375,-0.09211473912000656,0.07409574091434479,0.11423927545547485
1790174134347028700,0.48002880859375,-0.16386401653289795,0.054809924215078354,0.06815806776285172
1790174134357098800,0.4900986328125,-0.1429339051246643,0.08957891166210175,0.058812495321035385
1790174134367169800,0.500169677734375,-0.08692178130149841,0.0750601589679718,0.0036986444611102343
1790174134377239800,0.51023974609375,-0.06535976380109787,0.08973560482263565,-0.1056118980050087
1790174134387310800,0.520310791015625,-0.07899275422096252,0.11698693782091141,-0.1071900874376297
1790174134397380900,0.530380859375,-0.12062212824821472,0.10794296115636826,-0.05827111378312111
1790174134407450600,0.54045068359375,-0.13446924090385437,0.1147550567984581,-0.018049390986561775
1790174134417521700,0.550521728515625,-0.08289675414562225,0.12816205620765686,-0.08394274860620499
1790174134427591700,0.560591796875,-0.0644325241446495,0.1285889744758606,-0.04584623500704765
1790174134437662700,0.570662841796875,-0.12005838006734848,0.0553281307220459,0.05111636593937874
1790174134447732700,0.580732666015625,-0.17073780298233032,0.010050926357507706,0.022634126245975494
1790174134457803800,0.5908037109375,-0.14416132867336273,0.0010557342320680618,0.10362540930509567
1790174134467873800,0.600873779296875,-0.17306755483150482,0.0459212064743042,0.09730839729309082
1790174134477943600,0.610943603515625,-0.20096169412136078,0.050056859850883484,0.05718008428812027
1790174134488014600,0.6210146484375,-0.19116099178791046,0.040419407188892365,-0.0021234527230262756
1790174134498084900,0.6310849609375,-0.21340610086917877,0.034265272319316864,-0.017103958874940872
1790174134508156000,0.641156005859375,-0.2619323432445526,0.0170881487429142,0.008434956893324852
1790174134518225700,0.6512255859375,-0.3356468379497528,-0.01778486743569374,0.11026034504175186
1790174134528296700,0.661296630859375,-0.2994707524776459,0.02139608934521675,0.0962047129869461
1790174134538366700,0.67136669921875,-0.27115005254745483,0.09342828392982483,0.016739726066589355
1790174134548437000,0.68143701171875,-0.2148098200559616,0.04068891331553459,-0.0884399563074112
1790174134558507800,0.6915078125,-0.21327261626720428,0.027531497180461884,-0.028878938406705856
1790174134568577800,0.701577880859375,-0.33591198921203613,0.04401806369423866,-0.017785008996725082
1790174134578648800,0.71164892578125,-0.3531376123428345,0.0413011759519577,0.02194860950112343
1790174134588718600,0.721718505859375,-0.28107884526252747,0.035411059856414795,0.038850363343954086
1790174134598789600,0.73178955078125,-0.2929913103580475,0.005407408811151981,0.03396197408437729
1790174134608860000,0.74185986328125,-0.3372296094894409,-0.04276757687330246,0.021854445338249207
1790174134618930000,0.751929931640625,-0.35674312710762024,-0.0028589442372322083,-0.0029076547361910343
1790174134629000700,0.762000732421875,-0.3513707220554352,-0.029206927865743637,0.028273966163396835
1790174134639070700,0.77207080078125,-0.37953153252601624,-0.1153058260679245,0.06688831746578217
1790174134649141800,0.782141845703125,-0.39060813188552856,-0.14791356027126312,0.07424876093864441
1790174134659211800,0.792211669921875,-0.4465384781360626,-0.12310750037431717,0.07401960343122482
1790174134669282600,0.802282470703125,-0.4733211100101471,-0.15943168103694916,0.009760191664099693
1790174134679352800,0.812352783203125,-0.4254119098186493,-0.2205786556005478,0.004441572818905115
1790174134689422800,0.8224228515625,-0.4352474808692932,-0.22388896346092224,0.015041487291455269
1790174134699493600,0.83249365234375,-0.4352548122406006,-0.24648983776569366,-0.046635862439870834
1790174134709563600,0.842563720703125,-0.455131858587265,-0.29424774646759033,-0.03961949795484543
1790174134719634700,0.852634765625,-0.4493931829929352,-0.2811383605003357,-0.0621938519179821
1790174134729705000,0.862705078125,-0.4169321656227112,-0.2673436999320984,0.014792275615036488
1790174134739774700,0.872774658203125,-0.4196637272834778,-0.2958105802536011,0.01751318760216236
1790174134749845800,0.882845703125,-0.39323344826698303,-0.29698848724365234,0.03424130007624626
1790174134759915800,0.892915771484375,-0.3619529902935028,-0.2685779333114624,0.11947358399629593
1790174134769986800,0.90298681640625,-0.3269183039665222,-0.2542322874069214,0.02404080517590046
1790174134780056800,0.913056884765625,-0.33410176634788513,-0.2178201824426651,-0.057804398238658905
1790174134790127900,0.9231279296875,-0.3108068108558655,-0.16949792206287384,-0.035961415618658066
1790174134800198000,0.933197998046875,-0.2526654899120331,-0.14901405572891235,-0.019827432930469513
1790174134810267600,0.943267578125,-0.2077784389257431,-0.14713387191295624,-0.014957310631871223
1790174134820338700,0.953338623046875,-0.17352664470672607,-0.13451041281223297,0.05104442685842514
1790174134830408700,0.96340869140625,-0.19207929074764252,-0.12335683405399323,0.03532911464571953
1790174134840479700,0.973479736328125,-0.18779690563678741,-0.12508507072925568,0.010172425769269466
1790174134850549800,0.9835498046875,-0.11779730767011642,-0.1467248499393463,0.056115951389074326
1790174134860620800,0.993620849609375,-0.1002703458070755,-0.1732332706451416,0.06487490981817245
1790174134870690800,1.00369091796875,-0.10403232276439667,-0.19791172444820404,0.042387451976537704
1790174134880760600,1.013760498046875,-0.12407553941011429,-0.1732841432094574,0.02714298479259014
1790174134890831600,1.02383154296875,-0.13959164917469025,-0.16003970801830292,-0.003642625641077757
1790174134900902000,1.03390185546875,-0.09283264726400375,-0.19160766899585724,-0.013873448595404625
1790174134910973000,1.043972900390625,-0.02649543434381485,-0.19668631255626678,0.012678001075983047
1790174134921042700,1.054042724609375,-0.02148476056754589,-0.1624690443277359,0.020846180617809296
1790174134931113700,1.06411376953125,-0.023274404928088188,-0.14065109193325043,0.0022107092663645744
1790174134941183700,1.074183837890625,0.012966201640665531,-0.12340153753757477,-0.01865220069885254
1790174134951253800,1.084253662109375,0.020955152809619904,-0.0756036564707756,-0.020315878093242645
1790174134961324800,1.09432470703125,0.015101257711648941,-0.09206082671880722,0.025283798575401306
1790174134971394800,1.104394775390625,0.051958341151475906,-0.11379940807819366,0.013766693882644176
1790174134981465900,1.1144658203125,0.006247900892049074,-0.07200553268194199,0.08204559236764908
1790174134991535600,1.12453564453125,-0.030452586710453033,-0.0634557232260704,-0.017705770209431648
1790174135001606700,1.134606689453125,-0.05368456989526749,-0.05947653204202652,-0.08055151998996735
1790174135011676700,1.1446767578125,-0.05081421509385109,-0.022808002308011055,-0.06433047354221344
1790174135021747000,1.154746826171875,-0.009336440823972225,-0.02875535562634468,-0.07112636417150497
1790174135031817700,1.164817626953125,-0.0012028813362121582,-0.04149511829018593,-0.041281912475824356
1790174135041887700,1.1748876953125,-0.05450890585780144,-0.027569692581892014,0.06654968112707138
1790174135051958800,1.184958740234375,-0.08177700638771057,-0.011384863406419754,0.060008954256772995
1790174135062028500,1.195028564453125,-0.040505506098270416,-0.005865125916898251,0.09655210375785828
1790174135072098800,1.205098876953125,-0.019919270649552345,-0.012969374656677246,0.07226993143558502
1790174135082169900,1.215169921875,-0.000029814080335199833,-0.025351330637931824,-0.024219755083322525
1790174135092240000,1.225239990234375,-0.009723453782498837,-0.04105652496218681,0.030646421015262604
1790174135102310700,1.235310546875,-0.040421657264232635,-0.016314398497343063,0.011594085954129696
1790174135112380700,1.245380615234375,-0.07910194247961044,-0.007868449203670025,-0.043204981833696365
1790174135122451700,1.25545166015625,-0.07269109040498734,-0.025001240894198418,-0.010234078392386436
1790174135132522000,1.26552197265625,-0.02589348517358303,-0.06694123148918152,0.07465231418609619
1790174135142591700,1.275591796875,-0.004311834927648306,-0.09191378206014633,0.1005168929696083
1790174135152662800,1.285662841796875,-0.074256032705307,-0.10012217611074448,0.06106029823422432
1790174135162732800,1.29573291015625,-0.1542448103427887,-0.09350290894508362,-0.018346033990383148
1790174135172803800,1.305803955078125,-0.139206200838089,-0.10141968727111816,-0.07643357664346695
1790174135182873600,1.31587353515625,-0.10080720484256744,-0.12721967697143555,-0.03640386089682579
1790174135192944600,1.325944580078125,-0.06432376056909561,-0.1461784541606903,0.050271376967430115
1790174135203015000,1.336014892578125,-0.04392128065228462,-0.16999264061450958,0.10373066365718842
1790174135213084700,1.346084716796875,-0.13723258674144745,-0.14774459600448608,0.022874964401125908
1790174135223155700,1.35615576171875,-0.2216690331697464,-0.1598474532365799,-0.08512623608112335
1790174135233225700,1.366225830078125,-0.1724170744419098,-0.20381037890911102,-0.08742427825927734
1790174135243296800,1.376296875,-0.11181889474391937,-0.2260458767414093,-0.008587319403886795
1790174135253366800,1.38636669921875,-0.11115976423025131,-0.2540183961391449,-0.016632461920380592
1790174135263436800,1.396436767578125,-0.19420576095581055,-0.2395724654197693,0.00796749908477068
1790174135273507800,1.4065078125,-0.24505242705345154,-0.24975745379924774,-0.0008558202534914017
1790174135283577600,1.41657763671875,-0.17328497767448425,-0.28454452753067017,0.002900798572227359
1790174135293648600,1.426648681640625,-0.05267360806465149,-0.26455190777778625,0.0561072938144207
1790174135303719000,1.436718994140625,-0.019551604986190796,-0.26510104537010193,0.017887471243739128
1790174135313790000,1.4467900390625,-0.10914599150419235,-0.26267388463020325,0.04043707251548767
1790174135323859700,1.456859619140625,-0.17459677159786224,-0.22694124281406403,0.0994294285774231
1790174135333929700,1.4669296875,-0.13945236802101135,-0.20484580099582672,0.06554017215967178
1790174135344000800,1.477000732421875,-0.05748605355620384,-0.2268734723329544,0.0025999899953603745
1790174135354070800,1.48707080078125,-0.05578935146331787,-0.2070036232471466,-0.018828069791197777
1790174135364141800,1.497141845703125,-0.1071939691901207,-0.18407508730888367,-0.010860113427042961
1790174135374211800,1.5072119140625,-0.09032098203897476,-0.21668176352977753,-0.11596282571554184
1790174135384283000,1.517282958984375,-0.07679328322410583,-0.1712583750486374,-0.10960738360881805
1790174135394352600,1.5273525390625,-0.005556653719395399,-0.17145252227783203,-0.05019332841038704
1790174135404422700,1.537422607421875,0.03726999834179878,-0.21057459712028503,0.031117163598537445
1790174135414493700,1.54749365234375,0.015756718814373016,-0.18167530000209808,-0.022754857316613197
1790174135424563700,1.557563720703125,0.03183041512966156,-0.17849060893058777,-0.08147856593132019
1790174135434634800,1.567634765625,0.102256640791893,-0.22356221079826355,-0.03309532627463341
1790174135444704800,1.577704833984375,0.12915904819965363,-0.22626961767673492,-0.009085521101951599
1790174135454775800,1.58777587890625,0.16127783060073853,-0.24057185649871826,-0.0608842708170414
1790174135464845600,1.597845458984375,0.1376374363899231,-0.24781425297260284,-0.04423121362924576
1790174135474915800,1.607915771484375,0.12597759068012238,-0.2135135382413864,-0.014631511643528938
1790174135484987000,1.61798681640625,0.16941872239112854,-0.20860561728477478,0.009074162691831589
1790174135495057000,1.628056884765625,0.14235541224479675,-0.17092056572437286,-0.015627721324563026
1790174135505127700,1.638127685546875,0.12301486730575562,-0.17210279405117035,-0.03242706134915352
1790174135515197700,1.64819775390625,0.1576860249042511,-0.17695213854312897,0.012497534975409508
1790174135525267700,1.658267822265625,0.21866145730018616,-0.16504177451133728,-0.00031038327142596245
1790174135535338800,1.6683388671875,0.28055518865585327,-0.17556153237819672,0.14131970703601837
1790174135545408800,1.67840869140625,0.25531888008117676,-0.17803217470645905,0.08621583133935928
1790174135555479800,1.688479736328125,0.2018367499113083,-0.1809731125831604,0.0578683465719223
1790174135565549800,1.6985498046875,0.20057862997055054,-0.19535155594348907,0.06805291026830673
1790174135575620600,1.70862060546875,0.2897942364215851,-0.18962283432483673,0.09029429405927658
1790174135585690600,1.718690673828125,0.2898682653903961,-0.14042015373706818,-0.026290031149983406
1790174135595761000,1.728760986328125,0.28183111548423767,-0.153655543923378,-0.08381377905607224
1790174135605832000,1.73883203125,0.30896881222724915,-0.1458301544189453,-0.06336215138435364
1790174135615901700,1.748901611328125,0.333670437335968,-0.08514975011348724,-0.11639048159122467
1790174135625972700,1.75897265625,0.3901657462120056,-0.06915245205163956,-0.0611039474606514
1790174135636042800,1.769042724609375,0.4252859055995941,-0.023403072729706764,0.023807212710380554
1790174135646112800,1.77911279296875,0.4288817346096039,0.010816577821969986,-0.06674845516681671
1790174135656183800,1.789183837890625,0.4446508288383484,0.02564665861427784,-0.039029479026794434
1790174135666253800,1.79925390625,0.4354318082332611,0.06806552410125732,-0.005709475371986628
1790174135676324900,1.809324951171875,0.42500871419906616,0.08008143305778503,0.10985973477363586
1790174135686394600,1.81939453125,0.4715474545955658,0.045794904232025146,0.08562640100717545
1790174135696465700,1.829465576171875,0.5273963212966919,0.06089609116315842,0.02832236886024475
1790174135706536000,1.839535888671875,0.5591661334037781,0.09934945404529572,0.03741522878408432
1790174135716606000,1.84960595703125,0.5361950397491455,0.13628323376178741,-0.034637391567230225
1790174135726676700,1.8596767578125,0.5231422781944275,0.13538505136966705,-0.0005633631953969598
1790174135736746800,1.869746826171875,0.5365235805511475,0.1370018571615219,0.005978159606456757
1790174135746817800,1.87981787109375,0.6121177077293396,0.1409652829170227,-0.014983868226408958
1790174135756887800,1.8898876953125,0.6242548227310181,0.1471848338842392,-0.01505817100405693
1790174135766958600,1.89995849609375,0.614986777305603,0.14944231510162354,-0.02789679542183876
1790174135777028900,1.91002880859375,0.6137521266937256,0.1713838428258896,-0.003455634228885174
1790174135787099000,1.920098876953125,0.5733382105827332,0.19798004627227783,0.03645256161689758
1790174135797170000,1.930169921875,0.5783204436302185,0.19829483330249786,-0.026650510728359222
1790174135807239700,1.94023974609375,0.667834460735321,0.19545122981071472,0.01732725091278553
1790174135817310700,1.950310791015625,0.6626474261283875,0.20671133697032928,-0.012919334694743156
1790174135827381000,1.960381103515625,0.5681739449501038,0.2221364974975586,-0.014002539217472076
1790174135837451800,1.97045166015625,0.560310959815979,0.24099993705749512,-0.06250882148742676
1790174135847521800,1.980521728515625,0.5534605383872986,0.24809059500694275,-0.0530569963157177
1790174135857591800,1.990591796875,0.5895375609397888,0.23745207488536835,0.08541858941316605
1790174135867662800,2.000662841796875,0.5750497579574585,0.23978625237941742,0.07930392026901245
1790174135877732900,2.01073291015625,0.49843674898147583,0.2576800286769867,-0.0638580322265625
1790174135887804000,2.020803955078125,0.4446869492530823,0.3009094297885895,-0.12488274276256561
1790174135897874000,2.0308740234375,0.489094614982605,0.34223076701164246,-0.052207209169864655
1790174135907945000,2.040945068359375,0.5388584733009338,0.33218055963516235,0.04603438824415207
1790174135918014700,2.0510146484375,0.5679159164428711,0.28018978238105774,0.05408858507871628
1790174135928084700,2.061084716796875,0.5019925236701965,0.30372804403305054,-0.07866089791059494
1790174135938155800,2.07115576171875,0.45845627784729004,0.37158137559890747,-0.15225814282894135
1790174135948225800,2.081225830078125,0.4253198504447937,0.3847280740737915,-0.08832604438066483
1790174135958296800,2.091296875,0.4431403875350952,0.32770368456840515,0.010520635172724724
1790174135968366800,2.101366943359375,0.413779616355896,0.3440154492855072,-0.11415505409240723
1790174135978436600,2.1114365234375,0.383035808801651,0.37234270572662354,-0.03440562263131142
1790174135988507600,2.121507568359375,0.5513324737548828,0.3777984380722046,0.2986557185649872
1790174135998578000,2.131577880859375,0.5015017986297607,0.32117190957069397,0.2396126389503479
1790174136008649000,2.14164892578125,0.32168692350387573,0.26875385642051697,-0.052985578775405884
1790174136018718700,2.15171875,0.3159097135066986,0.35892370343208313,-0.4025222659111023
1790174136028789800,2.161789794921875,0.385109007358551,0.4549027979373932,-0.106012262403965
1790174136038859800,2.17185986328125,0.46807897090911865,0.41471409797668457,0.4459609091281891
1790174136048929800,2.1819296875,0.34036919474601746,0.2511993646621704,0.49261173605918884
1790174136059000800,2.192000732421875,0.16362638771533966,0.17042860388755798,0.18841618299484253
1790174136069070800,2.20207080078125,0.3112969994544983,0.4209204912185669,-0.285922646522522
1790174136079142000,2.212141845703125,0.44070345163345337,0.4837673604488373,-0.27989697456359863
1790174136089211600,2.222211669921875,0.33461636304855347,0.36502131819725037,-0.04433596879243851
1790174136099282700,2.23228271484375,0.22793786227703094,0.3970503509044647,0.19943781197071075
1790174136109352700,2.242352783203125,0.28774890303611755,0.3292120397090912,0.15789924561977386
1790174136119423000,2.252423095703125,0.3542075753211975,0.34644511342048645,-0.026363002136349678
1790174136129493800,2.26249365234375,0.4087865948677063,0.4556000530719757,-0.0353337861597538
1790174136139563800,2.272563720703125,0.35391587018966675,0.47025516629219055,0.007652830332517624
1790174136149634800,2.282634765625,0.3032166063785553,0.40174007415771484,0.0963604524731636
1790174136159704800,2.292704833984375,0.30386510491371155,0.36139824986457825,0.06052548810839653
1790174136169774800,2.30277490234375,0.3342891037464142,0.3672580122947693,-0.03831302002072334
1790174136179846000,2.312845947265625,0.3047589063644409,0.40446236729621887,0.11216090619564056
1790174136189916000,2.322916015625,0.17981304228305817,0.4502774477005005,0.0002681512851268053
1790174136199986700,2.332986572265625,0.2548992931842804,0.3808826804161072,0.13543637096881866
1790174136210056700,2.343056640625,0.37074071168899536,0.4371514916419983,0.06975822895765305
1790174136220127700,2.353127685546875,0.4122077226638794,0.4301585555076599,0.24506187438964844
1790174136230198000,2.363197998046875,0.36176469922065735,0.4382433593273163,0.03853938728570938
1790174136240267800,2.373267822265625,0.24946050345897675,0.5111628174781799,-0.03138377144932747
1790174136250338800,2.3833388671875,0.2318645566701889,0.5012363791465759,-0.0868125781416893
1790174136260408800,2.393408935546875,0.20044565200805664,0.5069538950920105,0.044193100184202194
1790174136270480000,2.40347998046875,0.26275402307510376,0.5136361718177795,0.18129754066467285
1790174136280550000,2.4135498046875,0.2790272831916809,0.46552935242652893,0.003883338300511241
1790174136290621000,2.423620849609375,0.1869930624961853,0.4713103771209717,0.012414952740073204
1790174136300691000,2.43369091796875,0.14232707023620605,0.5031420588493347,0.11410722136497498
1790174136310760700,2.4437607421875,0.18924878537654877,0.5209046602249146,0.21772760152816772
1790174136320831700,2.453831787109375,0.213868647813797,0.4801287353038788,0.33001819252967834
1790174136330901800,2.46390185546875,0.08410467207431793,0.4661632478237152,0.14342334866523743
1790174136340972800,2.473972900390625,-0.12086045742034912,0.41725990176200867,0.05961155146360397
1790174136351042800,2.484042724609375,-0.12857019901275635,0.3892715275287628,0.20072466135025024
1790174136361112800,2.49411279296875,-0.07371386885643005,0.40443503856658936,0.18299919366836548
1790174136371183900,2.504183837890625,-0.09385465830564499,0.38324615359306335,0.043493062257766724
1790174136381253600,2.514253662109375,-0.16075406968593597,0.35692161321640015,0.1045691967010498
1790174136391324700,2.52432470703125,-0.1985621601343155,0.3149771988391876,0.2072548270225525
1790174136401395000,2.53439501953125,-0.18480800092220306,0.23667679727077484,0.08458535373210907
1790174136411466000,2.544466064453125,-0.20476670563220978,0.2592402994632721,0.03773784264922142
1790174136421535700,2.55453564453125,-0.33193427324295044,0.2746584117412567,0.041672661900520325
1790174136431605800,2.564605712890625,-0.43668991327285767,0.20076881349086761,0.06650370359420776
1790174136441676800,2.5746767578125,-0.41567251086235046,0.1257323920726776,0.15253260731697083
1790174136451746800,2.584746826171875,-0.378880113363266,0.07787948101758957,0.061618633568286896
1790174136461817900,2.59481787109375,-0.43699750304222107,0.010310289449989796,0.021916233003139496
1790174136471888000,2.604887939453125,-0.5620644688606262,0.0053428057581186295,0.007960102520883083
1790174136481959000,2.614958984375,-0.5480437278747559,0.0008125025779008865,0.1281360387802124
1790174136492028700,2.625028564453125,-0.4837486743927002,-0.04586474969983101,0.17598456144332886
1790174136502098700,2.6350986328125,-0.5044079422950745,-0.06679239869117737,0.08280403167009354
1790174136512169700,2.645169677734375,-0.5515415668487549,-0.05389653891324997,0.12493360042572021
1790174136522240000,2.655239990234375,-0.597643256187439,-0.08685822039842606,0.08355046808719635
1790174136532310800,2.665310791015625,-0.595397412776947,-0.12699829041957855,-0.0033859936520457268
1790174136542380800,2.675380859375,-0.5648040771484375,-0.11859920620918274,0.033365629613399506
1790174136552450800,2.685450927734375,-0.5153607726097107,-0.1622082144021988,0.10310295969247818
1790174136562521600,2.695521484375,-0.559801459312439,-0.18310365080833435,0.1385970413684845
1790174136572591900,2.705591796875,-0.6303089261054993,-0.13677486777305603,0.03591250628232956
1790174136582663000,2.715662841796875,-0.6100212335586548,-0.13704437017440796,-0.053640011698007584
1790174136592733000,2.72573291015625,-0.5438330769538879,-0.1733553260564804,-0.08970752358436584
1790174136602803700,2.7358037109375,-0.5464520454406738,-0.15484316647052765,-0.06552734971046448
1790174136612873700,2.745873779296875,-0.5240432024002075,-0.1563245952129364,0.0056174518540501595
1790174136622944000,2.755944091796875,-0.45459115505218506,-0.15584123134613037,0.057249486446380615
1790174136633015000,2.76601513671875,-0.38293853402137756,-0.14138825237751007,0.0490964874625206
1790174136643084800,2.776084716796875,-0.30679821968078613,-0.1284564882516861,0.050262950360774994
1790174136653155800,2.78615576171875,-0.26964089274406433,-0.12394087016582489,-0.01866964064538479
1790174136663225900,2.796225830078125,-0.2349518984556198,-0.11967768520116806,0.019691063091158867
1790174136673296600,2.806296630859375,-0.1901557743549347,-0.07137375324964523,-0.020541982725262642
1790174136683366700,2.81636669921875,-0.1212395653128624,-0.030640171840786934,0.022457415238022804
1790174136693437000,2.82643701171875,-0.039055872708559036,-0.03857804089784622,-0.018020085990428925
1790174136703508000,2.836508056640625,-0.009010620415210724,-0.009853985160589218,-0.035662997514009476
1790174136713577700,2.84657763671875,0.017842767760157585,-0.01941162534058094,-0.003984170034527779
1790174136723648500,2.8566484375,0.04282401502132416,0.012916486710309982,0.0343986414372921
1790174136733718500,2.866718505859375,0.09171981364488602,0.052449990063905716,0.03552080690860748
1790174136743788800,2.876788818359375,0.13237883150577545,0.07359229028224945,0.011980857700109482
1790174136753859800,2.88685986328125,0.1548677533864975,0.07093893736600876,0.08318034559488297
1790174136763929600,2.8969296875,0.1366700977087021,0.08605876564979553,0.03932473808526993
1790174136774000600,2.907000732421875,0.07072067260742188,0.11359941214323044,-0.035825956612825394
1790174136784070700,2.917070556640625,0.04967770725488663,0.12141606211662292,-0.06736178696155548
1790174136794141400,2.927141357421875,0.10303010046482086,0.1146436482667923,0.015945594757795334
1790174136804211700,2.937211669921875,0.13681656122207642,0.13369056582450867,0.030690986663103104
1790174136814281700,2.94728173828125,0.09691537171602249,0.15956047177314758,0.004417214542627335
1790174136824352800,2.957352783203125,0.09714573621749878,0.15324318408966064,0.06331861019134521
1790174136834422500,2.967422607421875,0.07465701550245285,0.15469355881214142,0.016400568187236786
1790174136844493600,2.97749365234375,0.02489079162478447,0.16114240884780884,-0.0533878356218338
1790174136854563800,2.987563720703125,0.00745811965316534,0.14417695999145508,0.004587728995829821
1790174136864635000,2.997634765625,0.02752929925918579,0.1203366070985794,-0.013256516307592392
1790174136874704600,3.00770458984375,-0.007914558984339237,0.11562898010015488,-0.07348164916038513
1790174136884774700,3.017774658203125,-0.07716820389032364,0.10938626527786255,-0.02431410551071167
1790174136894845700,3.027845703125,-0.12162075191736221,0.07918223738670349,0.09499139338731766
1790174136904915500,3.03791552734375,-0.07037381082773209,0.05251041799783707,0.09055296331644058
1790174136914986500,3.047986572265625,-0.056515537202358246,0.019465120509266853,-0.03057771548628807
1790174136925056800,3.058056884765625,-0.15233208239078522,0.022312838584184647,-0.03660684451460838
1790174136935126500,3.06812646484375,-0.22086986899375916,0.03963829576969147,0.004894524812698364
1790174136945197600,3.078197509765625,-0.200485497713089,0.01745123788714409,0.06992119550704956
1790174136955267600,3.088267578125,-0.1528453677892685,-0.03938010334968567,0.04465183988213539
1790174136965338600,3.098338623046875,-0.1732768714427948,-0.0372687503695488,0.05572579801082611
1790174136975408600,3.10840869140625,-0.22024795413017273,-0.03600673750042915,0.01296358834952116
1790174136985479700,3.118479736328125,-0.24122753739356995,-0.04133199527859688,0.05816568806767464
1790174136995549700,3.1285498046875,-0.2783888280391693,-0.014742488972842693,0.07139606773853302
1790174137005619500,3.138619384765625,-0.27882903814315796,-0.025085672736167908,0.009638959541916847
1790174137015690500,3.1486904296875,-0.24700653553009033,-0.05902121216058731,0.019028328359127045
1790174137025760800,3.1587607421875,-0.25507378578186035,-0.0336383581161499,0.058576006442308426
1790174137035831800,3.168831787109375,-0.2895394265651703,-0.027336381375789642,-0.016060318797826767
1790174137045901600,3.178901611328125,-0.30709418654441833,-0.02335122600197792,-0.02125294879078865
1790174137055971600,3.1889716796875,-0.27370938658714294,-0.016039008274674416,-0.04122152179479599
1790174137066042600,3.199042724609375,-0.251133531332016,-0.0018550129607319832,-0.08477779477834702
1790174137076112600,3.209112548828125,-0.21827760338783264,-0.0037305038422346115,-0.11158274859189987
1790174137086183400,3.219183349609375,-0.22387103736400604,0.008063570596277714,0.0010990598239004612
1790174137096253700,3.229253662109375,-0.20614516735076904,0.010462858714163303,0.06805957108736038
1790174137106324700,3.23932470703125,-0.16735276579856873,-0.009456786327064037,0.0619305782020092
1790174137116394800,3.249394775390625,-0.1047150120139122,0.006052044220268726,-0.06430061161518097
1790174137126464500,3.259464599609375,-0.0773872509598732,0.04004436731338501,-0.0218207910656929
1790174137136535600,3.26953564453125,-0.04393826425075531,0.03420029580593109,0.0008555902168154716
1790174137146605800,3.279605712890625,-0.040957655757665634,0.053668007254600525,-0.027570724487304688
1790174137156676600,3.289676513671875,-0.05755674093961716,0.05784112215042114,-0.008068774826824665
1790174137166746600,3.29974658203125,0.019319668412208557,0.02456333115696907,-0.00578245148062706
1790174137176817700,3.309817626953125,0.0683109313249588,0.0298430398106575,0.007955728098750114
1790174137186887700,3.3198876953125,0.1152198538184166,0.03049205243587494,0.05223211273550987
1790174137196957700,3.329957763671875,0.07835981994867325,0.05464949458837509,0.02632303722202778
1790174137207028700,3.34002880859375,0.0028658569790422916,0.0843336209654808,-0.02186792716383934
1790174137217098800,3.3500986328125,0.038256511092185974,0.0865059420466423,0.02189055271446705
1790174137227169800,3.360169677734375,0.07697700709104538,0.08527582883834839,0.038119059056043625
1790174137237239600,3.370239501953125,0.07685841619968414,0.06556101143360138,0.019868219271302223
1790174137247309600,3.3803095703125,0.06882765144109726,0.05295068025588989,0.0055654472671449184
1790174137257380600,3.390380615234375,0.03469567000865936,0.08813698589801788,-0.057918108999729156
1790174137267450600,3.40045068359375,0.024619068950414658,0.09661436080932617,-0.03951646387577057
1790174137277521700,3.410521728515625,0.04101761803030968,0.08051123470067978,-0.03022560104727745
1790174137287591700,3.420591796875,0.03328512981534004,0.08186066150665283,-0.031579285860061646
1790174137297662700,3.430662841796875,-0.018572188913822174,0.07485707849264145,-0.038359422236680984
1790174137307732500,3.440732421875,-0.04418779909610748,0.06857547909021378,-0.01908239722251892
1790174137317802800,3.450802734375,-0.0649602934718132,0.05982847139239311,0.0014117879327386618
1790174137327873800,3.460873779296875,-0.09474880993366241,0.05423290282487869,0.06499368697404861
1790174137337943600,3.470943603515625,-0.08533445745706558,0.0002722227945923805,0.06953617185354233
1790174137348014600,3.4810146484375,-0.10021300613880157,-0.006377424579113722,0.020233336836099625
1790174137358084600,3.491084716796875,-0.18449144065380096,0.002418636344373226,0.015845274552702904
1790174137368155600,3.50115576171875,-0.22321832180023193,-0.033423516899347305,0.0588017962872982
1790174137378225700,3.5112255859375,-0.22445324063301086,-0.03042176365852356,0.05633406341075897
1790174137388295700,3.521295654296875,-0.2279403954744339,-0.04794350266456604,0.04346726834774017
1790174137398366700,3.53136669921875,-0.21776843070983887,-0.0903659537434578,0.0793519988656044
1790174137408436500,3.5414365234375,-0.21064873039722443,-0.0959458127617836,0.0739537701010704
1790174137418507500,3.551507568359375,-0.258407860994339,-0.08956050872802734,0.0651349127292633
1790174137428577500,3.56157763671875,-0.3385607600212097,-0.09677767753601074,0.001388957491144538
1790174137438647800,3.571647705078125,-0.3408524692058563,-0.14264559745788574,-0.05237273499369621
1790174137448718600,3.581718505859375,-0.3341785967350006,-0.15086117386817932,0.006449569948017597
1790174137458788600,3.59178857421875,-0.2649432420730591,-0.1983707696199417,0.07056108117103577
1790174137468859600,3.601859619140625,-0.2639176547527313,-0.23551174998283386,0.01907072588801384
1790174137478929700,3.6119296875,-0.36350542306900024,-0.1821068376302719,-0.013913129456341267
1790174137489000400,3.62200048828125,-0.4043082594871521,-0.20681697130203247,-0.055338598787784576
1790174137499070700,3.63207080078125,-0.3672274947166443,-0.24696581065654755,-0.13277371227741241
1790174137509140700,3.642140625,-0.3928002119064331,-0.2172875553369522,0.004994538612663746
1790174137519211500,3.65221142578125,-0.3690647482872009,-0.24762439727783203,0.02917836420238018
1790174137529281500,3.662281494140625,-0.3102205991744995,-0.32414498925209045,0.011705098673701286
1790174137539352600,3.6723525390625,-0.3856987953186035,-0.27909621596336365,0.03784586489200592
1790174137549422800,3.6824228515625,-0.38117459416389465,-0.2906402349472046,0.01942504569888115
1790174137559492600,3.69249267578125,-0.2776793837547302,-0.34189337491989136,0.00922809075564146
1790174137569563600,3.702563720703125,-0.2222084254026413,-0.3026772737503052,0.06017036736011505
1790174137579633700,3.712633544921875,-0.2164754867553711,-0.2995002865791321,0.09178747236728668
1790174137589704700,3.72270458984375,-0.26008743047714233,-0.30334508419036865,0.11674315482378006
1790174137599774700,3.732774658203125,-0.22421200573444366,-0.28147372603416443,0.03897114470601082
1790174137609845800,3.742845703125,-0.1545751392841339,-0.24980315566062927,-0.041982024908065796
1790174137619915800,3.752915771484375,-0.09576455503702164,-0.21541571617126465,-0.06721518933773041
1790174137629985500,3.762985595703125,-0.022850938141345978,-0.1960068643093109,-0.0764121487736702
1790174137640056600,3.773056640625,0.004019096493721008,-0.16225746273994446,0.0036907941102981567
1790174137650126600,3.783126708984375,0.05614807829260826,-0.1623738408088684,-0.02024117112159729
1790174137660197600,3.79319775390625,0.06451402604579926,-0.10192014276981354,0.007240964565426111
1790174137670267600,3.803267578125,0.09524370729923248,-0.043958306312561035,-0.03976942226290703
1790174137680337700,3.813337646484375,0.142063170671463,-0.04080912470817566,0.0065141781233251095
1790174137690408700,3.82340869140625,0.20918014645576477,-0.032477423548698425,-0.022802697494626045
1790174137700478500,3.833478515625,0.23594048619270325,-0.009866693057119846,-0.08817888796329498
1790174137710549500,3.843549560546875,0.24221090972423553,-0.00690818764269352,-0.023976732045412064
1790174137720619000,3.853618896484375,0.27817922830581665,-0.015744050964713097,-0.015615398995578289
1790174137730690000,3.86368994140625,0.24873505532741547,0.04194800555706024,0.07202044129371643
1790174137740759800,3.873759765625,0.2883906364440918,0.01820468157529831,0.014596758410334587
1790174137750829800,3.883829833984375,0.2581368684768677,0.036896608769893646,-0.018073303624987602
1790174137760900900,3.89390087890625,0.20950205624103546,0.06593891233205795,0.001017111586406827
1790174137770971000,3.903970947265625,0.22981637716293335,0.04173557087779045,-0.04091409221291542
1790174137781042000,3.9140419921875,0.25817808508872986,0.03942545875906944,-0.04096682742238045
1790174137791112000,3.92411181640625,0.26880088448524475,0.0453115776181221,-0.019998429343104362
1790174137801183000,3.934182861328125,0.27399805188179016,0.038659267127513885,0.05283716320991516
1790174137811252700,3.944252685546875,0.23571565747261047,0.04103081300854683,-0.03588232025504112
1790174137821323000,3.954322998046875,0.1597444713115692,0.06397964060306549,-0.08129724115133286
1790174137831394000,3.96439404296875,0.15332917869091034,0.027367837727069855,-0.07543002814054489
1790174137841463800,3.9744638671875,0.15872521698474884,0.010063651017844677,-0.12160010635852814
1790174137851534800,3.984534912109375,0.14410711824893951,0.01594790443778038,-0.0928877666592598
1790174137861604900,3.99460498046875,0.1371336728334427,0.03177313879132271,-0.057815585285425186
1790174137871675000,4.0046748046875,0.1505701243877411,0.020682936534285545,0.021089615300297737
1790174137881746000,4.014745849609375,0.12137041985988617,0.00789497047662735,-0.012733595445752144
1790174137891816000,4.02481591796875,0.06079832836985588,-0.009698260575532913,0.036605022847652435
1790174137901887000,4.034886962890625,0.0740237757563591,-0.048654042184352875,0.015521938912570477
1790174137911956700,4.044956787109375,0.04924039542675018,-0.03278586268424988,0.03561495617032051
1790174137922027800,4.05502783203125,-0.01523667387664318,-0.011258386075496674,0.099333256483078
1790174137932097800,4.065097900390625,-0.03598616272211075,-0.026255711913108826,0.004322857595980167
1790174137942168000,4.07516796875,0.0032759862951934338,-0.04643015190958977,-0.0009354982757940888
1790174137952238800,4.08523876953125,0.02295088768005371,-0.06160883978009224,0.07677394151687622
1790174137962308900,4.095308837890625,-0.008635059930384159,-0.04399488493800163,0.04196114465594292
1790174137972380000,4.1053798828125,-0.04171311855316162,-0.06255391985177994,0.015645120292901993
1790174137982450000,4.115449951171875,-0.05901904031634331,-0.05781853571534157,-0.006532954052090645
1790174137992520000,4.12552001953125,-0.02865208126604557,-0.05005728453397751,-0.029036132618784904
1790174138002591000,4.135591064453125,-0.025013921782374382,-0.04342980682849884,-0.020057879388332367
1790174138012661000,4.145660888671875,0.0018219547346234322,-0.04504288360476494,-0.007784701883792877
1790174138022731800,4.155731689453125,0.0030536851845681667,-0.052994124591350555,0.02337297424674034
1790174138032801800,4.1658017578125,-0.022864731028676033,-0.03386383876204491,0.002316426718607545
1790174138042872800,4.175872802734375,0.010506498627364635,-0.012767273932695389,-0.014723245054483414
1790174138052943000,4.185943115234375,0.046447187662124634,-0.0034081265330314636,-0.045782361179590225
1790174138063012900,4.196012939453125,0.0508953221142292,0.006325250491499901,-0.029386458918452263
1790174138073084000,4.206083984375,0.0701662227511406,0.006602485664188862,-0.019631830975413322
1790174138083154000,4.21615380859375,0.08577753603458405,0.007720800116658211,-0.06280315667390823
1790174138093225000,4.226224853515625,0.07779683917760849,0.0033681290224194527,-0.04440177604556084
1790174138103295000,4.236294921875,0.04969988390803337,0.03463377803564072,-0.03382919728755951
1790174138113366000,4.246365966796875,0.06462077796459198,0.04315722733736038,0.0604882538318634
1790174138123436000,4.25643603515625,0.1034276932477951,0.027951959520578384,0.0887405201792717
1790174138133505800,4.266505859375,0.09693384170532227,0.03953271731734276,-0.007299458608031273
1790174138143576800,4.276576904296875,0.041942670941352844,0.03964630886912346,-0.10847072303295135
1790174138153646800,4.286646728515625,0.033646922558546066,0.0424700602889061,-0.08305724710226059
1790174138163718000,4.2967177734375,0.04710760340094566,0.03869422897696495,-0.0357389934360981
1790174138173788000,4.306787841796875,0.017125204205513,0.03678234666585922,-0.08726423978805542
1790174138183858000,4.31685791015625,0.041810061782598495,0.026205865666270256,-0.022141700610518456
1790174138193929000,4.326928955078125,0.06538516283035278,0.046952687203884125,0.0028984048403799534
1790174138203998700,4.336998779296875,0.06321074068546295,0.06603096425533295,-0.012230275198817253
1790174138214069800,4.34706982421875,0.10373447090387344,0.035527922213077545,-0.017577635124325752
1790174138224140000,4.35714013671875,0.10322454571723938,0.05467873439192772,-0.007507770322263241
1790174138234211000,4.367211181640625,0.10764513164758682,0.059636738151311874,0.04997815936803818
1790174138244280800,4.37728076171875,0.07130821794271469,0.01254056952893734,0.026129957288503647
1790174138254350800,4.387350830078125,0.026681091636419296,-0.001821325160562992,0.015756411477923393
1790174138264422000,4.397421875,-0.022179875522851944,-0.006975617725402117,-0.04400675371289253
1790174138274492000,4.407491943359375,0.010598576627671719,-0.028393559157848358,-0.0019679570104926825
1790174138284563000,4.41756298828125,-0.011422554962337017,-0.02521907538175583,0.06327521800994873
1790174138294633000,4.427633056640625,-0.011351448483765125,-0.01968768984079361,0.01025087758898735
1790174138304703000,4.437702880859375,0.03884146735072136,-0.014553455635905266,0.011465482413768768
1790174138314773800,4.447773681640625,0.1037331148982048,-0.0039969515055418015,-0.025400390848517418
1790174138324843800,4.45784375,0.09787726402282715,0.02322213351726532,-0.07500725984573364
1790174138334914800,4.467914794921875,0.03832978382706642,0.06273012608289719,-0.026046106591820717
1790174138344985000,4.477985107421875,0.05969101935625076,0.06820515543222427,0.004215370863676071
1790174138355055900,4.488055908203125,0.0696168914437294,0.10311946272850037,-0.017860902473330498
1790174138365126000,4.4981259765625,0.09340481460094452,0.10890394449234009,0.009350178763270378
1790174138375196000,4.50819580078125,0.1405225247144699,0.10137278586626053,0.006474763620644808
1790174138385266700,4.5182666015625,0.13741850852966309,0.0997699722647667,-0.04871143400669098
1790174138395337000,4.5283369140625,0.09010026603937149,0.11132010072469711,-0.03696023300290108
1790174138405408000,4.538407958984375,0.06606472283601761,0.11539574712514877,-0.023758983239531517
1790174138415478000,4.54847802734375,0.07888784259557724,0.10425307601690292,0.07585389167070389
1790174138425547800,4.5585478515625,0.056597813963890076,0.11315364390611649,0.09314172714948654
1790174138435618800,4.568618896484375,-0.004181113094091415,0.12745401263237,0.03772427514195442
1790174138445689000,4.578689208984375,-0.018722642213106155,0.10527382791042328,-0.03280248865485191
1790174138455760100,4.588760009765625,0.005776575766503811,0.09854349493980408,-0.06878232955932617
1790174138465830000,4.598829833984375,0.009757776744663715,0.12672393023967743,-0.06482517719268799
1790174138475901000,4.60890087890625,0.01523536629974842,0.11291090399026871,-0.029642151668667793
1790174138485971000,4.618970947265625,-0.03228550776839256,0.1424330472946167,0.009906278923153877
1790174138496040700,4.629040771484375,-0.0324663370847702,0.12398958206176758,0.03602762892842293
1790174138506111700,4.63911181640625,-0.04282508045434952,0.09955672919750214,-0.042878519743680954
1790174138516182000,4.64918212890625,-0.07831037044525146,0.10486334562301636,-0.028075072914361954
1790174138526253000,4.659253173828125,-0.08216842263936996,0.07699338346719742,-0.00826549157500267
1790174138536322800,4.66932275390625,-0.06949230283498764,0.07873136550188065,-0.04111744463443756
1790174138546393900,4.679393798828125,-0.08116909116506577,0.07223017513751984,-0.043790318071842194
1790174138556463900,4.6894638671875,-0.08090890198945999,0.022591250017285347,0.04310383275151253
1790174138566534000,4.699533935546875,-0.1273929476737976,0.014874965883791447,0.07580123096704483
1790174138576605000,4.70960498046875,-0.16974599659442902,0.0008385078981518745,0.011269114911556244
1790174138586675000,4.719675048828125,-0.19085969030857086,-0.02636636421084404,0.013519908301532269
1790174138596746000,4.72974609375,-0.18501430749893188,-0.05912084877490997,-0.017029745504260063
1790174138606815700,4.739815673828125,-0.18180020153522491,-0.05712340027093887,-0.059976354241371155
1790174138616886000,4.749885986328125,-0.2191702127456665,-0.029033713042736053,0.04133988171815872
1790174138626957000,4.75995703125,-0.18672609329223633,-0.049312200397253036,0.056101083755493164
1790174138637026800,4.77002685546875,-0.22209660708904266,-0.0565437488257885,0.020242420956492424
1790174138647097900,4.780097900390625,-0.22696515917778015,-0.07692874222993851,-0.05573568493127823
1790174138657168000,4.79016796875,-0.1937158703804016,-0.10429991036653519,-0.0568438284099102
1790174138667239000,4.800239013671875,-0.18641968071460724,-0.0847531259059906,0.00026027439162135124
1790174138677308700,4.81030859375,-0.199065163731575,-0.07766513526439667,-0.013099739328026772
1790174138687379000,4.82037890625,-0.20884737372398376,-0.08825507760047913,0.032848749309778214
1790174138697450000,4.830449951171875,-0.1969028264284134,-0.11260489374399185,0.06487726420164108
1790174138707520000,4.84052001953125,-0.20318031311035156,-0.10672787576913834,0.0031706346198916435
1790174138717591000,4.850591064453125,-0.20362931489944458,-0.10369453579187393,0.026367567479610443
1790174138727660800,4.860660888671875,-0.19605432450771332,-0.08871357887983322,0.012429476715624332
1790174138737731000,4.87073095703125,-0.16225694119930267,-0.09599252790212631,0.021577700972557068
1790174138747802000,4.880802001953125,-0.15188832581043243,-0.10657119005918503,0.09453193843364716
1790174138757871900,4.890871826171875,-0.1244010403752327,-0.10939840227365494,0.08997580409049988
1790174138767943000,4.90094287109375,-0.15242145955562592,-0.0838167741894722,0.06418226659297943
1790174138778013000,4.911012939453125,-0.16151775419712067,-0.06374692916870117,0.01460246555507183
1790174138788084000,4.921083984375,-0.13857585191726685,-0.08235368132591248,0.059708576649427414
1790174138798154000,4.931154052734375,-0.135628804564476,-0.046171702444553375,0.07782179862260818
1790174138808224000,4.94122412109375,-0.13913491368293762,-0.03166069835424423,0.12161515653133392
1790174138818295000,4.951294921875,-0.1007811427116394,-0.051598191261291504,0.07926583290100098
1790174138828364800,4.96136474609375,-0.10839778184890747,-0.04955996945500374,0.04305347427725792
1790174138838435800,4.971435791015625,-0.10245174169540405,-0.07740011811256409,0.0056965164840221405
1790174138848505900,4.981505859375,-0.12008386105298996,-0.06343386322259903,-0.021443592384457588
1790174138858576000,4.991575927734375,-0.12825363874435425,-0.05235803872346878,-0.023544294759631157
1790174138868647000,5.00164697265625,-0.15285971760749817,-0.06701643764972687,0.023897023871541023
1790174138878717000,5.011717041015625,-0.13160529732704163,-0.09278358519077301,0.021144380792975426
1790174138888788000,5.0217880859375,-0.1277131736278534,-0.08772486448287964,0.013731325045228004
1790174138898857700,5.031857666015625,-0.1495465636253357,-0.07658592611551285,-0.013663547113537788
1790174138908928800,5.0419287109375,-0.13193824887275696,-0.08118936419487,-0.04175618663430214
1790174138918999000,5.0519990234375,-0.12880077958106995,-0.07931317389011383,-0.025918370112776756
1790174138929069000,5.062069091796875,-0.13749194145202637,-0.0775352194905281,-0.0224589966237545
1790174138939139800,5.072139892578125,-0.10678890347480774,-0.07810433954000473,0.03274859860539436
1790174138949209900,5.0822099609375,-0.10482862591743469,-0.05351443216204643,0.012169914320111275
1790174138959281000,5.092281005859375,-0.15299828350543976,-0.04950797185301781,-0.05472869053483009
1790174138969351000,5.102350830078125,-0.18596673011779785,-0.07485323399305344,-0.10760620981454849
1790174138979422000,5.112421875,-0.20966647565364838,-0.05027385801076889,-0.08249898999929428
1790174138989492000,5.122491943359375,-0.18034620583057404,-0.057842642068862915,-0.0703815370798111
1790174138999562000,5.13256201171875,-0.17676211893558502,-0.08159591257572174,-0.05117376148700714
1790174139009632800,5.1426328125,-0.21027031540870667,-0.07971873879432678,-0.009640423581004143
1790174139019702800,5.152702880859375,-0.2710316479206085,-0.07912751287221909,0.022793948650360107
1790174139029773800,5.16277392578125,-0.30970823764801025,-0.09966159611940384,-0.026850538328289986
1790174139039844000,5.172843994140625,-0.2529219090938568,-0.11929788440465927,-0.05893177539110184
1790174139049913900,5.182913818359375,-0.25206103920936584,-0.12735767662525177,-0.05707702040672302
1790174139059985000,5.19298486328125,-0.2815137505531311,-0.13820873200893402,0.005331761669367552
1790174139070055000,5.203054931640625,-0.33200275897979736,-0.15950649976730347,0.08605648577213287
1790174139080126000,5.2131259765625,-0.3365919291973114,-0.179899662733078,0.15937650203704834
1790174139090196000,5.223196044921875,-0.334848016500473,-0.19067344069480896,0.15047162771224976
1790174139100267000,5.23326708984375,-0.31184497475624084,-0.2098311483860016,0.06545872986316681
1790174139110337000,5.2433369140625,-0.3216223418712616,-0.20998194813728333,-0.04724450781941414
1790174139120406800,5.25340673828125,-0.3618912100791931,-0.2186545431613922,-0.07284227758646011
1790174139130477800,5.263477783203125,-0.3852478861808777,-0.21317876875400543,-0.02298770658671856
1790174139140548000,5.273548095703125,-0.33776557445526123,-0.2452315241098404,0.04027755185961723
1790174139150619100,5.283619140625,-0.3329957127571106,-0.27708885073661804,0.09042595326900482
1790174139160689000,5.29368896484375,-0.34256577491760254,-0.2911207675933838,0.07459452748298645
1790174139170759000,5.303759033203125,-0.3380395174026489,-0.29503756761550903,0.011810391210019588
1790174139180830000,5.313829833984375,-0.33476969599723816,-0.28476521372795105,-0.07651414722204208
1790174139190900000,5.32389990234375,-0.31793853640556335,-0.3109455108642578,0.014058923348784447
1790174139200971000,5.333970947265625,-0.2834617793560028,-0.36250272393226624,0.048115428537130356
1790174139211041000,5.344041015625,-0.27116063237190247,-0.36907780170440674,0.07909463346004486
1790174139221112000,5.354112060546875,-0.32561856508255005,-0.3626433312892914,0.0518406480550766
1790174139231181800,5.364181884765625,-0.32835525274276733,-0.3589412569999695,0.03260383382439613
1790174139241251800,5.374251953125,-0.2711276710033417,-0.3500894606113434,0.023353341966867447
1790174139251323000,5.384322998046875,-0.19914591312408447,-0.3344615399837494,0.00207343278452754
1790174139261393000,5.394392822265625,-0.09130386263132095,-0.3344101309776306,0.08464367687702179
1790174139271464000,5.4044638671875,-0.05694742500782013,-0.3134576678276062,0.07064656168222427
1790174139281534000,5.414533935546875,-0.06372597068548203,-0.28569716215133667,0.06925000250339508
1790174139291604000,5.42460400390625,-0.059281785041093826,-0.25307345390319824,0.011307934299111366
1790174139301674800,5.4346748046875,-0.02476641908288002,-0.20244570076465607,0.05910927802324295
1790174139311745000,5.4447451171875,0.06818795204162598,-0.21482498943805695,0.07056204974651337
1790174139321816000,5.454816162109375,0.12302030622959137,-0.20970560610294342,-0.03666933253407478
1790174139331885800,5.4648857421875,0.12499479204416275,-0.16042238473892212,-0.01630336605012417
1790174139341956900,5.474956787109375,0.14724284410476685,-0.13806487619876862,-0.025428952649235725
1790174139352027000,5.48502685546875,0.1882980912923813,-0.12725023925304413,0.04855237901210785
1790174139362097200,5.49509716796875,0.24052615463733673,-0.11066035181283951,-0.009337551891803741
1790174139372168000,5.50516796875,0.2578010857105255,-0.11204123497009277,0.054319582879543304
1790174139382238000,5.515238037109375,0.25858059525489807,-0.10004449635744095,0.02475343458354473
1790174139392309000,5.52530908203125,0.23455774784088135,-0.06054525449872017,0.01764664612710476
1790174139402379000,5.53537890625,0.23620331287384033,-0.07996316254138947,0.08683903515338898
1790174139412448800,5.54544873046875,0.26987436413764954,-0.10198359191417694,0.04812493920326233
1790174139422519800,5.555519775390625,0.27127572894096375,-0.07661591470241547,0.05324912816286087
1790174139432590000,5.565590087890625,0.255789190530777,-0.09261506050825119,0.0022209053859114647
1790174139442661000,5.5756611328125,0.19449199736118317,-0.09334955364465714,0.014473045244812965
1790174139452731000,5.58573095703125,0.15709269046783447,-0.09148294478654861,0.0573858916759491
1790174139462802000,5.595802001953125,0.12715263664722443,-0.0891399011015892,0.04372787103056908
1790174139472872000,5.605871826171875,0.12175273150205612,-0.12394008785486221,0.04196786880493164
1790174139482942000,5.61594189453125,0.1082979068160057,-0.11936929821968079,-0.004970875568687916
1790174139493013000,5.626012939453125,0.08321338891983032,-0.12419667840003967,0.04033711925148964
1790174139503083000,5.6360830078125,0.05519746616482735,-0.12847930192947388,-0.0009320228127762675
1790174139513154000,5.646154052734375,0.04925243929028511,-0.1456916183233261,-0.025060178712010384
1790174139523223800,5.656223876953125,0.049150437116622925,-0.17684286832809448,0.002303269226104021
1790174139533294800,5.666294921875,0.00043363228905946016,-0.19225835800170898,0.01611749827861786
1790174139543365000,5.676365234375,-0.023549465462565422,-0.2356436550617218,0.13370324671268463
1790174139553435000,5.686434814453125,-0.028727278113365173,-0.24241992831230164,0.09634318947792053
1790174139563506000,5.696505859375,-0.008698176592588425,-0.25311678647994995,0.049587931483983994
1790174139573576000,5.706575927734375,0.005073798354715109,-0.2502666115760803,-0.06317296624183655
1790174139583647000,5.71664697265625,0.06661119312047958,-0.2759663760662079,-0.036961331963539124
1790174139593716700,5.726716796875,0.08468985557556152,-0.28842806816101074,-0.08395817875862122
1790174139603787000,5.736787109375,0.09437950700521469,-0.2675723135471344,-0.013909852132201195
1790174139613858000,5.746858154296875,0.11923721432685852,-0.2487087845802307,-0.0006225606193765998
1790174139623927800,5.756927734375,0.1789114624261856,-0.24661687016487122,-0.01796346716582775
1790174139633998800,5.766998779296875,0.2166043519973755,-0.2455628514289856,-0.010447876527905464
1790174139644068900,5.77706884765625,0.2294708788394928,-0.21081259846687317,-0.08358599990606308
1790174139654140000,5.787139892578125,0.28348350524902344,-0.19387108087539673,-0.08469068259000778
1790174139664210000,5.7972099609375,0.3422538638114929,-0.15849098563194275,-0.07472752779722214
1790174139674280000,5.807280029296875,0.3804941475391388,-0.10221246629953384,-0.1043844223022461
1790174139684351000,5.81735107421875,0.4307626485824585,-0.07362769544124603,-0.09590811282396317
1790174139694420700,5.827420654296875,0.49420809745788574,-0.046355608850717545,-0.08277596533298492
1790174139704491800,5.83749169921875,0.5272414088249207,0.0083462530747056,-0.09178677201271057
1790174139714561800,5.847561767578125,0.5414267778396606,0.03421832621097565,-0.1657360941171646
1790174139724632800,5.8576328125,0.6019574999809265,0.060669906437397,-0.09245575964450836
1790174139734702800,5.867702880859375,0.6509376168251038,0.0986403226852417,-0.04602419584989548
1790174139744772600,5.877772705078125,0.642331600189209,0.1384255439043045,-0.14765840768814087
1790174139754843600,5.88784375,0.6568886637687683,0.16254204511642456,-0.11587482690811157
1790174139764914000,5.897913818359375,0.6880585551261902,0.16271355748176575,-0.02896708995103836
1790174139774985000,5.90798486328125,0.6937150955200195,0.16959887742996216,0.01860654354095459
1790174139785054700,5.9180546875,0.6456423997879028,0.20343513786792755,-0.10795139521360397
1790174139795124700,5.928124755859375,0.6291453838348389,0.25416967272758484,-0.05888204649090767
1790174139805195800,5.93819580078125,0.6416411995887756,0.2700953781604767,-0.026248201727867126
1790174139815265500,5.948265625,0.6684775352478027,0.2468840479850769,-0.0725807324051857
1790174139825336600,5.958336669921875,0.5995136499404907,0.2436821162700653,-0.0732976570725441
1790174139835406800,5.96840673828125,0.5419389009475708,0.257337361574173,-0.03383829444646835
1790174139845476900,5.978476806640625,0.5555678606033325,0.2483406662940979,-0.019339779391884804
1790174139855547600,5.988547607421875,0.5618895292282104,0.2467176914215088,-0.04509453475475311
1790174139865617700,5.99861767578125,0.551903486251831,0.25258010625839233,0.00740995304659009
1790174139875688700,6.008688720703125,0.5118877291679382,0.2505131661891937,-0.056627411395311356
1790174139885759000,6.018759033203125,0.4595874845981598,0.23566976189613342,-0.05111919716000557
1790174139895829800,6.028829833984375,0.41776907444000244,0.22781097888946533,-0.03606022521853447
1790174139905899800,6.038899658203125,0.44002005457878113,0.20682208240032196,0.02297619730234146
1790174139915969800,6.0489697265625,0.4365823268890381,0.18835534155368805,-0.015496233478188515
1790174139926040600,6.05904052734375,0.39856570959091187,0.19310295581817627,-0.014669589698314667
1790174139936110800,6.06911083984375,0.37444114685058594,0.2000998556613922,0.0028149320278316736
1790174139946182000,6.079181884765625,0.37722280621528625,0.18564394116401672,0.042567137628793716
1790174139956252000,6.089251953125,0.37360790371894836,0.1963113695383072,0.05439041182398796
1790174139966322700,6.09932275390625,0.3521319031715393,0.1966029852628708,0.03975500911474228
1790174139976392700,6.109392822265625,0.33783236145973206,0.2103913128376007,0.016460571438074112
1790174139986462700,6.119462646484375,0.3479752838611603,0.22247567772865295,0.09789071977138519
1790174139996533800,6.12953369140625,0.33884695172309875,0.2273579239845276,0.046616435050964355
1790174140006603800,6.139603759765625,0.3383132517337799,0.20635144412517548,0.032716862857341766
1790174140016674800,6.1496748046875,0.3441774845123291,0.22480057179927826,0.016431961208581924
1790174140026744800,6.159744873046875,0.31336578726768494,0.257122278213501,-0.026340536773204803
1790174140036814600,6.169814697265625,0.2918860912322998,0.2367871254682541,-0.03731999173760414
1790174140046885600,6.1798857421875,0.30342477560043335,0.25100332498550415,0.022299926728010178
1790174140056956000,6.189955810546875,0.3621300756931305,0.258774071931839,0.09569086879491806
1790174140067027000,6.20002685546875,0.3381219506263733,0.2618210017681122,0.054248083382844925
1790174140077096700,6.2100966796875,0.2855414152145386,0.2720820903778076,0.030261114239692688
1790174140087167700,6.220167724609375,0.2990705370903015,0.2833661735057831,0.10188576579093933
1790174140097237800,6.23023779296875,0.3096100986003876,0.2961548864841461,0.027938228100538254
1790174140107307800,6.240307861328125,0.2993403971195221,0.28467851877212524,-0.02780199982225895
1790174140117378800,6.25037890625,0.2937321960926056,0.28446757793426514,0.031684890389442444
1790174140127448800,6.26044873046875,0.2907657027244568,0.300435334444046,0.05856310948729515
1790174140137519900,6.270519775390625,0.29203927516937256,0.2975177764892578,-0.012014689855277538
1790174140147589600,6.280589599609375,0.27329620718955994,0.3132551908493042,0.05442212522029877
1790174140157659600,6.29065966796875,0.3235234320163727,0.29607629776000977,0.08621785044670105
1790174140167730700,6.300730712890625,0.31597256660461426,0.30520695447921753,0.09204431623220444
1790174140177800700,6.31080078125,0.2580738663673401,0.3069840669631958,0.021068409085273743
1790174140187871700,6.320871826171875,0.18566781282424927,0.3180803954601288,0.059710610657930374
1790174140197941800,6.330941650390625,0.16061970591545105,0.3336139917373657,0.008137723430991173
1790174140208012800,6.3410126953125,0.13896819949150085,0.33749130368232727,-0.017770307138562202
1790174140218082600,6.35108251953125,0.15291233360767365,0.33926764130592346,0.11069917678833008
1790174140228152800,6.36115283203125,0.14830505847930908,0.3488750159740448,0.11656825244426727
1790174140238224000,6.371223876953125,0.10542672127485275,0.3538282513618469,0.08325701951980591
1790174140248294000,6.3812939453125,0.06324172019958496,0.3749487102031708,0.05859215557575226
1790174140258364700,6.39136474609375,0.05199754610657692,0.40143004059791565,0.008026208728551865
1790174140268434700,6.4014345703125,0.03905671462416649,0.38169413805007935,0.02051563560962677
1790174140278505000,6.4115048828125,0.0001430204720236361,0.332301527261734,0.025258589535951614
1790174140288575700,6.42157568359375,-0.013105140067636967,0.3143150508403778,0.08114901930093765
1790174140298645800,6.431645751953125,0.01904880627989769,0.29797160625457764,0.06711867451667786
1790174140308716800,6.441716796875,-0.008492274209856987,0.2852909564971924,0.07664746791124344
1790174140318786800,6.451786865234375,-0.06433509290218353,0.25250884890556335,0.12494314461946487
1790174140328857600,6.461857666015625,-0.10853264480829239,0.2159913182258606,0.10386422276496887
1790174140338927900,6.471927978515625,-0.13213437795639038,0.19604307413101196,0.045923978090286255
1790174140348998000,6.481997802734375,-0.11537857353687286,0.2117123156785965,0.06322866678237915
1790174140359069000,6.49206884765625,-0.15364569425582886,0.22150568664073944,0.16112928092479706
1790174140369138700,6.502138671875,-0.1564081907272339,0.16969121992588043,0.16053059697151184
1790174140379209700,6.512209716796875,-0.20694409310817719,0.15024738013744354,0.12460912764072418
1790174140389279700,6.52227978515625,-0.2449154406785965,0.15363626182079315,0.06689522415399551
1790174140399349800,6.532349853515625,-0.23979292809963226,0.14830484986305237,-0.002438761293888092
1790174140409420800,6.5424208984375,-0.27438366413116455,0.16464148461818695,0.044606514275074005
1790174140419490800,6.55249072265625,-0.2886676788330078,0.1554185450077057,0.02783113904297352
1790174140429561900,6.562561767578125,-0.3117530345916748,0.12873926758766174,0.10812518000602722
1790174140439631600,6.572631591796875,-0.2768830358982086,0.14710600674152374,0.09766864031553268
1790174140449702700,6.58270263671875,-0.28196513652801514,0.14916275441646576,0.1095719039440155
1790174140459773000,6.59277294921875,-0.32401856780052185,0.1226336732506752,0.10138162225484848
1790174140469842700,6.6028427734375,-0.3438095450401306,0.10035333037376404,-0.0019496046006679535
1790174140479913700,6.612913818359375,-0.42183324694633484,0.14811286330223083,0.015253076329827309
1790174140489983700,6.622983642578125,-0.3848280906677246,0.15370815992355347,0.054414860904216766
1790174140500054800,6.6330546875,-0.33894383907318115,0.11017492413520813,0.0548696294426918
1790174140510124800,6.643124755859375,-0.280716210603714,0.05477265268564224,0.05028419941663742
1790174140520195800,6.65319580078125,-0.35033300518989563,0.059016089886426926,0.12846623361110687
1790174140530265900,6.663265869140625,-0.40979981422424316,0.06941547244787216,0.056107085198163986
1790174140540335600,6.673335693359375,-0.4376342296600342,0.04251774773001671,0.02247176133096218
1790174140550406700,6.68340673828125,-0.47799256443977356,0.03792113438248634,0.03409699350595474
1790174140560476700,6.6934765625,-0.39935386180877686,-0.010795418173074722,0.10691916942596436
1790174140570547700,6.703547607421875,-0.3718801438808441,-0.07723942399024963,0.07418705523014069
1790174140580617700,6.71361767578125,-0.4244729280471802,-0.06840896606445312,0.00006235879845917225
1790174140590687700,6.723687744140625,-0.5188188552856445,-0.05321349948644638,0.013213048689067364
1790174140600758800,6.7337587890625,-0.5219559669494629,-0.09006573259830475,0.04959837347269058
1790174140610828800,6.743828857421875,-0.43659549951553345,-0.11481555551290512,0.04373196139931679
1790174140620899600,6.753899658203125,-0.45984914898872375,-0.12293916940689087,0.044070154428482056
1790174140630969900,6.763969970703125,-0.487521231174469,-0.15388190746307373,0.06747028231620789
1790174140641041000,6.774041015625,-0.5574435591697693,-0.1832483857870102,0.03705507516860962
1790174140651110700,6.784110595703125,-0.5384203195571899,-0.20701976120471954,0.019275015220046043
1790174140661180700,6.7941806640625,-0.44616788625717163,-0.25702494382858276,0.0369064025580883
1790174140671251700,6.804251708984375,-0.41575565934181213,-0.2817119061946869,0.11037237197160721
1790174140681322000,6.814322021484375,-0.45724281668663025,-0.2865971624851227,0.0647297129034996
1790174140691392800,6.824392822265625,-0.552920401096344,-0.24850067496299744,0.019862905144691467
1790174140701462800,6.834462890625,-0.5422343015670776,-0.249953031539917,-0.03290773183107376
1790174140711532800,6.84453271484375,-0.48257553577423096,-0.26071006059646606,-0.05827860161662102
1790174140721604600,6.8546044921875,-0.41605880856513977,-0.24563071131706238,-0.0663040354847908
1790174140731674600,6.864674560546875,-0.35909274220466614,-0.22549642622470856,-0.024014903232455254
1790174140741745400,6.874745361328125,-0.39698541164398193,-0.1793198585510254,-0.05874471738934517
1790174140751815700,6.884815673828125,-0.38874852657318115,-0.17966926097869873,0.0342818945646286
1790174140761886700,6.89488671875,-0.33740347623825073,-0.18376198410987854,-0.0022492967545986176
1790174140771956500,6.90495654296875,-0.264310359954834,-0.17725534737110138,-0.022276269271969795
1790174140782026500,6.915026611328125,-0.24083124101161957,-0.1445181965827942,-0.059963639825582504
1790174140792097500,6.92509765625,-0.24093617498874664,-0.1494586318731308,-0.05000687763094902
1790174140802167600,6.93516748046875,-0.19573695957660675,-0.14050446450710297,-0.0003304311539977789
1790174140812238300,6.94523828125,-0.12229842692613602,-0.15525545179843903,0.019192136824131012
1790174140822308600,6.95530859375,-0.08045389503240585,-0.13930748403072357,0.059059493243694305
1790174140832378600,6.965378662109375,-0.09004074335098267,-0.11527378112077713,0.04417695105075836
1790174140842449700,6.97544970703125,-0.11047452688217163,-0.10418825596570969,0.010749383829534054
1790174140852519400,6.98551953125,-0.09253334254026413,-0.1103510782122612,-0.05129321292042732
1790174140862590500,6.995590576171875,-0.02063996158540249,-0.0805259719491005,-0.02768031693994999
1790174140872660700,7.00566064453125,0.018308769911527634,-0.05115823447704315,0.01974179409444332
1790174140882731500,7.0157314453125,0.050842057913541794,-0.07410860061645508,-0.03232339397072792
1790174140892801500,7.025801513671875,0.049109406769275665,-0.07224971801042557,0.0041328854858875275
1790174140902871600,7.03587158203125,0.0059769414365291595,-0.0788159891963005,0.05638321861624718
1790174140912942600,7.045942626953125,0.017934268340468407,-0.07948098331689835,0.03950809687376022
1790174140923012600,7.0560126953125,0.03124096430838108,-0.08395608514547348,-0.05060522258281708
1790174140933083600,7.066083740234375,0.04586970806121826,-0.10875730216503143,-0.0848875641822815
1790174140943153700,7.076153564453125,0.05750032141804695,-0.09831565618515015,-0.049293942749500275
1790174140953223400,7.086223388671875,0.0634564757347107,-0.1039556935429573,0.022450819611549377
1790174140963294500,7.09629443359375,0.028571849688887596,-0.10155224055051804,0.05863507464528084
1790174140973364500,7.106364501953125,-0.0036806296557188034,-0.08705772459506989,0.013918202370405197
1790174140983435500,7.116435546875,-0.0032345103099942207,-0.06324326992034912,-0.052076566964387894
1790174140993505500,7.126505615234375,0.02616785280406475,-0.07769305258989334,-0.06277688592672348
1790174141003576600,7.13657666015625,0.040795836597681046,-0.06988100707530975,-0.019670207053422928
1790174141013646600,7.146646484375,0.005916149355471134,-0.056772395968437195,-0.020203905180096626
1790174141023716400,7.15671630859375,-0.018659312278032303,-0.06549543887376785,-0.11094516515731812
1790174141033787400,7.166787353515625,0.017147421836853027,-0.08552826941013336,-0.10050584375858307
1790174141043857700,7.176857666015625,0.013205811381340027,-0.06924325227737427,-0.030956463888287544
1790174141053928700,7.1869287109375,0.000941421661991626,-0.0783693715929985,0.011361696757376194
1790174141063998500,7.19699853515625,-0.021122436970472336,-0.04128561168909073,-0.014686853624880314
1790174141074068500,7.207068359375,0.01928943395614624,-0.05104796215891838,-0.12076082825660706
1790174141084139500,7.217139404296875,0.09172546118497849,-0.09889417141675949,-0.04790277034044266
1790174141094209800,7.227209716796875,0.0864420160651207,-0.07007210701704025,-0.022601142525672913
1790174141104280600,7.237280517578125,0.060784608125686646,-0.04518796503543854,-0.04581060633063316
1790174141114350600,7.2473505859375,0.04811568185687065,-0.03251770883798599,-0.10694213211536407
1790174141124421600,7.257421630859375,0.0660398006439209,-0.07651152461767197,0.04002362862229347
1790174141134491400,7.267491455078125,0.03204268962144852,-0.08764699846506119,0.059166695922613144
1790174141144561400,7.2775615234375,0.05098816752433777,-0.08566029369831085,-0.0111543582752347
1790174141154632400,7.287632568359375,0.08076097816228867,-0.06995908915996552,-0.06342048943042755
1790174141164702700,7.29770263671875,0.020032530650496483,-0.04203260689973831,-0.060102082788944244
1790174141174773500,7.3077734375,0.016423679888248444,-0.06224147230386734,-0.04335878789424896
1790174141184843500,7.317843505859375,0.10185512155294418,-0.056118715554475784,0.0242195762693882
1790174141194913500,7.32791357421875,0.14482015371322632,-0.015154236927628517,0.009763404726982117
1790174141204984600,7.337984619140625,0.1425400823354721,-0.02919393591582775,-0.028565723448991776
1790174141215054600,7.3480546875,0.10470108687877655,0.010546019300818443,-0.06109597161412239
1790174141225125600,7.358125732421875,0.09311310946941376,0.04312187060713768,-0.04054141789674759
1790174141235195600,7.368195556640625,0.12988363206386566,0.05216649919748306,-0.049355149269104004
1790174141245266400,7.378266357421875,0.16674216091632843,0.04734054207801819,-0.027191074565052986
1790174141255336400,7.38833642578125,0.1172233521938324,0.027100518345832825,-0.02685711346566677
1790174141265406700,7.39840673828125,0.1440151333808899,-0.0001580510288476944,0.023144932463765144
1790174141275477800,7.408477783203125,0.19997188448905945,-0.012698078528046608,0.11018422245979309
1790174141285547500,7.418547607421875,0.21352854371070862,-0.052092500030994415,0.06637033820152283
1790174141295618600,7.42861865234375,0.19568802416324615,-0.04479251056909561,0.028866905719041824
1790174141305688600,7.4386884765625,0.16590550541877747,-0.03151144087314606,0.0004534856416285038
1790174141315758600,7.448758544921875,0.15738552808761597,-0.03716772794723511,0.04742259159684181
1790174141325829600,7.45882958984375,0.15514922142028809,-0.04098289832472801,0.07313279807567596
1790174141335899600,7.468899658203125,0.18564188480377197,-0.05517834797501564,0.03788825869560242
1790174141345970700,7.478970703125,0.25497254729270935,-0.06959731131792068,0.11436513811349869
1790174141356040400,7.48904052734375,0.2058561146259308,-0.038115017116069794,0.11640431731939316
1790174141366111500,7.499111572265625,0.2044435292482376,-0.01955004595220089,0.05730350315570831
1790174141376181500,7.509181396484375,0.24064548313617706,0.04599008336663246,0.008417186327278614
1790174141386251500,7.51925146484375,0.25093215703964233,0.09760396927595139,0.028049519285559654
1790174141396322600,7.529322509765625,0.2761632204055786,0.05702885240316391,0.012966439127922058
1790174141406392600,7.539392578125,0.3044118881225586,0.08657113462686539,-0.04428379610180855
1790174141416463600,7.549463623046875,0.3163258135318756,0.10244091600179672,0.015160090290009975
1790174141426533400,7.559533447265625,0.2188749462366104,0.11435981094837189,0.09480533003807068
1790174141436603600,7.569603759765625,0.21538513898849487,0.11760780215263367,0.011147983372211456
1790174141446674700,7.5796748046875,0.28509119153022766,0.14700740575790405,0.03206341713666916
1790174141456744700,7.58974462890625,0.3197906017303467,0.16786368191242218,0.0025619843509048223
1790174141466815500,7.5998154296875,0.3444567620754242,0.18160034716129303,-0.05436437204480171
1790174141476885500,7.609885498046875,0.2532530725002289,0.21622197329998016,0.05702074244618416
1790174141486956500,7.61995654296875,0.24716490507125854,0.15361720323562622,-0.002498587127774954
1790174141497026600,7.630026611328125,0.3274165987968445,0.194839209318161,-0.06658302992582321
1790174141507096600,7.6400966796875,0.38796713948249817,0.25978216528892517,-0.04270610213279724
1790174141517167600,7.650167724609375,0.3333635628223419,0.24044306576251984,-0.154372438788414
1790174141527237600,7.660237548828125,0.274644672870636,0.24525877833366394,-0.10813787579536438
1790174141537308400,7.670308349609375,0.2482849657535553,0.1961868405342102,0.011350435204803944
1790174141547378400,7.68037841796875,0.18637536466121674,0.13332810997962952,0.08008572459220886
1790174141557448700,7.69044873046875,0.15261580049991608,0.1394547075033188,0.06345801800489426
1790174141567519700,7.700519775390625,0.2144223302602768,0.16467979550361633,-0.018931569531559944
1790174141577589500,7.710589599609375,0.2637632489204407,0.1352182924747467,-0.12427343428134918
1790174141587660500,7.72066064453125,0.24631305038928986,0.0902448520064354,-0.08815634995698929
1790174141597730600,7.73073046875,0.1770825833082199,0.12388882786035538,0.05515420809388161
1790174141607801600,7.740801513671875,0.18572355806827545,0.16942347586154938,-0.05274355039000511
1790174141617871600,7.75087158203125,0.3047623038291931,0.1855449229478836,-0.09974329173564911
1790174141627941600,7.760941650390625,0.31819233298301697,0.16438724100589752,-0.0292632058262825
1790174141638012700,7.7710126953125,0.15794804692268372,0.16920171678066254,0.030456852167844772
1790174141648082400,7.78108251953125,0.09387696534395218,0.22188498079776764,-0.007221323437988758
1790174141658153500,7.791153564453125,0.20777557790279388,0.2849699556827545,-0.06538928300142288
1790174141668223700,7.8012236328125,0.3255968391895294,0.2649024724960327,-0.13351331651210785
1790174141678294800,7.811294677734375,0.3123859763145447,0.25291502475738525,-0.14880146086215973
1790174141688364500,7.821364501953125,0.24752043187618256,0.27123039960861206,-0.019591012969613075
1790174141698434600,7.8314345703125,0.209063321352005,0.2859821915626526,0.05230661481618881
1790174141708505600,7.841505615234375,0.24092510342597961,0.2830710709095001,0.023487482219934464
1790174141718575400,7.851575439453125,0.23900923132896423,0.2975544035434723,0.0029750161338597536
1790174141728646400,7.861646484375,0.1637919396162033,0.31246018409729004,0.002383042825385928
1790174141738716400,7.87171630859375,0.12253770232200623,0.2689947187900543,0.037810277193784714
1790174141748786200,7.8817861328125,0.15399524569511414,0.22862423956394196,0.08535487204790115
1790174141758857200,7.891857177734375,0.13936197757720947,0.26979005336761475,0.08031084388494492
1790174141768927200,7.90192724609375,0.12173125892877579,0.3121896982192993,-0.0073534338735044
1790174141778998300,7.911998291015625,0.14255265891551971,0.32483944296836853,-0.0328659862279892
1790174141789068300,7.922068359375,0.13210725784301758,0.3129979968070984,-0.038233913481235504
1790174141799139300,7.932139404296875,0.004687252454459667,0.3233145475387573,-0.006626720540225506
1790174141809209300,7.942209228515625,-0.06842906028032303,0.2434535175561905,0.0375274159014225
1790174141819279000,7.952279052734375,-0.07692347466945648,0.2131829708814621,0.1708764135837555
1790174141829350100,7.96235009765625,-0.11028995364904404,0.23521147668361664,0.20935939252376556
1790174141839420400,7.97242041015625,-0.12604866921901703,0.24927537143230438,0.07068166881799698
1790174141849491500,7.982491455078125,-0.15492306649684906,0.2623905837535858,-0.0032435497269034386
1790174141859561200,7.992561279296875,-0.2097274661064148,0.18203023076057434,0.03600132465362549
1790174141869631200,8.00263134765625,-0.22475412487983704,0.13496339321136475,0.06665697693824768
1790174141879702300,8.012702392578126,-0.2675764262676239,0.09247452020645142,0.08693481236696243
1790174141889772300,8.022772216796875,-0.2808709442615509,0.06371181458234787,0.06532707065343857
1790174141899843300,8.03284326171875,-0.35311639308929443,0.057311706244945526,0.09797369688749313
1790174141909913300,8.042913330078125,-0.47519704699516296,0.028451301157474518,0.06802378594875336
1790174141919984400,8.052984375,-0.6152787804603577,0.0005522929131984711,0.07928390055894852
1790174141930054100,8.06305419921875,-0.606938362121582,-0.06425204128026962,-0.004054669290781021
1790174141940124200,8.073124267578125,-0.549111545085907,-0.13178661465644836,-0.02949904277920723
1790174141950195200,8.0831953125,-0.587878942489624,-0.17618194222450256,-0.05725971236824989
1790174141960265500,8.093265380859375,-0.733207106590271,-0.18981359899044037,-0.041567035019397736
1790174141970336300,8.103336181640625,-0.7540268898010254,-0.20184087753295898,0.01789999194443226
1790174141980406300,8.11340625,-0.6805582642555237,-0.20442281663417816,-0.02324637956917286
1790174141990476300,8.123476318359375,-0.7013077735900879,-0.2968066334724426,0.06676049530506134
1790174142000547300,8.13354736328125,-0.8012117147445679,-0.3877703547477722,0.08787190169095993
1790174142010617300,8.143617431640624,-0.9100189208984375,-0.4235135614871979,0.12561744451522827
1790174142020688400,8.1536884765625,-0.8222435712814331,-0.4925288259983063,0.10797347873449326
1790174142030758400,8.16375830078125,-0.7208616733551025,-0.47766825556755066,0.11704456806182861
1790174142040829400,8.173829345703124,-0.6580381989479065,-0.4665609896183014,0.010572722181677818
1790174142050899200,8.183899169921874,-0.7133446931838989,-0.5084914565086365,0.036432430148124695
1790174142060969500,8.193969482421876,-0.8186264038085938,-0.5187318325042725,0.12414895743131638
1790174142071040500,8.20404052734375,-0.7842252254486084,-0.48992881178855896,0.0625518187880516
1790174142081110300,8.2141103515625,-0.67508864402771,-0.5142291188240051,0.0015715544577687979
1790174142091181300,8.224181396484376,-0.6150184869766235,-0.5264571309089661,-0.046444110572338104
1790174142101251300,8.234251220703126,-0.6148959994316101,-0.5048237442970276,-0.08821313083171844
1790174142111321000,8.244321044921875,-0.59983891248703,-0.4910889267921448,-0.03750981017947197
1790174142121392000,8.25439208984375,-0.5366612672805786,-0.5191194415092468,-0.02253378927707672
1790174142131462400,8.26446240234375,-0.4509459137916565,-0.5297914743423462,0.04089271277189255
1790174142141533400,8.274533447265625,-0.35318952798843384,-0.5749360918998718,0.06700873374938965
1790174142151603200,8.284603271484375,-0.34717491269111633,-0.5501007437705994,0.11484906822443008
1790174142161674200,8.29467431640625,-0.32416093349456787,-0.48969677090644836,0.08317023515701294
1790174142171744300,8.304744140625,-0.19634048640727997,-0.4633716344833374,0.008734221570193768
1790174142181814300,8.314814208984375,-0.10214954614639282,-0.40977126359939575,0.03490723669528961
1790174142191885300,8.32488525390625,-0.017888478934764862,-0.4204407036304474,-0.003353339387103915
1790174142201955300,8.334955322265625,0.014494494535028934,-0.3496621251106262,0.02181433141231537
1790174142212026400,8.3450263671875,0.06550350040197372,-0.2667454481124878,0.004823508206754923
1790174142222096100,8.35509619140625,0.15564990043640137,-0.1749281883239746,-0.06519339233636856
1790174142232167200,8.365167236328125,0.25038957595825195,-0.10878713428974152,-0.07416541129350662
1790174142242237400,8.375237548828125,0.35183414816856384,-0.09464601427316666,-0.08926047384738922
1790174142252307500,8.385307373046874,0.41822710633277893,0.019531020894646645,-0.04699194058775902
1790174142262378200,8.395378173828124,0.45071446895599365,0.11522772163152695,-0.08606371283531189
1790174142272448300,8.4054482421875,0.4761613607406616,0.10211995989084244,0.02181919477880001
1790174142282519300,8.415519287109374,0.49887654185295105,0.07237324863672256,0.09295329451560974
1790174142292589300,8.42558935546875,0.5713191032409668,0.12997201085090637,0.0487503707408905
1790174142302659300,8.435659423828126,0.6284234523773193,0.2321162223815918,-0.02786770835518837
1790174142312730400,8.44573046875,0.6272197961807251,0.2383258044719696,-0.08376896381378174
1790174142322800400,8.45580029296875,0.6308595538139343,0.203741192817688,-0.1633215695619583
1790174142332871200,8.46587109375,0.6395936608314514,0.1835813969373703,-0.04366118460893631
1790174142342941200,8.475941162109375,0.601442813873291,0.1553867906332016,0.058251332491636276
1790174142353012200,8.48601220703125,0.5490066409111023,0.17253369092941284,0.09966598451137543
1790174142363082500,8.49608251953125,0.6168914437294006,0.22415028512477875,-0.030514918267726898
1790174142373152300,8.50615234375,0.7207430005073547,0.2439666986465454,-0.13758333027362823
1790174142383223300,8.516223388671875,0.6466514468193054,0.22146297991275787,-0.18006554245948792
1790174142393293300,8.526293212890625,0.48800167441368103,0.12023579329252243,-0.0842578187584877
1790174142403364400,8.5363642578125,0.437421053647995,0.1487790048122406,-0.10905744135379791
1790174142413434400,8.546434326171875,0.5185859799385071,0.19074027240276337,-0.008600493893027306
1790174142423504400,8.55650439453125,0.5308035016059875,0.21684937179088593,0.023179538547992706
1790174142433575400,8.566575439453125,0.4649909734725952,0.25698691606521606,0.0525880865752697
1790174142443645200,8.576645263671875,0.4419844448566437,0.20177850127220154,0.016682546585798264
1790174142453716200,8.58671630859375,0.48859381675720215,0.2286026030778885,-0.07862669229507446
1790174142463786200,8.5967861328125,0.5082383155822754,0.21542075276374817,0.025912771001458168
1790174142473857300,8.606857177734375,0.4177842140197754,0.2072516530752182,0.01611272804439068
1790174142483927300,8.61692724609375,0.431076318025589,0.3290683627128601,-0.04921408370137215
1790174142493997300,8.626997314453124,0.4956238865852356,0.44415199756622314,-0.08954709768295288
1790174142504068400,8.637068359375,0.4684329926967621,0.38539919257164,-0.0459602065384388
1790174142514138000,8.64713818359375,0.3485353887081146,0.3217010796070099,0.05186670273542404
1790174142524209200,8.657209228515624,0.2823513150215149,0.3436410129070282,0.05865537002682686
1790174142534279400,8.667279541015626,0.3400210738182068,0.3548870384693146,0.025494948029518127
1790174142544349200,8.67734912109375,0.3899649381637573,0.3051146864891052,-0.01817583478987217
1790174142554420200,8.687420166015626,0.3046846091747284,0.29354333877563477,0.047029584646224976
1790174142564490200,8.697490234375,0.18225938081741333,0.289043664932251,0.04693211242556572
1790174142574561300,8.707561279296876,0.11813075840473175,0.26321932673454285,0.07865272462368011
1790174142584631300,8.71763134765625,0.11803994327783585,0.23073995113372803,0.038931142538785934
1790174142594702300,8.727702392578125,0.19368651509284973,0.16693763434886932,0.0015161109622567892
1790174142604772400,8.7377724609375,0.13401173055171967,0.1470251828432083,0.044131215661764145
1790174142614842400,8.74784228515625,0.008539971895515919,0.10850207507610321,0.05986848846077919
1790174142624913200,8.7579130859375,0.015727045014500618,0.15688718855381012,0.10230862349271774
1790174142634983400,8.7679833984375,0.08393640071153641,0.2158602923154831,0.032326389104127884
1790174142645054500,8.778054443359375,0.06553022563457489,0.20485717058181763,0.023202665150165558
1790174142655124200,8.788124267578125,0.008082174696028233,0.15133610367774963,0.020467286929488182
1790174142665194200,8.7981943359375,-0.058784738183021545,0.11534933000802994,0.07874470204114914
1790174142675265300,8.808265380859375,-0.06123692914843559,0.060783110558986664,0.0491233766078949
1790174142685335300,8.818335205078125,-0.03938968852162361,0.1293078511953354,-0.03541947156190872
1790174142695406000,8.828406005859375,-0.04243510961532593,0.16083207726478577,0.0044428203254938126
1790174142705476400,8.838476318359374,-0.07276212424039841,0.14567658305168152,-0.036268655210733414
1790174142715547400,8.84854736328125,-0.14374461770057678,0.14246590435504913,0.005168483126908541
1790174142725617400,8.858617431640624,-0.1636970192193985,0.02435843087732792,0.036828674376010895
1790174142735687400,8.8686875,-0.24451948702335358,-0.008671045303344727,0.14691570401191711
1790174142745758200,8.87875830078125,-0.32726845145225525,-0.0006280327215790749,0.002173152519389987
1790174142755828500,8.888828369140626,-0.32917338609695435,0.029530461877584457,0.06701962649822235
1790174142765899500,8.8988994140625,-0.2649928033351898,0.050155043601989746,0.0994071289896965
1790174142775969500,8.908969482421876,-0.19567082822322845,-0.03418535366654396,0.002739032031968236
1790174142786040300,8.919040283203126,-0.2633785009384155,-0.056712765246629715,0.09480530768632889
1790174142796110300,8.9291103515625,-0.3967989385128021,-0.06171516701579094,0.09480907768011093
1790174142806180400,8.939180419921875,-0.3790401816368103,-0.06995365768671036,0.01610787957906723
1790174142816251400,8.94925146484375,-0.24670125544071198,-0.059485916048288345,-0.0231839120388031
1790174142826321400,8.9593212890625,-0.292336106300354,-0.04394823685288429,-0.01505834050476551
1790174142836392400,8.969392333984375,-0.4364043176174164,-0.07981505990028381,0.007416035979986191
1790174142846462500,8.97946240234375,-0.4434313178062439,-0.1295623779296875,0.06624792516231537
1790174142856532200,8.9895322265625,-0.3529532551765442,-0.17269843816757202,0.03717968985438347
1790174142866603300,8.999603271484375,-0.36261066794395447,-0.19151979684829712,-0.03850042447447777
1790174142876673500,9.009673583984375,-0.5010896921157837,-0.1907515823841095,-0.02161143161356449
1790174142886744600,9.01974462890625,-0.4853675067424774,-0.207020565867424,0.03960638493299484
1790174142896814300,9.029814453125,-0.4011823534965515,-0.24792346358299255,0.024852752685546875
1790174142906885400,9.039885498046875,-0.36436015367507935,-0.23775923252105713,-0.004210588987916708
1790174142916955400,9.049955322265625,-0.4141373634338379,-0.19724377989768982,0.04668891057372093
1790174142927025400,9.060025390625,-0.4148905277252197,-0.2369009256362915,0.04482603073120117
1790174142937096400,9.070096435546875,-0.280639111995697,-0.24557381868362427,0.007550965063273907
1790174142947166500,9.08016650390625,-0.1605185568332672,-0.1890050768852234,-0.03054368868470192
1790174142957237500,9.090237548828124,-0.13321320712566376,-0.17468944191932678,-0.0604589469730854
1790174142967307300,9.100307373046874,-0.17790931463241577,-0.16689491271972656,-0.00505055021494627
1790174142977377500,9.11037744140625,-0.20297852158546448,-0.16078650951385498,0.07097528874874115
1790174142987448600,9.120448486328126,-0.2387562245130539,-0.08283471316099167,0.08887865394353867
1790174142997518300,9.130518310546876,-0.16603097319602966,-0.05202962085604668,-0.20076102018356323
1790174143007589400,9.14058935546875,-0.021294033154845238,-0.10407178103923798,-0.13928593695163727
1790174143017659400,9.150659423828126,0.1011972427368164,-0.10172031074762344,0.034018754959106445
1790174143027730400,9.16073046875,0.09568610042333603,-0.07608019560575485,0.10664528608322144
1790174143037800200,9.17080029296875,0.05751234292984009,-0.035827845335006714,0.1479000598192215
1790174143047870500,9.180870361328125,0.0956210196018219,-0.0008938498795032501,-0.023992542177438736
1790174143057941500,9.19094140625,0.16308817267417908,0.02593171037733555,-0.09122080355882645
1790174143068011300,9.20101123046875,0.20131491124629974,0.011610027402639389,0.04236442595720291
1790174143078082300,9.211082275390625,0.18283693492412567,-0.01901780068874359,0.14699220657348633
1790174143088152300,9.22115234375,0.15364576876163483,-0.005223159212619066,0.1258789300918579
1790174143098222600,9.23122265625,0.12992224097251892,0.0402328185737133,0.004565577022731304
1790174143108293400,9.24129345703125,0.1856004297733307,0.07564274221658707,-0.06778132170438766
1790174143118363400,9.25136328125,0.2871443033218384,0.06731723248958588,-0.045902326703071594
1790174143128434400,9.261434326171875,0.25204145908355713,0.12312804162502289,-0.011451941914856434
1790174143138504400,9.27150439453125,0.24982862174510956,0.13230109214782715,0.011287779547274113
1790174143148575200,9.2815751953125,0.22897472977638245,0.14153853058815002,0.0014993306249380112
1790174143158645500,9.2916455078125,0.22432833909988403,0.14245998859405518,-0.01644187606871128
1790174143168715500,9.301715576171874,0.2425299733877182,0.15638858079910278,-0.015312430448830128
1790174143178786300,9.311786376953124,0.2694961428642273,0.14451618492603302,0.07742033153772354
1790174143188856300,9.321856201171874,0.2501043379306793,0.1317327320575714,0.14166563749313354
1790174143198927400,9.33192724609375,0.22468484938144684,0.1332201361656189,0.0794043242931366
1790174143208997400,9.341997314453126,0.24886688590049744,0.15048620104789734,-0.017980018630623817
1790174143219068400,9.352068359375,0.17457719147205353,0.16680312156677246,-0.01601540856063366
1790174143229138400,9.362138427734376,0.12379229813814163,0.13372638821601868,0.0421895757317543
1790174143239208400,9.37220849609375,0.1320113092660904,0.1304425299167633,0.1544746309518814
1790174143249279500,9.382279541015626,0.1747579723596573,0.144379660487175,0.13094933331012726
1790174143259349200,9.392349365234375,0.14730039238929749,0.16097810864448547,0.05558997392654419
1790174143269420300,9.402420166015625,0.10027936846017838,0.1998024731874466,-0.06421206146478653
1790174143279490600,9.412490478515625,0.03887403756380081,0.19479840993881226,-0.13992094993591309
1790174143289560300,9.422560302734375,-0.011287130415439606,0.13640061020851135,-0.06863530725240707
1790174143299631400,9.43263134765625,-0.05777636915445328,0.11561070382595062,-0.0016801892779767513
1790174143309701400,9.442701416015625,-0.04574580490589142,0.07619991153478622,-0.047934502363204956
1790174143319772400,9.4527724609375,-0.09115055203437805,0.03526110574603081,-0.05566355586051941
1790174143329842400,9.462842529296875,-0.1766582578420639,-0.013526675291359425,-0.05386405810713768
1790174143339913500,9.47291357421875,-0.24867527186870575,-0.05724019557237625,-0.039357990026474
1790174143349983500,9.4829833984375,-0.23095646500587463,-0.0833093449473381,0.01743471622467041
1790174143360053200,9.49305322265625,-0.22680224478244781,-0.10280750691890717,-0.008566228672862053
1790174143370124300,9.503124267578125,-0.24364060163497925,-0.14361298084259033,0.00711126858368516
1790174143380194300,9.5131943359375,-0.29062017798423767,-0.170414000749588,0.023435451090335846
1790174143390265300,9.523265380859375,-0.31876659393310547,-0.14790309965610504,0.07136968523263931
1790174143400335400,9.53333544921875,-0.29707249999046326,-0.16173315048217773,0.09729447960853577
1790174143410405400,9.5434052734375,-0.2963350713253021,-0.18284030258655548,0.030930638313293457
1790174143420476400,9.553476318359374,-0.32006117701530457,-0.1992379128932953,0.021158700808882713
1790174143430546200,9.563546142578126,-0.3097720444202423,-0.19943152368068695,0.03095780313014984
1790174143440617200,9.5736171875,-0.2718057632446289,-0.1782882660627365,0.022127052769064903
1790174143450687500,9.5836875,-0.24437013268470764,-0.15978090465068817,0.06701543182134628
1790174143460758500,9.593758544921876,-0.20260170102119446,-0.1576542854309082,0.056398533284664154
1790174143470828300,9.603828369140626,-0.17704255878925323,-0.1364952176809311,-0.06720143556594849
1790174143480898300,9.613898193359375,-0.17412292957305908,-0.08523016422986984,-0.02582896314561367
1790174143490969300,9.62396923828125,-0.1438334584236145,-0.1048363521695137,-0.044809579849243164
1790174143501039600,9.63403955078125,-0.06261316686868668,-0.12802022695541382,-0.07667723298072815
1790174143511110400,9.6441103515625,-0.0013109291903674603,-0.09182894229888916,-0.028097178786993027
1790174143521180400,9.654180419921875,0.0010031095007434487,-0.05372609943151474,0.006971806287765503
1790174143531250400,9.66425048828125,0.02989361435174942,-0.033711910247802734,-0.05091919004917145
1790174143541321200,9.6743212890625,0.07850845903158188,0.03241991251707077,-0.09706312417984009
1790174143551391500,9.6843916015625,0.13986900448799133,0.05953461676836014,-0.06024785339832306
1790174143561462500,9.694462646484375,0.20614415407180786,0.048494432121515274,0.05256545916199684
1790174143571532500,9.704532470703125,0.21344733238220215,0.08800747990608215,0.11716096103191376
1790174143581603300,9.714603271484375,0.3037146329879761,0.08970212191343307,0.10750176012516022
1790174143591673300,9.72467333984375,0.31120985746383667,0.10880550742149353,0.04011526331305504
1790174143601743400,9.734743408203125,0.20105044543743134,0.19210577011108398,-0.009667624719440937
1790174143611814400,9.744814453125,0.18553194403648376,0.17636781930923462,0.014945045113563538
1790174143621884400,9.754884521484374,0.2606492340564728,0.13106732070446014,0.01973085105419159
1790174143631955500,9.76495556640625,0.20220565795898438,0.1579791009426117,0.02551576867699623
1790174143642025500,9.775025390625,0.13971693813800812,0.16580045223236084,0.11776449531316757
1790174143652095200,9.78509521484375,0.21925011277198792,0.1419004499912262,0.006233704276382923
1790174143662166300,9.795166259765624,0.16430722177028656,0.143158420920372,-0.02485574409365654
1790174143672236500,9.805236572265626,0.12804216146469116,0.16934289038181305,-0.03064066357910633
1790174143682307600,9.8153076171875,0.111612468957901,0.18051515519618988,0.0055611394345760345
1790174143692377300,9.82537744140625,0.10185544192790985,0.16585472226142883,-0.06833412498235703
1790174143702448400,9.835448486328126,0.11209485679864883,0.1581500619649887,-0.08498644083738327
1790174143712518400,9.845518310546876,0.096829354763031,0.1577087789773941,-0.043050702661275864
1790174143722589000,9.8555888671875,0.11877375841140747,0.1315222531557083,0.058136947453022
1790174143732659700,9.86565966796875,0.07192210108041763,0.10963771492242813,0.08565938472747803
1790174143742730000,9.87572998046875,-0.009921270422637463,0.08952990919351578,0.041970666497945786
1790174143752801000,9.885801025390625,-0.07627526670694351,0.06614123284816742,-0.04948068782687187
1790174143762871000,9.89587109375,-0.07137365639209747,0.04994087666273117,0.04572966322302818
1790174143772941800,9.90594189453125,-0.09455674141645432,0.029551714658737183,0.005660273600369692
1790174143783011800,9.91601171875,-0.16019979119300842,0.01073317602276802,-0.08234725147485733
1790174143793082000,9.92608203125,-0.19309356808662415,-0.017349857836961746,-0.040974512696266174
1790174143803153200,9.936153076171875,-0.20813997089862823,-0.018642045557498932,-0.04051797837018967
1790174143813223000,9.946222900390625,-0.20676738023757935,-0.07344377785921097,0.053902797400951385
1790174143823294000,9.9562939453125,-0.21190187335014343,-0.09039194881916046,0.05404764041304588
1790174143833364000,9.966364013671875,-0.2360261231660843,-0.10953102260828018,0.017180437222123146
1790174143843434000,9.97643408203125,-0.2614165246486664,-0.15750469267368317,-0.027192555367946625
1790174143853505000,9.986505126953125,-0.2797393500804901,-0.16055507957935333,0.014698434621095657
1790174143863575000,9.996574951171874,-0.271188884973526,-0.1826115846633911,-0.020097259432077408
1790174143873646000,10.00664599609375,-0.26572325825691223,-0.20237784087657928,-0.04904155805706978
1790174143883715800,10.0167158203125,-0.2999091148376465,-0.21274250745773315,-0.01905597373843193
1790174143893787000,10.026786865234374,-0.3148214817047119,-0.21702273190021515,0.03499048575758934
1790174143903857000,10.03685693359375,-0.2800968885421753,-0.24809731543064117,-0.0599396713078022
1790174143913927000,10.046927001953126,-0.22231188416481018,-0.25207555294036865,-0.04812322556972504
1790174143923998000,10.056998046875,-0.13846904039382935,-0.24215975403785706,0.013713897205889225
1790174143934068000,10.06706787109375,-0.12446426600217819,-0.2443624585866928,-0.04995163157582283
1790174143944139000,10.077138916015626,-0.13778167963027954,-0.22368700802326202,0.03591374307870865
1790174143954208800,10.087208740234376,-0.13869993388652802,-0.2039434015750885,0.03393687680363655
1790174143964279000,10.097279052734375,-0.1369132399559021,-0.18623080849647522,-0.05102166533470154
1790174143974350000,10.10735009765625,-0.07692767679691315,-0.2037874311208725,-0.09015681594610214
1790174143984419800,10.117419921875,-0.018775708973407745,-0.16206058859825134,0.004767856560647488
1790174143994491000,10.127490966796875,0.01983080431818962,-0.1331849992275238,-0.00014700740575790405
1790174144004561000,10.137560791015625,0.0037037471774965525,-0.14209416508674622,-0.03759422525763512
1790174144014632000,10.1476318359375,0.05575629696249962,-0.09975390881299973,-0.011962629854679108
1790174144024702000,10.157701904296875,0.11478723585605621,-0.0675487145781517,-0.01504454854875803
1790174144034772000,10.16777197265625,0.13276517391204834,-0.06937723606824875,0.02855272777378559
1790174144044843000,10.177843017578125,0.1536693423986435,-0.043713778257369995,0.10516124963760376
1790174144054913000,10.1879130859375,0.1457594931125641,-0.03602549806237221,0.09797391295433044
1790174144064983800,10.19798388671875,0.15470388531684875,-0.046430956572294235,-0.030088061466813087
1790174144075053800,10.2080537109375,0.14859990775585175,0.005979521200060844,-0.0685262605547905
1790174144085124000,10.2181240234375,0.22313155233860016,0.0034027965739369392,-0.0028185220435261726
1790174144095195000,10.22819482421875,0.23732008039951324,0.023266250267624855,0.05633215233683586
1790174144105265000,10.238264892578124,0.24739199876785278,0.022879939526319504,0.0670992061495781
1790174144115336000,10.2483359375,0.2763107120990753,0.02539156749844551,0.16545695066452026
1790174144125406000,10.258406005859374,0.3042655885219574,0.015681659802794456,0.06454052031040192
1790174144135476700,10.268476806640624,0.25300905108451843,0.06700370460748672,0.014715705066919327
1790174144145547000,10.278547119140624,0.2339986264705658,0.0999859943985939,0.020155716687440872
1790174144155617000,10.288616943359376,0.2486763745546341,0.10969933867454529,-0.04833812266588211
1790174144165688000,10.29868798828125,0.2642686069011688,0.08752263337373734,-0.0615161657333374
1790174144175757800,10.3087578125,0.2551637887954712,0.10922206938266754,0.019529685378074646
1790174144185828900,10.318828857421876,0.25583961606025696,0.10545823723077774,0.055769938975572586
1790174144195899100,10.328899169921876,0.20720818638801575,0.0763418972492218,0.04736846685409546
1790174144205970200,10.33897021484375,0.1624298095703125,0.08723864704370499,-0.06663341075181961
1790174144216040000,10.3490400390625,0.14700531959533691,0.08676460385322571,-0.048168376088142395
1790174144226110000,10.35910986328125,0.15308809280395508,0.06893132627010345,-0.11445115506649017
1790174144236181000,10.369180908203125,0.13010156154632568,0.07946653664112091,-0.14093336462974548
1790174144246250800,10.379250732421875,0.09711818397045135,0.06252354383468628,-0.14630749821662903
1790174144256321800,10.38932177734375,0.07306105643510818,0.04879415035247803,-0.18840168416500092
1790174144266392000,10.39939208984375,0.06434561312198639,0.04850849509239197,0.0030092578381299973
1790174144276461800,10.4094619140625,0.07556577771902084,0.028141969814896584,0.11696725338697433
1790174144286532900,10.419532958984375,0.06118727847933769,-0.00662918109446764,0.09711028635501862
1790174144296603000,10.429602783203125,0.00011806422844529152,0.003907615318894386,-0.0451057069003582
1790174144306674000,10.439673828125,0.004278471227735281,0.011707047000527382,-0.04695770516991615
1790174144316744000,10.449743896484375,0.002062455052509904,-0.0033488678745925426,-0.061598166823387146
1790174144326815000,10.45981494140625,-0.04529261589050293,-0.04426313936710358,0.04034695774316788
1790174144336885000,10.469885009765624,-0.0923173800110817,-0.08777759224176407,0.11030447483062744
1790174144346954800,10.479954833984374,-0.11303530633449554,-0.11012022942304611,0.09631796181201935
1790174144357025800,10.49002587890625,-0.15339578688144684,-0.10261118412017822,0.06407666951417923
1790174144367096000,10.500095947265624,-0.18227769434452057,-0.0927823930978775,-0.0065912106074392796
1790174144377167000,10.5101669921875,-0.12760218977928162,-0.095995232462883,-0.051066797226667404
1790174144387236900,10.52023681640625,-0.09314823150634766,-0.09911634773015976,-0.005045335274189711
1790174144397307000,10.530306884765626,-0.08336644619703293,-0.1122870072722435,-0.04448195546865463
1790174144407378000,10.5403779296875,-0.10897864401340485,-0.0659138411283493,-0.024456003680825233
1790174144417448000,10.550447998046875,-0.08725231140851974,-0.03501531109213829,0.009922209195792675
1790174144427518700,10.560518798828125,-0.04029630124568939,-0.07966196537017822,-0.013753279112279415
1790174144437589000,10.570589111328125,-0.045488663017749786,-0.08640483021736145,-0.01552827563136816
1790174144447660000,10.580659912109375,-0.04645105451345444,-0.05336642265319824,-0.08796872198581696
1790174144457729800,10.590729736328125,0.033527668565511703,-0.03676960617303848,-0.02420305833220482
1790174144467799800,10.6007998046875,0.12971222400665283,-0.02665777876973152,0.07629910111427307
1790174144477870800,10.610870849609375,0.14609172940254211,-0.022895531728863716,0.05896804854273796
1790174144487941000,10.620941162109375,0.14085203409194946,-0.028726235032081604,0.023395869880914688
1790174144498012000,10.631011962890625,0.16787593066692352,0.02372925356030464,-0.012619921937584877
1790174144508082000,10.64108203125,0.18251897394657135,0.08053861558437347,-0.012414772063493729
1790174144518152000,10.65115185546875,0.23944909870624542,0.05807831138372421,-0.022388575598597527
1790174144528223000,10.661222900390625,0.26495277881622314,0.08161823451519012,-0.055530205368995667
1790174144538293000,10.67129296875,0.24881643056869507,0.09386637806892395,-0.10197333991527557
1790174144548364000,10.681364013671875,0.2890734076499939,0.09685812890529633,-0.05234784632921219
1790174144558434000,10.69143408203125,0.3456924855709076,0.13384729623794556,-0.09247928857803345
1790174144568505000,10.701505126953125,0.40574032068252563,0.12886805832386017,0.02266412042081356
1790174144578574800,10.711574951171874,0.4255039095878601,0.13880857825279236,0.03121180087327957
1790174144588644900,10.721644775390626,0.4368230104446411,0.1932843029499054,0.03121887519955635
1790174144598716000,10.7317158203125,0.4110904932022095,0.1894187033176422,0.07255539298057556
1790174144608786000,10.741785888671876,0.3351871371269226,0.21240933239459991,0.08147436380386353
1790174144618857000,10.75185693359375,0.3253174424171448,0.23065251111984253,-0.009600414894521236
1790174144628927000,10.761927001953126,0.32147282361984253,0.2044188231229782,-0.058774758130311966
1790174144638998000,10.771998046875,0.36086681485176086,0.21381525695323944,-0.04783689230680466
1790174144649067800,10.78206787109375,0.3661646544933319,0.23247841000556946,0.006390662863850594
1790174144659138000,10.792137939453125,0.31678563356399536,0.2584833800792694,-0.02420559525489807
1790174144669209000,10.802208984375,0.30714190006256104,0.2593708634376526,0.005772977136075497
1790174144679278800,10.81227880859375,0.33553412556648254,0.26907357573509216,0.019506366923451424
1790174144689350000,10.822349853515625,0.36129865050315857,0.26432010531425476,-0.032721489667892456
1790174144699420000,10.832419921875,0.3353666663169861,0.2698959708213806,-0.06656600534915924
1790174144709491000,10.842490966796875,0.30770984292030334,0.2911565601825714,-0.056043658405542374
1790174144719560200,10.852560302734375,0.2623452842235565,0.28425416350364685,-0.10049128532409668
1790174144729630200,10.862630126953125,0.2507542073726654,0.28746873140335083,-0.08920996636152267
1790174144739701200,10.872701171875,0.2790316641330719,0.2984957993030548,0.0007196562364697456
1790174144749771300,10.882771240234375,0.2607838213443756,0.29260456562042236,0.018001854419708252
1790174144759842000,10.892842041015625,0.264224648475647,0.2763523459434509,0.029401514679193497
1790174144769912300,10.902912353515624,0.262870728969574,0.28629034757614136,0.05881496146321297
1790174144779982300,10.912982421875,0.24287466704845428,0.3094712793827057,0.038519278168678284
1790174144790053400,10.923053466796874,0.21560132503509521,0.2917759418487549,0.08718395233154297
1790174144800123100,10.933123046875,0.2033664882183075,0.2713220715522766,0.009062513709068298
1790174144810194200,10.943194091796874,0.1625416874885559,0.2944715619087219,-0.014690868556499481
1790174144820264400,10.953264404296876,0.10682091116905212,0.28615692257881165,-0.0077860914170742035
1790174144830335500,10.96333544921875,0.1618872880935669,0.22194194793701172,0.03419232368469238
1790174144840405200,10.9734052734375,0.08778908103704453,0.2195426970720291,-0.011607654392719269
1790174144850475300,10.983475341796876,0.05139612779021263,0.1704109013080597,0.03356892243027687
1790174144860546300,10.99354638671875,0.0497223325073719,0.15748631954193115,0.009517914615571499
1790174144870616300,11.0036162109375,0.03547997400164604,0.16471010446548462,-0.00804956629872322
1790174144880687400,11.013687255859375,0.019058121368288994,0.136941596865654,-0.016915230080485344
1790174144890757400,11.02375732421875,0.0316617451608181,0.10992055386304855,-0.02978385239839554
1790174144900827100,11.0338271484375,-0.035157497972249985,0.1331329196691513,0.006491596810519695
1790174144910898200,11.043898193359375,-0.07639875262975693,0.11528642475605011,-0.015498028136789799
1790174144920968200,11.05396826171875,-0.08593020588159561,0.0896708145737648,0.014965071342885494
1790174144931039200,11.064039306640625,-0.12622970342636108,0.1144251599907875,-0.0012674251338467002
1790174144941109200,11.074109130859375,-0.1524144411087036,0.09459207206964493,0.020530547946691513
1790174144951180300,11.08418017578125,-0.11859363317489624,0.049843404442071915,0.04389660805463791
1790174144961250300,11.094250244140625,-0.12332287430763245,0.05370871722698212,0.09313046932220459
1790174144971320000,11.104320068359375,-0.10572244226932526,0.059256765991449356,0.09485815465450287
1790174144981391000,11.11439111328125,-0.09304606169462204,0.03397085517644882,0.09069669991731644
1790174144991461400,11.12446142578125,-0.17427100241184235,0.022316541522741318,0.09525378793478012
1790174145001532400,11.134532470703125,-0.2611827552318573,0.03459105268120766,0.020528418943285942
1790174145011602200,11.144602294921874,-0.2718770205974579,0.02911652997136116,0.044789377599954605
1790174145021673200,11.154673095703124,-0.18550269305706024,0.01906123384833336,0.1460004299879074
1790174145031743200,11.1647431640625,-0.16921237111091614,-0.0028105792589485645,0.11297451704740524
1790174145041813200,11.174813232421876,-0.23159559071063995,-0.021738197654485703,0.03833143413066864
1790174145051884300,11.18488427734375,-0.2831800878047943,-0.020367149263620377,0.025359293445944786
1790174145061954300,11.194954345703126,-0.30446484684944153,0.0007477225735783577,-0.06451254338026047
1790174145072025300,11.205025390625,-0.2879984676837921,-0.0013641458936035633,-0.08720647543668747
1790174145082095000,11.21509521484375,-0.22993753850460052,-0.027132626622915268,-0.08014856278896332
1790174145092165000,11.2251650390625,-0.25581255555152893,-0.04329391568899155,0.010084101930260658
1790174145102236200,11.235236083984375,-0.2721529006958008,-0.0574994832277298,0.029187222942709923
1790174145112306400,11.245306396484375,-0.28420373797416687,-0.07882920652627945,0.0017684344202280045
1790174145122377200,11.255377197265625,-0.2620275914669037,-0.07483792304992676,0.013067960739135742
1790174145132447200,11.265447265625,-0.2652563452720642,-0.07784877717494965,-0.017780063673853874
1790174145142518300,11.275518310546875,-0.28011757135391235,-0.09512630105018616,-0.02197454124689102
1790174145152588300,11.28558837890625,-0.280639111995697,-0.09527405351400375,0.038058288395404816
1790174145162658300,11.295658203125,-0.270250141620636,-0.0846637561917305,0.007361096329987049
1790174145172729300,11.305729248046875,-0.2145824283361435,-0.1135043203830719,-0.005190036725252867
1790174145182799400,11.31579931640625,-0.22893314063549042,-0.12169806659221649,0.030829748138785362
1790174145192870400,11.325870361328125,-0.23817022144794464,-0.10578837990760803,0.025010893121361732
1790174145202940200,11.335940185546875,-0.20490068197250366,-0.09288136661052704,-0.022457554936408997
1790174145213010400,11.346010498046875,-0.1951865702867508,-0.0602107048034668,-0.10658329725265503
1790174145223081500,11.35608154296875,-0.12855187058448792,-0.06670908629894257,-0.053663887083530426
1790174145233151200,11.366151123046874,-0.08075568825006485,-0.06429265439510345,0.015115807764232159
1790174145243222300,11.37622216796875,-0.07983263581991196,-0.06258796155452728,0.05342298001050949
1790174145253292300,11.386292236328124,-0.11686436831951141,-0.06072542443871498,0.021409597247838974
1790174145263363300,11.39636328125,-0.10409238189458847,-0.03876340389251709,-0.04445676505565643
1790174145273433000,11.40643310546875,-0.035349003970623016,-0.02777552604675293,-0.0807301476597786
1790174145283503400,11.41650341796875,-0.020067520439624786,-0.014510853216052055,-0.04776393994688988
1790174145293574400,11.426574462890626,0.012641064822673798,0.0021466249600052834,-0.006850972771644592
1790174145303644200,11.43664404296875,0.004767163190990686,0.02435978502035141,0.010070220567286015
1790174145313715200,11.446715087890626,0.04107426479458809,0.031150057911872864,0.01516698393970728
1790174145323785200,11.45678515625,0.04112593084573746,0.05773372948169708,0.027855347841978073
1790174145333856300,11.466856201171876,0.03755364567041397,0.076329804956913,0.004565136507153511
1790174145343926300,11.47692626953125,0.07518917322158813,0.07734526693820953,0.11490736156702042
1790174145353996300,11.486996337890625,0.05599094182252884,0.09534510970115662,0.044673725962638855
1790174145364067300,11.4970673828125,0.04859986901283264,0.09608067572116852,-0.01740029640495777
1790174145374137000,11.50713720703125,0.06209086999297142,0.10936363786458969,-0.05412181094288826
1790174145384208100,11.5172080078125,0.10855104774236679,0.1293804943561554,0.03969363123178482
1790174145394278400,11.5272783203125,0.13789339363574982,0.10645007342100143,0.040261004120111465
1790174145404348400,11.537348388671875,0.08576840162277222,0.10873320698738098,-0.016475778073072433
1790174145414419200,11.547419189453125,0.05993015319108963,0.1082235723733902,-0.04438357055187225
1790174145424489200,11.5574892578125,0.0897010937333107,0.09035323560237885,0.04703209549188614
1790174145434560300,11.567560302734375,0.12164200842380524,0.07823887467384338,0.07335635274648666
1790174145444630300,11.57763037109375,0.10350321233272552,0.08307384699583054,0.06529176980257034
1790174145454701300,11.587701416015625,0.038260240107774734,0.05857017636299133,0.06892304122447968
1790174145464771300,11.597771240234374,0.04871714115142822,0.055700093507766724,-0.011928129941225052
1790174145474841300,11.60784130859375,0.045439016073942184,0.060456402599811554,-0.005338922142982483
1790174145484912000,11.617912109375,0.095659039914608,0.0400395467877388,0.010339107364416122
1790174145494982100,11.627982177734374,0.08132842183113098,0.04773086681962013,0.06148476526141167
1790174145505053200,11.63805322265625,0.014251654036343098,0.05764368921518326,0.08512777090072632
1790174145515123500,11.64812353515625,-0.006304376292973757,0.033714767545461655,0.09969223290681839
1790174145525193200,11.658193115234376,0.0030214814469218254,0.03282953426241875,0.06353343278169632
1790174145535264300,11.66826416015625,0.018645107746124268,0.026705410331487656,-0.013923762366175652
1790174145545334300,11.678334228515626,-0.024805430322885513,0.022108526900410652,-0.0940268486738205
1790174145555405300,11.6884052734375,-0.07355349510908127,0.03858969733119011,-0.04388198256492615
1790174145565475300,11.698475341796875,-0.02741529420018196,0.045778099447488785,-0.02187708579003811
1790174145575546400,11.70854638671875,0.048812881112098694,0.01164922397583723,0.038482990115880966
1790174145585616400,11.718616455078125,0.026439933106303215,-0.003997913096100092,0.07308943569660187
1790174145595686100,11.72868603515625,-0.0010152412578463554,0.007826405577361584,0.05846717953681946
1790174145605757200,11.738757080078125,-0.00016196444630622864,-0.008288648910820484,0.0036151160020381212
1790174145615827200,11.7488271484375,-0.029196012765169144,0.0370924137532711,-0.09133749455213547
1790174145625898200,11.758898193359375,-0.05268559232354164,0.05459623411297798,-0.06417383998632431
1790174145635968300,11.76896826171875,0.04919247701764107,0.01030668243765831,-0.031282905489206314
1790174145646038300,11.779038330078125,0.09755201637744904,-0.0037998156622052193,0.06337276101112366
1790174145656109300,11.789109375,0.08293470740318298,0.007421744987368584,-0.027408750727772713
1790174145666179000,11.799178955078125,0.0807218924164772,0.01703522354364395,-0.06407888233661652
1790174145676250000,11.80925,0.13695143163204193,0.01714639738202095,-0.041507624089717865
1790174145686320400,11.8193203125,0.18610219657421112,0.023483389988541603,-0.0038369414396584034
1790174145696391400,11.829391357421875,0.2081126719713211,0.03814409673213959,-0.061415281146764755
1790174145706461200,11.839461181640624,0.2355610728263855,0.05664827302098274,0.0013471681158989668
1790174145716531200,11.84953125,0.18422716856002808,0.08054424077272415,0.015598149038851261
1790174145726602500,11.8596025390625,0.19275061786174774,0.05308758094906807,0.022492006421089172
1790174145736672500,11.869672607421874,0.20720121264457703,0.05895797163248062,0.025520814582705498
1790174145746743600,11.87974365234375,0.23186075687408447,0.09033799916505814,0.016130508854985237
1790174145756813600,11.8898134765625,0.24703776836395264,0.13294626772403717,0.05586092174053192
1790174145766884600,11.899884521484376,0.22000454366207123,0.1629965752363205,0.03913334012031555
1790174145776954600,11.90995458984375,0.19790169596672058,0.17237046360969543,0.02804206684231758
1790174145787024600,11.920024658203126,0.1781863272190094,0.192069873213768,0.03386932983994484
1790174145797095400,11.930095458984376,0.19391542673110962,0.19318607449531555,0.09174013137817383
1790174145807165700,11.940165771484375,0.1848641335964203,0.18269002437591553,0.07238694280385971
1790174145817236700,11.95023681640625,0.14417406916618347,0.17586658895015717,0.03728398680686951
1790174145827306800,11.960306640625,0.10100288689136505,0.19431138038635254,-0.06760621070861816
1790174145837376500,11.97037646484375,0.05057024583220482,0.20188742876052856,-0.09590166807174683
1790174145847447600,11.980447509765625,0.068260557949543,0.19616588950157166,-0.07366214692592621
1790174145857517800,11.990517822265625,0.09283588081598282,0.19308574497699738,-0.00795605219900608
1790174145867588900,12.0005888671875,0.058290161192417145,0.15822894871234894,0.03300895914435387
1790174145877658600,12.01065869140625,0.02309996634721756,0.14739131927490234,-0.005157630890607834
1790174145887729700,12.020729736328125,0.007074927445501089,0.1634211540222168,0.012561711482703686
1790174145897799700,12.030799560546875,0.006374079268425703,0.16006852686405182,0.000668765977025032
1790174145907869700,12.04086962890625,-0.035604264587163925,0.14964784681797028,-0.026564985513687134
1790174145917940700,12.050940673828125,-0.08624054491519928,0.14123918116092682,-0.015009796246886253
1790174145928010800,12.0610107421875,-0.09804394096136093,0.11967156827449799,0.016625627875328064
1790174145938081800,12.071081787109375,-0.11853919178247452,0.13304674625396729,0.07657504826784134
1790174145948151600,12.081151611328124,-0.13428325951099396,0.12212379276752472,0.11926285177469254
1790174145958222600,12.09122265625,-0.10646449029445648,0.08520612120628357,0.11007212102413177
1790174145968292600,12.101292724609374,-0.15024100244045258,0.07066206634044647,0.10421396791934967
1790174145978362600,12.111362548828126,-0.21551567316055298,0.05906316637992859,0.013443379662930965
1790174145988433700,12.12143359375,-0.28164994716644287,0.03097774088382721,-0.04069335758686066
1790174145998503700,12.131503662109376,-0.2904864251613617,-0.002095276489853859,-0.09438899159431458
1790174146008574700,12.14157470703125,-0.2938113808631897,-0.03247741609811783,-0.013578031212091446
1790174146018644500,12.15164453125,-0.29863545298576355,-0.06008819863200188,0.03942397981882095
1790174146028714800,12.16171484375,-0.29286545515060425,-0.08310722559690475,-0.06119344010949135
1790174146038785800,12.171785888671875,-0.27552029490470886,-0.0827258750796318,-0.030556969344615936
1790174146048855600,12.18185546875,-0.24044272303581238,-0.07391933351755142,0.034317366778850555
1790174146058926600,12.191926513671875,-0.2751167416572571,-0.09870906919240952,0.06964731961488724
1790174146068996600,12.20199658203125,-0.2659642696380615,-0.11538205295801163,0.07182419300079346
1790174146079067600,12.212067626953125,-0.30786749720573425,-0.09089099615812302,-0.060805778950452805
1790174146089137700,12.2221376953125,-0.3405876159667969,-0.11142849922180176,-0.08914794027805328
1790174146099207700,12.232207763671875,-0.29549577832221985,-0.1533122956752777,-0.011002005077898502
1790174146109278700,12.24227880859375,-0.2611710727214813,-0.1435491442680359,0.069969542324543
1790174146119348500,12.252348388671875,-0.2231685370206833,-0.17389418184757233,0.03548424690961838
1790174146129419500,12.26241943359375,-0.2458280473947525,-0.17345422506332397,-0.031071342527866364
1790174146139489500,12.272489501953125,-0.2774774432182312,-0.14749766886234283,-0.03713790699839592
1790174146149560600,12.282560546875,-0.2464287281036377,-0.15220481157302856,-0.043601665645837784
1790174146159630600,12.292630615234375,-0.22346383333206177,-0.11756765097379684,0.0325586274266243
1790174146169700600,12.30270068359375,-0.12088021636009216,-0.12309584021568298,-0.04825180023908615
