time,seconds_elapsed,z,y,x
1789141115892598800,0.044598876953125,-0.09120658040046692,-0.10501328855752945,-0.02824120782315731
1789141115902572000,0.054572021484375,-0.10647261887788773,-0.13806258141994476,0.022630229592323303
1789141115912543700,0.064543701171875,-0.0832279771566391,-0.08077499270439148,-0.010563292540609837
1789141115922516700,0.074516845703125,-0.07405897974967957,-0.1108386218547821,0.03817841410636902
1789141115932489000,0.084489013671875,-0.04469623789191246,-0.0812893882393837,0.006546538323163986
1789141115942460700,0.094460693359375,-0.030466169118881226,-0.10474437475204468,0.03799767047166824
1789141115952434000,0.104433837890625,-0.003897041082382202,-0.047073327004909515,-0.0032039876095950603
1789141115962406000,0.114406005859375,0.04583483189344406,-0.06461051106452942,-0.0784073993563652
1789141115972377900,0.1243779296875,0.00014286953955888748,-0.1010960042476654,-0.02038370445370674
1789141115982350800,0.134350830078125,-0.022929158061742783,-0.11901401728391647,-0.002967962995171547
1789141115992322800,0.14432275390625,-0.0038359547033905983,-0.11775848269462585,-0.015098262578248978
1789141116002296000,0.154296142578125,0.015586744993925095,-0.132464200258255,-0.01726687327027321
1789141116012267800,0.164267822265625,-0.006235260516405106,-0.09907665103673935,-0.006926870439201593
1789141116022240000,0.174239990234375,-0.038915444165468216,-0.13632255792617798,0.02956882119178772
1789141116032213000,0.184212890625,-0.02411792427301407,-0.1377437263727188,0.003056860063225031
1789141116042184700,0.194184814453125,0.006759298499673605,-0.11122343689203262,0.026543542742729187
1789141116052158000,0.204157958984375,0.023415548726916313,-0.12399589270353317,-0.011770968325436115
1789141116062130000,0.2141298828125,-0.0008634254336357117,-0.12239374220371246,0.0283649992197752
1789141116072102000,0.224101806640625,0.12269997596740723,-0.09301646798849106,-0.014222942292690277
1789141116082075000,0.234074951171875,0.14765964448451996,-0.05731865391135216,0.0017200714210048318
1789141116092047000,0.244047119140625,0.1040361151099205,-0.0697460025548935,0.038271527737379074
1789141116102019800,0.254019775390625,0.18457835912704468,-0.06669161468744278,-0.04780130460858345
1789141116111991800,0.26399169921875,0.1657579243183136,-0.061217743903398514,0.0011219774605706334
1789141116121964000,0.273964111328125,0.1992620825767517,-0.02273985929787159,-0.006086667068302631
1789141116131936800,0.283936767578125,0.16914239525794983,-0.029119823127985,0.019915414974093437
1789141116141909200,0.2939091796875,0.1974020004272461,-0.056650251150131226,-0.007960423827171326
1789141116151881000,0.303880859375,0.189295694231987,-0.03407220542430878,0.03971399366855621
1789141116161854000,0.31385400390625,0.2580113708972931,-0.04181188717484474,0.03048480674624443
1789141116171826200,0.323826171875,0.25116807222366333,-0.03436841070652008,0.007216119207441807
1789141116181799000,0.333798828125,0.19450239837169647,-0.029702553525567055,0.021086927503347397
1789141116191771100,0.343771240234375,0.1837347000837326,-0.01240905188024044,0.004382515326142311
1789141116201743000,0.3537431640625,0.20044097304344177,0.008795037865638733,-0.029972795397043228
1789141116211715800,0.3637158203125,0.2042391449213028,0.024979980662465096,0.02598663419485092
1789141116221688000,0.37368798828125,0.24874350428581238,0.03440597280859947,0.021115180104970932
1789141116231661000,0.3836611328125,0.3242742419242859,0.05016964301466942,-0.009829709306359291
1789141116241633000,0.393633056640625,0.33672186732292175,0.06629800796508789,0.0028764980379492044
1789141116251605000,0.40360498046875,0.30094900727272034,0.06779581308364868,0.036264240741729736
1789141116261578000,0.413577880859375,0.3236236870288849,0.08388130366802216,0.004834412597119808
1789141116271550000,0.423550048828125,0.32363104820251465,0.10848890244960785,0.012752844020724297
1789141116281522000,0.43352197265625,0.33717453479766846,0.1354888379573822,-0.030866272747516632
1789141116291495200,0.4434951171875,0.332466721534729,0.13953924179077148,-0.014811460860073566
1789141116301467000,0.453466796875,0.34981855750083923,0.15172401070594788,-0.005318090319633484
1789141116311440000,0.46343994140625,0.34468328952789307,0.16238059103488922,-0.005489613860845566
1789141116321412000,0.473412109375,0.3221486806869507,0.17282044887542725,0.012560493312776089
1789141116331384000,0.483384033203125,0.32427218556404114,0.15959781408309937,0.02669164538383484
1789141116341357000,0.493357177734375,0.3390439450740814,0.18645553290843964,0.0054960791021585464
1789141116351329000,0.5033291015625,0.32375645637512207,0.18350733816623688,-0.019579358398914337
1789141116361302000,0.513302001953125,0.27827632427215576,0.18424555659294128,-0.020339690148830414
1789141116371274000,0.52327392578125,0.2573336362838745,0.19197635352611542,-0.004954036325216293
1789141116381246200,0.53324609375,0.22269362211227417,0.19716553390026093,-0.021378550678491592
1789141116391219000,0.543218994140625,0.24620363116264343,0.13901770114898682,-0.03943458944559097
1789141116401191000,0.55319091796875,0.2783399820327759,0.1569114774465561,-0.019421467557549477
1789141116411163100,0.5631630859375,0.2424347698688507,0.15472064912319183,0.04009563475847244
1789141116421136000,0.573135986328125,0.20844218134880066,0.16349150240421295,0.02527381107211113
1789141116431108000,0.583108154296875,0.2196703404188156,0.16240090131759644,-0.003063708543777466
1789141116441081000,0.5930810546875,0.14159098267555237,0.14388741552829742,0.0896071046590805
1789141116451052800,0.603052734375,0.15429507195949554,0.14857521653175354,0.054091352969408035
1789141116461025000,0.61302490234375,0.14694048464298248,0.1529659628868103,0.0033171249087899923
1789141116470998000,0.622998046875,0.12916268408298492,0.12343904376029968,-0.028386294841766357
1789141116480970000,0.632969970703125,0.08132699131965637,0.11086812615394592,0.02496347948908806
1789141116490943000,0.64294287109375,0.09618090093135834,0.14223583042621613,-0.031417686492204666
1789141116500915000,0.6529150390625,0.04298905283212662,0.1460268348455429,0.023339835926890373
1789141116510887000,0.662886962890625,0.06733005493879318,0.14898578822612762,0.04060163348913193
1789141116520860000,0.67285986328125,0.023491494357585907,0.17983505129814148,0.08240394294261932
1789141116530832100,0.68283203125,0.07869451493024826,0.19244277477264404,0.0032604450825601816
1789141116540803800,0.692803955078125,0.031671348959207535,0.18739448487758636,0.07407363504171371
1789141116550776800,0.70277685546875,0.05258439853787422,0.1770365983247757,-0.0162507276982069
1789141116560749000,0.7127490234375,0.03435639292001724,0.16410349309444427,0.008266864344477654
1789141116570722000,0.72272216796875,0.04315515607595444,0.1958754062652588,-0.03587591275572777
1789141116580694000,0.732694091796875,0.0479150265455246,0.17973825335502625,0.0011614661198109388
1789141116590666000,0.742666015625,0.04297193884849548,0.19513805210590363,0.016165418550372124
1789141116600639200,0.75263916015625,0.05902067944407463,0.1745787113904953,0.033326297998428345
1789141116610611000,0.76261083984375,0.031703099608421326,0.1926809847354889,0.06862515211105347
1789141116620584000,0.772583984375,0.023102421313524246,0.1738593578338623,0.07505322247743607
1789141116630556200,0.78255615234375,-0.014958224259316921,0.18472670018672943,0.1028626561164856
1789141116640528000,0.79252783203125,0.0009214058518409729,0.15278314054012299,0.0656718760728836
1789141116650501000,0.802501220703125,-0.046876270323991776,0.15217065811157227,0.06479065120220184
1789141116660473000,0.81247314453125,-0.033756472170352936,0.12539656460285187,-0.01815030537545681
1789141116670445000,0.822445068359375,-0.09824083000421524,0.1279567927122116,0.004735001362860203
1789141116680418000,0.83241796875,-0.17034831643104553,0.07644885033369064,0.02022021822631359
1789141116690390000,0.84239013671875,-0.1570732593536377,0.06482628732919693,-0.018024373799562454
1789141116700363000,0.852363037109375,-0.11561263352632523,0.05795479938387871,-0.015963353216648102
1789141116710335000,0.8623349609375,-0.20274505019187927,0.06365124881267548,0.09356456249952316
1789141116720307200,0.87230712890625,-0.19551031291484833,0.02456136979162693,0.055557530373334885
1789141116730280000,0.882280029296875,-0.20091858506202698,0.030071664601564407,0.05328381806612015
1789141116740252000,0.892251953125,-0.20931953191757202,0.045280709862709045,0.007224982604384422
1789141116750224100,0.90222412109375,-0.24624039232730865,0.016376106068491936,0.0039223432540893555
1789141116760196900,0.91219677734375,-0.2359614074230194,0.019846471026539803,-0.026106663048267365
1789141116770169000,0.922169189453125,-0.23529207706451416,0.005389274097979069,-0.025539185851812363
1789141116780142000,0.93214208984375,-0.19813565909862518,-0.007831722497940063,-0.0592350959777832
1789141116790114000,0.942114013671875,-0.2170693427324295,-0.020968522876501083,-0.0204017236828804
1789141116800086000,0.9520859375,-0.22299353778362274,0.019955206662416458,0.04473387077450752
1789141116810059000,0.96205908203125,-0.2245878279209137,-0.0007199873216450214,0.038398534059524536
1789141116820031000,0.972031005859375,-0.16331009566783905,-0.00764713529497385,0.01754172146320343
1789141116830004000,0.98200390625,-0.16796796023845673,0.035893525928258896,0.012951931916177273
1789141116839976200,0.99197607421875,-0.27640414237976074,-0.0006200110074132681,0.07915119081735611
1789141116849948000,1.001947998046875,-0.19662225246429443,0.01240622065961361,-0.0506608784198761
1789141116859921000,1.0119208984375,-0.26033174991607666,0.01625075936317444,-0.006551741622388363
1789141116869893000,1.02189306640625,-0.17274713516235352,-0.006963849999010563,-0.07071056216955185
1789141116879864800,1.03186474609375,-0.14339536428451538,0.02040625363588333,-0.05854417756199837
1789141116889838000,1.041838134765625,-0.12403834611177444,0.056431204080581665,-0.10244764387607574
1789141116899810000,1.05181005859375,-0.17085909843444824,-0.02712893858551979,-0.03411465883255005
1789141116909783000,1.061782958984375,-0.22708383202552795,0.0013657817617058754,-0.01256777998059988
1789141116919755000,1.071755126953125,-0.24026168882846832,0.0018792389892041683,-0.00977066159248352
1789141116929727000,1.08172705078125,-0.25262686610221863,-0.03119226172566414,0.0008835060289129615
1789141116939700200,1.0917001953125,-0.26957762241363525,-0.05761907622218132,0.02463677152991295
1789141116949672000,1.101671875,-0.19701983034610748,-0.044155701994895935,0.012345761992037296
1789141116959645000,1.11164501953125,-0.1579587161540985,-0.03436139598488808,-0.00482630031183362
1789141116969617200,1.1216171875,-0.19085560739040375,-0.017679959535598755,-0.01765906810760498
1789141116979588900,1.1315888671875,-0.20284461975097656,-0.06342880427837372,-0.007769685238599777
1789141116989562000,1.14156201171875,-0.2013065069913864,-0.02194959856569767,-0.004202673211693764
1789141116999533800,1.151533935546875,-0.14720652997493744,-0.059464216232299805,-0.039775311946868896
1789141117009506000,1.161506103515625,-0.16435649991035461,-0.05829553306102753,0.0023893103934824467
1789141117019479000,1.17147900390625,-0.1445513665676117,-0.08725447952747345,0.03927835077047348
1789141117029451000,1.181450927734375,-0.3153296113014221,-0.08089664578437805,0.1578117161989212
1789141117039424000,1.191424072265625,-0.18724407255649567,-0.18739378452301025,-0.07672994583845139
1789141117049396000,1.20139599609375,-0.2894350588321686,-0.11556477099657059,-0.03998250514268875
1789141117059368000,1.211367919921875,-0.30106666684150696,-0.22345420718193054,-0.09632860869169235
1789141117069341000,1.2213408203125,-0.408224493265152,-0.23410940170288086,0.05053682252764702
1789141117079313200,1.231313232421875,-0.27584782242774963,-0.2633762061595917,-0.04081039875745773
1789141117089284900,1.241284912109375,-0.2616528868675232,-0.2714080810546875,0.0006025157636031508
1789141117099257900,1.2512578125,-0.22391001880168915,-0.2624792754650116,-0.01863216422498226
1789141117109230000,1.26122998046875,-0.2164115011692047,-0.2282760888338089,-0.030749956145882607
1789141117119203000,1.271203125,-0.23125329613685608,-0.22617457807064056,0.0002694773720577359
1789141117129175000,1.281175048828125,-0.20283634960651398,-0.1873847246170044,-0.045736342668533325
1789141117139147000,1.29114697265625,-0.18733622133731842,-0.17832624912261963,0.046397045254707336
1789141117149119500,1.301119384765625,-0.11950792372226715,-0.16972754895687103,-0.008358243852853775
1789141117159091700,1.311091796875,-0.06355570256710052,-0.18416480720043182,0.004901368636637926
1789141117169064700,1.321064697265625,-0.0767979547381401,-0.17635829746723175,0.06602798402309418
1789141117179036700,1.33103662109375,-0.08208166807889938,-0.16918586194515228,0.025527164340019226
1789141117189008600,1.341008544921875,-0.09060364961624146,-0.19053182005882263,0.034220434725284576
1789141117198982000,1.35098193359375,-0.07672405242919922,-0.18941569328308105,0.013299972750246525
1789141117208953600,1.36095361328125,-0.10622400790452957,-0.20087982714176178,0.020916515961289406
1789141117218925800,1.37092578125,-0.08082650601863861,-0.2091073989868164,0.006581253372132778
1789141117228898800,1.38089892578125,-0.08277416229248047,-0.18503163754940033,0.00265291053801775
1789141117238870500,1.39087060546875,-0.08644106984138489,-0.1810440868139267,-0.030447518453001976
1789141117248843800,1.40084375,-0.08858077228069305,-0.21266654133796692,-0.02860415354371071
1789141117258815700,1.410815673828125,-0.06255662441253662,-0.22073966264724731,-0.0225816797465086
1789141117268787700,1.42078759765625,-0.052706822752952576,-0.21447011828422546,-0.0369364470243454
1789141117278760700,1.4307607421875,-0.04557940736413002,-0.20551258325576782,-0.003864782629534602
1789141117288732700,1.440732666015625,-0.06649482250213623,-0.17908716201782227,0.0063362265937030315
1789141117298706000,1.450705810546875,-0.022530827671289444,-0.13986705243587494,-0.037861861288547516
1789141117308677600,1.460677734375,-0.05257800966501236,-0.1257675588130951,-0.0005833539180457592
1789141117318649900,1.47064990234375,-0.0020711617544293404,-0.11977917701005936,-0.049073390662670135
1789141117328622800,1.480622802734375,0.07646352052688599,-0.08735243231058121,-0.035279978066682816
1789141117338594600,1.490594482421875,0.0759977251291275,-0.057662177830934525,-0.025508305057883263
1789141117348566800,1.50056689453125,0.1493765264749527,-0.08602943271398544,0.008787075988948345
1789141117358539800,1.510539794921875,0.16564258933067322,-0.02980930730700493,-0.004575068596750498
1789141117368511700,1.52051171875,0.20043542981147766,-0.06279909610748291,0.02171594649553299
1789141117378484700,1.530484619140625,0.1708192080259323,-0.021510783582925797,0.04437971115112305
1789141117388456700,1.540456787109375,0.1763967126607895,-0.026470061391592026,0.003109354292973876
1789141117398428700,1.5504287109375,0.20280036330223083,-0.02534567192196846,-0.009847456589341164
1789141117408401700,1.560401611328125,0.2105780392885208,-0.00909634493291378,-0.005261057056486607
1789141117418374000,1.570373779296875,0.20223301649093628,-0.010713949799537659,0.008629192598164082
1789141117428345600,1.580345703125,0.24761773645877838,-0.008043812587857246,-0.048353761434555054
1789141117438318800,1.59031884765625,0.26187044382095337,0.008373775519430637,-0.029547851532697678
1789141117448290800,1.600290771484375,0.2469022125005722,0.010042819194495678,0.028897574171423912
1789141117458263600,1.610263671875,0.23974549770355225,0.018795829266309738,0.02160637266933918
1789141117468235800,1.62023583984375,0.24316351115703583,0.021309956908226013,-0.0008977960096672177
1789141117478207700,1.630207763671875,0.20674850046634674,0.01767607405781746,0.03407057374715805
1789141117488180700,1.6401806640625,0.21001456677913666,0.01752421259880066,0.06391197443008423
1789141117498152700,1.650152587890625,0.24884557723999023,0.031265322118997574,0.012710841372609138
1789141117508125700,1.660125732421875,0.25745540857315063,0.05947444587945938,-0.045767150819301605
1789141117518097700,1.67009765625,0.2535112798213959,0.05208577215671539,-0.03086090460419655
1789141117528069600,1.680069580078125,0.22519974410533905,0.07695374637842178,-0.018985198810696602
1789141117538043000,1.69004296875,0.2354036569595337,0.08158738166093826,-0.019599590450525284
1789141117548014600,1.7000146484375,0.28732359409332275,0.11511354148387909,-0.04285406693816185
1789141117557986800,1.70998681640625,0.32584357261657715,0.11430740356445312,-0.01770717091858387
1789141117567959800,1.719959716796875,0.2936027944087982,0.11148107796907425,0.03954346477985382
1789141117577931500,1.729931640625,0.28225961327552795,0.11166643351316452,0.06113583967089653
1789141117587904800,1.73990478515625,0.2928244471549988,0.12040543556213379,0.04003515839576721
1789141117597876700,1.749876708984375,0.30597832798957825,0.14939527213573456,-0.006817565765231848
1789141117607848700,1.7598486328125,0.24690887331962585,0.16842330992221832,0.0220203660428524
1789141117617821700,1.76982177734375,0.24244515597820282,0.1542893797159195,0.02003178372979164
1789141117627793700,1.779793701171875,0.2726365327835083,0.19472146034240723,-0.007737752981483936
1789141117637765600,1.789765625,0.23491767048835754,0.18644249439239502,0.03542196750640869
1789141117647738600,1.799738525390625,0.23246394097805023,0.14151833951473236,0.02265987917780876
1789141117657710800,1.8097109375,0.22795042395591736,0.13899178802967072,0.017742885276675224
1789141117667683600,1.81968359375,0.17316025495529175,0.1431359350681305,-0.038906071335077286
1789141117677655800,1.82965576171875,0.0918331891298294,0.11976830661296844,-0.020430920645594597
1789141117687627800,1.839627685546875,0.07995804399251938,0.12883254885673523,-0.03893543779850006
1789141117697600500,1.8496005859375,0.045154258608818054,0.12181324511766434,-0.005053372122347355
1789141117707572700,1.85957275390625,0.05014853924512863,0.07298016548156738,0.04366089403629303
1789141117717545700,1.869545654296875,0.03167978674173355,0.08484161645174026,0.04789185896515846
1789141117727517700,1.879517578125,0.008139138109982014,0.06656745821237564,0.06137750670313835
1789141117737489700,1.88948974609375,0.021192088723182678,0.06529340147972107,0.06333014369010925
1789141117747462700,1.899462646484375,-0.009213753044605255,0.0655333548784256,0.051537659019231796
1789141117757434600,1.9094345703125,-0.07686443626880646,0.056240521371364594,0.05903578922152519
1789141117767406600,1.919406494140625,-0.055223289877176285,0.05683615803718567,0.005213284399360418
1789141117777379800,1.9293798828125,-0.04709159582853317,0.08286456018686295,-0.04201361536979675
1789141117787351600,1.9393515625,-0.06589597463607788,0.062310248613357544,0.0034915925934910774
1789141117797324500,1.949324462890625,-0.0078526446595788,0.05541851371526718,-0.030787019059062004
1789141117807296800,1.959296875,-0.002937309443950653,0.06192651763558388,-0.003100250381976366
1789141117817268700,1.969268798828125,-0.0393214151263237,0.07572035491466522,0.04270505532622337
1789141117827241700,1.97924169921875,-0.048784222453832626,0.07933768630027771,0.020666372030973434
1789141117837213700,1.989213623046875,-0.05083885043859482,0.08265279233455658,-0.0003145434311591089
1789141117847185700,1.999185546875,-0.005983511917293072,0.09218592941761017,-0.00812439899891615
1789141117857158700,2.00915869140625,0.043596021831035614,0.09982973337173462,0.005811390466988087
1789141117867131000,2.019130859375,0.025910431519150734,0.08918950706720352,0.01633228175342083
1789141117877103900,2.029103759765625,0.006734341382980347,0.09588655829429626,0.015217749401926994
1789141117887075600,2.03907568359375,0.005508977919816971,0.0910525843501091,0.03204481303691864
1789141117897047800,2.0490478515625,-0.009509919211268425,0.06577705591917038,0.00020885327830910683
1789141117907020800,2.059020751953125,-0.022665582597255707,0.06296131014823914,-0.000015053548850119114
1789141117916992800,2.06899267578125,-0.07235058397054672,0.08909144997596741,-0.017949845641851425
1789141117926965800,2.0789658203125,-0.07682424038648605,0.021559864282608032,-0.009815582074224949
1789141117936937700,2.088937744140625,-0.09118454158306122,-0.010936293751001358,0.018103133887052536
1789141117946909700,2.09890966796875,-0.08211036771535873,-0.052684713155031204,0.03474988788366318
1789141117956882700,2.108882568359375,-0.09174275398254395,-0.06701038777828217,0.052550457417964935
1789141117966855000,2.11885498046875,-0.14931060373783112,-0.056883614510297775,-0.016771016642451286
1789141117976826600,2.12882666015625,-0.19662432372570038,-0.0946754664182663,-0.006316511891782284
1789141117986799600,2.138799560546875,-0.22080181539058685,-0.06808789819478989,-0.061207324266433716
1789141117996771800,2.148771728515625,-0.19406206905841827,-0.09603989869356155,-0.06470885127782822
1789141118006744600,2.15874462890625,-0.1852092742919922,-0.07315999269485474,-0.07672202587127686
1789141118016716800,2.168716796875,-0.12995639443397522,-0.0896361693739891,-0.04112009331583977
1789141118026688800,2.178688720703125,-0.1177712082862854,-0.06881481409072876,0.006716297473758459
1789141118036661500,2.18866162109375,-0.11939200758934021,-0.09407410025596619,0.04393849894404411
1789141118046633700,2.1986337890625,-0.11999565362930298,-0.0883316695690155,0.0798107162117958
1789141118056605700,2.208605712890625,-0.1304139345884323,-0.07740232348442078,0.06070785969495773
1789141118066578700,2.21857861328125,-0.1313902735710144,-0.08028101921081543,0.05607741326093674
1789141118076550700,2.228550537109375,-0.1061437800526619,-0.044002365320920944,0.04027128964662552
1789141118086523600,2.238523681640625,-0.07231127470731735,-0.030671270564198494,0.01493079774081707
1789141118096495600,2.24849560546875,-0.05016469582915306,0.003310132771730423,-0.017188789322972298
1789141118106467800,2.2584677734375,0.01709694042801857,0.044226810336112976,-0.05254003033041954
1789141118116440800,2.26844091796875,0.033081233501434326,0.02631625160574913,-0.008743279613554478
1789141118126412500,2.27841259765625,0.0829647034406662,0.023604322224855423,-0.03384971618652344
1789141118136385800,2.2883857421875,0.08692615479230881,0.06753343343734741,-0.014712773263454437
1789141118146358300,2.298358154296875,0.07676771283149719,0.06708420068025589,0.02577916346490383
1789141118156330200,2.308330322265625,0.07542228698730469,0.08080960065126419,0.024228671565651894
1789141118166303500,2.318303466796875,0.09184776246547699,0.08203296363353729,0.007275711745023727
1789141118176275200,2.328275146484375,0.07256567478179932,0.07421338558197021,0.03574943169951439
1789141118186247400,2.338247314453125,0.04922959581017494,0.07259337604045868,0.015543018467724323
1789141118196220400,2.348220458984375,0.024398814886808395,0.0667184442281723,0.038266442716121674
1789141118206192000,2.358192138671875,0.04866538196802139,0.07067486643791199,0.02952498197555542
1789141118216165400,2.368165283203125,0.06913869827985764,0.04714903235435486,0.01815887726843357
1789141118226137300,2.378137451171875,0.07264164835214615,0.04320881515741348,0.05134046822786331
1789141118236109300,2.388109375,0.048246029764413834,0.03519509732723236,0.05697758123278618
1789141118246082300,2.398082275390625,0.007327625993639231,0.02915850840508938,0.02883542887866497
1789141118256054500,2.408054443359375,-0.00881725549697876,0.04831116646528244,-0.004772333428263664
1789141118266026200,2.418026123046875,-0.009313046000897884,0.021021148189902306,-0.025620415806770325
1789141118275999200,2.427999267578125,-0.030638307332992554,0.01761682890355587,-0.0266883447766304
1789141118285971500,2.437971435546875,-0.05681217834353447,0.004343327600508928,-0.00684269517660141
1789141118295944400,2.4479443359375,-0.03508478030562401,0.0009621777571737766,0.0032229884527623653
1789141118305916400,2.45791650390625,-0.030552268028259277,-0.009175995364785194,0.026591256260871887
1789141118315888400,2.467888427734375,-0.04060916230082512,-0.06814929842948914,0.06931022554636002
1789141118325861400,2.477861328125,-0.07445769011974335,-0.053005144000053406,0.010947714559733868
1789141118335833300,2.487833251953125,-0.11561604589223862,-0.04771530628204346,-0.008648890070617199
1789141118345805300,2.497805419921875,-0.10810856521129608,-0.039496708661317825,-0.03227778151631355
1789141118355778600,2.507778564453125,-0.10767100751399994,-0.03159590810537338,-0.034707117825746536
1789141118365750300,2.517750244140625,-0.09588391333818436,-0.021711023524403572,-0.08333482593297958
1789141118375723300,2.52772314453125,-0.09453422576189041,-0.04469570145010948,-0.08523712307214737
1789141118385695500,2.537695556640625,-0.10483665764331818,-0.0013006492517888546,-0.05467268452048302
1789141118395667200,2.547667236328125,-0.04603671655058861,-0.024802513420581818,-0.032646212726831436
1789141118405640400,2.557640380859375,-0.035141557455062866,-0.0143418088555336,-0.021538637578487396
1789141118415612400,2.5676123046875,-0.05956993252038956,-0.023647692054510117,-0.021046219393610954
1789141118425584400,2.57758447265625,-0.11347508430480957,-0.040082961320877075,0.02339307591319084
1789141118435557400,2.587557373046875,-0.13481447100639343,-0.05702439323067665,0.044405948370695114
1789141118445529300,2.597529296875,-0.13614842295646667,-0.012942709028720856,0.023727409541606903
1789141118455502300,2.60750244140625,-0.12770114839076996,-0.03353240340948105,0.0003251478774473071
1789141118465474300,2.617474365234375,-0.1482163518667221,-0.047289177775382996,0.0468057356774807
1789141118475446300,2.6274462890625,-0.12956996262073517,-0.03896919637918472,0.010826162993907928
1789141118485419300,2.637419189453125,-0.13522402942180634,-0.040180739015340805,-0.03183960169553757
1789141118495391500,2.6473916015625,-0.150363028049469,-0.025966916233301163,-0.06217433512210846
1789141118505363200,2.65736328125,-0.15913325548171997,-0.02698172628879547,-0.028442243114113808
1789141118515336200,2.667336181640625,-0.1624872386455536,-0.015152230858802795,-0.052086587995290756
1789141118525308400,2.677308349609375,-0.15038631856441498,-0.022402284666895866,-0.012322301976382732
1789141118535281400,2.687281494140625,-0.1363794356584549,-0.038152750581502914,-0.016269639134407043
1789141118545253400,2.69725341796875,-0.08606703579425812,-0.05670340359210968,-0.05471033230423927
1789141118555225300,2.707225341796875,-0.15393531322479248,-0.057218991219997406,0.03353723883628845
1789141118565198300,2.7171982421875,-0.20019294321537018,-0.06204942241311073,0.02159344032406807
1789141118575170300,2.72717041015625,-0.18102511763572693,-0.07981990277767181,0.01419331319630146
1789141118585143300,2.737143310546875,-0.18913380801677704,-0.06127772480249405,0.006615341641008854
1789141118595115500,2.747115478515625,-0.13780590891838074,-0.07887350022792816,0.04028329253196716
1789141118605087200,2.757087158203125,-0.13651041686534882,-0.050121184438467026,0.010166497901082039
1789141118615060200,2.767060302734375,-0.13875733315944672,-0.06636327505111694,0.007338752970099449
1789141118625032400,2.777032470703125,-0.10958775877952576,-0.08237328380346298,0.007362475618720055
1789141118635004200,2.787004150390625,-0.08615806698799133,-0.07345729321241379,0.010862135328352451
1789141118644977400,2.796977294921875,-0.12385586649179459,-0.0862286239862442,-0.003360267961397767
1789141118654949400,2.806949462890625,-0.1166996881365776,-0.1171596422791481,0.0034254665952175856
1789141118664922000,2.816922119140625,-0.10170458257198334,-0.0886903628706932,-0.03941366821527481
1789141118674894300,2.826894287109375,-0.10819204896688461,-0.09881037473678589,-0.022181417793035507
1789141118684866300,2.8368662109375,-0.10253358632326126,-0.09179440885782242,0.020840445533394814
1789141118694839300,2.84683935546875,-0.042328570038080215,-0.09439285844564438,-0.020058251917362213
1789141118704811300,2.856811279296875,-0.025179073214530945,-0.08739250898361206,0.009960882365703583
1789141118714783500,2.866783447265625,0.004007305949926376,-0.07868343591690063,0.01054118387401104
1789141118724756200,2.876756103515625,-0.0006688591092824936,-0.02521226927638054,-0.00274416571483016
1789141118734728400,2.886728515625,0.02654172293841839,-0.018313884735107422,0.018856998533010483
1789141118744701400,2.896701416015625,0.05866134166717529,-0.0029259859584271908,0.07049860060214996
1789141118754673200,2.906673095703125,0.10728693008422852,0.025211641564965248,0.018509704619646072
1789141118764645400,2.916645263671875,0.14592039585113525,0.013988610357046127,0.014885790646076202
1789141118774618400,2.926618408203125,0.11846347153186798,0.024208756163716316,0.039022549986839294
1789141118784590300,2.93659033203125,0.12916508316993713,0.03496431186795235,0.02925249934196472
1789141118794562300,2.946562255859375,0.09345342218875885,0.05518755689263344,-0.015540538355708122
1789141118804535300,2.956535400390625,0.08210892975330353,0.015803800895810127,0.010550541803240776
1789141118814507300,2.96650732421875,0.09248567372560501,0.02720639295876026,-0.036323755979537964
1789141118824480300,2.976480224609375,0.10270528495311737,-0.0049262442626059055,-0.011331853456795216
1789141118834452500,2.986452392578125,0.06836036592721939,-0.013411341235041618,0.02639262191951275
1789141118844424200,2.996424072265625,0.040411576628685,-0.0334988608956337,0.012697982601821423
1789141118854397200,3.006397216796875,-0.031089507043361664,-0.05788009986281395,0.049744151532649994
1789141118864369400,3.016369384765625,-0.057460758835077286,-0.09840873628854752,0.02147500030696392
1789141118874341400,3.02634130859375,-0.06612162292003632,-0.08550412207841873,0.00917039718478918
1789141118884314400,3.036314453125,-0.08238820731639862,-0.08608655631542206,0.014514828100800514
1789141118894286300,3.046286376953125,-0.06971848756074905,-0.10601925104856491,0.017149226740002632
1789141118904259300,3.05625927734375,-0.030046209692955017,-0.07317250967025757,-0.01951209455728531
1789141118914231300,3.066231201171875,-0.06714430451393127,-0.06497050821781158,0.010314775630831718
1789141118924203500,3.07620361328125,-0.0423026978969574,-0.06384845077991486,-0.023724623024463654
1789141118934176500,3.086176513671875,0.00286983884871006,-0.059441182762384415,0.005452435929328203
1789141118944148200,3.096148193359375,-0.0008830465376377106,-0.04144234210252762,0.027389252558350563
1789141118954121500,3.10612158203125,-0.0002244468778371811,-0.05184837803244591,0.05433911457657814
1789141118964093400,3.116093505859375,0.03963720425963402,-0.02384803630411625,0.01927572675049305
1789141118974065400,3.1260654296875,0.07933428138494492,-0.02163042314350605,0.04172511026263237
1789141118984038400,3.136038330078125,0.08383146673440933,0.025596244260668755,-0.027722278609871864
1789141118994010400,3.14601025390625,0.06016528606414795,0.03156198933720589,-0.0324440598487854
1789141119003982300,3.155982421875,0.0733448788523674,0.03395422548055649,-0.036483731120824814
1789141119013955300,3.165955322265625,0.11462894082069397,0.03865204378962517,-0.035056278109550476
1789141119023927600,3.175927490234375,0.14716975390911102,0.07021941244602203,-0.004583706147968769
1789141119033900300,3.185900390625,0.1811239868402481,0.08042411506175995,-0.014086663722991943
1789141119043872300,3.195872314453125,0.18333441019058228,0.057154230773448944,0.01820378378033638
1789141119053844500,3.205844482421875,0.1541815847158432,0.05839020013809204,0.04396587237715721
1789141119063817200,3.215817138671875,0.10055041313171387,0.047561630606651306,0.022978639230132103
1789141119073789400,3.22578955078125,0.1102597713470459,0.02302086353302002,0.0003462982131168246
1789141119083761400,3.235761474609375,0.15599685907363892,0.04362054914236069,-0.031986430287361145
1789141119093734100,3.245734130859375,0.19343610107898712,0.05748629570007324,-0.0770266130566597
1789141119103706400,3.255706298828125,0.17764577269554138,0.06166632100939751,-0.08664121478796005
1789141119113679400,3.265679443359375,0.13084419071674347,0.03525868430733681,-0.06805980950593948
1789141119123651300,3.2756513671875,0.12629884481430054,0.020049290731549263,-0.06606368720531464
1789141119133623300,3.285623291015625,0.15391768515110016,0.03158610314130783,-0.030147498473525047
1789141119143596300,3.29559619140625,0.11967401206493378,0.01542404480278492,-0.05486766993999481
1789141119153568000,3.305568115234375,0.09390899538993835,-0.031838275492191315,-0.05600617080926895
1789141119163540200,3.315540283203125,0.062062568962574005,0.010696984827518463,-0.08733915537595749
1789141119173513200,3.32551318359375,0.050931889563798904,-0.006433000788092613,-0.0744614452123642
1789141119183485000,3.33548486328125,0.05818633735179901,-0.0035048548597842455,-0.09817556291818619
1789141119193458200,3.345458251953125,0.11252468079328537,-0.054091066122055054,-0.011903253383934498
1789141119203430100,3.35543017578125,0.11830145120620728,-0.012367290444672108,-0.008903366513550282
1789141119213402000,3.365402099609375,0.10880834609270096,-0.06212259829044342,0.03339775279164314
1789141119223375000,3.375375,0.017178406938910484,-0.04038097709417343,0.059696540236473083
1789141119233347000,3.38534716796875,0.009935673326253891,-0.037949249148368835,0.050073739141225815
1789141119243319000,3.395319091796875,-0.0032888958230614662,-0.00469971215352416,0.020388981327414513
1789141119253292000,3.4052919921875,0.010753685608506203,-0.009399659000337124,0.011464463546872139
1789141119263264300,3.41526416015625,0.005062618758529425,0.005647037643939257,0.011959354393184185
1789141119273237000,3.425237060546875,0.06491290032863617,0.005747971590608358,-0.031335655599832535
1789141119283209000,3.435208984375,0.10082148015499115,0.04146479442715645,-0.04116823524236679
1789141119293181200,3.44518115234375,0.12764349579811096,0.043597184121608734,-0.02299189567565918
1789141119303154000,3.45515380859375,0.15285131335258484,0.0529661662876606,0.0058822911232709885
1789141119313126100,3.465126220703125,0.13512185215950012,0.07116327434778214,0.004538992419838905
1789141119323098000,3.47509814453125,0.1274556666612625,0.08963292092084885,0.007624395191669464
1789141119333071000,3.485071044921875,0.09866955131292343,0.09613636136054993,0.03751491755247116
1789141119343043000,3.49504296875,0.08983702212572098,0.0823197215795517,0.04658332094550133
1789141119353016000,3.50501611328125,0.1352713406085968,0.070613794028759,0.045844294130802155
1789141119362988000,3.514988037109375,0.1316511183977127,0.10349792242050171,0.04365420714020729
1789141119372960000,3.5249599609375,0.0955706238746643,0.0778367668390274,0.0637751892209053
1789141119382933200,3.534933349609375,0.0849461629986763,0.10613996535539627,0.03406549617648125
1789141119392905000,3.544905029296875,0.06110687553882599,0.1095924898982048,0.008247479796409607
1789141119402877200,3.554877197265625,0.0634024366736412,0.09108226001262665,-0.010936545208096504
1789141119412850200,3.56485009765625,0.08006557077169418,0.09745147824287415,0.025632917881011963
1789141119422822000,3.57482177734375,0.07629267126321793,0.08855836093425751,0.08086326718330383
1789141119432795100,3.584795166015625,0.08508163690567017,0.08075929433107376,0.05645379424095154
1789141119442767000,3.59476708984375,0.039733801037073135,0.07360495626926422,0.09560032188892365
1789141119452739000,3.604739013671875,0.00026229023933410645,0.07342492043972015,0.10564257204532623
1789141119462712000,3.614712158203125,0.034482233226299286,0.046981386840343475,0.08643841743469238
1789141119472684000,3.62468408203125,0.025401122868061066,0.06441710144281387,0.04360440373420715
1789141119482656000,3.634656005859375,0.0018058586865663528,0.05782785639166832,-0.030157871544361115
1789141119492629000,3.64462890625,-0.03574018552899361,0.036193400621414185,0.013647399842739105
1789141119502601200,3.654601318359375,0.009570618160068989,0.05306565389037132,-0.02124282345175743
1789141119512574200,3.66457421875,0.01857636496424675,0.07577203214168549,-0.025253811851143837
1789141119522546200,3.674546142578125,-0.04553171247243881,0.07064839452505112,0.012255288660526276
1789141119532518100,3.68451806640625,-0.03842426836490631,0.05775550380349159,0.016475334763526917
1789141119542491100,3.6944912109375,-0.058591943234205246,0.05251020938158035,0.008718402124941349
1789141119552463000,3.704463134765625,-0.03500752151012421,0.03418153524398804,0.013557897880673409
1789141119562435000,3.71443505859375,-0.06626828759908676,0.04031180590391159,0.0036556182894855738
1789141119572408300,3.724408203125,-0.07685515284538269,0.007405256386846304,-0.017010511830449104
1789141119582380000,3.734380126953125,-0.10914963483810425,0.008897393941879272,0.019704874604940414
1789141119592353000,3.74435302734375,-0.12950816750526428,0.002348946873098612,0.0151109229773283
1789141119602325200,3.7543251953125,-0.10431628674268723,-0.04237821698188782,0.022273357957601547
1789141119612297000,3.764296875,-0.11498916894197464,-0.002141582779586315,-0.028453469276428223
1789141119622270200,3.774270263671875,-0.11778783798217773,0.00109395245090127,0.002008149866014719
1789141119632242200,3.7842421875,-0.13408026099205017,0.011824095621705055,-0.018802057951688766
1789141119642214100,3.794214111328125,-0.15898922085762024,-0.007516835350543261,0.006230803206562996
1789141119652187100,3.804187255859375,-0.12857405841350555,0.02722516469657421,-0.06717097014188766
1789141119662159000,3.8141591796875,-0.10082962363958359,0.01419590599834919,-0.0535869374871254
1789141119672132000,3.824132080078125,-0.10326162725687027,0.01262863539159298,-0.03945886716246605
1789141119682104000,3.83410400390625,-0.08540477603673935,-0.009392313659191132,-0.029413213953375816
1789141119692076300,3.844076171875,-0.0994364395737648,-0.01552663929760456,-0.00264205364510417
1789141119702049000,3.854049072265625,-0.1290726363658905,-0.03825725242495537,-0.00717315636575222
1789141119712021000,3.86402099609375,-0.16759419441223145,-0.060312218964099884,-0.001833784393966198
1789141119721993200,3.8739931640625,-0.19023308157920837,-0.09680495411157608,-0.023085711523890495
1789141119731966000,3.883966064453125,-0.2523404061794281,-0.11008960008621216,-0.009054047986865044
1789141119741938200,3.893938232421875,-0.27461785078048706,-0.12288014590740204,-0.012757519260048866
1789141119751911200,3.9039111328125,-0.2838401198387146,-0.14206290245056152,-0.01862579584121704
1789141119761883100,3.913883056640625,-0.26258909702301025,-0.15961746871471405,-0.030336182564496994
1789141119771855000,3.923855224609375,-0.2798902988433838,-0.15423496067523956,-0.007362689822912216
1789141119781828000,3.933828125,-0.2506285607814789,-0.15437662601470947,-0.03174325078725815
1789141119791800000,3.943800048828125,-0.2602292597293854,-0.11853979527950287,-0.04427289217710495
1789141119801772000,3.95377197265625,-0.2533770203590393,-0.13877922296524048,0.04524373263120651
1789141119811745300,3.963745361328125,-0.21313081681728363,-0.10380285978317261,-0.005716388113796711
1789141119821717000,3.973717041015625,-0.17288486659526825,-0.09633134305477142,-0.04205506294965744
1789141119831690000,3.98368994140625,-0.09214261174201965,-0.07868177443742752,0.0013099848292768002
1789141119841662200,3.993662109375,-0.1325044184923172,-0.020588910207152367,-0.00184958940371871
1789141119851634000,4.003634033203125,-0.0909268856048584,-0.059507016092538834,-0.03796365112066269
1789141119861607200,4.013607177734375,-0.07575049251317978,-0.0006091652903705835,-0.02086130902171135
1789141119871579100,4.0235791015625,-0.06284108757972717,0.02074885368347168,-0.0034559525083750486
1789141119881551000,4.033551025390625,-0.03273075446486473,0.009531739167869091,0.022654438391327858
1789141119891524000,4.043524169921875,-0.04718213155865669,0.019587568938732147,-0.011506727896630764
1789141119901496000,4.05349609375,-0.07840916514396667,0.009415369480848312,0.01374051533639431
1789141119911469000,4.063468994140625,-0.05791347473859787,0.01871858909726143,0.013962356373667717
1789141119921441000,4.07344091796875,-0.05240725353360176,0.0075362324714660645,0.05956665053963661
1789141119931413200,4.083413330078125,-0.05458598583936691,-0.015677478164434433,0.016568316146731377
1789141119941386000,4.093385986328125,-0.003819420002400875,-0.036344628781080246,0.0023131766356527805
1789141119951358000,4.10335791015625,-0.05333477631211281,-0.003626630175858736,0.04499885439872742
1789141119961330200,4.113330078125,-0.06385735422372818,-0.046211522072553635,0.09435438364744186
1789141119971303000,4.123302978515625,-0.03881112486124039,-0.04901476204395294,0.024008579552173615
1789141119981275100,4.133275146484375,-0.05307706445455551,-0.08748339861631393,0.04023117199540138
1789141119991248100,4.143248046875,-0.08355587720870972,-0.06788173317909241,-0.016804954037070274
1789141120001220000,4.15322021484375,-0.044000476598739624,-0.09762871265411377,-0.021569615229964256
1789141120011192000,4.163192138671875,-0.07928043603897095,-0.07645311951637268,-0.030163370072841644
1789141120021165000,4.1731650390625,-0.06857426464557648,-0.09682469815015793,-0.025946253910660744
1789141120031137000,4.183136962890625,-0.09111925214529037,-0.09912886470556259,-0.02779368869960308
1789141120041109000,4.19310888671875,-0.11650926619768143,-0.10344303399324417,-0.00047952658496797085
1789141120051082200,4.203082275390625,-0.06445538997650146,-0.095965676009655,-0.0015586394583806396
1789141120061054000,4.213053955078125,-0.005840734578669071,-0.12585893273353577,0.028677508234977722
1789141120071026200,4.223026123046875,-0.014454462565481663,-0.13436347246170044,0.029416803270578384
1789141120080999200,4.232999267578125,-0.018522612750530243,-0.13195902109146118,0.06490181386470795
1789141120090971000,4.242970947265625,-0.011293195188045502,-0.09601298719644547,0.027818899601697922
1789141120100944100,4.252944091796875,-0.013159871101379395,-0.13171318173408508,0.050625547766685486
1789141120110916000,4.262916015625,0.024068724364042282,-0.10121919214725494,0.01928653195500374
1789141120120888000,4.27288818359375,0.06060735881328583,-0.08910368382930756,0.0032594939693808556
1789141120130861000,4.282861083984375,0.052401892840862274,-0.08527166396379471,-0.009782271459698677
1789141120140833000,4.2928330078125,0.0739838182926178,-0.09133860468864441,-0.012125597335398197
1789141120150805500,4.302805419921875,0.05653718113899231,-0.057625118643045425,-0.028448110446333885
1789141120160778500,4.312778564453125,0.052801210433244705,-0.0855163037776947,-0.039678044617176056
1789141120170750700,4.322750732421875,0.06426692008972168,-0.06497561186552048,0.02150169014930725
1789141120180723700,4.3327236328125,0.07634090632200241,-0.04763846471905708,0.020231060683727264
1789141120190695400,4.3426953125,0.07082124054431915,-0.04997379332780838,0.01617080345749855
1789141120200667600,4.352667724609375,0.09041523933410645,-0.05775982886552811,0.05507306382060051
1789141120210640600,4.362640625,0.09645423293113708,-0.01698043942451477,-0.0017569317715242505
1789141120220612600,4.372612548828125,0.09784194827079773,-0.012084545567631721,-0.03546654060482979
1789141120230584600,4.38258447265625,0.10282871872186661,0.007074767258018255,-0.025410709902644157
1789141120240557600,4.3925576171875,0.12200207263231277,0.030270420014858246,-0.03413718566298485
1789141120250529500,4.402529541015625,0.17561790347099304,0.02908291667699814,-0.03671912103891373
1789141120260502500,4.41250244140625,0.1863606721162796,0.025679748505353928,-0.016616856679320335
1789141120270474800,4.422474853515625,0.180636465549469,0.013353840447962284,-0.010091579519212246
1789141120280446500,4.432446533203125,0.15890425443649292,0.02427903562784195,-0.023914964869618416
1789141120290419500,4.44241943359375,0.14924202859401703,-0.008772123605012894,-0.004023016430437565
1789141120300391700,4.4523916015625,0.1137268915772438,-0.007754684425890446,0.021273037418723106
1789141120310363600,4.46236376953125,0.1223379522562027,0.004903852473944426,-0.04411235824227333
1789141120320336600,4.472336669921875,0.10826415568590164,-0.019754132255911827,-0.029673729091882706
1789141120330308600,4.48230859375,0.10793978720903397,-0.020959213376045227,-0.061684656888246536
1789141120340281600,4.492281494140625,0.1180955097079277,-0.036316707730293274,-0.05654317885637283
1789141120350253600,4.502253662109375,0.11526616662740707,-0.027282467111945152,-0.06411587446928024
1789141120360225800,4.512225830078125,0.10421602427959442,-0.028938068076968193,-0.02860083244740963
1789141120370198500,4.522198486328125,0.13587674498558044,-0.033448927104473114,-0.0002035460784099996
1789141120380170500,4.53217041015625,0.13844136893749237,-0.025237321853637695,0.01563601940870285
1789141120390142700,4.542142822265625,0.1285269558429718,-0.030755657702684402,0.030208036303520203
1789141120400115500,4.552115478515625,0.10379773378372192,-0.02828199416399002,0.05560150742530823
1789141120410087700,4.562087646484375,0.09804663807153702,0.0039523751474916935,0.055474743247032166
1789141120420060700,4.572060791015625,0.1285099983215332,0.043136339634656906,0.04337678104639053
1789141120430032400,4.582032470703125,0.16511966288089752,0.0613880455493927,0.01345510222017765
1789141120440004600,4.592004638671875,0.1910267323255539,0.040479954332113266,-0.0020956681109964848
1789141120449977600,4.6019775390625,0.2157142460346222,0.05707278102636337,-0.001923894276842475
1789141120459949600,4.611949462890625,0.21849937736988068,0.1100270003080368,0.004105791915208101
1789141120469921500,4.621921630859375,0.2332783341407776,0.09591518342494965,0.05258997157216072
1789141120479894500,4.63189453125,0.24457001686096191,0.0830080658197403,0.018677202984690666
1789141120489866500,4.641866455078125,0.1863868683576584,0.08672796934843063,0.05226099491119385
1789141120499839500,4.651839599609375,0.18106579780578613,0.0744495615363121,0.037145812064409256
1789141120509811700,4.661811767578125,0.14057029783725739,0.07133632898330688,0.04257519543170929
1789141120519783400,4.671783447265625,0.10846546292304993,0.045480623841285706,0.04030122980475426
1789141120529756700,4.681756591796875,0.10989371687173843,0.01619970239698887,0.010031739249825478
1789141120539728600,4.691728759765625,0.10761935263872147,-0.01732972264289856,0.013534106314182281
1789141120549700600,4.70170068359375,0.0721425861120224,-0.011899803765118122,0.019210100173950195
1789141120559673600,4.711673583984375,0.028670132160186768,-0.035709138959646225,-0.009111138992011547
1789141120569645600,4.7216455078125,-0.05142657086253166,-0.04978314787149429,0.019621971994638443
1789141120579618800,4.731618896484375,-0.0705881267786026,-0.03529723361134529,-0.033661678433418274
1789141120589590500,4.741590576171875,-0.05369383469223976,-0.06364631652832031,0.007695882581174374
1789141120599562800,4.751562744140625,-0.021869366988539696,-0.028040744364261627,0.03387327492237091
1789141120609535700,4.76153564453125,0.0178732518106699,-0.06063437461853027,0.05908249318599701
1789141120619507500,4.771507568359375,0.052058275789022446,-0.040226925164461136,0.0064963167533278465
1789141120629479700,4.781479736328125,0.05678139254450798,-0.02166682481765747,0.025935262441635132
1789141120639452700,4.79145263671875,0.01718664914369583,0.019811611622571945,0.042758699506521225
1789141120649424600,4.801424560546875,0.02609172649681568,0.015771862119436264,0.004408115055412054
1789141120659396600,4.811396728515625,0.025453859940171242,0.06828638911247253,-0.023681310936808586
1789141120669369600,4.82136962890625,0.00980406068265438,0.0898531973361969,-0.050391484051942825
1789141120679341600,4.831341552734375,0.07414424419403076,0.0817483514547348,-0.048291489481925964
1789141120689314600,4.841314453125,0.09997264295816422,0.11476542055606842,-0.06311517208814621
1789141120699286800,4.851286865234375,0.1277393102645874,0.1156388446688652,-0.05658257380127907
1789141120709258500,4.861258544921875,0.10418499261140823,0.11502312123775482,0.0074560632929205894
1789141120719231500,4.8712314453125,0.09672092646360397,0.07915894687175751,0.0021587549708783627
1789141120729203700,4.88120361328125,0.0825052410364151,0.057302117347717285,-0.004845092073082924
1789141120739175700,4.89117578125,0.026869243010878563,0.02794542722404003,0.045185960829257965
1789141120749148700,4.901148681640625,-0.034812234342098236,0.011672450229525566,0.06256388127803802
1789141120759120600,4.91112060546875,-0.06832285970449448,-0.01771070621907711,0.01980365812778473
1789141120769093600,4.92109375,-0.0972096398472786,-0.04748751223087311,-0.0014105499722063541
1789141120779065600,4.931065673828125,-0.09006857872009277,-0.04973869398236275,-0.0652778148651123
1789141120789037800,4.941037841796875,-0.0911780521273613,-0.06051810458302498,-0.0920361876487732
1789141120799010600,4.951010498046875,-0.03367694467306137,-0.04911011457443237,-0.1306571066379547
1789141120808982500,4.960982421875,-0.04449896886944771,-0.04846722632646561,-0.08349252492189407
1789141120818954800,4.970954833984375,-0.010979622602462769,-0.07955669611692429,-0.036011822521686554
1789141120828927500,4.980927490234375,0.01235339604318142,-0.030420582741498947,0.0018524681217968464
1789141120838899700,4.990899658203125,0.012760220095515251,-0.025499163195490837,0.049413252621889114
1789141120848872700,5.000872802734375,-0.018436050042510033,-0.018909437581896782,0.07573513686656952
1789141120858844400,5.010844482421875,-0.019716210663318634,-0.0019987246487289667,0.043491579592227936
1789141120868816600,5.020816650390625,-0.014166182838380337,0.01643834076821804,-0.014996495097875595
1789141120878789600,5.03078955078125,0.01928778551518917,0.04089600220322609,-0.07157103717327118
1789141120888761600,5.04076171875,0.07393984496593475,0.05331139266490936,-0.045605745166540146
1789141120898733600,5.050733642578125,0.12194401770830154,0.0850290060043335,-0.0563436858355999
1789141120908706600,5.06070654296875,0.17173314094543457,0.12989766895771027,-0.06866534054279327
1789141120918678500,5.070678466796875,0.1783905178308487,0.1490900069475174,-0.06923753023147583
1789141120928651500,5.080651611328125,0.2142515778541565,0.1335989236831665,-0.028652025386691093
1789141120938623700,5.090623779296875,0.229429230093956,0.16904999315738678,-0.017134549096226692
1789141120948595500,5.100595458984375,0.17766056954860687,0.1630975753068924,0.000927808927372098
1789141120958568400,5.110568359375,0.20838138461112976,0.16643884778022766,0.003552138339728117
1789141120968540700,5.120540771484375,0.22871169447898865,0.19934086501598358,0.0561935119330883
1789141120978512600,5.1305126953125,0.21661561727523804,0.21359597146511078,0.005010901018977165
1789141120988485600,5.140485595703125,0.2381286323070526,0.16932465136051178,0.015878727659583092
1789141120998457600,5.15045751953125,0.19476190209388733,0.17754881083965302,0.005137572064995766
1789141121008429600,5.1604296875,0.1482607126235962,0.1470223218202591,0.016665596514940262
1789141121018402600,5.170402587890625,0.16186405718326569,0.13627652823925018,-0.025146659463644028
1789141121028374800,5.180374755859375,0.17971016466617584,0.128128319978714,-0.02166670560836792
1789141121038347500,5.190347412109375,0.1394592672586441,0.13587872684001923,-0.043046366423368454
1789141121048319500,5.200319580078125,0.12670192122459412,0.11977220326662064,0.016290724277496338
1789141121058291700,5.210291748046875,0.09228365123271942,0.13828401267528534,0.029469182714819908
1789141121068264400,5.220264404296875,0.06285704672336578,0.12094603478908539,0.037819527089595795
1789141121078236700,5.230236572265625,0.07524338364601135,0.10291095823049545,0.01641038991510868
1789141121088208600,5.240208740234375,0.06779984384775162,0.13787318766117096,-0.004334568977355957
1789141121098181400,5.250181396484375,0.08821278065443039,0.11587172746658325,0.040357254445552826
1789141121108153600,5.260153564453125,0.10793241858482361,0.08249619603157043,0.09478560835123062
1789141121118126600,5.270126708984375,0.07146616280078888,0.08808455616235733,0.034647487103939056
1789141121128098600,5.2800986328125,0.015430323779582977,0.0960673838853836,0.04831909388303757
1789141121138070500,5.290070556640625,-0.012222282588481903,0.09806184470653534,0.03374407812952995
1789141121148043000,5.30004296875,-0.04343372955918312,0.09912125021219254,-0.01483490876853466
1789141121158014700,5.3100146484375,-0.04140977934002876,0.09448544681072235,-0.0119734276086092
1789141121167987000,5.319987060546875,0.01595311239361763,0.08035071939229965,-0.029093824326992035
1789141121177960000,5.3299599609375,-0.00970591139048338,0.09234320372343063,-0.03141583502292633
1789141121187932000,5.339931884765625,-0.03223361819982529,0.06837671250104904,0.019670654088258743
1789141121197905000,5.34990478515625,-0.06544268876314163,0.06721549481153488,0.05965323746204376
1789141121207876900,5.359876953125,-0.10429447889328003,0.04800372198224068,0.04202231764793396
1789141121217848800,5.369848876953125,-0.11711955815553665,0.051469702273607254,0.03969874605536461
1789141121227821800,5.37982177734375,-0.10421281307935715,0.03580845147371292,0.06005221977829933
1789141121237794000,5.3897939453125,-0.08048554509878159,0.02661772258579731,0.03639037534594536
1789141121247765800,5.399765869140625,-0.12006144970655441,0.030962936580181122,0.049133069813251495
1789141121257738800,5.40973876953125,-0.1382235884666443,0.010389149188995361,0.06020617112517357
1789141121267711000,5.4197109375,-0.1347188651561737,0.012323403730988503,0.018415585160255432
1789141121277684000,5.42968408203125,-0.11609896272420883,0.01697133108973503,0.013944207690656185
1789141121287656000,5.439656005859375,-0.10742823779582977,0.03903402015566826,-0.015544441528618336
1789141121297628000,5.4496279296875,-0.06920678913593292,0.016315283253788948,0.012505549937486649
1789141121307601000,5.459600830078125,-0.07889483869075775,0.024739127606153488,-0.009299879893660545
1789141121317572900,5.46957275390625,-0.09074049443006516,0.05636995658278465,-0.021751809865236282
1789141121327544800,5.479544921875,-0.07239744067192078,0.0607609748840332,0.03189277648925781
1789141121337518000,5.48951806640625,-0.06468698382377625,0.06650108844041824,0.016924962401390076
1789141121347489800,5.49948974609375,-0.03428273648023605,0.0368899367749691,0.015182722359895706
1789141121357462000,5.5094619140625,-0.022037867456674576,0.02805338054895401,0.019413085654377937
1789141121367435000,5.51943505859375,-0.04719541594386101,0.029408395290374756,0.014783712103962898
1789141121377406700,5.52940673828125,-0.06960642337799072,0.04173499345779419,-0.025824451819062233
1789141121387380000,5.5393798828125,-0.08999398350715637,0.036102939397096634,-0.04270516335964203
1789141121397352000,5.54935205078125,-0.09950469434261322,0.010031502693891525,-0.033299125730991364
1789141121407324000,5.559323974609375,-0.10087169706821442,0.004497187677770853,-0.07330886274576187
1789141121417297000,5.569296875,-0.08303392678499222,-0.00973282940685749,-0.07163728773593903
1789141121427268900,5.579268798828125,-0.0878494530916214,-0.022341297939419746,-0.027354514226317406
1789141121437240800,5.58924072265625,-0.11405482143163681,-0.04014187678694725,-0.010977346450090408
1789141121447213800,5.5992138671875,-0.08768579363822937,-0.03891948610544205,-0.013866609893739223
1789141121457186000,5.60918603515625,-0.13196775317192078,-0.030406519770622253,0.012344351969659328
1789141121467158800,5.61915869140625,-0.1306082159280777,-0.0791759192943573,0.02346677891910076
1789141121477131000,5.629131103515625,-0.13648630678653717,-0.056402355432510376,0.029511358588933945
1789141121487103000,5.63910302734375,-0.15780037641525269,-0.05376342684030533,0.03465631604194641
1789141121497075700,5.64907568359375,-0.14800050854682922,-0.09172049164772034,0.01057293452322483
1789141121507048000,5.6590478515625,-0.08976303786039352,-0.06836536526679993,0.0011794334277510643
1789141121517020000,5.66902001953125,-0.06985276192426682,-0.04863644763827324,-0.0035250051878392696
1789141121526993000,5.678992919921875,-0.06090986728668213,-0.06636271625757217,0.0009917160496115685
1789141121536964900,5.68896484375,-0.11074113845825195,-0.015419712290167809,0.021500196307897568
1789141121546937900,5.698937744140625,-0.0982959121465683,-0.03431643918156624,-0.001490873983129859
1789141121556909800,5.708909912109375,-0.09592119604349136,-0.019741378724575043,0.002828789409250021
1789141121566881800,5.7188818359375,-0.06687649339437485,0.004362624138593674,0.011603105813264847
1789141121576855000,5.72885498046875,-0.047662001103162766,-0.006226311903446913,0.023128580302000046
1789141121586826800,5.73882666015625,-0.02242428995668888,-0.0213802307844162,0.02190166339278221
1789141121596799000,5.748799072265625,-0.0394461490213871,0.01875120960175991,0.01482004951685667
1789141121606772000,5.75877197265625,-0.00554011482745409,0.022341949865221977,-0.006407474167644978
1789141121616743700,5.76874365234375,-0.0037208031862974167,0.013546445406973362,-0.010572699829936028
1789141121626716000,5.7787158203125,-0.0343005508184433,0.01389318984001875,0.029878852888941765
1789141121636689000,5.78868896484375,0.008849180303514004,0.006898138672113419,0.028708068653941154
1789141121646660900,5.798660888671875,0.008681400679051876,-0.00039279693737626076,0.04263560101389885
1789141121656633900,5.8086337890625,-0.0037809107452630997,-0.008415911346673965,0.0799504891037941
1789141121666605800,5.818605712890625,-0.00019869301468133926,0.0010020919144153595,0.04631556570529938
1789141121676577800,5.828577880859375,0.003432607278227806,-0.004300580359995365,-0.00030404177960008383
1789141121686550800,5.83855078125,-0.007287947461009026,0.008796580135822296,-0.004209035076200962
1789141121696523000,5.84852294921875,0.013194333761930466,0.02070232667028904,-0.05238062143325806
1789141121706494700,5.85849462890625,0.024251246824860573,0.023916495963931084,-0.07003843784332275
1789141121716468000,5.868468017578125,0.06534204632043839,0.018311254680156708,-0.0021858313120901585
1789141121726440000,5.87843994140625,0.10666072368621826,-0.0017047971487045288,0.019702687859535217
1789141121736413000,5.888412841796875,0.0729331523180008,0.009852678515017033,0.03882603347301483
1789141121746385000,5.898385009765625,0.03708859533071518,-0.0179390050470829,0.05301348865032196
1789141121756356900,5.90835693359375,-0.03329329192638397,-0.011797466315329075,0.0485629066824913
1789141121766329900,5.918329833984375,-0.05199240893125534,-0.022001100704073906,0.009621631354093552
1789141121776301800,5.9283017578125,-0.07410852611064911,0.006386152934283018,-0.005638619884848595
1789141121786274000,5.938274169921875,-0.06621304899454117,0.00744635658338666,-0.0027695964090526104
1789141121796246800,5.948246826171875,-0.0326724536716938,0.001654722262173891,-0.017305240035057068
1789141121806218800,5.95821875,0.053960174322128296,-0.012770822271704674,-0.03469754755496979
1789141121816192000,5.96819189453125,0.04931037873029709,0.021695755422115326,-0.04582706838846207
1789141121826163700,5.978163818359375,0.034485891461372375,0.018521800637245178,-0.001769330119714141
1789141121836136000,5.988135986328125,0.05390408635139465,0.0026442208327353,0.03469042479991913
1789141121846109000,5.99810888671875,0.0015838895924389362,0.07359935343265533,0.009918764233589172
1789141121856081000,6.008080810546875,0.0131452064961195,0.03486737608909607,0.03179819881916046
1789141121866052900,6.018052978515625,-0.0015743505209684372,0.054090339690446854,0.02969031035900116
1789141121876025900,6.02802587890625,-0.006842589937150478,0.028146538883447647,0.03440544754266739
1789141121885997800,6.037997802734375,-0.017091233283281326,0.0662907287478447,-0.04131142050027847
1789141121895969800,6.0479697265625,0.006244558375328779,0.04990333691239357,-0.05699842795729637
1789141121905943000,6.057943115234375,-0.005080267786979675,0.05349540710449219,-0.033249955624341965
1789141121915914800,6.067914794921875,-0.013812638819217682,0.05235876142978668,-0.04869543015956879
1789141121925887700,6.0778876953125,0.0013838917948305607,0.03292887285351753,-0.007213767617940903
1789141121935860000,6.08785986328125,0.04289349913597107,0.059096597135066986,0.0059835659340023994
1789141121945831700,6.097831787109375,0.015913547948002815,0.06103990226984024,0.049553148448467255
1789141121955805000,6.107804931640625,0.01614171452820301,0.026394076645374298,0.04234478622674942
1789141121965777000,6.11777685546875,0.006384424865245819,0.04019750654697418,-0.0012024251045659184
1789141121975748900,6.127748779296875,-0.028227508068084717,0.02762109786272049,-0.010353236459195614
1789141121985721900,6.137721923828125,-0.04274839162826538,0.03061874955892563,-0.017568007111549377
1789141121995693800,6.14769384765625,-0.005369782447814941,0.05167469009757042,-0.053239647299051285
1789141122005667000,6.1576669921875,-0.023000972345471382,0.015602437779307365,0.015126624144613743
1789141122015638800,6.167638671875,-0.01975296437740326,0.024571102112531662,-0.014741364866495132
1789141122025611000,6.177611083984375,-0.03443976119160652,0.01992841251194477,0.032055698335170746
1789141122035584000,6.187583984375,-0.05264291167259216,-0.004273149650543928,0.05009494721889496
1789141122045555700,6.1975556640625,-0.07520734518766403,-0.0020608617924153805,0.027984853833913803
1789141122055528000,6.20752783203125,-0.04045144468545914,-0.0030805105343461037,0.015121782198548317
1789141122065501000,6.2175009765625,-0.04769178107380867,-0.04561678320169449,0.0006608174880966544
1789141122075473000,6.227472900390625,-0.05456651747226715,-0.061155326664447784,-0.026630040258169174
1789141122085446000,6.23744580078125,-0.08089159429073334,-0.0347660630941391,-0.018802477046847343
1789141122095417900,6.24741796875,-0.08583292365074158,0.009115522727370262,-0.07406409084796906
1789141122105389800,6.257389892578125,-0.092094287276268,-0.012106409296393394,-0.012351194396615028
1789141122115362800,6.26736279296875,-0.07751619815826416,0.008742636069655418,-0.026004387065768242
1789141122125335000,6.2773349609375,-0.06848408281803131,0.0055665504187345505,-0.040889326483011246
1789141122135306800,6.287306640625,-0.08321419358253479,0.013511395081877708,0.006264946423470974
1789141122145279700,6.29727978515625,-0.07263585180044174,0.019924286752939224,0.040368057787418365
1789141122155251700,6.307251708984375,-0.052262719720602036,0.04267774522304535,-0.0011001378297805786
1789141122165223700,6.3172236328125,-0.03454098105430603,0.047832291573286057,0.03691435605287552
1789141122175196700,6.32719677734375,-0.01318243145942688,0.06170524284243584,0.0014941967092454433
1789141122185168600,6.337168701171875,-0.006882457062602043,0.05422469228506088,-0.033251531422138214
1789141122195142000,6.347141845703125,-0.05532365292310715,0.06040304899215698,-0.007988326251506805
1789141122205113600,6.357113525390625,-0.050857529044151306,0.05869010090827942,-0.04169382527470589
1789141122215085800,6.3670859375,-0.02740134298801422,0.03585751727223396,-0.050310660153627396
1789141122225058800,6.377058837890625,-0.05983438342809677,0.00888075865805149,0.005800547078251839
1789141122235030500,6.387030517578125,-0.08279034495353699,0.003996180836111307,0.0020731904078274965
1789141122245002800,6.397002685546875,-0.13655024766921997,-0.012893587350845337,0.027186531573534012
1789141122254975700,6.406975830078125,-0.14690758287906647,-0.05002620816230774,0.03640839830040932
1789141122264947700,6.41694775390625,-0.17941679060459137,-0.03365602716803551,0.01735907420516014
1789141122274920700,6.426920654296875,-0.17547771334648132,-0.028874536976218224,-0.0006879186257719994
1789141122284892700,6.436892578125,-0.1787896305322647,-0.06994154304265976,0.04656428471207619
1789141122294864600,6.44686474609375,-0.2139567881822586,-0.06074890121817589,0.026025328785181046
1789141122304837600,6.456837646484375,-0.18185611069202423,-0.09028149396181107,0.010502295568585396
1789141122314809900,6.466809814453125,-0.15633605420589447,-0.09615738689899445,0.0059477840550243855
1789141122324781600,6.476781494140625,-0.20050378143787384,-0.0889282375574112,-0.004587947390973568
1789141122334754800,6.4867548828125,-0.22402387857437134,-0.10068026185035706,-0.011400410905480385
1789141122344726800,6.496726806640625,-0.21658781170845032,-0.11313799768686295,0.00887210387736559
1789141122354699500,6.506699462890625,-0.21109138429164886,-0.12649476528167725,0.02660733088850975
1789141122364671700,6.516671630859375,-0.23210638761520386,-0.1128721609711647,0.01534881629049778
1789141122374643700,6.526643798828125,-0.21675680577754974,-0.15375934541225433,0.026870088651776314
1789141122384616700,6.53661669921875,-0.2058945596218109,-0.14067736268043518,0.03835763782262802
1789141122394588700,6.546588623046875,-0.19894202053546906,-0.15096665918827057,0.04333595931529999
1789141122404561000,6.556560791015625,-0.2047671526670456,-0.14071615040302277,0.025550836697220802
1789141122414533600,6.56653369140625,-0.17511902749538422,-0.1629919409751892,0.03413104638457298
1789141122424505600,6.576505615234375,-0.17230166494846344,-0.16650117933750153,0.04529528319835663
1789141122434478800,6.586478759765625,-0.17446038126945496,-0.18683916330337524,0.06075877696275711
1789141122444450600,6.596450439453125,-0.16003616154193878,-0.17190921306610107,-0.0019418897572904825
1789141122454422800,6.6064228515625,-0.14031171798706055,-0.19448624551296234,0.03515714406967163
1789141122464395800,6.616395751953125,-0.13399523496627808,-0.14741088449954987,0.05207114666700363
1789141122474367700,6.62636767578125,-0.1186479777097702,-0.1680217981338501,0.03458214923739433
1789141122484339700,6.636339599609375,-0.07770986109972,-0.1777532547712326,0.017214078456163406
1789141122494312700,6.646312744140625,-0.055998943746089935,-0.12872616946697235,-0.01193130761384964
1789141122504284700,6.65628466796875,-0.06217215210199356,-0.10837110877037048,0.025515131652355194
1789141122514256600,6.666256591796875,-0.02033395506441593,-0.10481208562850952,0.010816002264618874
1789141122524230000,6.67622998046875,0.007449472323060036,-0.09747561067342758,0.02390490658581257
1789141122534201600,6.68620166015625,0.018543215468525887,-0.06686768680810928,-0.014968094415962696
1789141122544174600,6.696174560546875,0.07652822136878967,-0.08899535983800888,0.01577623561024666
1789141122554146800,6.706146728515625,0.047300778329372406,-0.03448930010199547,-0.005451403558254242
1789141122564118500,6.716118408203125,0.021354932337999344,-0.0605296865105629,0.010759525001049042
1789141122574091800,6.726091796875,0.04874541237950325,-0.0325944684445858,-0.03353411331772804
1789141122584063700,6.736063720703125,0.08978471904993057,-0.025958670303225517,-0.026078861206769943
1789141122594035700,6.74603564453125,0.10204587131738663,-0.03015587106347084,-0.004479405470192432
1789141122604008700,6.7560087890625,0.1523929238319397,-0.035854507237672806,-0.039657898247241974
1789141122613980700,6.765980712890625,0.13173089921474457,-0.013515538536012173,-0.06883541494607925
1789141122623954000,6.775953857421875,0.1091502234339714,-0.02032524347305298,-0.06298311799764633
1789141122633925600,6.785925537109375,0.12083063274621964,0.01793643832206726,-0.09273917973041534
1789141122643897900,6.79589794921875,0.13364149630069733,-0.0033842967823147774,-0.07080112397670746
1789141122653870800,6.805870849609375,0.13213470578193665,-0.034457892179489136,-0.005078445188701153
1789141122663842600,6.815842529296875,0.16946691274642944,-0.0338943675160408,-0.01784217543900013
1789141122673814800,6.825814697265625,0.18529395759105682,-0.06345101445913315,0.039298683404922485
1789141122683787800,6.835787841796875,0.1536814421415329,-0.06492800265550613,0.0515524186193943
1789141122693759700,6.845759765625,0.11242415755987167,-0.07630717754364014,0.030325332656502724
1789141122703732700,6.855732666015625,0.1129826158285141,-0.05342636629939079,-0.01728133298456669
1789141122713704700,6.86570458984375,0.07334218174219131,-0.04468608647584915,-0.016642268747091293
1789141122723676700,6.8756767578125,0.1454925537109375,-0.046861354261636734,-0.06198817864060402
1789141122733649700,6.885649658203125,0.1401997208595276,-0.0171908400952816,-0.06086333841085434
1789141122743622000,6.895621826171875,0.1321346014738083,-0.02512519620358944,-0.05076463147997856
1789141122753593600,6.905593505859375,0.14727947115898132,-0.022912925109267235,-0.019452935084700584
1789141122763566800,6.91556689453125,0.14696629345417023,-0.001341319875791669,-0.029460560530424118
1789141122773538800,6.925538818359375,0.12921620905399323,0.0005930713377892971,-0.0025259824469685555
1789141122783510800,6.9355107421875,0.15478947758674622,0.02433568611741066,-0.00841636210680008
1789141122793483800,6.94548388671875,0.1318102329969406,0.05301192030310631,-0.029307574033737183
1789141122803455700,6.955455810546875,0.1314304769039154,0.04711541533470154,-0.04231338948011398
1789141122813428700,6.9654287109375,0.1525384932756424,0.05717732012271881,-0.06405613571405411
1789141122823400700,6.975400634765625,0.16717416048049927,0.060321979224681854,-0.04818449914455414
1789141122833373000,6.985373046875,0.19354501366615295,0.06340233981609344,-0.0464366152882576
1789141122843345700,6.995345703125,0.2053007334470749,0.05864779278635979,-0.05498882383108139
1789141122853317600,7.005317626953125,0.16176441311836243,0.06142166256904602,-0.014902655966579914
1789141122863289900,7.015289794921875,0.12146757543087006,0.03829077631235123,0.023819971829652786
1789141122873262600,7.0252626953125,0.10400312393903732,0.011286229826509953,0.009674723260104656
1789141122883234800,7.03523486328125,0.08714371919631958,-0.0024117394350469112,0.04354400560259819
1789141122893207800,7.045207763671875,0.04654335230588913,-0.00259493594057858,0.09096753597259521
1789141122903179500,7.055179443359375,0.03948917239904404,-0.03579283505678177,0.0600048191845417
1789141122913151700,7.06515185546875,0.018088992685079575,-0.03271390497684479,0.026817746460437775
1789141122923124700,7.075124755859375,0.03928935527801514,-0.04459666088223457,-0.015476182103157043
1789141122933096700,7.0850966796875,0.012150438502430916,-0.033959295600652695,-0.055128391832113266
1789141122943068700,7.095068603515625,-0.015076388604938984,-0.06278455257415771,-0.10922437906265259
1789141122953041700,7.105041748046875,-0.009567881003022194,-0.06069646403193474,-0.07152348011732101
1789141122963013600,7.115013671875,0.0015438920818269253,-0.037566374987363815,-0.04651612788438797
1789141122972986600,7.124986572265625,0.010638373903930187,-0.06085728481411934,-0.021306563168764114
1789141122982958800,7.134958740234375,0.03240039572119713,-0.0444364994764328,-0.0046407668851315975
1789141122992930600,7.1449306640625,0.0008368231356143951,-0.04964035004377365,0.046489980071783066
1789141123002903800,7.15490380859375,-0.002156570553779602,-0.04306766763329506,-0.004261350724846125
1789141123012875800,7.164875732421875,0.013442056253552437,-0.018207993358373642,-0.033853158354759216
1789141123022847700,7.17484765625,0.006880559492856264,-0.011416399851441383,-0.03225019946694374
1789141123032820700,7.18482080078125,0.04388454183936119,0.007575830910354853,-0.05024818703532219
1789141123042792700,7.194792724609375,0.07392153143882751,0.021253293380141258,-0.02509729191660881
1789141123052764700,7.2047646484375,0.08106984943151474,0.03354145213961601,0.027379268780350685
1789141123062737700,7.214737548828125,0.09739955514669418,0.04055462032556534,0.051149044185876846
1789141123072710000,7.2247099609375,0.08805611729621887,0.04861174523830414,0.0537048801779747
1789141123082682600,7.2346826171875,0.11248795688152313,0.06501202285289764,0.025925982743501663
1789141123092654600,7.244654541015625,0.12484674900770187,0.0726420059800148,-0.016322845593094826
1789141123102626800,7.254626708984375,0.11321353167295456,0.05644306540489197,-0.010055094957351685
1789141123112599600,7.264599609375,0.11634621024131775,0.0645473301410675,-0.025934193283319473
1789141123122571800,7.27457177734375,0.1467781364917755,0.0879884734749794,-0.06269354373216629
1789141123132543700,7.284543701171875,0.15426866710186005,0.08214506506919861,-0.06122073531150818
1789141123142516700,7.294516845703125,0.13603746891021729,0.0765945091843605,-0.0022988291457295418
1789141123152488700,7.30448876953125,0.14724516868591309,0.062256865203380585,0.047731515020132065
1789141123162461400,7.31446142578125,0.10894384980201721,0.03838402032852173,0.08766668289899826
1789141123172433700,7.32443359375,0.08729368448257446,0.034276388585567474,0.08266556262969971
1789141123182405600,7.334405517578125,0.05748838558793068,0.03360234200954437,0.08136141300201416
1789141123192378600,7.344378662109375,0.06875044107437134,0.00796668790280819,0.06986555457115173
1789141123202350600,7.3543505859375,0.08529719710350037,0.0045623681508004665,0.06486892700195312
1789141123212322600,7.364322509765625,0.09075683355331421,0.019490879029035568,0.045722320675849915
1789141123222295600,7.374295654296875,0.10519436001777649,0.021158553659915924,0.046986259520053864
1789141123232267500,7.384267578125,0.11002913862466812,0.05948270857334137,0.011398653499782085
1789141123242239500,7.394239501953125,0.1331123560667038,0.040568672120571136,0.04521467164158821
1789141123252212500,7.40421240234375,0.13478365540504456,0.054067596793174744,0.005126831121742725
1789141123262184700,7.414184814453125,0.10211465507745743,0.04482882469892502,0.000005039852112531662
1789141123272157700,7.42415771484375,0.1024327203631401,0.08135776966810226,0.0024348830338567495
1789141123282129400,7.43412939453125,0.10637765377759933,0.06041307374835014,0.041672032326459885
1789141123292101600,7.4441015625,0.09659823775291443,0.08574462682008743,0.010468977503478527
1789141123302074600,7.45407470703125,0.08247842639684677,0.08795850723981857,0.033779360353946686
1789141123312046600,7.464046630859375,0.09111284464597702,0.0969158411026001,0.08731599152088165
1789141123322018600,7.4740185546875,0.10644625872373581,0.11479683220386505,0.08093612641096115
1789141123331991600,7.483991455078125,0.1318289339542389,0.12516635656356812,0.06222499907016754
1789141123341963500,7.493963623046875,0.10373657196760178,0.15744386613368988,0.030484912917017937
1789141123351936500,7.5039365234375,0.1329740583896637,0.16396257281303406,-0.001631876453757286
1789141123361908700,7.51390869140625,0.1418253481388092,0.17599287629127502,-0.03618932142853737
1789141123371880400,7.52388037109375,0.15803027153015137,0.17285941541194916,0.004941963590681553
1789141123381853700,7.533853759765625,0.17470724880695343,0.18700000643730164,0.014517359435558319
1789141123391825700,7.54382568359375,0.1633506566286087,0.15306951105594635,0.06279649585485458
1789141123401797600,7.553797607421875,0.14952965080738068,0.17445895075798035,0.05092145875096321
1789141123411770600,7.5637705078125,0.10303536057472229,0.18888887763023376,0.017819982022047043
1789141123421742600,7.57374267578125,0.044169649481773376,0.1631195992231369,0.04567451775074005
1789141123431715600,7.583715576171875,0.03373713791370392,0.14956186711788177,0.021812517195940018
1789141123441687600,7.5936875,0.026144200935959816,0.1383693963289261,-0.018886975944042206
1789141123451659800,7.60365966796875,0.06096161901950836,0.1190146654844284,-0.026542115956544876
1789141123461632500,7.613632568359375,0.08807020634412766,0.11918191611766815,-0.011162628419697285
1789141123471604500,7.6236044921875,0.06492121517658234,0.0841301679611206,-0.018625224009156227
1789141123481576700,7.63357666015625,-0.009052611887454987,0.08189497888088226,-0.034856390208005905
1789141123491549400,7.643549560546875,-0.09016788750886917,0.058035124093294144,-0.020053796470165253
1789141123501521700,7.653521728515625,-0.11272645741701126,0.025475047528743744,-0.04246243089437485
1789141123511493600,7.66349365234375,-0.11894665658473969,0.014429217204451561,-0.016514532268047333
1789141123521466400,7.67346630859375,-0.14700038731098175,-0.0016237848903983831,0.004945486783981323
1789141123531438600,7.6834384765625,-0.13639293611049652,-0.05366305261850357,-0.009017489850521088
1789141123541411600,7.69341162109375,-0.12252531945705414,-0.026862332597374916,0.034445300698280334
1789141123551383600,7.703383544921875,-0.1418720930814743,-0.004462937358766794,0.04205795004963875
1789141123561355500,7.71335546875,-0.11945971846580505,-0.022156447172164917,-0.00833784881979227
1789141123571328500,7.72332861328125,-0.11166208237409592,-0.014685871079564095,0.007388153113424778
1789141123581300500,7.733300537109375,-0.13372397422790527,-0.011883160099387169,0.048863425850868225
1789141123591272700,7.743272705078125,-0.1177939847111702,-0.006578004453331232,0.018233174458146095
1789141123601245700,7.75324560546875,-0.12279246002435684,-0.03013526275753975,0.04827229678630829
1789141123611217400,7.763217529296875,-0.14516107738018036,-0.02083207666873932,0.05129070580005646
1789141123621190700,7.773190673828125,-0.12437671422958374,-0.0172961987555027,0.01621527597308159
1789141123631162600,7.78316259765625,-0.09024547040462494,-0.011306585744023323,0.0189763642847538
1789141123641134600,7.793134521484375,-0.12636806070804596,-0.001882190816104412,0.04015835002064705
1789141123651107600,7.803107666015625,-0.10597990453243256,-0.025777626782655716,-0.030239954590797424
1789141123661079600,7.81307958984375,-0.12398900091648102,-0.0012003786396235228,-0.048291392624378204
1789141123671051500,7.823051513671875,-0.1327049732208252,-0.0014353955630213022,-0.02021385170519352
1789141123681024500,7.8330244140625,-0.11078102141618729,0.03135291114449501,-0.07498468458652496
1789141123690996700,7.842996826171875,-0.08314447104930878,0.01846320554614067,-0.04882039874792099
1789141123700968400,7.852968505859375,-0.07746341824531555,0.010865738615393639,0.008141152560710907
1789141123710941400,7.86294140625,-0.08604276180267334,0.00814630277454853,0.010027212090790272
1789141123720913700,7.87291357421875,-0.08468908071517944,0.003812807146459818,0.023507867008447647
1789141123730886700,7.88288671875,-0.09183064103126526,0.011467643082141876,0.034553349018096924
1789141123740858600,7.892858642578125,-0.07313711196184158,-0.003770698793232441,0.05491907522082329
1789141123750830600,7.90283056640625,-0.06325247138738632,-0.017287246882915497,0.04648815095424652
1789141123760803600,7.912803466796875,-0.08847766369581223,-0.012620588764548302,0.05717435106635094
1789141123770775600,7.922775634765625,-0.07119209319353104,-0.041712917387485504,0.04412482678890228
1789141123780747800,7.932747802734375,-0.05606108158826828,-0.03639458492398262,0.0061414893716573715
1789141123790720800,7.942720703125,-0.07921294867992401,-0.04087316244840622,-0.004610910080373287
1789141123800692500,7.9526923828125,-0.10708427429199219,-0.052212636917829514,-0.05705733969807625
1789141123810665700,7.962665771484375,-0.12046226114034653,-0.048576898872852325,-0.07109799981117249
1789141123820637700,7.9726376953125,-0.11934266239404678,-0.07140897959470749,-0.0294786524027586
1789141123830609700,7.982609619140625,-0.11612364649772644,-0.07351068407297134,-0.017209354788064957
1789141123840582700,7.992582763671875,-0.14509324729442596,-0.08926407992839813,0.0016524834791198373
1789141123850554600,8.0025546875,-0.11908198148012161,-0.10224931687116623,0.03543553873896599
1789141123860526600,8.012526611328125,-0.09858708828687668,-0.07027833163738251,0.03081388957798481
1789141123870499600,8.02249951171875,-0.09583015739917755,-0.08577165752649307,0.04523302614688873
1789141123880471800,8.032471923828124,-0.0971665307879448,-0.06278883665800095,-0.0126811433583498
1789141123890444500,8.042444580078126,-0.06309545040130615,-0.0552896223962307,-0.040831949561834335
1789141123900416500,8.05241650390625,-0.06345497071743011,-0.03874846547842026,-0.023390641435980797
1789141123910388700,8.062388671875,-0.0294814296066761,-0.030837804079055786,-0.04518628120422363
1789141123920361500,8.072361572265624,0.009126685559749603,-0.019087670370936394,-0.04353725165128708
1789141123930333700,8.082333740234375,0.030029356479644775,-0.02602940797805786,0.01601860113441944
1789141123940305700,8.0923056640625,0.03236015513539314,-0.022814972326159477,0.026754602789878845
1789141123950278400,8.1022783203125,-0.01957617700099945,-0.01844034343957901,0.04341024160385132
1789141123960250600,8.112250732421876,0.0047874851152300835,-0.006322694011032581,0.048132557421922684
1789141123970223600,8.1222236328125,0.0008632699027657509,-0.010633895173668861,0.048632439225912094
1789141123980195600,8.132195556640625,0.005987990647554398,-0.0037746571470052004,0.09559647738933563
1789141123990167600,8.14216748046875,0.026548221707344055,0.010998567566275597,0.03198566287755966
1789141124000140500,8.152140625,0.040871504694223404,-0.011127508245408535,-0.00487328739836812
1789141124010112500,8.162112548828125,0.04088498279452324,0.0028353240340948105,-0.011891478672623634
1789141124020084700,8.172084716796874,0.06805002689361572,0.002746907062828541,-0.01469418965280056
1789141124030057700,8.1820576171875,0.06645610183477402,0.005931343883275986,-0.027007179334759712
1789141124040029400,8.192029541015625,0.06413835287094116,0.0036367643624544144,-0.02573125809431076
1789141124050001700,8.202001708984374,0.03756652772426605,0.004257021937519312,-0.02383727766573429
1789141124059974700,8.211974609375,0.061167728155851364,0.02432500571012497,-0.02923443913459778
1789141124069946600,8.221946533203125,0.026269320398569107,0.0206722654402256,0.03600172698497772
1789141124079919600,8.231919677734375,0.03741837665438652,-0.0032170875929296017,0.018508752807974815
1789141124089891600,8.2418916015625,0.05149848014116287,-0.003800223581492901,0.019218089058995247
1789141124099863600,8.251863525390625,0.05998837202787399,0.002919464372098446,0.07040803879499435
1789141124109836500,8.26183642578125,0.035202864557504654,0.006127762608230114,0.08266003429889679
1789141124119808800,8.271808837890624,0.06492267549037933,-0.03423430770635605,0.050371866673231125
1789141124129780500,8.281780517578126,0.04277791082859039,-0.038742270320653915,0.03552279621362686
1789141124139753500,8.29175341796875,0.02392059937119484,-0.04219239577651024,-0.009963730350136757
1789141124149726700,8.301726806640625,-0.01592114567756653,-0.01698698289692402,-0.013807727955281734
1789141124159699700,8.31169970703125,0.025987155735492706,-0.0359063446521759,-0.021896813064813614
1789141124169671400,8.32167138671875,0.028714820742607117,0.003404633142054081,-0.07489493489265442
1789141124179643600,8.3316435546875,0.0346483439207077,-0.013347715139389038,-0.024819789454340935
1789141124189616600,8.34161669921875,0.0425536185503006,-0.0021335105411708355,0.014174693264067173
1789141124199588600,8.351588623046876,0.03742756322026253,-0.011602645739912987,-0.013517388142645359
1789141124209560600,8.361560546875,0.0045446897856891155,-0.01963377371430397,0.0477340929210186
1789141124219533600,8.371533447265625,-0.02039421536028385,0.017531704157590866,-0.023117976263165474
1789141124229505500,8.381505615234374,-0.023638397455215454,-0.02517107129096985,-0.005091476254165173
1789141124239478500,8.391478515625,-0.019728079438209534,-0.020756082609295845,-0.011144042015075684
1789141124249450800,8.40145068359375,0.007099831476807594,-0.01362878829240799,-0.012570062652230263
1789141124259422500,8.41142236328125,0.0059938207268714905,0.007993149571120739,-0.039512999355793
1789141124269395700,8.421395751953124,0.01166001707315445,-0.00480166869238019,-0.008739911951124668
1789141124279367700,8.43136767578125,0.01629924401640892,0.02313915267586708,-0.027722924947738647
1789141124289339600,8.441339599609375,0.009915300644934177,0.02742556296288967,-0.0486578643321991
1789141124299312600,8.451312744140624,0.006901134736835957,0.011492401361465454,-0.025787966325879097
1789141124309284600,8.46128466796875,0.006274254526942968,0.019997093826532364,-0.03629974648356438
1789141124319256600,8.471256591796875,0.003700309433043003,0.02365414798259735,-0.05332719907164574
1789141124329229600,8.4812294921875,0.005091384053230286,0.01703197881579399,-0.020385777577757835
1789141124339201800,8.491201904296876,0.00633508013561368,0.007439538836479187,-0.028865016996860504
1789141124349174800,8.5011748046875,0.004623482935130596,-0.012868417426943779,-0.002715860726311803
1789141124359146500,8.511146484375,-0.019192099571228027,0.020248791202902794,-0.025607328861951828
1789141124369118700,8.52111865234375,-0.02655688300728798,-0.001700665568932891,-0.010073470883071423
1789141124379091700,8.531091796875,-0.035142384469509125,0.018685299903154373,-0.027611717581748962
1789141124389063700,8.541063720703125,-0.020524341613054276,-0.0025241761468350887,-0.011542318388819695
1789141124399035600,8.55103564453125,-0.025294862687587738,0.03332357108592987,-0.021161390468478203
1789141124409008600,8.561008544921876,-0.01403780933469534,0.016820484772324562,-0.012294072657823563
1789141124418980600,8.570980712890625,0.028247330337762833,0.03341810405254364,-0.00926925428211689
1789141124428953600,8.58095361328125,0.060772862285375595,0.02012566663324833,0.01258858758956194
1789141124438925800,8.59092578125,0.06413963437080383,0.027916479855775833,0.005420955363661051
1789141124448897500,8.6008974609375,0.055805057287216187,0.03729325905442238,0.02697882428765297
1789141124458870500,8.61087060546875,0.047189198434352875,0.05389753729104996,0.028449155390262604
1789141124468842800,8.6208427734375,0.045844752341508865,0.04670119658112526,0.04437822476029396
1789141124478814700,8.630814697265626,0.022672588005661964,0.06223807483911514,0.04793620854616165
1789141124488787700,8.64078759765625,0.048016078770160675,0.06134384498000145,0.010593477636575699
1789141124498759700,8.650759765625,0.08191678673028946,0.06842812150716782,0.005660769995301962
1789141124508731600,8.660731689453126,0.096888467669487,0.04068468138575554,0.04833582043647766
1789141124518704600,8.67070458984375,0.057690732181072235,0.08077271282672882,-0.010472368448972702
1789141124528676900,8.6806767578125,0.06642709672451019,0.08635229617357254,-0.009926890954375267
1789141124538649600,8.690649658203125,0.10322079807519913,0.08636055141687393,0.04416057839989662
1789141124548621600,8.70062158203125,0.05115537717938423,0.09841784834861755,0.05199221894145012
1789141124558593800,8.71059375,0.03417665883898735,0.08167880773544312,0.009109202772378922
1789141124568566500,8.72056640625,0.09145384281873703,0.06738542020320892,0.004469824954867363
1789141124578538800,8.730538818359374,0.0616256408393383,0.07798293977975845,0.014819667674601078
1789141124588510700,8.7405107421875,0.04868117719888687,0.05574198067188263,0.025502581149339676
1789141124598483500,8.7504833984375,0.06057512015104294,0.054874319583177567,0.010920709930360317
1789141124608455700,8.76045556640625,0.016761990264058113,0.04441288486123085,0.025719424709677696
1789141124618428700,8.7704287109375,-0.004283374175429344,0.02962541952729225,0.046952541917562485
1789141124628400600,8.780400634765625,-0.013570690527558327,0.019703874364495277,0.0633411556482315
1789141124638372600,8.79037255859375,-0.02538873441517353,-0.006539447698742151,0.028499016538262367
1789141124648345600,8.800345703125,-0.05862898379564285,-0.0489974245429039,0.0499262772500515
1789141124658317600,8.810317626953125,-0.07611875981092453,-0.025625789538025856,0.011105112731456757
1789141124668289500,8.82028955078125,-0.08570517599582672,-0.04193934053182602,-0.02233852632343769
1789141124678262800,8.8302626953125,-0.10339229553937912,-0.04230925068259239,-0.03743785247206688
1789141124688234500,8.840234375,-0.07433246821165085,-0.03295790031552315,-0.020787762477993965
1789141124698206700,8.850206787109375,-0.048191413283348083,-0.01239137351512909,-0.08581869304180145
1789141124708179700,8.8601796875,-0.051860880106687546,-0.030511120334267616,-0.06503234058618546
1789141124718151700,8.870151611328126,-0.0316070094704628,-0.02181350253522396,0.0008148434571921825
1789141124728124700,8.880124755859375,-0.03596803545951843,-0.005020543001592159,0.026495063677430153
1789141124738096600,8.8900966796875,-0.038153693079948425,0.0011247009970247746,0.03123682364821434
1789141124748068600,8.900068603515624,-0.04608850181102753,-0.0005800256039947271,0.04352888464927673
1789141124758041600,8.91004150390625,-0.008172810077667236,0.005957768298685551,-0.004414672497659922
1789141124768013800,8.920013916015625,0.009537664242088795,-0.0016958527266979218,0.00004241848364472389
1789141124777985500,8.929985595703124,0.037118956446647644,0.0035641565918922424,-0.019568035379052162
1789141124787958500,8.93995849609375,0.049005087465047836,0.04154593497514725,-0.0571337565779686
1789141124797930800,8.9499306640625,0.05637858435511589,0.05310006067156792,-0.07201975584030151
1789141124807903500,8.959903564453125,0.023092081770300865,0.049323152750730515,-0.03709852695465088
1789141124817875700,8.969875732421874,0.009905705228447914,0.0407741405069828,-0.03962799906730652
1789141124827847700,8.97984765625,0.03747393190860748,0.035152286291122437,-0.03533659502863884
1789141124837820400,8.9898203125,0.047655727714300156,0.04720309004187584,-0.03267716243863106
1789141124847792600,8.999792724609375,0.019897252321243286,0.044758643954992294,-0.00273944903165102
1789141124857764600,9.0097646484375,-0.004752432927489281,0.033577095717191696,-0.023015959188342094
1789141124867737600,9.019737548828125,-0.012554854154586792,0.015322292223572731,-0.012419696897268295
1789141124877709600,9.02970947265625,-0.010035237297415733,0.01928401179611683,-0.010422859340906143
1789141124887681800,9.039681884765624,-0.023469794541597366,0.011833428405225277,-0.027804940938949585
1789141124897654500,9.049654541015625,-0.023572593927383423,-0.002866421826183796,-0.02777351811528206
1789141124907626800,9.059626708984375,-0.020510928705334663,-0.0056436811573803425,-0.0252030398696661
1789141124917599700,9.069599853515625,-0.03148981183767319,-0.009976377710700035,-0.03600349277257919
1789141124927571500,9.079571533203126,-0.016736043617129326,-0.0015015979297459126,-0.03877153992652893
1789141124937543700,9.089543701171875,-0.025501038879156113,-0.017611324787139893,-0.0035957088693976402
1789141124947516700,9.0995166015625,-0.037757016718387604,-0.017985349521040916,-0.006531799212098122
1789141124957488600,9.109488525390624,-0.04105054587125778,-0.02505338005721569,-0.016584699973464012
1789141124967460600,9.119460693359375,-0.06033646687865257,-0.021382316946983337,-0.024724196642637253
1789141124977433600,9.12943359375,-0.05634118989109993,-0.023450259119272232,0.02053968608379364
1789141124987405600,9.139405517578124,-0.05525428056716919,-0.02077433653175831,0.033578380942344666
1789141124997378600,9.149378662109376,-0.053182609379291534,-0.030273033306002617,-0.007795155979692936
1789141125007350800,9.159350830078125,-0.009184971451759338,-0.0298648402094841,-0.005753632634878159
1789141125017322500,9.169322509765625,0.0020783361978828907,-0.006189870648086071,0.03325182572007179
1789141125027295500,9.17929541015625,0.0014410419389605522,-0.00019988929852843285,0.027975833043456078
1789141125037267700,9.189267822265625,-0.00551966205239296,-0.0016377298161387444,0.053649239242076874
1789141125047239400,9.199239501953125,-0.03065899759531021,0.012468059547245502,0.04618299752473831
1789141125057212700,9.209212646484374,-0.026108186691999435,0.0020865253172814846,0.021547429263591766
1789141125067184600,9.2191845703125,-0.022015441209077835,-0.0004929997958242893,0.032251883298158646
1789141125077157600,9.22915771484375,-0.008951837196946144,-0.0026150066405534744,0.025522075593471527
1789141125087129600,9.239129638671875,-0.0002802116796374321,-0.002918236656114459,-0.02264724113047123
1789141125097101600,9.2491015625,-0.0064797839149832726,0.004425962921231985,0.006396394222974777
1789141125107074800,9.25907470703125,-0.018068986013531685,0.006397169549018145,0.04093434661626816
1789141125117046500,9.269046630859375,0.005952460691332817,0.025930922478437424,0.036042653024196625
1789141125127018800,9.279018798828124,0.0008561750873923302,0.049190692603588104,0.014889497309923172
1789141125136991700,9.28899169921875,0.024810243397951126,-0.0020842121448367834,0.03461766242980957
1789141125146963700,9.298963623046875,-0.011556701734662056,-0.00037652277387678623,0.060878604650497437
1789141125156934700,9.3089345703125,-0.05003964900970459,0.0069458382204174995,0.08482841402292252
1789141125166907600,9.31890771484375,-0.03200637176632881,-0.02473968267440796,0.08613301068544388
1789141125176879600,9.328879638671875,-0.024130072444677353,-0.04328194260597229,0.08440728485584259
1789141125186852600,9.3388525390625,-0.04542826488614082,-0.0023594708181917667,0.06979883462190628
1789141125196824600,9.348824462890626,-0.03342459723353386,-0.03089151345193386,-0.0009488332434557378
1789141125206796500,9.358796630859375,-0.08856389671564102,-0.020747730508446693,0.01157445553690195
1789141125216769800,9.368769775390625,-0.07093562930822372,-0.03371492773294449,0.017994273453950882
1789141125226741500,9.378741455078124,-0.056776996701955795,-0.020583175122737885,-0.04628998786211014
1789141125236713700,9.388713623046876,-0.03454652801156044,-0.04325146973133087,-0.019900191575288773
1789141125246686700,9.398686767578125,-0.05570080876350403,-0.013722369447350502,-0.009207632392644882
1789141125256658400,9.408658447265625,-0.060123249888420105,-0.04228051006793976,0.03465170040726662
1789141125266631700,9.418631591796874,-0.07961442321538925,-0.0392310805618763,0.0425834096968174
1789141125276603600,9.428603759765625,-0.08092869073152542,-0.037290703505277634,0.0642133355140686
1789141125286575600,9.43857568359375,-0.07304586470127106,-0.04735052213072777,0.047406867146492004
1789141125296548600,9.448548583984374,-0.09244620054960251,-0.056649480015039444,0.011444338597357273
1789141125306520600,9.4585205078125,-0.11411799490451813,-0.05482152849435806,0.008404376916587353
1789141125316492500,9.468492431640625,-0.10601985454559326,-0.03060753643512726,-0.05710672214627266
1789141125326465500,9.478465576171875,-0.07663296163082123,-0.04260177165269852,-0.07881838828325272
1789141125336437800,9.488437744140626,-0.06262074410915375,-0.026456888765096664,-0.055655814707279205
1789141125346409500,9.498409423828125,-0.0684782862663269,-0.03347916156053543,-0.039526812732219696
1789141125356382700,9.5083828125,-0.07122187316417694,-0.0486980602145195,-0.012265101075172424
1789141125366354700,9.518354736328124,-0.05913631618022919,-0.038196444511413574,0.004491950385272503
1789141125376327700,9.52832763671875,-0.1011442169547081,-0.037721067667007446,-0.0006088019581511617
1789141125386299600,9.538299560546875,-0.11088858544826508,-0.04197624325752258,-0.014677125960588455
1789141125396271600,9.548271728515624,-0.10930640995502472,-0.04612145200371742,-0.008984619751572609
1789141125406244600,9.55824462890625,-0.0867774710059166,-0.037636589258909225,-0.03331763669848442
1789141125416216600,9.568216552734375,-0.08784326910972595,-0.0384637676179409,-0.020626872777938843
1789141125426188800,9.578188720703125,-0.06706547737121582,-0.033135879784822464,-0.03315866366028786
1789141125436161500,9.58816162109375,-0.05756012722849846,-0.028399981558322906,-0.0494723878800869
1789141125446133500,9.598133544921875,-0.04324986785650253,-0.03170030936598778,-0.058354612439870834
1789141125456105700,9.608105712890625,-0.07123276591300964,-0.033072635531425476,-0.04850384593009949
1789141125466078500,9.618078369140624,-0.08018354326486588,-0.03760388866066933,-0.04008963331580162
1789141125476050700,9.62805078125,-0.07821573317050934,-0.03690773993730545,-0.039580170065164566
1789141125486023700,9.638023681640625,-0.05734799802303314,-0.05316660553216934,-0.031224500387907028
1789141125495995600,9.64799560546875,-0.036850184202194214,-0.05460045114159584,-0.010443056002259254
1789141125505967600,9.657967529296876,-0.05630137771368027,-0.07165613025426865,0.0000354166841134429
1789141125515940600,9.667940673828125,-0.07544897496700287,-0.06417345255613327,-0.027098465710878372
1789141125525912600,9.67791259765625,-0.06785454601049423,-0.05741925537586212,-0.01337914727628231
1789141125535884500,9.687884521484374,-0.08069897443056107,-0.07389916479587555,0.010919534601271152
1789141125545857800,9.69785791015625,-0.07827269285917282,-0.06803620606660843,-0.006419569719582796
1789141125555829500,9.70782958984375,-0.054837942123413086,-0.06626174598932266,0.0037033716216683388
1789141125565802500,9.717802490234375,-0.042283400893211365,-0.048378076404333115,-0.001585460384376347
1789141125575774700,9.727774658203124,-0.05409158766269684,-0.05236855894327164,-0.02354695275425911
1789141125585746400,9.737746337890625,-0.04467114061117172,-0.06318441033363342,-0.012136406265199184
1789141125595719700,9.7477197265625,-0.02721012756228447,-0.0468166209757328,-0.034847840666770935
1789141125605691600,9.757691650390624,-0.010071642696857452,-0.04219697788357735,-0.05727256089448929
1789141125615663600,9.76766357421875,0.006222108379006386,-0.03853939101099968,-0.048109687864780426
1789141125625636600,9.77763671875,0.01981179416179657,-0.01619936153292656,-0.036848168820142746
1789141125635608600,9.787608642578125,0.016049278900027275,-0.03486572206020355,-0.023663925006985664
1789141125645581800,9.797581787109374,0.036702148616313934,-0.022676391527056694,-0.04363447055220604
1789141125655553500,9.807553466796875,0.06691304594278336,-0.03244806453585625,-0.02955407276749611
1789141125665525800,9.81752587890625,0.052059050649404526,-0.027318235486745834,0.005884578451514244
1789141125675498800,9.827498779296874,0.04412922263145447,-0.025589842349290848,0.01497048418968916
1789141125685470500,9.837470458984376,0.019739937037229538,-0.007313425652682781,0.02352151833474636
1789141125695442700,9.847442626953125,0.005836105905473232,-0.009255137294530869,0.06710974127054214
1789141125705415700,9.857415771484375,0.028329648077487946,-0.03316130116581917,0.05078767612576485
1789141125715387600,9.8673876953125,0.05940581113100052,-0.03225822374224663,0.0340702123939991
1789141125725359600,9.877359619140625,0.04956737160682678,-0.0491672158241272,0.029469961300492287
1789141125735332600,9.88733251953125,0.025621825829148293,-0.04375354200601578,0.006629894487559795
1789141125745304600,9.8973046875,0.032690491527318954,-0.05234747380018234,0.0025029906537383795
1789141125755277600,9.907277587890626,0.027293331921100616,-0.034431591629981995,-0.005044940859079361
1789141125765249800,9.917249755859375,0.008721377700567245,-0.014350801706314087,0.0010505903046578169
1789141125775221500,9.927221435546874,0.05196498706936836,-0.04607650637626648,-0.010209787636995316
1789141125785194800,9.93719482421875,0.029301634058356285,-0.03174617886543274,-0.016601618379354477
1789141125795166700,9.947166748046875,0.021529730409383774,-0.035808831453323364,-0.009415609762072563
1789141125805138700,9.957138671875,0.04037352651357651,-0.030535956844687462,-0.047906942665576935
1789141125815111700,9.967111572265624,0.055218517780303955,-0.042664527893066406,0.06634452939033508
1789141125825083600,9.977083740234375,0.08509090542793274,-0.06464589387178421,0.08246318250894547
1789141125835055600,9.9870556640625,0.056058719754219055,-0.019772695377469063,-0.02708781324326992
1789141125845028600,9.997028564453124,0.01301540620625019,-0.04381341487169266,0.04356784373521805
1789141125855000800,10.007000732421876,0.055038489401340485,-0.057334013283252716,0.07286927103996277
1789141125864973600,10.0169736328125,0.10139251500368118,-0.031062360852956772,-0.027565376833081245
1789141125874945500,10.026945556640625,0.1083979606628418,-0.012321162968873978,-0.0332522913813591
1789141125884917800,10.036917724609374,0.11721593886613846,-0.021404962986707687,0.009324708953499794
1789141125894890500,10.046890380859375,0.11980373412370682,0.0011858344078063965,-0.03998105600476265
1789141125904862700,10.05686279296875,0.1100991889834404,-0.00398813234642148,-0.03897222876548767
1789141125914834700,10.066834716796874,0.12904119491577148,0.011204136535525322,-0.04491773620247841
1789141125924807400,10.076807373046876,0.14730121195316315,0.026485932990908623,-0.036485135555267334
1789141125934779600,10.086779541015625,0.1638069450855255,0.014031659811735153,0.002552542369812727
1789141125944751600,10.096751708984375,0.1814143806695938,0.011136212386190891,0.008983965031802654
1789141125954724600,10.106724609375,0.17303819954395294,0.007384617812931538,0.0028413841500878334
1789141125964696600,10.116696533203125,0.14523063600063324,0.01015014760196209,0.03621033951640129
1789141125974669600,10.126669677734375,0.16304771602153778,0.03779935464262962,0.01179980393499136
1789141125984641500,10.1366416015625,0.1463973969221115,0.03644397109746933,0.005537241231650114
1789141125994613800,10.14661376953125,0.1332176923751831,0.017403703182935715,-0.009958095848560333
1789141126004586800,10.156586669921875,0.12688028812408447,0.020733993500471115,-0.0313904769718647
1789141126014558500,10.166558349609375,0.16444072127342224,0.045283541083335876,-0.03955066576600075
1789141126024530700,10.17653076171875,0.1605888307094574,0.03595459461212158,-0.022397169843316078
1789141126034503700,10.186503662109375,0.1632400006055832,0.04358135536313057,0.007585762068629265
1789141126044475600,10.1964755859375,0.15020577609539032,0.04619145393371582,0.006698878947645426
1789141126054448600,10.20644873046875,0.11847235262393951,0.025865409523248672,0.03459123149514198
1789141126064420600,10.216420654296876,0.13543999195098877,0.030795834958553314,0.027272285893559456
1789141126074392600,10.226392578125,0.11328781396150589,0.0411699153482914,0.03803465515375137
1789141126084365600,10.236365478515625,0.10038573294878006,0.029157200828194618,0.028700746595859528
1789141126094337800,10.246337890625,0.14952825009822845,0.04843795299530029,-0.056446902453899384
1789141126104309500,10.2563095703125,0.17038148641586304,0.07281269878149033,-0.06677445769309998
1789141126114282500,10.266282470703125,0.14407610893249512,0.06032220646739006,-0.05287780985236168
1789141126124254700,10.276254638671874,0.1655905693769455,0.06821297854185104,-0.06065138429403305
1789141126134226700,10.286226806640625,0.14987152814865112,0.09791148453950882,-0.06979880481958389
1789141126144199700,10.29619970703125,0.14515459537506104,0.062395624816417694,-0.05002552643418312
1789141126154171600,10.306171630859374,0.12927629053592682,0.06849080324172974,-0.009226163849234581
1789141126164144600,10.31614453125,0.1322183907032013,0.0685604140162468,-0.010305998846888542
1789141126174116600,10.32611669921875,0.15636420249938965,0.026321349665522575,-0.02996891550719738
1789141126184088800,10.3360888671875,0.1519865244626999,0.03270644694566727,-0.051832009106874466
1789141126194061800,10.346061767578124,0.09744445979595184,0.0618283748626709,0.006664592307060957
1789141126204033500,10.356033447265625,0.10609591752290726,0.06105690449476242,-0.02886727824807167
1789141126214005800,10.366005859375,0.10824588686227798,0.08077415078878403,-0.025088783353567123
1789141126223978800,10.375978759765625,0.0943346843123436,0.07747337222099304,0.02083778940141201
1789141126233950700,10.38595068359375,0.10309860855340958,0.06569954007863998,0.010456787422299385
1789141126243922700,10.395922607421875,0.12824329733848572,0.08927921950817108,-0.00418936088681221
1789141126253895700,10.405895751953125,0.14555543661117554,0.08391427993774414,0.008282488211989403
1789141126263867600,10.41586767578125,0.13995181024074554,0.09220050275325775,0.009398670867085457
1789141126273840600,10.425840576171876,0.1404207944869995,0.1326371431350708,-0.0030438844114542007
1789141126283812900,10.435812744140625,0.13656580448150635,0.1404164880514145,-0.0005416559870354831
1789141126293784600,10.44578466796875,0.13382834196090698,0.17566688358783722,-0.03079862706363201
1789141126303757600,10.455757568359376,0.1394561529159546,0.15578848123550415,-0.0013109295396134257
1789141126313729800,10.465729736328125,0.12479250878095627,0.17155680060386658,-0.01774929091334343
1789141126323701500,10.475701416015625,0.13327321410179138,0.16216756403446198,-0.004596945364028215
1789141126333674800,10.4856748046875,0.11159561574459076,0.1470850110054016,0.044832125306129456
1789141126343646700,10.495646728515625,0.11606026440858841,0.14306148886680603,0.04848216846585274
1789141126353619700,10.50561962890625,0.0866115614771843,0.1387583464384079,0.028847213834524155
1789141126363591700,10.515591796875,0.06144716218113899,0.13615882396697998,0.024177100509405136
1789141126373563600,10.525563720703126,0.05441348999738693,0.1222696453332901,0.012034950777888298
1789141126383537000,10.535536865234375,0.04921239987015724,0.1197122260928154,-0.03758486732840538
1789141126393508600,10.545508544921875,0.024748332798480988,0.11871673911809921,-0.01039079762995243
1789141126403480800,10.555480712890626,0.032691556960344315,0.13609647750854492,-0.0333721823990345
1789141126413453800,10.565453857421875,0.04351331293582916,0.12945294380187988,-0.052422840148210526
1789141126423425800,10.57542578125,0.04345099627971649,0.11155492067337036,-0.03438377380371094
1789141126433397800,10.585397705078124,0.030919227749109268,0.12115588784217834,0.020389724522829056
1789141126443370800,10.595370849609376,0.012513077817857265,0.09730102866888046,0.03372001647949219
1789141126453342700,10.6053427734375,-0.025553347542881966,0.08164484053850174,0.043097540736198425
1789141126463315700,10.615315673828125,-0.08447173982858658,0.08172903954982758,0.033315181732177734
1789141126473288000,10.625287841796874,-0.10383851826190948,0.046516191214323044,0.032300516963005066
1789141126483259600,10.635259765625,-0.09579826146364212,0.05061951279640198,0.00613863579928875
1789141126493232600,10.645232666015625,-0.12223892658948898,0.031526777893304825,-0.030116572976112366
1789141126503204900,10.655204833984374,-0.13827112317085266,0.013969230465590954,-0.06331197172403336
1789141126513176600,10.665176513671875,-0.141177698969841,0.005295848473906517,-0.03824097663164139
1789141126523149800,10.67514990234375,-0.19019992649555206,0.009971375577151775,0.018893349915742874
1789141126533121800,10.685121826171875,-0.21687574684619904,-0.004009953700006008,0.04522296041250229
1789141126543093800,10.69509375,-0.18212980031967163,-0.01786114275455475,0.013145843520760536
1789141126553066800,10.705066650390625,-0.2149183750152588,0.027886107563972473,0.02158486656844616
1789141126563038700,10.715038818359375,-0.21845212578773499,0.010523639619350433,0.04741527512669563
1789141126573011700,10.72501171875,-0.183783620595932,-0.0054787625558674335,0.025153912603855133
1789141126582983700,10.734983642578126,-0.1971677839756012,0.006651618052273989,0.03414111211895943
1789141126592956000,10.744955810546875,-0.19166703522205353,-0.0035360378678888083,0.008505789563059807
1789141126602928600,10.7549287109375,-0.16654926538467407,-0.007571081630885601,0.021499425172805786
1789141126612900600,10.764900634765626,-0.20208941400051117,0.023433972150087357,-0.0004135968047194183
1789141126622872800,10.774872802734375,-0.21503864228725433,-0.015280155465006828,-0.010090814903378487
1789141126632845600,10.784845458984375,-0.241235613822937,-0.0019204088021069765,-0.04711061716079712
1789141126642817800,10.79481787109375,-0.23711872100830078,0.017682652920484543,-0.04693985730409622
1789141126652789800,10.804789794921875,-0.2376185953617096,-0.0018324584234505892,-0.03324668109416962
1789141126662762800,10.8147626953125,-0.21591976284980774,-0.05816145986318588,-0.04738496616482735
1789141126672734700,10.824734619140624,-0.20713798701763153,-0.038513459265232086,-0.04818204790353775
1789141126682707700,10.834707763671876,-0.2459261268377304,-0.0322643481194973,-0.026750793680548668
1789141126692679700,10.8446796875,-0.25604748725891113,-0.07102799415588379,-0.00039375509368255734
1789141126702651600,10.854651611328125,-0.2793852984905243,-0.06238802894949913,-0.018401820212602615
1789141126712625000,10.864625,-0.2777114808559418,-0.0630708634853363,-0.0400804840028286
1789141126722596600,10.8745966796875,-0.25915244221687317,-0.0673803836107254,-0.022263264283537865
1789141126732568800,10.88456884765625,-0.21982526779174805,-0.07848948985338211,0.008473609574139118
1789141126742541800,10.894541748046874,-0.23583252727985382,-0.07089819759130478,-0.006671488285064697
1789141126752513500,10.904513427734376,-0.2388128638267517,-0.09205381572246552,0.04001186043024063
1789141126762486800,10.91448681640625,-0.2503647804260254,-0.08483269065618515,0.06457923352718353
1789141126772458800,10.924458740234375,-0.24830403923988342,-0.09369968622922897,0.06454567611217499
1789141126782430700,10.9344306640625,-0.275375634431839,-0.09743495285511017,0.07096468657255173
1789141126792403700,10.94440380859375,-0.2086613029241562,-0.11016938835382462,0.027693375945091248
1789141126802375700,10.954375732421875,-0.19676026701927185,-0.10279839485883713,-0.0091560622677207
1789141126812347600,10.96434765625,-0.17929232120513916,-0.11515892297029495,-0.007083323784172535
1789141126822320600,10.974320556640626,-0.15604309737682343,-0.10534264892339706,-0.00940549373626709
1789141126832292900,10.98429296875,-0.14333076775074005,-0.10481720417737961,-0.0019049670081585646
1789141126842264600,10.9942646484375,-0.1541021764278412,-0.09517458081245422,-0.03434804826974869
1789141126852237800,11.00423779296875,-0.1473449319601059,-0.07030998170375824,-0.014847846701741219
1789141126862209800,11.014209716796875,-0.19065937399864197,-0.08357783406972885,0.031132299453020096
1789141126872182500,11.0241826171875,-0.16213025152683258,-0.10971303284168243,0.0065696993842720985
1789141126882154800,11.03415478515625,-0.1370641440153122,-0.10065397620201111,0.03905564174056053
1789141126892126700,11.044126708984376,-0.13431842625141144,-0.10288676619529724,0.06096680089831352
1789141126902099700,11.054099609375,-0.113955058157444,-0.11087155342102051,0.06738434731960297
1789141126912071700,11.06407177734375,-0.09754759073257446,-0.10161014646291733,0.03829996660351753
1789141126922044000,11.0740439453125,-0.09485404193401337,-0.11231642216444016,0.07104765623807907
1789141126932016600,11.0840166015625,-0.09331047534942627,-0.11908111721277237,0.05598641186952591
1789141126941988600,11.093988525390625,-0.10747327655553818,-0.0927649512887001,0.03042476251721382
1789141126951960800,11.1039609375,-0.12164262682199478,-0.10220026224851608,0.03494414687156677
1789141126961933600,11.11393359375,-0.08673391491174698,-0.1309663951396942,0.039465393871068954
1789141126971905800,11.12390576171875,-0.08239242434501648,-0.08750760555267334,-0.003991269040852785
1789141126981878800,11.133878662109375,-0.08546709269285202,-0.09464199095964432,0.02194582112133503
1789141126991850500,11.1438505859375,-0.0701105073094368,-0.08302342146635056,0.012595994397997856
1789141127001822700,11.15382275390625,-0.05566608905792236,-0.07375951111316681,-0.0006530902464874089
1789141127011795700,11.163795654296875,-0.03056526742875576,-0.08603934943675995,0.021839702501893044
1789141127021767700,11.173767578125,0.0012972047552466393,-0.0696057677268982,0.02201848104596138
1789141127031739600,11.18373974609375,0.012601258233189583,-0.06354600936174393,0.01220845989882946
1789141127041712600,11.193712646484375,0.055507365614175797,-0.09235816448926926,0.04856104776263237
1789141127051684600,11.2036845703125,0.03470035642385483,-0.0802687406539917,0.06684337556362152
1789141127061656800,11.21365673828125,0.03624783828854561,-0.09138072282075882,0.08458488434553146
1789141127071629800,11.2236298828125,0.053973838686943054,-0.06068751960992813,0.04225713014602661
1789141127081601500,11.2336015625,0.06054204702377319,-0.08377015590667725,0.03391048312187195
1789141127091574800,11.24357470703125,0.010962774977087975,-0.0732104554772377,0.0029112868942320347
1789141127101546800,11.253546630859375,0.026514165103435516,-0.08306173235177994,-0.0013920229393988848
1789141127111518700,11.263518798828125,0.09086412936449051,-0.04390687122941017,-0.0553378127515316
1789141127121491700,11.27349169921875,0.1370617002248764,-0.05782578885555267,0.008355279453098774
1789141127131463700,11.283463623046876,0.1295901983976364,-0.04733799397945404,0.05437257140874863
1789141127141435600,11.293435546875,0.12522564828395844,-0.0358508937060833,0.030708719044923782
1789141127151409000,11.303408935546875,0.08674377202987671,-0.018341142684221268,0.02550569921731949
1789141127161380900,11.313380859375,0.06929084658622742,-0.034482959657907486,0.05238828808069229
1789141127171352800,11.323352783203125,0.09478767961263657,-0.031941771507263184,0.0286728385835886
1789141127181325800,11.333325927734375,0.12686365842819214,-0.030129726976156235,0.0075069149024784565
1789141127191297800,11.3432978515625,0.13461771607398987,-0.01789117231965065,-0.04446973279118538
1789141127201270800,11.353270751953126,0.1582203358411789,-0.010673901066184044,-0.0442105308175087
1789141127211243000,11.363242919921875,0.16178791224956512,0.015102035365998745,-0.028478173539042473
1789141127221214700,11.373214599609375,0.14754371345043182,-0.006533625070005655,-0.01501865778118372
1789141127231187700,11.383187744140624,0.14135877788066864,0.03281351551413536,-0.060030337423086166
1789141127241160000,11.393159912109375,0.13280470669269562,0.011227235198020935,-0.05759810283780098
1789141127251131600,11.403131591796875,0.11011377722024918,-0.012204321101307869,-0.07772734016180038
1789141127261105000,11.41310498046875,0.1334296464920044,-0.012813225388526917,-0.06380175054073334
1789141127271076900,11.423076904296876,0.09265478700399399,0.018602488562464714,-0.022073742002248764
1789141127281048800,11.433048828125,0.08830094337463379,0.01792355626821518,-0.040440429002046585
1789141127291021800,11.443021728515625,0.11743086576461792,0.015056931413710117,0.011046196334064007
1789141127300993800,11.452993896484376,0.15265309810638428,0.022462962195277214,0.056175824254751205
1789141127310967000,11.462967041015625,0.1853865385055542,0.013603691011667252,0.03946875035762787
1789141127320938800,11.472938720703125,0.16147176921367645,-0.0015087728388607502,0.011706696823239326
1789141127330911000,11.482910888671874,0.08387258648872375,-0.0263358261436224,0.05806168168783188
1789141127340884000,11.492884033203126,0.047018565237522125,0.0010789991356432438,-0.008270560763776302
1789141127350856000,11.50285595703125,0.07732506841421127,0.0010065613314509392,-0.007870287634432316
1789141127360828000,11.512827880859374,0.10357291996479034,0.008142797276377678,0.012278420850634575
1789141127370801000,11.52280078125,0.07958102971315384,0.013701613992452621,-0.0006067519425414503
1789141127380772900,11.53277294921875,0.1098000630736351,0.035432323813438416,-0.050957128405570984
1789141127390745900,11.542745849609375,0.06231243908405304,0.019713280722498894,0.018830206245183945
1789141127400718000,11.552718017578124,0.015026119537651539,-0.003771298797801137,0.0007918664487078786
1789141127410689800,11.562689697265625,0.015936654061079025,-0.010769553482532501,-0.05595450475811958
1789141127420662800,11.572662841796875,0.001666052732616663,-0.03766434267163277,-0.006351642310619354
1789141127430635000,11.582635009765625,0.012083539739251137,-0.027301717549562454,-0.028182905167341232
1789141127440606700,11.592606689453126,0.028297875076532364,-0.034090958535671234,-0.033478301018476486
1789141127450580000,11.602580078125,0.014833200722932816,-0.030502349138259888,-0.01481193769723177
1789141127460552000,11.612552001953125,-0.027022160589694977,-0.012310100719332695,0.002881315303966403
1789141127470524000,11.62252392578125,-0.004594351164996624,-0.011150028556585312,-0.03534490242600441
1789141127480497000,11.632496826171876,-0.009714149869978428,-0.008868236094713211,0.022988511249423027
1789141127490468900,11.64246875,-0.008905614726245403,0.0117156021296978,-0.02513747289776802
1789141127500440800,11.65244091796875,0.0252484492957592,-0.018292391672730446,-0.015740126371383667
1789141127510413800,11.662413818359376,0.013824287801980972,0.004786028992384672,0.006646139547228813
1789141127520386000,11.672385986328125,-0.007361453026533127,0.0033498983830213547,0.026322390884160995
1789141127530358800,11.68235888671875,-0.005723342299461365,0.012712506577372551,0.03099091164767742
1789141127540331000,11.6923310546875,-0.00394983496516943,0.00722675072029233,0.03959605097770691
1789141127550303000,11.702302978515625,0.002762928605079651,-0.012036958709359169,0.07776953279972076
1789141127560275700,11.712275634765625,-0.008931147865951061,0.001539592631161213,0.06765706837177277
1789141127570248000,11.722248046875,-0.03724880516529083,-0.011241449974477291,0.08843052387237549
1789141127580220000,11.732219970703126,-0.05085422843694687,-0.02008022367954254,0.06116354092955589
1789141127590193000,11.74219287109375,-0.04139361530542374,-0.03084445372223854,0.07402660697698593
1789141127600164900,11.752164794921875,-0.03643754869699478,-0.01028880849480629,0.0076193781569600105
1789141127610137900,11.762137939453124,-0.044770583510398865,0.009979445487260818,-0.024172907695174217
1789141127620109800,11.77210986328125,-0.04922927916049957,0.025719892233610153,-0.01986350677907467
1789141127630081800,11.782081787109375,-0.07012923061847687,0.006792007014155388,0.006017892621457577
1789141127640055000,11.792054931640624,-0.05160657688975334,-0.005012083798646927,-0.008609973825514317
1789141127650026800,11.80202685546875,-0.035786066204309464,0.010100023820996284,-0.02539161592721939
1789141127659999000,11.8119990234375,-0.015698662027716637,-0.015777258202433586,-0.005341316573321819
1789141127669972000,11.821971923828125,-0.048483237624168396,-0.0028366916812956333,-0.0016347288619726896
1789141127679943700,11.831943603515626,-0.09358417242765427,-0.02957499772310257,0.022380996495485306
1789141127689916000,11.841916015625,-0.11286279559135437,-0.03395562991499901,-0.0179150253534317
1789141127699889000,11.851888916015625,-0.10077182948589325,-0.016396908089518547,-0.003629116341471672
1789141127709860900,11.86186083984375,-0.061619095504283905,-0.02044438011944294,0.020180875435471535
1789141127719833900,11.871833740234376,-0.07768624275922775,-0.01848311722278595,0.00742435222491622
1789141127729805800,11.881805908203125,-0.08711303770542145,-0.012850532308220863,-0.02553865686058998
1789141127739777800,11.89177783203125,-0.11206810176372528,-0.011359762400388718,-0.03846995532512665
1789141127749750800,11.901750732421876,-0.07281843572854996,-0.01978946477174759,-0.02579357661306858
1789141127759723000,11.911722900390625,-0.07570780813694,0.01077738031744957,-0.012312080711126328
1789141127769694700,11.92169482421875,-0.05210527405142784,-0.014897622168064117,-0.031050879508256912
1789141127779668000,11.93166796875,-0.08788017928600311,0.017827840521931648,-0.033507972955703735
1789141127789640000,11.941639892578126,-0.06762870401144028,0.014721529558300972,-0.01753486692905426
1789141127799612000,11.95161181640625,-0.06268332153558731,0.00500195287168026,-0.0075667304918169975
1789141127809585000,11.9615849609375,-0.07585424929857254,0.0036274949088692665,-0.03175542503595352
1789141127819556900,11.971556884765626,-0.05951627343893051,0.015366853214800358,-0.03935091942548752
1789141127829530000,11.981530029296875,-0.04788278415799141,-0.010669807903468609,-0.020333820953965187
1789141127839501800,11.991501708984375,-0.08047348260879517,-0.005295015871524811,-0.028692418709397316
1789141127849474000,12.00147412109375,-0.12026216834783554,0.0025410689413547516,0.021961703896522522
1789141127859447000,12.011447021484376,-0.05311800166964531,-0.02090337872505188,0.01829797960817814
1789141127869418800,12.021418701171875,-0.06044595316052437,-0.037839751690626144,0.0248086079955101
1789141127879391000,12.031390869140624,-0.05749545991420746,-0.05357465147972107,0.006977306678891182
