time,seconds_elapsed,z,y,x
1790173700396666400,0.067666259765625,-0.5817718505859375,-0.8421630859375,-0.0927734375
1790173700406738200,0.07773828125,-0.691314697265625,-0.8714599609375,-0.1955413818359375
1790173700416809000,0.08780908203125,-0.379974365234375,-0.965850830078125,-0.211273193359375
1790173700426881000,0.097881103515625,-0.3098297119140625,-0.8913116455078125,-0.1693572998046875
1790173700436953000,0.107953125,-0.2785491943359375,-0.83795166015625,-0.202484130859375
1790173700447024000,0.118024169921875,-0.2423095703125,-0.9107666015625,-0.13427734375
1790173700457096200,0.12809619140625,-0.4774932861328125,-0.8253936767578125,-0.0365142822265625
1790173700467168000,0.13816796875,-0.5852203369140625,-0.8572235107421875,-0.1114501953125
1790173700477239000,0.148239013671875,-0.385955810546875,-1.030853271484375,-0.1368255615234375
1790173700487311000,0.15831103515625,-0.190216064453125,-1.0159759521484375,-0.035675048828125
1790173700497383200,0.168383056640625,-0.3799285888671875,-0.908233642578125,0.0007171630859375
1790173700507454200,0.1784541015625,-0.44146728515625,-0.966461181640625,-0.1060791015625
1790173700517526300,0.1885263671875,-0.516448974609375,-0.9637908935546875,-0.1482391357421875
1790173700527597300,0.198597412109375,-0.615325927734375,-0.9721221923828125,-0.0892181396484375
1790173700537669000,0.208669189453125,-0.347869873046875,-1.0865020751953125,-0.060546875
1790173700547741200,0.2187412109375,-0.2560272216796875,-0.9688568115234375,0.023345947265625
1790173700557812200,0.228812255859375,-0.428680419921875,-0.82049560546875,-0.0916595458984375
1790173700567884300,0.23888427734375,-0.4515380859375,-0.9019622802734375,-0.206634521484375
1790173700577956000,0.2489560546875,-0.3873138427734375,-0.9627685546875,-0.1608123779296875
1790173700588027100,0.259027099609375,-0.3800811767578125,-0.9067535400390625,-0.0515594482421875
1790173700598099200,0.26909912109375,-0.342987060546875,-0.948272705078125,-0.044952392578125
1790173700608171300,0.279171142578125,-0.335693359375,-0.92919921875,-0.1365966796875
1790173700618242300,0.2892421875,-0.5392608642578125,-0.780364990234375,-0.109832763671875
1790173700628314400,0.299314453125,-0.5434112548828125,-0.7928009033203125,-0.09112548828125
1790173700638386200,0.30938623046875,-0.4001617431640625,-0.8742523193359375,-0.040740966796875
1790173700648457200,0.319457275390625,-0.2257843017578125,-0.860565185546875,0.0363922119140625
1790173700658529300,0.329529296875,-0.344573974609375,-0.804718017578125,0.007354736328125
1790173700668601300,0.339601318359375,-0.6921234130859375,-0.777099609375,-0.0988311767578125
1790173700678672100,0.349672119140625,-0.7318267822265625,-0.8502197265625,-0.16973876953125
1790173700688744200,0.359744140625,-0.741180419921875,-0.8668365478515625,-0.133544921875
1790173700698816300,0.369816162109375,-0.5012664794921875,-0.9099578857421875,-0.1058197021484375
1790173700708887000,0.379886962890625,-0.4976043701171875,-0.8832855224609375,-0.0764923095703125
1790173700718959000,0.389958984375,-0.4559478759765625,-0.8448028564453125,-0.05499267578125
1790173700729030100,0.400030029296875,-0.473846435546875,-0.8526458740234375,0.005401611328125
1790173700739102200,0.410102294921875,-0.414947509765625,-0.90582275390625,0.011932373046875
1790173700749174000,0.420174072265625,-0.2834930419921875,-0.93402099609375,0.0040130615234375
1790173700759245000,0.4302451171875,-0.4802093505859375,-0.91729736328125,0.021636962890625
1790173700769317000,0.440317138671875,-0.4701080322265625,-0.9493560791015625,0.0724945068359375
1790173700779389200,0.45038916015625,-0.400360107421875,-0.9711761474609375,0.16259765625
1790173700789460200,0.460460205078125,-0.50238037109375,-0.9033660888671875,0.2458038330078125
1790173700799532300,0.4705322265625,-0.283447265625,-0.94232177734375,0.280792236328125
1790173700809604000,0.48060400390625,-0.195220947265625,-0.9454498291015625,0.3197479248046875
1790173700819675100,0.490675048828125,-0.3354644775390625,-0.8714447021484375,0.2798004150390625
1790173700829747200,0.500747314453125,-0.4256439208984375,-0.9112701416015625,0.1913604736328125
1790173700839819300,0.5108193359375,-0.274810791015625,-0.995391845703125,0.156463623046875
1790173700849890300,0.520890380859375,-0.3697509765625,-0.9285888671875,0.1203460693359375
1790173700859962000,0.530962158203125,-0.5279541015625,-0.87451171875,0.090179443359375
1790173700870034200,0.5410341796875,-0.448089599609375,-0.960052490234375,0.0550994873046875
1790173700880105200,0.551105224609375,-0.3157958984375,-0.98126220703125,0.17535400390625
1790173700890177300,0.56117724609375,-0.371337890625,-0.9250640869140625,0.1414642333984375
1790173700900249300,0.571249267578125,-0.6102752685546875,-0.873779296875,0.1131134033203125
1790173700910320400,0.5813203125,-0.35565185546875,-0.8806304931640625,0.087646484375
1790173700920392200,0.59139208984375,-0.2281036376953125,-0.983612060546875,0.2266845703125
1790173700930463000,0.601462890625,-0.55029296875,-0.8919677734375,0.1307220458984375
1790173700940535000,0.61153515625,-0.1217803955078125,-1.0170440673828125,0.091522216796875
1790173700950607400,0.621607421875,-0.1279296875,-1.0201416015625,0.176422119140625
1790173700960678100,0.63167822265625,-0.290191650390625,-0.9675750732421875,0.12200927734375
1790173700970750200,0.641750244140625,-0.4601287841796875,-0.8999481201171875,0.0375518798828125
1790173700980822000,0.651822021484375,-0.5151824951171875,-0.9014739990234375,0.0356292724609375
1790173700990893000,0.66189306640625,-0.0590362548828125,-1.0887451171875,0.153076171875
1790173701000965000,0.671965087890625,0.016937255859375,-1.0236968994140625,0.2154388427734375
1790173701011037200,0.682037109375,-0.3108673095703125,-0.8810272216796875,0.1142120361328125
1790173701021108200,0.692108154296875,-0.4051971435546875,-0.930328369140625,-0.15069580078125
1790173701031180000,0.702179931640625,-0.3448486328125,-0.985321044921875,-0.2054595947265625
1790173701041252000,0.712252197265625,-0.5284271240234375,-0.8959197998046875,-0.2093505859375
1790173701051323100,0.7223232421875,-0.3623504638671875,-0.961273193359375,-0.167266845703125
1790173701061395200,0.732395263671875,-0.383819580078125,-0.839569091796875,-0.1765594482421875
1790173701071467300,0.74246728515625,-0.5512237548828125,-0.8156890869140625,-0.1671142578125
1790173701081538300,0.752538330078125,-0.36669921875,-0.87310791015625,-0.080047607421875
1790173701091610000,0.762610107421875,-0.46173095703125,-0.8647308349609375,-0.0378570556640625
1790173701101682200,0.77268212890625,-0.51171875,-0.916259765625,-0.1786041259765625
1790173701111753200,0.782753173828125,-0.4280853271484375,-0.9808349609375,-0.1811981201171875
1790173701121825300,0.7928251953125,-0.433135986328125,-0.855133056640625,-0.0671539306640625
1790173701131896300,0.802896240234375,-0.5333709716796875,-0.874542236328125,-0.0500030517578125
1790173701141968100,0.812968017578125,-0.3878936767578125,-1.0290374755859375,-0.131195068359375
1790173701152040200,0.823040283203125,-0.446380615234375,-0.9844512939453125,-0.06463623046875
1790173701162111200,0.833111328125,-0.43438720703125,-0.88104248046875,-0.08935546875
1790173701172183300,0.843183349609375,-0.278533935546875,-0.89532470703125,-0.091217041015625
1790173701182255400,0.85325537109375,-0.1005401611328125,-1.01666259765625,-0.0886077880859375
1790173701192326100,0.863326171875,-0.4729461669921875,-0.9581756591796875,-0.0182037353515625
1790173701202398200,0.873398193359375,-0.6103363037109375,-0.952972412109375,-0.0592193603515625
1790173701212470300,0.88347021484375,-0.4046630859375,-1.076568603515625,-0.0645599365234375
1790173701222541000,0.893541015625,-0.085968017578125,-1.1543121337890625,-0.06207275390625
1790173701232613000,0.903613037109375,-0.1910858154296875,-0.9842071533203125,-0.0851898193359375
1790173701242685200,0.913685302734375,-0.4734344482421875,-0.868499755859375,-0.1023101806640625
1790173701252756200,0.923756103515625,-0.3126983642578125,-0.9958953857421875,-0.162811279296875
1790173701262828000,0.933828125,-0.456817626953125,-0.9849090576171875,-0.09759521484375
1790173701272900000,0.943900146484375,-0.4273529052734375,-0.890594482421875,-0.077178955078125
1790173701282971100,0.95397119140625,-0.27398681640625,-0.9058837890625,-0.108795166015625
1790173701293043200,0.964043212890625,-0.3796234130859375,-0.8964385986328125,-0.1151123046875
1790173701303115000,0.974114990234375,-0.449432373046875,-0.9152374267578125,-0.1314849853515625
1790173701313186000,0.98418603515625,-0.578155517578125,-0.9170684814453125,-0.0848236083984375
1790173701323258000,0.994258056640625,-0.5003509521484375,-0.9893646240234375,-0.0956573486328125
1790173701333329000,1.004328857421875,-0.5111846923828125,-0.981689453125,-0.096771240234375
1790173701343401000,1.01440087890625,-0.6107025146484375,-0.832916259765625,-0.1266632080078125
1790173701353473000,1.02447314453125,-0.4444122314453125,-0.883941650390625,-0.1831207275390625
1790173701363544000,1.0345439453125,-0.256866455078125,-0.885772705078125,-0.111328125
1790173701373615900,1.044615966796875,-0.53533935546875,-0.778717041015625,-0.047698974609375
1790173701383688000,1.05468798828125,-0.6560516357421875,-0.8235626220703125,-0.149444580078125
1790173701393759000,1.064759033203125,-0.4115447998046875,-0.923370361328125,-0.217071533203125
1790173701403831000,1.0748310546875,-0.37890625,-0.856231689453125,-0.11297607421875
1790173701413903000,1.084903076171875,-0.458709716796875,-0.75811767578125,-0.102569580078125
1790173701423974100,1.09497412109375,-0.44970703125,-0.8158416748046875,-0.1801910400390625
1790173701434046000,1.1050458984375,-0.5323028564453125,-0.84967041015625,-0.1672515869140625
1790173701444118000,1.115117919921875,-0.69561767578125,-0.9002838134765625,-0.13189697265625
1790173701454189000,1.12518896484375,-0.58013916015625,-0.91571044921875,-0.1406707763671875
1790173701464261000,1.13526123046875,-0.57421875,-0.9345855712890625,-0.161163330078125
1790173701474333000,1.1453330078125,-0.4028778076171875,-0.9196929931640625,-0.20648193359375
1790173701484404000,1.155404052734375,-0.369598388671875,-0.855987548828125,-0.1715545654296875
1790173701494476000,1.16547607421875,-0.45147705078125,-0.8360748291015625,-0.2472686767578125
1790173701504547000,1.175547119140625,-0.422332763671875,-0.844512939453125,-0.2923736572265625
1790173701514619100,1.185619140625,-0.5035400390625,-0.8829803466796875,-0.2658843994140625
1790173701524691200,1.195691162109375,-0.5811614990234375,-0.97735595703125,-0.220001220703125
1790173701534762200,1.20576220703125,-0.5510711669921875,-0.9846343994140625,-0.1894989013671875
1790173701544834000,1.215833984375,-0.5311431884765625,-0.92950439453125,-0.1196441650390625
1790173701554906000,1.225906005859375,-0.289306640625,-0.97808837890625,-0.206787109375
1790173701564977200,1.23597705078125,-0.3249053955078125,-0.93878173828125,-0.1562347412109375
1790173701575049200,1.24604931640625,-0.359527587890625,-0.90582275390625,-0.041595458984375
1790173701585121300,1.256121337890625,-0.1542510986328125,-1.0275726318359375,-0.10101318359375
1790173701595192000,1.266192138671875,-0.2165679931640625,-0.995880126953125,-0.17230224609375
1790173701605264000,1.276263916015625,-0.4286651611328125,-0.9388580322265625,-0.187255859375
1790173701615336000,1.2863359375,-0.447967529296875,-0.9354248046875,-0.16436767578125
1790173701625407000,1.296406982421875,-0.3272857666015625,-0.9585723876953125,-0.1938934326171875
1790173701635479000,1.30647900390625,-0.404388427734375,-0.9063568115234375,-0.277435302734375
1790173701645550800,1.31655078125,-0.34185791015625,-0.899169921875,-0.3099212646484375
1790173701655622000,1.326621826171875,-0.524383544921875,-0.80743408203125,-0.1791229248046875
1790173701665694000,1.33669384765625,-0.448089599609375,-0.884429931640625,-0.1596527099609375
1790173701675766000,1.34676611328125,-0.3838348388671875,-0.9316253662109375,-0.24310302734375
1790173701685837000,1.356837158203125,-0.2089080810546875,-0.916534423828125,-0.405548095703125
1790173701695909000,1.3669091796875,-0.4619140625,-0.8393402099609375,-0.3179931640625
1790173701705980200,1.376980224609375,-0.488067626953125,-0.8010711669921875,-0.278717041015625
1790173701716052000,1.387052001953125,-0.5685577392578125,-0.840667724609375,-0.2755279541015625
1790173701726124000,1.3971240234375,-0.44622802734375,-0.9026947021484375,-0.229278564453125
1790173701736195000,1.407195068359375,-0.1314697265625,-1.0089263916015625,-0.1062164306640625
1790173701746267100,1.41726708984375,-0.243988037109375,-0.9143218994140625,-0.0205841064453125
1790173701756339200,1.427339111328125,-0.33740234375,-0.781219482421875,0.0045318603515625
1790173701766410200,1.43741015625,-0.268798828125,-0.8942413330078125,0.049224853515625
1790173701776482000,1.44748193359375,-0.3552093505859375,-1.02960205078125,0.08123779296875
1790173701786554000,1.45755419921875,-0.52081298828125,-0.9746856689453125,0.115386962890625
1790173701796625200,1.467625244140625,-0.4034576416015625,-0.9185943603515625,0.1170654296875
1790173701806697200,1.477697265625,-0.270111083984375,-0.8906097412109375,0.0992431640625
1790173701816769000,1.48776904296875,-0.28826904296875,-0.880950927734375,0.0642852783203125
1790173701826840000,1.497840087890625,-0.0726776123046875,-0.97930908203125,0.0208587646484375
1790173701836912000,1.507912109375,-0.14459228515625,-1.02984619140625,0.0513458251953125
1790173701846984200,1.517984130859375,-0.256622314453125,-0.9276275634765625,0.0369415283203125
1790173701857055000,1.528054931640625,-0.4451141357421875,-0.900482177734375,-0.0099945068359375
1790173701867127000,1.538126953125,-0.26568603515625,-1.0266876220703125,0.035064697265625
1790173701877198000,1.548197998046875,-0.233245849609375,-1.0826568603515625,0.0332183837890625
1790173701887270000,1.558269775390625,-0.380615234375,-0.9539337158203125,-0.026123046875
1790173701897342000,1.568342041015625,-0.3687896728515625,-0.8973388671875,-0.023834228515625
1790173701907413000,1.5784130859375,-0.2649383544921875,-0.925537109375,-0.0477294921875
1790173701917485000,1.588485107421875,-0.4820556640625,-0.906951904296875,-0.09136962890625
1790173701927556900,1.598556884765625,-0.3881378173828125,-0.93194580078125,-0.1105499267578125
1790173701937628000,1.6086279296875,-0.4125213623046875,-0.96697998046875,-0.1594085693359375
1790173701947700000,1.618699951171875,-0.4136199951171875,-0.9138336181640625,-0.1861419677734375
1790173701957772000,1.62877197265625,-0.402191162109375,-0.8615875244140625,-0.2025604248046875
1790173701967843000,1.638843017578125,-0.5011444091796875,-0.85601806640625,-0.2036590576171875
1790173701977915100,1.6489150390625,-0.44580078125,-0.9677734375,-0.2123565673828125
1790173701987987000,1.658987060546875,-0.4384918212890625,-0.915771484375,-0.1391448974609375
1790173701998058000,1.66905810546875,-0.361175537109375,-0.8721466064453125,-0.1149749755859375
1790173702008130000,1.679130126953125,-0.3695068359375,-0.8345947265625,-0.07598876953125
1790173702018202000,1.6892021484375,-0.4652862548828125,-0.871917724609375,-0.0633087158203125
1790173702028273200,1.699273193359375,-0.477813720703125,-0.912506103515625,0.02606201171875
1790173702038345200,1.70934521484375,-0.368255615234375,-0.9115142822265625,0.101287841796875
1790173702048416300,1.719416259765625,-0.3716278076171875,-0.944580078125,0.1385040283203125
1790173702058488000,1.729488037109375,-0.473480224609375,-0.9961395263671875,0.1758880615234375
1790173702068560100,1.73956005859375,-0.4948883056640625,-0.92449951171875,0.1882476806640625
1790173702078631200,1.749631103515625,-0.3001251220703125,-0.88397216796875,0.12457275390625
1790173702088703200,1.759703125,-0.1215057373046875,-0.9160919189453125,0.056182861328125
1790173702098775000,1.769775146484375,-0.30230712890625,-0.9250640869140625,0.0489044189453125
1790173702108845800,1.779845703125,-0.627593994140625,-0.89019775390625,0.060638427734375
1790173702118918000,1.78991796875,-0.5982818603515625,-0.952301025390625,0.0376739501953125
1790173702128990200,1.799990234375,-0.3149261474609375,-1.0200653076171875,0.0734405517578125
1790173702139061000,1.81006103515625,-0.2163543701171875,-0.894561767578125,0.0509185791015625
1790173702149133000,1.820133056640625,-0.3565521240234375,-0.8569793701171875,0.0785675048828125
1790173702159204900,1.830204833984375,-0.5160980224609375,-0.8194580078125,0.016387939453125
1790173702169276000,1.84027587890625,-0.4926910400390625,-0.8876495361328125,-0.05560302734375
1790173702179348000,1.850347900390625,-0.6114959716796875,-0.9618988037109375,-0.0662994384765625
1790173702189419000,1.8604189453125,-0.36407470703125,-0.9966278076171875,-0.0388031005859375
1790173702199491000,1.870490966796875,-0.4257659912109375,-0.95196533203125,-0.017974853515625
1790173702209563100,1.880563232421875,-0.3205718994140625,-0.9123077392578125,0.0413970947265625
1790173702219634200,1.89063427734375,-0.4587554931640625,-0.793060302734375,0.1174163818359375
1790173702229706000,1.9007060546875,-0.65966796875,-0.77093505859375,0.106170654296875
1790173702239778000,1.910778076171875,-0.5230560302734375,-0.8520355224609375,0.1409454345703125
1790173702249849000,1.92084912109375,-0.4178314208984375,-0.94873046875,0.1835174560546875
1790173702259921200,1.930921142578125,-0.5743408203125,-0.8173675537109375,0.152862548828125
1790173702269993500,1.940993408203125,-0.8294830322265625,-0.70794677734375,0.19390869140625
1790173702280064500,1.951064453125,-0.5344696044921875,-0.8600311279296875,0.248016357421875
1790173702290136600,1.961136474609375,-0.18939208984375,-0.9461212158203125,0.2541351318359375
1790173702300208600,1.971208740234375,-0.37921142578125,-0.8383636474609375,0.1307830810546875
1790173702310279700,1.98127978515625,-0.43914794921875,-0.8672332763671875,0.03265380859375
1790173702320351500,1.9913515625,-0.7294464111328125,-0.8455963134765625,0.0632171630859375
1790173702330423600,2.001423583984375,-0.7887115478515625,-0.88330078125,-0.0161895751953125
1790173702340494600,2.01149462890625,-0.4924468994140625,-0.9964141845703125,-0.029022216796875
1790173702350566700,2.021566650390625,-0.15338134765625,-0.989166259765625,-0.00067138671875
1790173702360637400,2.031637451171875,-0.212615966796875,-0.906219482421875,0.0019683837890625
1790173702370709500,2.04170947265625,-0.4442596435546875,-0.870147705078125,-0.091094970703125
1790173702380781300,2.05178125,-0.526641845703125,-0.9065093994140625,-0.164398193359375
1790173702390852400,2.061852294921875,-0.47393798828125,-0.90643310546875,-0.1502227783203125
1790173702400924400,2.07192431640625,-0.35052490234375,-0.8728485107421875,-0.1210479736328125
1790173702410996500,2.08199658203125,-0.4453582763671875,-0.7855377197265625,-0.1611328125
1790173702421067500,2.092067626953125,-0.145294189453125,-1.0943450927734375,-0.0689697265625
1790173702431139600,2.1021396484375,0.0919189453125,-1.1787567138671875,0.0160675048828125
1790173702441211400,2.11221142578125,-0.6345672607421875,-0.819000244140625,0.0490264892578125
1790173702451282400,2.122282470703125,-0.0252685546875,-1.1348419189453125,-0.0451507568359375
1790173702461354500,2.1323544921875,-0.264190673828125,-1.0378570556640625,0.0308685302734375
1790173702471426600,2.142426513671875,-1.2182464599609375,-0.514984130859375,0.2520294189453125
1790173702481497600,2.15249755859375,-0.4134521484375,-1.0318145751953125,0.1389312744140625
1790173702491569400,2.1625693359375,0.334228515625,-1.3278656005859375,-0.0601043701171875
1790173702501640400,2.172640380859375,-0.22528076171875,-0.8643646240234375,0.0375823974609375
1790173702511712500,2.18271240234375,-0.641571044921875,-0.6817474365234375,0.1392059326171875
1790173702521784600,2.19278466796875,-0.376220703125,-0.9835968017578125,-0.0474853515625
1790173702531855600,2.202855712890625,-0.29095458984375,-1.0712127685546875,-0.111846923828125
1790173702541927700,2.212927734375,-0.2303924560546875,-1.028472900390625,-0.04022216796875
1790173702551999500,2.22299951171875,-0.1214141845703125,-1.023834228515625,-0.00604248046875
1790173702562070500,2.233070556640625,-0.411712646484375,-0.8296966552734375,-0.0004119873046875
1790173702572142600,2.243142578125,-0.472076416015625,-0.8980712890625,0.023345947265625
1790173702582214700,2.253214599609375,-0.3108367919921875,-1.087554931640625,-0.0887298583984375
1790173702592285700,2.26328564453125,-0.1358642578125,-1.048675537109375,-0.218414306640625
1790173702602357500,2.273357421875,-0.1922454833984375,-0.882354736328125,-0.1305694580078125
1790173702612429600,2.2834296875,-0.3321380615234375,-0.8304290771484375,-0.04791259765625
1790173702622500400,2.293500244140625,-0.434173583984375,-0.9373626708984375,-0.1640472412109375
1790173702632572400,2.303572509765625,-0.3391265869140625,-1.0445709228515625,-0.187286376953125
1790173702642643500,2.3136435546875,-0.2162017822265625,-1.0667266845703125,-0.2320098876953125
1790173702652715500,2.323715576171875,-0.4264068603515625,-0.9459075927734375,-0.2210845947265625
1790173702662787300,2.333787353515625,-0.5299072265625,-0.849578857421875,-0.156280517578125
1790173702672858400,2.3438583984375,-0.46240234375,-0.9150543212890625,-0.1622772216796875
1790173702682930400,2.353930419921875,-0.1980133056640625,-0.91741943359375,-0.1828765869140625
1790173702693002500,2.36400244140625,-0.3636016845703125,-0.8599853515625,-0.209228515625
1790173702703073500,2.374073486328125,-0.4625244140625,-0.8450469970703125,-0.06573486328125
1790173702713145600,2.3841455078125,-0.60009765625,-0.8597564697265625,-0.01190185546875
1790173702723217400,2.394217529296875,-0.660858154296875,-0.95855712890625,-0.021759033203125
1790173702733288400,2.404288330078125,-0.39434814453125,-1.0279693603515625,0.02203369140625
1790173702743360500,2.414360595703125,-0.3786163330078125,-0.9322967529296875,-0.0695953369140625
1790173702753432600,2.4244326171875,-0.42279052734375,-0.8185577392578125,0.002716064453125
1790173702763503600,2.434503662109375,-0.4521026611328125,-0.7794647216796875,0.0923004150390625
1790173702773575400,2.444575439453125,-0.3447418212890625,-0.9324798583984375,0.0203399658203125
1790173702783646500,2.454646484375,-0.2183837890625,-0.956390380859375,0.0005340576171875
1790173702793718500,2.464718505859375,-0.3587188720703125,-0.8980255126953125,0.03704833984375
1790173702803790600,2.47479052734375,-0.52581787109375,-0.8329315185546875,0.0892486572265625
1790173702813861600,2.484861572265625,-0.440948486328125,-0.92266845703125,0.0962371826171875
1790173702823933700,2.49493359375,-0.482421875,-0.93658447265625,0.0276947021484375
1790173702834005500,2.505005615234375,-0.55133056640625,-0.9207763671875,-0.0227203369140625
1790173702844076500,2.51507666015625,-0.4983978271484375,-0.9728851318359375,-0.0165557861328125
1790173702854148600,2.525148681640625,-0.3359527587890625,-0.954925537109375,0.0165863037109375
1790173702864220700,2.535220703125,-0.1617431640625,-0.927886962890625,0.0276336669921875
1790173702874291500,2.54529150390625,-0.267242431640625,-0.8522186279296875,-0.0034942626953125
1790173702884363500,2.555363525390625,-0.1670379638671875,-0.942352294921875,0.0207977294921875
1790173702894435300,2.565435302734375,-0.4391021728515625,-0.9331817626953125,-0.0300445556640625
1790173702904506400,2.57550634765625,-0.64935302734375,-0.894866943359375,-0.015655517578125
1790173702914578400,2.585578369140625,-0.3837127685546875,-1.067474365234375,-0.0187225341796875
1790173702924649500,2.5956494140625,-0.322418212890625,-1.051361083984375,-0.1151275634765625
1790173702934721500,2.605721435546875,-0.3915252685546875,-0.87689208984375,-0.0926361083984375
1790173702944793300,2.61579345703125,-0.37127685546875,-0.8900299072265625,-0.056915283203125
1790173702954864400,2.625864501953125,-0.3770904541015625,-0.900360107421875,-0.0854949951171875
1790173702964936400,2.6359365234375,-0.5520172119140625,-0.932373046875,-0.093963623046875
1790173702975008500,2.646008544921875,-0.548248291015625,-0.9332122802734375,-0.0242919921875
1790173702985079600,2.65607958984375,-0.5330352783203125,-0.8145904541015625,-0.0451202392578125
1790173702995151600,2.666151611328125,-0.52362060546875,-0.78887939453125,0.0906219482421875
1790173703005223400,2.676223388671875,-0.709716796875,-0.873046875,0.1191864013671875
1790173703015294500,2.68629443359375,-0.6278228759765625,-0.99151611328125,-0.0854644775390625
1790173703025366500,2.696366455078125,-0.5144805908203125,-0.95697021484375,-0.142120361328125
1790173703035438600,2.7064384765625,-0.2471466064453125,-0.8369903564453125,-0.208984375
1790173703045509600,2.716509521484375,-0.223236083984375,-0.7275390625,-0.1876373291015625
1790173703055581700,2.726581787109375,-0.55084228515625,-0.6728057861328125,-0.18243408203125
1790173703065652700,2.73665283203125,-0.701873779296875,-0.887115478515625,-0.12078857421875
1790173703075724500,2.746724609375,-0.5200042724609375,-1.0556640625,-0.0692901611328125
1790173703085796600,2.756796630859375,-0.3524017333984375,-1.0269012451171875,-0.0909271240234375
1790173703095867600,2.76686767578125,-0.359222412109375,-0.9173126220703125,-0.0641632080078125
1790173703105939700,2.776939697265625,-0.258819580078125,-0.8394927978515625,-0.10394287109375
1790173703116011500,2.787011474609375,-0.609893798828125,-0.804107666015625,-0.026611328125
1790173703126082300,2.797082275390625,-0.443756103515625,-0.9363555908203125,-0.0087890625
1790173703136154400,2.807154296875,-0.3267669677734375,-0.9976348876953125,-0.0886993408203125
1790173703146226400,2.817226318359375,-0.245941162109375,-0.94171142578125,-0.0970001220703125
1790173703156297500,2.82729736328125,-0.353515625,-0.883331298828125,-0.05450439453125
1790173703166369500,2.83736962890625,-0.453887939453125,-0.9353485107421875,-0.0754547119140625
1790173703176441300,2.84744140625,-0.5484771728515625,-0.915374755859375,-0.0748138427734375
1790173703186512400,2.857512451171875,-0.3810577392578125,-0.98193359375,-0.04937744140625
1790173703196584400,2.86758447265625,-0.2612457275390625,-0.988189697265625,-0.08477783203125
1790173703206655500,2.877655517578125,-0.5463409423828125,-0.8454132080078125,-0.0631561279296875
1790173703216727600,2.8877275390625,-0.65728759765625,-0.85528564453125,-0.0075531005859375
1790173703226799600,2.897799560546875,-0.2883148193359375,-0.9911041259765625,-0.035003662109375
1790173703236870400,2.907870361328125,-0.24371337890625,-0.9480438232421875,-0.203399658203125
1790173703246942500,2.9179423828125,-0.4958038330078125,-0.802947998046875,-0.2233428955078125
1790173703257014500,2.9280146484375,-0.4310150146484375,-0.8927001953125,-0.1389007568359375
1790173703267085600,2.93808544921875,-0.2984619140625,-1.0493621826171875,-0.1410980224609375
1790173703277157600,2.94815771484375,-0.33514404296875,-0.916778564453125,-0.127197265625
1790173703287229400,2.9582294921875,-0.25244140625,-0.9133453369140625,-0.1008148193359375
1790173703297300500,2.968300537109375,-0.2674102783203125,-0.9404296875,-0.070343017578125
1790173703307372500,2.97837255859375,-0.568511962890625,-0.8608551025390625,-0.0020599365234375
1790173703317443600,2.988443603515625,-0.52923583984375,-0.9499664306640625,-0.0096893310546875
1790173703327515600,2.998515625,-0.2675323486328125,-1.0602264404296875,-0.02630615234375
1790173703337587700,3.008587646484375,-0.148895263671875,-1.0747833251953125,0.0426177978515625
1790173703347658800,3.01865869140625,-0.2792510986328125,-0.8519134521484375,0.1336517333984375
1790173703357730600,3.02873046875,-0.3751220703125,-0.805908203125,0.0970458984375
1790173703367802600,3.038802734375,-0.6789398193359375,-0.9125213623046875,0.05194091796875
1790173703377873400,3.048873291015625,-0.638092041015625,-0.978057861328125,-0.074066162109375
1790173703387945500,3.058945556640625,-0.3756103515625,-1.0101165771484375,-0.1658477783203125
1790173703398017300,3.069017333984375,-0.2794036865234375,-0.857696533203125,-0.1586761474609375
1790173703408088300,3.07908837890625,-0.333953857421875,-0.816375732421875,-0.052947998046875
1790173703418160400,3.089160400390625,-0.2413482666015625,-0.854583740234375,0.02752685546875
1790173703428232400,3.099232421875,-0.2664794921875,-0.9005584716796875,-0.0082550048828125
1790173703438303500,3.109303466796875,-0.5240631103515625,-0.8849029541015625,0.0022125244140625
1790173703448375600,3.11937548828125,-0.60113525390625,-0.940582275390625,0.0457611083984375
1790173703458446600,3.129446533203125,-0.4640045166015625,-1.0345306396484375,0.0648345947265625
1790173703468518400,3.139518310546875,-0.304656982421875,-1.000579833984375,0.0228271484375
1790173703478590500,3.149590576171875,-0.462554931640625,-0.858428955078125,-0.00164794921875
1790173703488661500,3.15966162109375,-0.3680419921875,-0.9108123779296875,0.04302978515625
1790173703498733600,3.169733642578125,-0.346038818359375,-0.87664794921875,0.064117431640625
1790173703508805600,3.1798056640625,-0.3713836669921875,-0.955413818359375,0.0312652587890625
1790173703518876700,3.189876708984375,-0.327423095703125,-0.9691314697265625,-0.019134521484375
1790173703528948500,3.199948486328125,-0.269378662109375,-0.914093017578125,-0.0132293701171875
1790173703539020500,3.2100205078125,-0.4417724609375,-0.7419281005859375,0.02264404296875
1790173703549091600,3.220091552734375,-0.2783355712890625,-0.87066650390625,-0.027374267578125
1790173703559163600,3.23016357421875,-0.3184967041015625,-0.9921722412109375,-0.166900634765625
1790173703569234700,3.240234619140625,-0.5211181640625,-0.935882568359375,-0.1102752685546875
1790173703579306500,3.250306396484375,-0.621124267578125,-0.917510986328125,-0.0203704833984375
1790173703589378600,3.260378662109375,-0.2485809326171875,-1.0250244140625,-0.023681640625
1790173703599449600,3.27044970703125,-0.4610595703125,-0.9879302978515625,-0.1097564697265625
1790173703609521700,3.280521728515625,-0.6060028076171875,-0.88922119140625,-0.0272064208984375
1790173703619593700,3.29059375,-0.48846435546875,-0.896942138671875,0.0401458740234375
1790173703629664500,3.30066455078125,-0.52392578125,-0.92913818359375,0.0709686279296875
1790173703639736300,3.310736328125,-0.6319580078125,-0.8925933837890625,0.01104736328125
1790173703649808400,3.320808349609375,-0.4862213134765625,-0.9119720458984375,-0.0701141357421875
1790173703659879400,3.33087939453125,-0.3945465087890625,-0.824493408203125,-0.0820770263671875
1790173703669951500,3.340951416015625,-0.5791473388671875,-0.7816925048828125,-0.0974273681640625
1790173703680023600,3.3510234375,-0.5911407470703125,-0.8266754150390625,-0.1097564697265625
1790173703690094600,3.361094482421875,-0.4424285888671875,-0.8989105224609375,-0.19964599609375
1790173703700166400,3.37116650390625,-0.474761962890625,-0.8581695556640625,-0.198089599609375
1790173703710237400,3.381237548828125,-0.3734588623046875,-0.9039306640625,-0.0592193603515625
1790173703720309500,3.3913095703125,-0.28521728515625,-0.975738525390625,-0.0302581787109375
1790173703730381600,3.401381591796875,-0.5579833984375,-0.9404754638671875,-0.0806732177734375
1790173703740452600,3.41145263671875,-0.587127685546875,-0.904327392578125,0.005126953125
1790173703750524400,3.4215244140625,-0.3628692626953125,-0.92620849609375,0.0200042724609375
1790173703760596500,3.431596435546875,-0.22491455078125,-0.8601531982421875,-0.069183349609375
1790173703770667500,3.44166748046875,-0.1121063232421875,-0.9183502197265625,-0.093475341796875
1790173703780739600,3.451739501953125,-0.31390380859375,-0.9101104736328125,-0.0708770751953125
1790173703790811600,3.461811767578125,-0.6306915283203125,-0.9069061279296875,0.04473876953125
1790173703800882700,3.471882568359375,-0.6700286865234375,-0.9228515625,0.0580291748046875
1790173703810954500,3.48195458984375,-0.3097686767578125,-1.0010986328125,-0.0062255859375
1790173703821025500,3.492025634765625,-0.2095489501953125,-1.0001983642578125,-0.049072265625
1790173703831097600,3.50209765625,-0.29888916015625,-0.84521484375,-0.042633056640625
1790173703841169700,3.512169677734375,-0.4878997802734375,-0.847015380859375,-0.0296630859375
1790173703851240700,3.52224072265625,-0.5018310546875,-0.9004669189453125,0.009521484375
1790173703861312500,3.5323125,-0.4047088623046875,-0.929168701171875,-0.1105194091796875
1790173703871384600,3.542384521484375,-0.2079315185546875,-1.049072265625,-0.168701171875
1790173703881455400,3.552455322265625,-0.5884857177734375,-0.84576416015625,-0.1909637451171875
1790173703891527400,3.56252734375,-0.5410003662109375,-0.969573974609375,-0.0958099365234375
1790173703901599500,3.572599609375,-0.263824462890625,-0.954986572265625,-0.035064697265625
1790173703911670500,3.58267041015625,-0.0612640380859375,-0.9866180419921875,-0.06768798828125
1790173703921742300,3.592742431640625,-0.086639404296875,-0.94537353515625,-0.0052337646484375
1790173703931813400,3.6028134765625,-0.3082122802734375,-0.837677001953125,0.0620880126953125
1790173703941885400,3.612885498046875,-0.37689208984375,-0.8846282958984375,0.0554351806640625
1790173703951957500,3.62295751953125,-0.2881927490234375,-1.0162506103515625,0.0184783935546875
1790173703962028500,3.633028564453125,-0.2979736328125,-1.0552520751953125,-0.0666046142578125
1790173703972100600,3.6431005859375,-0.2307586669921875,-0.9112091064453125,0.02471923828125
1790173703982172400,3.65317236328125,-0.0855255126953125,-0.792449951171875,0.11126708984375
1790173703992243500,3.663243408203125,-0.0027923583984375,-0.8321533203125,0.120697021484375
1790173704002315500,3.6733154296875,-0.2978057861328125,-0.9035491943359375,0.0608978271484375
1790173704012387600,3.6833876953125,-0.494903564453125,-1.0814666748046875,0.002777099609375
1790173704022458600,3.693458740234375,-0.9246063232421875,-1.1240692138671875,0.0762786865234375
1790173704032530400,3.703530517578125,-1.0098876953125,-1.073822021484375,0.103424072265625
1790173704042601500,3.7136015625,-0.4511871337890625,-1.102783203125,-0.0810546875
1790173704052673500,3.723673583984375,0.1842498779296875,-0.966400146484375,-0.166656494140625
1790173704062745600,3.73374560546875,-0.06463623046875,-0.6598968505859375,-0.136627197265625
1790173704072816600,3.743816650390625,-0.3851470947265625,-0.5506134033203125,-0.0381317138671875
1790173704082888700,3.753888671875,-0.761138916015625,-0.807769775390625,0.023284912109375
1790173704092960500,3.76396044921875,-1.089996337890625,-1.124359130859375,-0.1080169677734375
1790173704103031600,3.774031494140625,-0.9083709716796875,-1.284576416015625,-0.225250244140625
1790173704113103600,3.784103515625,-0.604339599609375,-1.17047119140625,-0.207550048828125
1790173704123175700,3.79417578125,-0.361724853515625,-1.0250701904296875,-0.15179443359375
1790173704133246500,3.80424658203125,-0.1649627685546875,-0.7750396728515625,-0.0540008544921875
1790173704143318500,3.814318603515625,0.143463134765625,-0.635650634765625,-0.0266876220703125
1790173704153389600,3.8243896484375,-0.23480224609375,-0.747802734375,-0.0703887939453125
1790173704163461400,3.83446142578125,-0.820892333984375,-0.92950439453125,0.062286376953125
1790173704173533400,3.844533447265625,-0.9912261962890625,-1.0018310546875,0.107757568359375
1790173704183604500,3.8546044921875,-0.50982666015625,-1.1558990478515625,0.06317138671875
1790173704193676500,3.864676513671875,-0.118316650390625,-1.1446990966796875,-0.0303497314453125
1790173704203748400,3.874748291015625,-0.188140869140625,-0.856964111328125,0.0234375
1790173704213819400,3.8848193359375,-0.6033782958984375,-0.6006622314453125,0.1723785400390625
1790173704223891500,3.894891357421875,-0.88385009765625,-0.699432373046875,0.279388427734375
1790173704233963500,3.904963623046875,-0.731201171875,-0.9923248291015625,0.2293548583984375
1790173704244034600,3.91503466796875,-0.3499908447265625,-1.0826416015625,0.15911865234375
1790173704254106600,3.925106689453125,-0.0870361328125,-0.927490234375,0.143096923828125
1790173704264177700,3.935177734375,-0.0811614990234375,-0.6607208251953125,0.244873046875
1790173704274249000,3.9452490234375,-0.4442901611328125,-0.5189056396484375,0.222900390625
1790173704284320800,3.95532080078125,-0.5100555419921875,-0.726348876953125,0.154388427734375
1790173704294391800,3.965391845703125,-0.4957733154296875,-0.929412841796875,0.145050048828125
1790173704304464000,3.9754638671875,-0.47265625,-1.0064849853515625,0.1040496826171875
1790173704314536000,3.985535888671875,-0.3516998291015625,-0.87164306640625,0.086578369140625
1790173704324607000,3.99560693359375,-0.2600860595703125,-0.884857177734375,0.0816802978515625
1790173704334678800,4.0056787109375,-0.5189971923828125,-0.7383270263671875,0.05047607421875
1790173704344750800,4.015750732421875,-0.706085205078125,-0.7269439697265625,-0.0334625244140625
1790173704354822000,4.02582177734375,-0.216644287109375,-0.9412689208984375,-0.0251007080078125
1790173704364894000,4.03589404296875,-0.089813232421875,-1.0148773193359375,0.0244903564453125
1790173704374965000,4.045965087890625,-0.2055816650390625,-0.9988861083984375,0.000701904296875
1790173704385037000,4.056037109375,-0.667724609375,-0.8368072509765625,-0.0106658935546875
1790173704395108900,4.06610888671875,-0.8823089599609375,-0.7487335205078125,-0.0229034423828125
1790173704405180000,4.076179931640625,-0.4301910400390625,-0.97247314453125,0.1489410400390625
1790173704415252000,4.086251953125,-0.087158203125,-1.0340118408203125,0.1172943115234375
1790173704425324000,4.096323974609375,-0.464263916015625,-0.904754638671875,0.0732421875
1790173704435395000,4.10639501953125,-0.35498046875,-1.0273590087890625,0.0857086181640625
1790173704445467000,4.116466796875,-0.5378875732421875,-0.9583892822265625,0.0843505859375
1790173704455539000,4.1265390625,-0.5383453369140625,-1.0181121826171875,0.15869140625
1790173704465610000,4.13660986328125,-0.1060638427734375,-1.2421417236328125,0.1063385009765625
1790173704475682000,4.14668212890625,-0.4046478271484375,-1.0318145751953125,0.0628814697265625
1790173704485752800,4.1567529296875,-0.5761871337890625,-1.00262451171875,0.01483154296875
1790173704495825200,4.1668251953125,-0.357574462890625,-0.9217376708984375,0.058990478515625
1790173704505897000,4.17689697265625,-0.3719482421875,-0.757659912109375,0.039886474609375
1790173704515967700,4.1869677734375,-0.292694091796875,-0.8793182373046875,-0.0476837158203125
1790173704526039800,4.197039794921875,-0.1620635986328125,-0.9880523681640625,-0.114837646484375
1790173704536111900,4.20711181640625,-0.524444580078125,-0.8907318115234375,-0.0869293212890625
1790173704546183000,4.217182861328125,-0.5192718505859375,-0.932708740234375,-0.06927490234375
1790173704556255000,4.2272548828125,-0.450408935546875,-1.000518798828125,-0.066497802734375
1790173704566326800,4.237326904296875,-0.453369140625,-0.8531951904296875,-0.0290069580078125
1790173704576397800,4.247397705078125,-0.4310302734375,-0.735015869140625,0.017364501953125
1790173704586470000,4.257469970703125,-0.38360595703125,-0.7770538330078125,0.062347412109375
1790173704596541000,4.267541015625,-0.41290283203125,-0.840362548828125,0.0915985107421875
1790173704606613000,4.277613037109375,-0.642364501953125,-0.854949951171875,0.0753021240234375
1790173704616684800,4.287684814453125,-0.484527587890625,-0.8998870849609375,0.0861358642578125
1790173704626755800,4.297755859375,-0.2347259521484375,-0.9464874267578125,0.1304473876953125
1790173704636828000,4.307827880859375,-0.161865234375,-0.8295440673828125,0.1985321044921875
1790173704646900000,4.31789990234375,-0.31591796875,-0.7535858154296875,0.138427734375
1790173704656971000,4.327970947265625,-0.3501739501953125,-0.8388824462890625,0.1087799072265625
1790173704667043000,4.33804296875,-0.43695068359375,-0.9042510986328125,0.1348876953125
1790173704677114000,4.348114013671875,-0.6263580322265625,-0.88153076171875,0.07269287109375
1790173704687186000,4.35818603515625,-0.4320068359375,-1.055267333984375,0.027740478515625
1790173704697258000,4.368258056640625,-0.491455078125,-1.003997802734375,0.1129150390625
1790173704707329000,4.3783291015625,-0.5902862548828125,-0.8158416748046875,0.0870208740234375
1790173704717401000,4.388401123046875,-0.3358612060546875,-0.9233856201171875,-0.0024871826171875
1790173704727473000,4.398472900390625,-0.21405029296875,-0.8939361572265625,0.0630950927734375
1790173704737544000,4.4085439453125,-0.2637939453125,-0.845947265625,0.0804595947265625
1790173704747616000,4.418615966796875,-0.3019256591796875,-0.8720245361328125,0.06439208984375
1790173704757688000,4.42868798828125,-0.4503631591796875,-0.92236328125,0.1244964599609375
1790173704767758800,4.4387587890625,-0.500213623046875,-0.99468994140625,0.142059326171875
1790173704777831000,4.448830810546875,-0.3806304931640625,-1.026763916015625,0.103607177734375
1790173704787902000,4.45890185546875,-0.3348236083984375,-1.05987548828125,-0.0247344970703125
1790173704797973800,4.468973876953125,-0.347076416015625,-1.0631256103515625,-0.039581298828125
1790173704808045800,4.4790458984375,-0.4905242919921875,-0.91009521484375,0.02764892578125
1790173704818116900,4.489116943359375,-0.425140380859375,-0.9027557373046875,-0.005401611328125
1790173704828189000,4.49918896484375,-0.347198486328125,-0.9708099365234375,-0.013275146484375
1790173704838261000,4.509260986328125,-0.372802734375,-0.866485595703125,0.0167388916015625
1790173704848332000,4.51933203125,-0.5308380126953125,-0.8286895751953125,-0.0509033203125
1790173704858403800,4.52940380859375,-0.4001922607421875,-0.922607421875,-0.072662353515625
1790173704868476000,4.539475830078125,-0.397796630859375,-0.860382080078125,-0.1066131591796875
1790173704878547000,4.549546875,-0.509490966796875,-0.7441864013671875,-0.1010894775390625
1790173704888619000,4.559618896484375,-0.512786865234375,-0.8112945556640625,-0.1120452880859375
1790173704898690000,4.56968994140625,-0.4698333740234375,-0.9367523193359375,-0.1236724853515625
1790173704908761900,4.579761962890625,-0.504608154296875,-0.8650054931640625,-0.176513671875
1790173704918834000,4.589833984375,-0.55694580078125,-0.8959808349609375,-0.1401214599609375
1790173704928905000,4.599905029296875,-0.6324310302734375,-0.926116943359375,-0.0661773681640625
1790173704938977000,4.60997705078125,-0.67547607421875,-0.8616180419921875,-0.043792724609375
1790173704949049000,4.620049072265625,-0.6829681396484375,-0.786529541015625,-0.1084747314453125
1790173704959120100,4.6301201171875,-0.4053802490234375,-0.9100341796875,-0.1290283203125
1790173704969192000,4.64019189453125,-0.3281402587890625,-0.8914642333984375,-0.120391845703125
1790173704979262700,4.6502626953125,-0.37506103515625,-0.834716796875,-0.123748779296875
1790173704989334800,4.660334716796875,-0.4388580322265625,-0.7971649169921875,-0.1263275146484375
1790173704999407000,4.670406982421875,-0.541748046875,-0.863372802734375,-0.1925506591796875
1790173705009478000,4.680477783203125,-0.574951171875,-0.96429443359375,-0.2039642333984375
1790173705019550000,4.690550048828125,-0.6247406005859375,-0.9704742431640625,-0.1243743896484375
1790173705029621800,4.700621826171875,-0.586090087890625,-0.913909912109375,-0.132843017578125
1790173705039692800,4.71069287109375,-0.4643096923828125,-0.8786163330078125,-0.1604766845703125
1790173705049764900,4.720764892578125,-0.284515380859375,-0.889801025390625,-0.1608734130859375
1790173705059837000,4.7308369140625,-0.111053466796875,-0.976409912109375,-0.195098876953125
1790173705069908000,4.740907958984375,-0.32708740234375,-0.9344329833984375,-0.1504364013671875
1790173705079979800,4.750979736328125,-0.4260711669921875,-0.960693359375,-0.13916015625
1790173705090050800,4.76105078125,-0.43988037109375,-0.956268310546875,-0.1177825927734375
1790173705100123000,4.771122802734375,-0.4285736083984375,-0.989013671875,-0.1595916748046875
1790173705110195000,4.78119482421875,-0.5138092041015625,-1.0561370849609375,-0.197265625
1790173705120266000,4.791265869140625,-0.4346771240234375,-1.0343475341796875,-0.24676513671875
1790173705130338000,4.801338134765625,-0.396087646484375,-0.9499969482421875,-0.2105712890625
1790173705140409900,4.811409912109375,-0.23626708984375,-0.9430999755859375,-0.170654296875
1790173705150481000,4.82148095703125,-0.367889404296875,-0.866546630859375,-0.1120147705078125
1790173705160553000,4.831552978515625,-0.4861907958984375,-0.849853515625,-0.05328369140625
1790173705170625000,4.841625,-0.4612884521484375,-0.9357147216796875,-0.0336456298828125
1790173705180696000,4.851696044921875,-0.370635986328125,-1.0054168701171875,-0.1331634521484375
1790173705190768000,4.86176806640625,-0.4053802490234375,-0.8960113525390625,-0.0935821533203125
1790173705200839200,4.871839111328125,-0.2106781005859375,-0.82110595703125,-0.06097412109375
1790173705210911000,4.881910888671875,-0.0434722900390625,-0.8783111572265625,-0.0447540283203125
1790173705220983000,4.891983154296875,-0.1744842529296875,-0.8698883056640625,0.00189208984375
1790173705231053800,4.9020537109375,-0.3787689208984375,-0.92236328125,0.009033203125
1790173705241126000,4.9121259765625,-0.57861328125,-0.8924560546875,0.071136474609375
1790173705251198000,4.922197998046875,-0.4747772216796875,-0.9588470458984375,0.056610107421875
1790173705261268700,4.932268798828125,-0.492401123046875,-0.900054931640625,0.057342529296875
1790173705271341000,4.942341064453125,-0.419708251953125,-0.9442138671875,0.08563232421875
1790173705281412000,4.952412109375,-0.3974761962890625,-0.9769439697265625,0.060455322265625
1790173705291484200,4.962484130859375,-0.508544921875,-0.9028778076171875,0.0273895263671875
1790173705301556200,4.97255615234375,-0.451995849609375,-0.886810302734375,0.0426025390625
1790173705311627300,4.982627197265625,-0.16900634765625,-0.942657470703125,-0.07708740234375
1790173705321699000,4.992698974609375,-0.35333251953125,-0.7754058837890625,-0.0909881591796875
1790173705331771100,5.002771240234375,-0.3026123046875,-0.8461456298828125,-0.0858917236328125
1790173705341842200,5.01284228515625,-0.2331390380859375,-1.0056304931640625,-0.1592864990234375
1790173705351914200,5.022914306640625,-0.5526275634765625,-0.91009521484375,-0.19580078125
1790173705361986000,5.032986083984375,-0.6113433837890625,-0.9765777587890625,-0.2362823486328125
1790173705372057000,5.04305712890625,-0.3263092041015625,-1.1590576171875,-0.33673095703125
1790173705382129000,5.05312890625,-0.4618988037109375,-0.923492431640625,-0.2161102294921875
1790173705392200000,5.063199951171875,-0.5118408203125,-0.848846435546875,-0.0723724365234375
1790173705402272000,5.07327197265625,-0.34625244140625,-0.89324951171875,-0.13177490234375
1790173705412344000,5.083343994140625,-0.4158172607421875,-0.842864990234375,-0.100006103515625
1790173705422415000,5.0934150390625,-0.5211029052734375,-0.8290252685546875,-0.135589599609375
1790173705432487000,5.10348681640625,-0.5683441162109375,-0.9364166259765625,-0.18878173828125
1790173705442559000,5.11355908203125,-0.48309326171875,-0.9101104736328125,-0.1492156982421875
1790173705452630000,5.123630126953125,-0.311309814453125,-0.863372802734375,-0.1121368408203125
1790173705462702000,5.1337021484375,-0.2548065185546875,-0.8883819580078125,-0.1327667236328125
1790173705472773000,5.143773193359375,-0.5010986328125,-0.9158935546875,-0.071319580078125
1790173705482845200,5.15384521484375,-0.478912353515625,-0.964813232421875,-0.03460693359375
1790173705492917000,5.1639169921875,-0.4546051025390625,-0.9377899169921875,-0.05450439453125
1790173705502988000,5.173988037109375,-0.45989990234375,-0.8863983154296875,-0.0186309814453125
1790173705513060000,5.18406005859375,-0.4124755859375,-0.825439453125,-0.003021240234375
1790173705523132200,5.194132080078125,-0.48992919921875,-0.7642669677734375,0.063995361328125
1790173705533203200,5.204203125,-0.486572265625,-0.8531036376953125,-0.0266571044921875
1790173705543275000,5.21427490234375,-0.3984375,-0.964111328125,-0.0861968994140625
1790173705553347000,5.22434716796875,-0.517059326171875,-0.922576904296875,-0.01837158203125
1790173705563418000,5.234418212890625,-0.63153076171875,-0.86529541015625,-0.0251312255859375
1790173705573490200,5.244490234375,-0.3239288330078125,-0.9033355712890625,-0.0152587890625
1790173705583561000,5.25456103515625,-0.29425048828125,-0.8992919921875,0.0081024169921875
1790173705593633300,5.26463330078125,-0.61053466796875,-0.795928955078125,0.0440521240234375
1790173705603705000,5.274705078125,-0.652984619140625,-0.8424072265625,-0.01788330078125
1790173705613776000,5.28477587890625,-0.488067626953125,-0.9322052001953125,-0.073760986328125
1790173705623848000,5.294847900390625,-0.521881103515625,-0.89178466796875,-0.086639404296875
1790173705633920000,5.304919921875,-0.5478363037109375,-0.8647003173828125,-0.063812255859375
1790173705643991000,5.314990966796875,-0.3844146728515625,-0.8902587890625,-0.1231842041015625
1790173705654063000,5.32506298828125,-0.4030303955078125,-0.877532958984375,-0.1638336181640625
1790173705664134100,5.335134033203125,-0.38922119140625,-0.896636962890625,-0.1397705078125
1790173705674206000,5.3452060546875,-0.3488311767578125,-0.94342041015625,-0.207672119140625
1790173705684278000,5.355278076171875,-0.359405517578125,-0.936553955078125,-0.298492431640625
1790173705694349000,5.36534912109375,-0.4229736328125,-0.936279296875,-0.2394256591796875
1790173705704421000,5.375421142578125,-0.4752044677734375,-0.9406585693359375,-0.178192138671875
1790173705714493000,5.385492919921875,-0.548126220703125,-0.9834747314453125,-0.1492156982421875
1790173705724564000,5.39556396484375,-0.384246826171875,-1.01055908203125,-0.03167724609375
1790173705734636000,5.405635986328125,-0.2672882080078125,-0.91363525390625,-0.080291748046875
1790173705744707000,5.41570703125,-0.3415985107421875,-0.8842926025390625,-0.078399658203125
1790173705754779100,5.425779052734375,-0.46282958984375,-0.9169464111328125,-0.0618896484375
1790173705764851200,5.435851318359375,-0.374298095703125,-1.0368804931640625,0.087432861328125
1790173705774922200,5.445922119140625,-0.3404388427734375,-0.9986114501953125,0.0815277099609375
1790173705784994000,5.455994140625,-0.31768798828125,-0.9832305908203125,0.0748291015625
1790173705795066000,5.466066162109375,-0.2539520263671875,-0.9229583740234375,0.064453125
1790173705805137200,5.47613720703125,-0.0997161865234375,-0.83636474609375,0.0027313232421875
1790173705815209200,5.486209228515625,-0.1368408203125,-0.8006591796875,0.0171966552734375
1790173705825280000,5.496280029296875,-0.5703887939453125,-0.8061981201171875,0.0287933349609375
1790173705835352000,5.50635205078125,-0.86016845703125,-0.882232666015625,-0.049224853515625
1790173705845424000,5.516424072265625,-0.6526336669921875,-1.089263916015625,-0.01513671875
1790173705855495000,5.526494873046875,-0.0635833740234375,-1.1185760498046875,-0.0166015625
1790173705865567000,5.53656689453125,-0.1899261474609375,-0.9196624755859375,0.047271728515625
1790173705875639000,5.54663916015625,-0.37567138671875,-0.7181549072265625,0.06451416015625
1790173705885710000,5.5567099609375,-0.7731781005859375,-0.6608123779296875,-0.091949462890625
1790173705895782000,5.566781982421875,-0.6940460205078125,-0.8949432373046875,-0.1811981201171875
1790173705905854000,5.57685400390625,-0.2905731201171875,-1.0409088134765625,0.056121826171875
1790173705915925000,5.586925048828125,-0.208984375,-0.9813079833984375,0.1939849853515625
1790173705925997000,5.5969970703125,-0.3589935302734375,-0.851348876953125,-0.035064697265625
1790173705936068000,5.607068115234375,-0.5300140380859375,-0.885009765625,-0.2378387451171875
1790173705946140200,5.61714013671875,-0.5394439697265625,-0.9202423095703125,-0.112335205078125
1790173705956212000,5.6272119140625,-0.481536865234375,-0.9280853271484375,-0.0404052734375
1790173705966283000,5.637282958984375,-0.48345947265625,-0.92816162109375,0.0183563232421875
1790173705976355000,5.64735498046875,-0.683135986328125,-0.87255859375,0.0384368896484375
1790173705986427100,5.65742724609375,-0.79058837890625,-0.872283935546875,-0.1185302734375
1790173705996498200,5.667498291015625,-0.22076416015625,-1.069488525390625,-0.2209014892578125
1790173706006570000,5.677570068359375,-0.01947021484375,-0.959136962890625,0.0013885498046875
1790173706016641000,5.68764111328125,-0.385223388671875,-0.704620361328125,0.044525146484375
1790173706026713000,5.697713134765625,-0.4803619384765625,-0.86273193359375,-0.09857177734375
1790173706036785200,5.70778515625,-0.691558837890625,-0.9684295654296875,-0.0290069580078125
1790173706046856200,5.717856201171875,-0.554595947265625,-1.0215606689453125,0.00372314453125
1790173706056928300,5.72792822265625,-0.0395965576171875,-1.051727294921875,-0.003265380859375
1790173706067000000,5.738,-0.1953582763671875,-0.8675079345703125,0.02301025390625
1790173706077070800,5.74807080078125,-0.6645965576171875,-0.688690185546875,-0.0433197021484375
1790173706087143000,5.758142822265625,-0.6286468505859375,-0.8434295654296875,-0.015960693359375
1790173706097214000,5.7682138671875,-0.3620758056640625,-0.98504638671875,0.0571441650390625
1790173706107286000,5.7782861328125,-0.08770751953125,-1.0005645751953125,0.009613037109375
1790173706117358000,5.788358154296875,-0.3559112548828125,-0.7491607666015625,-0.083740234375
1790173706127429000,5.79842919921875,-0.5450592041015625,-0.8736419677734375,-0.1324462890625
1790173706137501000,5.8085009765625,-0.4345855712890625,-0.9719696044921875,-0.002288818359375
1790173706147573000,5.818572998046875,-0.6639862060546875,-0.86322021484375,0.0019073486328125
1790173706157644000,5.82864404296875,-0.4319000244140625,-0.920074462890625,-0.0432281494140625
1790173706167716000,5.838716064453125,-0.263214111328125,-1.020233154296875,0.091094970703125
1790173706177788000,5.848787841796875,-0.4962310791015625,-0.8732757568359375,-0.0043792724609375
1790173706187859000,5.85885888671875,-0.629608154296875,-0.8954315185546875,-0.2432098388671875
1790173706197931000,5.868930908203125,-0.2363128662109375,-1.02459716796875,-0.2492523193359375
1790173706208002000,5.879001953125,-0.35595703125,-0.90283203125,0.021728515625
1790173706218074000,5.88907421875,-0.4046630859375,-0.8753204345703125,0.034149169921875
1790173706228146200,5.899146240234375,-0.4782257080078125,-0.86077880859375,0.004425048828125
1790173706238217200,5.90921728515625,-0.31488037109375,-0.987640380859375,-0.0738525390625
1790173706248289000,5.9192890625,-0.4473114013671875,-0.9475555419921875,-0.0763092041015625
1790173706258361000,5.929361083984375,-0.645782470703125,-0.859375,-0.1423187255859375
1790173706268432100,5.93943212890625,-0.530303955078125,-0.8329925537109375,-0.0961761474609375
1790173706278504400,5.94950439453125,-0.2736663818359375,-0.927093505859375,-0.00225830078125
1790173706288575200,5.9595751953125,-0.2266082763671875,-0.8746337890625,0.0261688232421875
1790173706298647000,5.96964697265625,-0.5517730712890625,-0.857208251953125,0.0157012939453125
1790173706308719000,5.979718994140625,-1.060821533203125,-0.87103271484375,0.074127197265625
1790173706318790100,5.9897900390625,-0.8822784423828125,-0.9547576904296875,-0.079742431640625
1790173706328862200,5.9998623046875,-0.26922607421875,-1.07855224609375,-0.08746337890625
1790173706338934300,6.009934326171875,-0.0627288818359375,-0.8832244873046875,0.0755767822265625
1790173706349005300,6.02000537109375,-0.109710693359375,-0.7539825439453125,0.0924835205078125
1790173706359077000,6.0300771484375,-0.3260498046875,-0.68951416015625,0.04840087890625
1790173706369148200,6.040148193359375,-0.5015716552734375,-0.85498046875,-0.00262451171875
1790173706379220200,6.05022021484375,-0.7571563720703125,-0.91851806640625,0.052276611328125
1790173706389292300,6.060292236328125,-0.6324005126953125,-1.0395965576171875,0.0054168701171875
1790173706399363300,6.07036328125,-0.4276275634765625,-1.0179290771484375,-0.0533447265625
1790173706409435400,6.080435302734375,-0.2659759521484375,-0.913177490234375,0.028350830078125
1790173706419507200,6.090507080078125,-0.2215423583984375,-0.8875885009765625,0.084716796875
1790173706429578200,6.100578125,-0.44451904296875,-0.90313720703125,0.0225067138671875
1790173706439650300,6.110650390625,-0.7810211181640625,-0.8027191162109375,0.0513458251953125
1790173706449721300,6.120721435546875,-0.630126953125,-0.815338134765625,0.0640716552734375
1790173706459793400,6.13079345703125,0.192108154296875,-1.12774658203125,0.0473175048828125
1790173706469865200,6.140865234375,-0.041839599609375,-0.8922271728515625,0.067138671875
1790173706479936300,6.150936279296875,-0.6567840576171875,-0.7164459228515625,-0.10736083984375
1790173706490008300,6.16100830078125,-0.57623291015625,-0.9658203125,-0.056396484375
1790173706500080400,6.171080322265625,-0.591888427734375,-1.0466766357421875,0.0521392822265625
1790173706510151400,6.1811513671875,-0.6324005126953125,-0.93487548828125,-0.0692138671875
1790173706520223500,6.191223388671875,-0.10345458984375,-1.022064208984375,-0.119964599609375
1790173706530294300,6.201294189453125,-0.18231201171875,-0.8618316650390625,0.066986083984375
1790173706540366000,6.211365966796875,-0.7696075439453125,-0.69891357421875,0.1031036376953125
1790173706550438100,6.221438232421875,-0.4806060791015625,-0.99835205078125,-0.155426025390625
1790173706560509200,6.23150927734375,-0.4138336181640625,-1.0900726318359375,-0.049560546875
1790173706570581200,6.241581298828125,-0.381500244140625,-0.8736724853515625,-0.0074462890625
1790173706580653300,6.2516533203125,-0.0909881591796875,-0.8340911865234375,-0.014892578125
1790173706590724400,6.261724365234375,-0.0560760498046875,-0.916717529296875,0.0645294189453125
1790173706600796200,6.271796142578125,-0.420562744140625,-0.9235076904296875,0.0501708984375
1790173706610867200,6.2818671875,-0.8551177978515625,-0.9527130126953125,-0.1215667724609375
1790173706620939300,6.291939208984375,-0.4517059326171875,-1.00830078125,-0.27508544921875
1790173706631011300,6.30201123046875,-0.2859954833984375,-0.975372314453125,-0.1445465087890625
1790173706641082400,6.312082275390625,-0.3296356201171875,-0.8703765869140625,-0.015594482421875
1790173706651154200,6.322154296875,-0.64080810546875,-0.831085205078125,0.0316925048828125
1790173706661226200,6.332226318359375,-0.2369537353515625,-1.0127105712890625,-0.10333251953125
1790173706671297300,6.34229736328125,-0.225006103515625,-1.0386199951171875,-0.000213623046875
1790173706681369300,6.352369384765625,-0.263458251953125,-0.876861572265625,-0.043426513671875
1790173706691440400,6.3624404296875,-0.4817047119140625,-0.874481201171875,-0.0513458251953125
1790173706701512400,6.372512451171875,-0.294830322265625,-1.0167388916015625,-0.07623291015625
1790173706711584300,6.382584228515625,-0.506103515625,-0.84429931640625,0.1107177734375
1790173706721655300,6.3926552734375,-0.5746002197265625,-0.815093994140625,0.021697998046875
1790173706731727400,6.402727294921875,-0.5062713623046875,-0.9271240234375,0.047332763671875
1790173706741799400,6.41279931640625,-0.2955780029296875,-0.9561004638671875,0.00823974609375
1790173706751870200,6.4228701171875,-0.43603515625,-0.8019866943359375,-0.0117340087890625
1790173706761942300,6.4329423828125,-0.4474029541015625,-0.8694305419921875,-0.0588836669921875
1790173706772013300,6.443013427734375,-0.2560882568359375,-0.98638916015625,0.0145721435546875
1790173706782085000,6.453085205078125,-0.62109375,-0.867431640625,0.07318115234375
1790173706792157200,6.4631572265625,-0.8159637451171875,-0.7841644287109375,-0.07958984375
1790173706802228200,6.473228271484375,-0.5225830078125,-0.97198486328125,-0.1222991943359375
1790173706812300300,6.48330029296875,-0.2503509521484375,-1.0011749267578125,-0.0523223876953125
1790173706822372000,6.4933720703125,-0.612640380859375,-0.7420806884765625,0.041259765625
1790173706832443100,6.503443115234375,-0.69097900390625,-0.712005615234375,0.023590087890625
1790173706842515200,6.51351513671875,-0.2192535400390625,-1.0442047119140625,0.0674591064453125
1790173706852586200,6.523586181640625,-0.35107421875,-0.9122161865234375,0.1201171875
1790173706862658300,6.533658203125,-0.6892547607421875,-0.781524658203125,0.0190582275390625
1790173706872730400,6.54373046875,-0.6036376953125,-0.898284912109375,-0.01654052734375
1790173706882801400,6.553801513671875,-0.7447357177734375,-0.849151611328125,0.0040740966796875
1790173706892873200,6.563873291015625,-0.7605438232421875,-0.881317138671875,0.0333709716796875
1790173706902945300,6.5739453125,-0.1736297607421875,-1.0411376953125,0.123870849609375
1790173706913016300,6.584016357421875,-0.095794677734375,-0.8974761962890625,0.1759033203125
1790173706923088400,6.59408837890625,-0.3341827392578125,-0.6456298828125,0.06512451171875
1790173706933159400,6.604159423828125,-0.41046142578125,-0.75164794921875,-0.0413360595703125
1790173706943231200,6.614231201171875,-0.4035797119140625,-0.8463134765625,-0.0009765625
1790173706953303300,6.62430322265625,-0.6924285888671875,-0.96160888671875,-0.07586669921875
1790173706963374300,6.634374267578125,-0.7800140380859375,-1.06268310546875,-0.194183349609375
1790173706973446400,6.6444462890625,-0.745208740234375,-0.9992828369140625,-0.0750579833984375
1790173706983518500,6.6545185546875,-0.50970458984375,-0.888214111328125,0.0501251220703125
1790173706993589200,6.66458935546875,-0.0767669677734375,-0.9490509033203125,0.0535736083984375
1790173707003661000,6.6746611328125,-0.187896728515625,-0.866607666015625,0.0655364990234375
1790173707013732000,6.684732177734375,-0.3949127197265625,-0.82666015625,0.103759765625
1790173707023804200,6.69480419921875,-0.5980224609375,-0.8282470703125,0.1974029541015625
1790173707033876200,6.704876220703125,-0.3782958984375,-0.9883270263671875,0.0565032958984375
1790173707043947300,6.714947265625,-0.191619873046875,-1.1064605712890625,0.013031005859375
1790173707054019300,6.725019287109375,-0.37762451171875,-0.8884429931640625,0.0753173828125
1790173707064091100,6.735091064453125,-0.4661865234375,-0.84527587890625,-0.0056915283203125
1790173707074162200,6.745162109375,-0.32830810546875,-0.964141845703125,0.013702392578125
1790173707084234200,6.755234130859375,-0.3276824951171875,-0.89776611328125,0.032379150390625
1790173707094305300,6.76530517578125,-0.39544677734375,-0.89849853515625,0.0777435302734375
1790173707104377300,6.77537744140625,-0.5601654052734375,-0.920867919921875,0.141815185546875
1790173707114449200,6.78544921875,-0.768768310546875,-0.819000244140625,0.077423095703125
1790173707124520200,6.795520263671875,-0.41748046875,-1.0015869140625,0.009002685546875
1790173707134592300,6.80559228515625,-0.2094268798828125,-1.005615234375,0.0685272216796875
1790173707144664300,6.815664306640625,-0.209564208984375,-0.8029632568359375,0.002838134765625
1790173707154735400,6.8257353515625,-0.1067962646484375,-0.8661346435546875,0.0512847900390625
1790173707164807400,6.835807373046875,-0.5176849365234375,-0.8082122802734375,0.104461669921875
1790173707174878500,6.84587841796875,-0.5591278076171875,-0.9974212646484375,-0.0013885498046875
1790173707184950300,6.8559501953125,-0.36553955078125,-1.075042724609375,0.02581787109375
1790173707195022300,6.866022216796875,-0.268524169921875,-0.929534912109375,0.040435791015625
1790173707205093400,6.87609326171875,-0.404693603515625,-0.8095703125,0.143646240234375
1790173707215165400,6.88616552734375,-0.5919036865234375,-0.838043212890625,0.048065185546875
1790173707225237200,6.8962373046875,-0.3292694091796875,-1.084320068359375,0.0496063232421875
1790173707235308300,6.906308349609375,-0.3090362548828125,-1.0696868896484375,0.1443939208984375
1790173707245380000,6.916380126953125,-0.315826416015625,-0.934906005859375,0.015625
1790173707255451100,6.926451171875,-0.3993377685546875,-0.877655029296875,0.020538330078125
1790173707265523200,6.936523193359375,-0.2067718505859375,-0.888092041015625,0.0654144287109375
1790173707275595500,6.946595458984375,-0.327606201171875,-0.74481201171875,-0.0012664794921875
1790173707285666300,6.956666259765625,-0.4671173095703125,-0.7901763916015625,-0.160736083984375
1790173707295738000,6.966738037109375,-0.5424652099609375,-0.902313232421875,-0.1117401123046875
1790173707305810200,6.97681005859375,-0.7070465087890625,-0.9044036865234375,-0.0988922119140625
1790173707315881200,6.986881103515625,-0.62255859375,-0.865997314453125,-0.278228759765625
1790173707325953300,6.996953369140625,-0.3451080322265625,-1.032440185546875,-0.3454132080078125
1790173707336024300,7.0070244140625,-0.3664703369140625,-0.86572265625,-0.1365814208984375
1790173707346096400,7.017096435546875,-0.8058929443359375,-0.6891021728515625,-0.1124420166015625
1790173707356168200,7.027168212890625,-0.643798828125,-0.8336029052734375,-0.2696380615234375
1790173707366239200,7.0372392578125,-0.4866790771484375,-0.9775238037109375,-0.18646240234375
1790173707376311300,7.047311279296875,-0.498779296875,-0.9353790283203125,-0.1254425048828125
1790173707386382300,7.05738232421875,-0.550689697265625,-0.8922119140625,-0.108367919921875
1790173707396454400,7.067454345703125,-0.4020538330078125,-0.8966064453125,-0.1631927490234375
1790173707406526200,7.077526123046875,-0.3429107666015625,-0.8624725341796875,-0.180267333984375
1790173707416597200,7.08759716796875,-0.457916259765625,-0.937408447265625,-0.1346435546875
1790173707426669300,7.09766943359375,-0.4530487060546875,-0.9498443603515625,-0.1156768798828125
1790173707436741400,7.107741455078125,-0.672698974609375,-0.9202423095703125,-0.087066650390625
1790173707446812400,7.1178125,-0.4902191162109375,-0.9855194091796875,-0.2425537109375
1790173707456884500,7.127884521484375,-0.252716064453125,-1.0226287841796875,-0.2466278076171875
1790173707466955500,7.13795556640625,-0.2030792236328125,-0.919403076171875,-0.10797119140625
1790173707477027300,7.14802734375,-0.288726806640625,-0.8322296142578125,-0.06927490234375
1790173707487099400,7.158099365234375,-0.3917388916015625,-0.788055419921875,-0.140869140625
1790173707497170200,7.168170166015625,-0.58355712890625,-0.8260498046875,-0.270172119140625
1790173707507242200,7.1782421875,-0.44708251953125,-0.9626312255859375,-0.2500457763671875
1790173707517314300,7.188314208984375,-0.3101043701171875,-0.9400177001953125,-0.1622467041015625
1790173707527385300,7.19838525390625,-0.398284912109375,-0.84710693359375,-0.126678466796875
1790173707537457200,7.20845703125,-0.543548583984375,-0.897125244140625,-0.205596923828125
1790173707547528200,7.218528076171875,-0.7048797607421875,-0.92132568359375,-0.2188873291015625
1790173707557600300,7.228600341796875,-0.6606292724609375,-0.8689117431640625,-0.11529541015625
1790173707567672300,7.23867236328125,-0.4459686279296875,-0.8779754638671875,-0.02630615234375
1790173707577743400,7.248743408203125,-0.2169952392578125,-0.8777313232421875,0.0782012939453125
1790173707587815200,7.258815185546875,-0.2777099609375,-0.805267333984375,0.0251922607421875
1790173707597887200,7.26888720703125,-0.3831024169921875,-0.8103485107421875,-0.0254364013671875
1790173707607958300,7.278958251953125,-0.3934783935546875,-0.9763031005859375,-0.0073699951171875
1790173707618030300,7.2890302734375,-0.6384735107421875,-0.94671630859375,0.046478271484375
1790173707628101400,7.299101318359375,-0.54022216796875,-0.946929931640625,-0.07611083984375
1790173707638173400,7.30917333984375,-0.4059295654296875,-0.9850616455078125,-0.1049346923828125
1790173707648245200,7.319245361328125,-0.5330963134765625,-0.901611328125,-0.024139404296875
1790173707658316300,7.32931640625,-0.5437469482421875,-0.9044647216796875,-0.009002685546875
1790173707668388400,7.339388427734375,-0.306488037109375,-0.93951416015625,0.0205078125
1790173707678460400,7.34946044921875,-0.251495361328125,-0.91650390625,0.057403564453125
1790173707688531500,7.359531494140625,-0.4152984619140625,-0.827301025390625,-0.0731658935546875
1790173707698603300,7.369603271484375,-0.6487884521484375,-0.7918243408203125,-0.1132354736328125
1790173707708674300,7.37967431640625,-0.4927520751953125,-0.859527587890625,-0.050994873046875
1790173707718746400,7.389746337890625,-0.1894378662109375,-1.0023345947265625,0.101776123046875
1790173707728818400,7.399818359375,-0.2586822509765625,-0.946197509765625,0.124420166015625
1790173707738889200,7.40988916015625,-0.5454864501953125,-0.8401947021484375,-0.013641357421875
1790173707748961300,7.419961181640625,-0.5897674560546875,-0.8995819091796875,-0.0408172607421875
1790173707759032300,7.4300322265625,-0.529693603515625,-0.912750244140625,0.0347137451171875
1790173707769104100,7.440104248046875,-0.33380126953125,-0.932891845703125,0.099334716796875
1790173707779176200,7.45017626953125,-0.3705291748046875,-0.8670196533203125,0.08770751953125
1790173707789247200,7.460247314453125,-0.4233551025390625,-0.884002685546875,0.0793609619140625
1790173707799319300,7.4703193359375,-0.543914794921875,-0.9171142578125,0.107513427734375
1790173707809391400,7.480391357421875,-0.554595947265625,-0.978179931640625,0.0894927978515625
1790173707819462400,7.49046240234375,-0.26763916015625,-0.99920654296875,-0.0018157958984375
1790173707829534200,7.5005341796875,-0.0881195068359375,-0.934173583984375,-0.0519561767578125
1790173707839605200,7.510605224609375,-0.3593902587890625,-0.7252197265625,-0.0500335693359375
1790173707849677300,7.52067724609375,-0.450592041015625,-0.7987823486328125,-0.0282135009765625
1790173707859749400,7.530749267578125,-0.517303466796875,-0.9174346923828125,-0.0179290771484375
1790173707869820400,7.5408203125,-0.47015380859375,-1.0414276123046875,-0.0785064697265625
1790173707879892200,7.550892333984375,-0.4264678955078125,-0.9954376220703125,-0.08575439453125
1790173707889964300,7.56096435546875,-0.3543548583984375,-0.8881072998046875,-0.078338623046875
1790173707900035300,7.571035400390625,-0.2969970703125,-0.9123382568359375,-0.0239715576171875
1790173707910107400,7.581107421875,-0.5087127685546875,-0.9203033447265625,0.0810546875
1790173707920178400,7.591178466796875,-0.5967864990234375,-0.8860321044921875,0.0472412109375
1790173707930250500,7.60125048828125,-0.243896484375,-0.9656524658203125,0.0618896484375
1790173707940322300,7.611322265625,-0.0139007568359375,-0.94342041015625,0.0808258056640625
1790173707950393000,7.62139306640625,-0.4730072021484375,-0.7888946533203125,0.1071624755859375
1790173707960465200,7.631465087890625,-0.700653076171875,-0.8837890625,0.0423736572265625
1790173707970537500,7.641537353515625,-0.6660003662109375,-0.9698028564453125,0.113494873046875
1790173707980608300,7.651608154296875,-0.5948333740234375,-0.95782470703125,0.1261749267578125
1790173707990680300,7.661680419921875,-0.334259033203125,-0.9872589111328125,0.11212158203125
1790173708000751400,7.67175146484375,-0.238555908203125,-0.9503173828125,0.0465087890625
1790173708010823200,7.6818232421875,-0.819091796875,-0.687774658203125,0.034576416015625
1790173708020895200,7.691895263671875,-0.661773681640625,-0.8797760009765625,-0.1468658447265625
1790173708030966300,7.70196630859375,-0.2183074951171875,-1.10577392578125,-0.0876617431640625
1790173708041038300,7.712038330078125,-0.20074462890625,-0.8745574951171875,0.0551605224609375
1790173708051109400,7.722109375,-0.1053009033203125,-0.7914581298828125,-0.033294677734375
1790173708061181200,7.73218115234375,-0.4817352294921875,-0.71588134765625,-0.06219482421875
1790173708071253200,7.742253173828125,-0.9463653564453125,-0.789459228515625,-0.0381927490234375
1790173708081324300,7.75232421875,-0.6292724609375,-1.0687255859375,-0.0701446533203125
1790173708091396400,7.762396240234375,-0.353790283203125,-1.068328857421875,-0.0506591796875
1790173708101468400,7.772468505859375,-0.3270721435546875,-0.8755950927734375,-0.1075286865234375
1790173708111539500,7.78253955078125,-0.48486328125,-0.827911376953125,-0.094451904296875
1790173708121611300,7.792611328125,-0.662811279296875,-0.801239013671875,-0.052978515625
1790173708131682300,7.802682373046875,-0.5888519287109375,-0.9113311767578125,0.007598876953125
1790173708141754400,7.81275439453125,-0.368560791015625,-0.9149322509765625,0.043853759765625
1790173708151826400,7.822826416015625,-0.18115234375,-0.8587493896484375,-0.0087738037109375
1790173708161897500,7.8328974609375,-0.3145294189453125,-0.79119873046875,-0.0873565673828125
1790173708171969500,7.842969482421875,-0.6542205810546875,-0.7422943115234375,-0.140106201171875
1790173708182041300,7.853041259765625,-0.654144287109375,-1.019012451171875,-0.145172119140625
1790173708192112000,7.863112060546875,-0.467193603515625,-1.1591339111328125,-0.1473541259765625
1790173708202184200,7.87318408203125,-0.5855865478515625,-0.87957763671875,-0.0591888427734375
1790173708212255200,7.883255126953125,-0.3110198974609375,-0.8544158935546875,-0.1120452880859375
1790173708222327300,7.893327392578125,-0.2353515625,-0.8507537841796875,-0.0632171630859375
1790173708232399000,7.903399169921875,-0.6529541015625,-0.8173675537109375,-0.0266876220703125
1790173708242470100,7.91347021484375,-0.6915130615234375,-0.9663848876953125,-0.0820159912109375
1790173708252542200,7.923542236328125,-0.585693359375,-1.00726318359375,-0.0145111083984375
1790173708262613200,7.93361328125,-0.356292724609375,-0.9119110107421875,-0.0258331298828125
1790173708272685300,7.943685302734375,-0.095184326171875,-0.920166015625,0.074188232421875
1790173708282757400,7.95375732421875,0.019073486328125,-0.9229583740234375,0.1264801025390625
1790173708292828400,7.963828369140625,-0.227386474609375,-0.872528076171875,0.1361236572265625
1790173708302900200,7.973900146484375,-0.7126312255859375,-0.8504638671875,0.0841522216796875
1790173708312972300,7.98397216796875,-0.823211669921875,-1.017181396484375,0.073883056640625
1790173708323043300,7.994043212890625,-0.4663543701171875,-1.0225372314453125,0.0861968994140625
1790173708333115400,8.004115478515626,-0.116058349609375,-0.933868408203125,0.06915283203125
1790173708343186400,8.0141865234375,-0.103424072265625,-0.76220703125,0.019134521484375
1790173708353258500,8.024258544921874,-0.5632476806640625,-0.6984405517578125,0.06640625
1790173708363330300,8.034330322265625,-0.7089996337890625,-0.9362335205078125,-0.011322021484375
1790173708373401300,8.0444013671875,-0.69049072265625,-1.026885986328125,-0.0616607666015625
1790173708383473400,8.054473388671875,-0.496337890625,-0.9717559814453125,-0.016021728515625
1790173708393545500,8.06454541015625,0.194122314453125,-0.99664306640625,-0.0208740234375
1790173708403616500,8.074616455078125,-0.1260528564453125,-0.7128448486328125,0.0112152099609375
1790173708413688300,8.084688232421875,-0.7191314697265625,-0.58563232421875,-0.095367431640625
1790173708423759000,8.094759033203125,-0.8285369873046875,-0.910064697265625,-0.1237945556640625
1790173708433831200,8.1048310546875,-0.604400634765625,-1.116363525390625,-0.0534210205078125
1790173708443903200,8.1149033203125,-0.377716064453125,-1.0802459716796875,0.01171875
1790173708453974300,8.124974365234374,-0.2780609130859375,-0.922882080078125,-0.0125274658203125
1790173708464046300,8.13504638671875,-0.1363372802734375,-0.8514556884765625,-0.0673370361328125
1790173708474117400,8.145117431640625,-0.1905517578125,-0.87445068359375,-0.096405029296875
1790173708484189200,8.155189208984375,-0.7569732666015625,-0.8468017578125,-0.09674072265625
1790173708494261200,8.16526123046875,-0.6958770751953125,-1.002471923828125,-0.03375244140625
1790173708504332300,8.175332275390625,-0.1592864990234375,-1.134033203125,0.0217437744140625
1790173708514404400,8.185404296875,-0.153900146484375,-0.949432373046875,-0.0104827880859375
1790173708524476400,8.195476318359376,-0.3996734619140625,-0.80548095703125,-0.137420654296875
1790173708534547500,8.20554736328125,-0.2423095703125,-0.88665771484375,-0.16778564453125
1790173708544619300,8.215619384765626,-0.52899169921875,-0.8386383056640625,-0.150970458984375
1790173708554690300,8.225690185546876,-0.7352142333984375,-0.89385986328125,-0.180816650390625
1790173708564762400,8.235762451171874,-0.54840087890625,-0.9877777099609375,-0.1547698974609375
1790173708574834400,8.24583447265625,-0.2848968505859375,-0.9697265625,-0.191650390625
1790173708584905500,8.255905517578125,-0.3804473876953125,-0.8198089599609375,-0.20684814453125
1790173708594977300,8.265977294921875,-0.5057220458984375,-0.8028411865234375,-0.2922515869140625
1790173708605048300,8.27604833984375,-0.67633056640625,-0.834930419921875,-0.2142333984375
1790173708615120400,8.286120361328125,-0.6004486083984375,-0.8919525146484375,-0.18756103515625
1790173708625192400,8.2961923828125,-0.3218994140625,-0.98907470703125,-0.1601104736328125
1790173708635263200,8.30626318359375,-0.19488525390625,-0.89434814453125,-0.09185791015625
1790173708645335300,8.316335205078126,-0.39910888671875,-0.738006591796875,-0.1315460205078125
1790173708655407400,8.326407470703124,-0.5624237060546875,-0.831329345703125,-0.20367431640625
1790173708665478100,8.33647802734375,-0.8681182861328125,-0.9217529296875,-0.113372802734375
1790173708675550200,8.34655029296875,-0.644287109375,-0.9966278076171875,-0.061248779296875
1790173708685621200,8.356621337890624,-0.3656768798828125,-1.0231475830078125,0.01171875
1790173708695693300,8.366693359375,-0.4626617431640625,-0.8091888427734375,-0.012481689453125
1790173708705765000,8.37676513671875,-0.303558349609375,-0.853118896484375,-0.03900146484375
1790173708715836200,8.386836181640625,-0.1628875732421875,-0.8648529052734375,-0.0160369873046875
1790173708725908200,8.396908203125,-0.511322021484375,-0.7302093505859375,-0.0123291015625
1790173708735980300,8.406980224609375,-0.5897979736328125,-0.9128875732421875,-0.073577880859375
1790173708746051300,8.41705126953125,-0.3245391845703125,-1.072906494140625,-0.0831756591796875
1790173708756123400,8.427123291015626,-0.46844482421875,-0.9337005615234375,0.002532958984375
1790173708766194400,8.4371943359375,-0.54345703125,-0.86383056640625,-0.1759490966796875
1790173708776266200,8.447266357421874,-0.611114501953125,-0.9151763916015625,-0.252349853515625
1790173708786338300,8.45733837890625,-0.472320556640625,-0.934326171875,-0.0863189697265625
1790173708796409300,8.467409423828125,-0.4467620849609375,-0.958099365234375,0.0759429931640625
1790173708806481400,8.4774814453125,-0.55194091796875,-0.8760223388671875,0.06060791015625
1790173708816552400,8.487552490234375,-0.633636474609375,-0.8479766845703125,0.0474090576171875
1790173708826624500,8.49762451171875,-0.471099853515625,-0.894317626953125,0.08245849609375
1790173708836696300,8.5076962890625,-0.5567626953125,-0.8608856201171875,0.006103515625
1790173708846767400,8.517767333984375,-0.4534759521484375,-0.8879241943359375,-0.0190887451171875
1790173708856839400,8.52783935546875,-0.2696990966796875,-1.0277252197265625,0.0307769775390625
1790173708866911500,8.537911376953126,-0.510955810546875,-0.8972930908203125,0.0612640380859375
1790173708876982300,8.547982177734376,-0.744476318359375,-0.813629150390625,0.0476531982421875
1790173708887054000,8.55805419921875,-0.4570159912109375,-0.9599151611328125,0.0413970947265625
1790173708897125000,8.568125,-0.418426513671875,-0.905975341796875,0.09576416015625
1790173708907197200,8.578197265625,-0.445037841796875,-0.8920745849609375,0.03814697265625
1790173708917269200,8.588269287109375,-0.538055419921875,-0.9489288330078125,0.0863494873046875
1790173708927340300,8.59834033203125,-0.5274200439453125,-0.899261474609375,0.1323394775390625
1790173708937412400,8.608412353515625,-0.36810302734375,-0.9510955810546875,0.124725341796875
1790173708947484200,8.618484130859375,0.049774169921875,-1.0864105224609375,-0.0253448486328125
1790173708957555200,8.62855517578125,-0.2244720458984375,-0.8555145263671875,-0.011322021484375
1790173708967627300,8.638627197265626,-0.542633056640625,-0.7507171630859375,-0.019317626953125
1790173708977698300,8.6486982421875,-0.5475921630859375,-0.8695526123046875,0.0515899658203125
1790173708987770400,8.658770263671874,-0.5150146484375,-0.926666259765625,0.058319091796875
1790173708997842400,8.668842529296874,-0.379547119140625,-0.949798583984375,-0.014007568359375
1790173709007913500,8.67891357421875,-0.194976806640625,-0.9420318603515625,-0.0338592529296875
1790173709017985300,8.6889853515625,-0.3812103271484375,-0.7908477783203125,0.05902099609375
1790173709028056300,8.699056396484375,-0.380950927734375,-0.8459320068359375,0.1207275390625
1790173709038128400,8.70912841796875,-0.4774017333984375,-0.9925384521484375,0.069793701171875
1790173709048200400,8.719200439453125,-0.6021270751953125,-0.969879150390625,0.0405426025390625
1790173709058271500,8.729271484375,-0.6290435791015625,-0.9219207763671875,0.0665435791015625
1790173709068343300,8.73934326171875,-0.1698760986328125,-0.9652557373046875,0.121490478515625
1790173709078415400,8.749415283203126,-0.1476898193359375,-0.8997039794921875,0.148162841796875
1790173709088486100,8.759486083984376,-0.5567169189453125,-0.8129425048828125,0.101959228515625
1790173709098558500,8.769558349609374,-0.6664276123046875,-0.868896484375,0.0547637939453125
1790173709108629200,8.779629150390624,-0.3007965087890625,-0.928985595703125,0.09747314453125
1790173709118701300,8.789701416015625,-0.1299896240234375,-0.9840087890625,0.1001739501953125
1790173709128773000,8.799773193359375,-0.1749114990234375,-0.929656982421875,0.0396270751953125
1790173709138844200,8.80984423828125,-0.8077392578125,-0.831573486328125,-0.048614501953125
1790173709148916200,8.819916259765625,-0.6904449462890625,-0.940887451171875,0.0135955810546875
1790173709158987300,8.8299873046875,-0.433990478515625,-1.1116790771484375,0.0000457763671875
1790173709169059300,8.840059326171875,-0.3921966552734375,-0.986480712890625,0.0737457275390625
1790173709179131400,8.85013134765625,-0.4242401123046875,-0.9293060302734375,0.0393218994140625
1790173709189202400,8.860202392578126,-0.305450439453125,-0.9412841796875,0.00244140625
1790173709199274200,8.870274169921874,-0.442901611328125,-0.829010009765625,0.0768280029296875
1790173709209346300,8.88034619140625,-0.3838043212890625,-0.89544677734375,0.0635986328125
1790173709219417300,8.890417236328124,-0.1960906982421875,-1.03289794921875,0.023895263671875
1790173709229489400,8.900489501953125,-0.6634368896484375,-0.85467529296875,0.022064208984375
1790173709239560400,8.910560546875,-0.8151702880859375,-0.86834716796875,0.121795654296875
1790173709249632300,8.92063232421875,-0.581085205078125,-1.013031005859375,0.04302978515625
1790173709259704300,8.930704345703125,-0.3978729248046875,-0.8848876953125,0.162689208984375
1790173709269775400,8.940775390625,-0.23468017578125,-0.8108978271484375,0.1141204833984375
1790173709279847200,8.95084716796875,-0.0670928955078125,-0.825347900390625,0.1621856689453125
1790173709289918200,8.960918212890626,-0.6557464599609375,-0.704193115234375,0.1866302490234375
1790173709299990300,8.970990234375,-0.609893798828125,-0.80792236328125,0.097930908203125
1790173709310062000,8.98106201171875,-0.4387969970703125,-1.0241851806640625,0.021087646484375
1790173709320133000,8.991133056640624,-0.5568695068359375,-0.9715423583984375,-0.04248046875
1790173709330205200,9.001205078125,-0.523956298828125,-0.8840484619140625,-0.0818328857421875
1790173709340277200,9.01127734375,-0.3332366943359375,-0.84527587890625,-0.0584716796875
1790173709350348300,9.021348388671875,-0.3211822509765625,-0.840179443359375,-0.110137939453125
1790173709360420400,9.03142041015625,-0.4595184326171875,-0.8507537841796875,-0.1380157470703125
1790173709370491100,9.0414912109375,-0.516815185546875,-0.9151611328125,-0.1492462158203125
1790173709380563200,9.051563232421875,-0.6559600830078125,-0.88543701171875,-0.1264495849609375
1790173709390635300,9.06163525390625,-0.5112762451171875,-0.89703369140625,-0.22210693359375
1790173709400706000,9.0717060546875,-0.3451080322265625,-0.9218902587890625,-0.21875
1790173709410778000,9.081778076171876,-0.3496551513671875,-0.9017486572265625,-0.1280670166015625
1790173709420849200,9.09184912109375,-0.4681549072265625,-0.90484619140625,-0.134429931640625
1790173709430921000,9.1019208984375,-0.6203765869140625,-0.9310760498046875,-0.1171417236328125
1790173709440993000,9.111992919921875,-0.603668212890625,-0.9611358642578125,-0.175048828125
1790173709451064000,9.12206396484375,-0.531707763671875,-0.934906005859375,-0.1437835693359375
1790173709461136100,9.13213623046875,-0.451141357421875,-0.9797210693359375,-0.0565643310546875
1790173709471208200,9.142208251953125,-0.65966796875,-0.8934783935546875,-0.0318603515625
1790173709481279200,9.152279296875,-0.37457275390625,-0.9650421142578125,0.0200347900390625
1790173709491351000,9.16235107421875,-0.323974609375,-0.97637939453125,0.06231689453125
1790173709501422000,9.172422119140625,-0.43609619140625,-0.96221923828125,0.11065673828125
1790173709511494100,9.182494140625,-0.559051513671875,-0.9222564697265625,0.1487579345703125
1790173709521566200,9.192566162109374,-0.5434417724609375,-0.92877197265625,0.1873779296875
1790173709531637200,9.20263720703125,-0.3020477294921875,-0.941802978515625,0.291046142578125
1790173709541709300,9.212709228515624,-0.398956298828125,-0.941009521484375,0.2760467529296875
1790173709551780000,9.222780029296874,-0.5246429443359375,-0.8709869384765625,0.370941162109375
1790173709561852200,9.23285205078125,-0.592071533203125,-0.8654327392578125,0.3544921875
1790173709571924200,9.24292431640625,-0.469268798828125,-0.890228271484375,0.3388824462890625
1790173709581995300,9.252995361328125,-0.2722320556640625,-0.9778900146484375,0.3095550537109375
1790173709592067300,9.2630673828125,-0.1689300537109375,-0.965545654296875,0.3582305908203125
1790173709602139100,9.27313916015625,-0.4557342529296875,-0.8782958984375,0.2945556640625
1790173709612210000,9.2832099609375,-0.806854248046875,-0.8691558837890625,0.432342529296875
1790173709622282000,9.293281982421876,-0.4289093017578125,-0.8974761962890625,0.2903900146484375
1790173709632353000,9.30335302734375,-0.147796630859375,-1.0350799560546875,0.11444091796875
1790173709642425000,9.313425048828124,-0.3366241455078125,-0.91766357421875,0.054412841796875
1790173709652497200,9.3234970703125,-0.37060546875,-0.7803955078125,0.043243408203125
1790173709662568200,9.333568115234375,-0.2648468017578125,-0.85198974609375,0.0927276611328125
1790173709672640000,9.343639892578125,-0.3665008544921875,-0.834808349609375,0.1088714599609375
1790173709682711000,9.3537109375,-0.51416015625,-0.8375244140625,0.0801239013671875
1790173709692783000,9.363783203125,-0.521453857421875,-0.904510498046875,-0.0245361328125
1790173709702855200,9.373855224609375,-0.407012939453125,-1.0166778564453125,0.13214111328125
1790173709712926200,9.38392626953125,-0.3046417236328125,-0.9390716552734375,0.0878143310546875
1790173709722998000,9.393998046875,0.023773193359375,-0.97265625,0.0473785400390625
1790173709733069000,9.404069091796876,-0.0148468017578125,-0.91436767578125,0.0233001708984375
1790173709743141000,9.41414111328125,-0.512969970703125,-0.74066162109375,-0.067474365234375
1790173709753213200,9.424213134765624,-0.9674072265625,-0.7987518310546875,-0.015838623046875
1790173709763284200,9.4342841796875,-0.5249176025390625,-1.124176025390625,0.0506439208984375
1790173709773356300,9.444356201171875,-0.27581787109375,-1.17205810546875,-0.1134185791015625
1790173709783428000,9.454427978515625,-0.371734619140625,-0.9278717041015625,-0.1661529541015625
1790173709793499100,9.4644990234375,-0.432891845703125,-0.7972259521484375,-0.117950439453125
1790173709803571200,9.4745712890625,-0.3638153076171875,-0.770355224609375,-0.056427001953125
1790173709813642000,9.48464208984375,-0.4550323486328125,-0.7945709228515625,-0.1215057373046875
1790173709823714300,9.49471435546875,-0.5099945068359375,-0.9485321044921875,-0.124176025390625
1790173709833786400,9.504786376953126,-0.2991943359375,-1.0545501708984375,-0.248565673828125
1790173709843857200,9.514857177734376,-0.534210205078125,-0.8418426513671875,-0.2724151611328125
1790173709853929000,9.524928955078124,-0.714569091796875,-0.7635650634765625,-0.2072296142578125
1790173709864000000,9.535,-0.432342529296875,-0.955474853515625,-0.3358612060546875
1790173709874072000,9.545072021484375,-0.394805908203125,-1.050079345703125,-0.5066070556640625
1790173709884144000,9.55514404296875,-0.6173553466796875,-0.8361053466796875,-0.3103790283203125
1790173709894215200,9.565215087890625,-0.6685638427734375,-0.7820892333984375,-0.15179443359375
1790173709904287000,9.575286865234375,-0.572052001953125,-0.810638427734375,-0.13897705078125
1790173709914359000,9.585359130859375,-0.3634796142578125,-0.92681884765625,-0.163665771484375
1790173709924430000,9.59543017578125,-0.5364837646484375,-0.8282928466796875,-0.078338623046875
1790173709934502100,9.605502197265626,-0.7611083984375,-0.801544189453125,-0.0428466796875
1790173709944573200,9.6155732421875,-0.81329345703125,-0.82061767578125,0.036346435546875
1790173709954645200,9.625645263671874,-0.2760772705078125,-1.063720703125,0.031890869140625
1790173709964717000,9.635717041015624,-0.2563018798828125,-0.9984893798828125,0.03997802734375
1790173709974788000,9.6457880859375,-0.6567840576171875,-0.7713165283203125,0.039520263671875
1790173709984860200,9.655860107421875,-0.40069580078125,-0.798065185546875,0.0639801025390625
1790173709994931200,9.66593115234375,-0.280609130859375,-0.85540771484375,0.042205810546875
1790173710005003300,9.676003173828125,-0.435882568359375,-0.7906951904296875,0.0264892578125
1790173710015075300,9.686075439453125,-0.3994293212890625,-0.9907989501953125,0.1162872314453125
1790173710025146400,9.696146484375,-0.3178863525390625,-1.0564117431640625,0.0581512451171875
1790173710035218200,9.70621826171875,-0.6113128662109375,-1.0519866943359375,0.010223388671875
1790173710045290200,9.716290283203126,-0.5257568359375,-1.0260162353515625,-0.0400238037109375
1790173710055361000,9.726361083984376,-0.232330322265625,-0.9684295654296875,-0.1284332275390625
1790173710065433000,9.73643310546875,-0.241241455078125,-0.806671142578125,-0.0774383544921875
1790173710075504000,9.746504150390624,-0.1989288330078125,-0.815765380859375,-0.017547607421875
1790173710085576000,9.756575927734374,-0.68646240234375,-0.810302734375,-0.05645751953125
1790173710095648000,9.76664794921875,-1.0308380126953125,-0.874481201171875,-0.134521484375
1790173710105719000,9.776718994140625,-0.42083740234375,-1.03643798828125,-0.1246795654296875
1790173710115791000,9.786791015625,-0.1912994384765625,-1.0682525634765625,-0.1256561279296875
1790173710125862100,9.796862060546875,-0.563079833984375,-0.9376373291015625,-0.17388916015625
1790173710135934200,9.806934326171875,-0.7189788818359375,-0.8961944580078125,-0.1558685302734375
1790173710146006000,9.817006103515626,-0.31097412109375,-0.8863983154296875,-0.0835113525390625
1790173710156077000,9.8270771484375,-0.61322021484375,-0.931549072265625,-0.0913543701171875
1790173710166149000,9.837149169921876,-0.860076904296875,-1.0400543212890625,-0.1375274658203125
1790173710176220200,9.84722021484375,-0.817047119140625,-1.037017822265625,-0.07708740234375
1790173710186292200,9.857292236328124,-0.476715087890625,-0.9757537841796875,0.1233978271484375
1790173710196364300,9.8673642578125,-0.17633056640625,-0.861175537109375,0.07000732421875
1790173710206435300,9.877435302734375,-0.087127685546875,-0.8203887939453125,-0.007110595703125
1790173710216507100,9.887507080078125,-0.54071044921875,-0.871551513671875,0.026885986328125
1790173710226578200,9.897578125,-0.9936676025390625,-0.94598388671875,0.1772613525390625
1790173710236650200,9.907650146484375,-1.03277587890625,-1.129974365234375,0.0749969482421875
1790173710246722300,9.917722412109375,-0.185211181640625,-1.285430908203125,-0.12249755859375
1790173710256793300,9.92779345703125,-0.008087158203125,-1.044769287109375,-0.0933990478515625
1790173710266865200,9.937865234375,-0.6520843505859375,-0.7689208984375,0.115997314453125
1790173710276937700,9.947937744140624,-0.9521636962890625,-0.7596588134765625,0.1096649169921875
1790173710287008800,9.9580087890625,-1.144378662109375,-1.010955810546875,0.1728363037109375
1790173710297080800,9.968080810546875,-1.025848388671875,-1.2762298583984375,0.1116790771484375
1790173710307152000,9.97815185546875,-0.682891845703125,-1.23321533203125,-0.0771484375
1790173710317223700,9.9882236328125,0.024200439453125,-1.1208953857421875,0.0507659912109375
1790173710327295700,9.998295654296875,0.007171630859375,-0.7610626220703125,0.1539306640625
1790173710337366800,10.00836669921875,-0.18670654296875,-0.6456756591796875,0.1141510009765625
1790173710347438800,10.01843896484375,-0.093536376953125,-0.8706817626953125,0.204620361328125
1790173710357510000,10.028510009765625,-0.447418212890625,-0.8441162109375,0.2736053466796875
1790173710367582000,10.03858203125,-0.830230712890625,-0.90924072265625,0.219818115234375
1790173710377653800,10.04865380859375,-0.5387115478515625,-1.165069580078125,0.183685302734375
1790173710387724800,10.058724853515624,-0.4265289306640625,-1.115234375,0.092987060546875
1790173710397796900,10.068796875,-0.578704833984375,-0.9439239501953125,0.11578369140625
1790173710407869000,10.078868896484375,-0.6246490478515625,-0.917449951171875,0.08709716796875
1790173710417939700,10.088939697265625,-0.68109130859375,-0.8577880859375,0.1052703857421875
1790173710428011800,10.09901171875,-0.7314453125,-0.77532958984375,0.2530059814453125
1790173710438082800,10.109082763671875,-0.53582763671875,-0.8657684326171875,0.2390594482421875
1790173710448154600,10.119154541015625,-0.3866424560546875,-0.8431396484375,0.1473388671875
1790173710458226700,10.129226806640625,-0.1314544677734375,-0.8630828857421875,0.1626739501953125
1790173710468297700,10.139297607421875,-0.236785888671875,-0.8481903076171875,0.130889892578125
1790173710478369800,10.149369873046876,-0.4405059814453125,-0.8917083740234375,0.15423583984375
1790173710488440800,10.15944091796875,-0.489532470703125,-0.972564697265625,0.1618194580078125
1790173710498512600,10.1695126953125,-0.9264068603515625,-0.924224853515625,0.0288543701171875
1790173710508584700,10.179584716796874,-0.8455810546875,-0.970245361328125,0.1258544921875
1790173710518655700,10.18965576171875,-0.474365234375,-0.9612579345703125,0.1633148193359375
1790173710528727800,10.199727783203125,-0.73077392578125,-0.8668975830078125,0.1826019287109375
1790173710538798800,10.209798828125,-0.781005859375,-0.9078369140625,0.308563232421875
1790173710548871000,10.219870849609375,-0.534027099609375,-0.9304962158203125,0.2033233642578125
1790173710558942700,10.229942626953125,-0.32574462890625,-0.8992462158203125,0.1881866455078125
1790173710569013800,10.240013671875,-0.252532958984375,-0.8748016357421875,0.2118682861328125
1790173710579085800,10.2500859375,-0.28265380859375,-0.87176513671875,0.2395172119140625
1790173710589158000,10.260157958984376,-0.4025115966796875,-0.8556671142578125,0.2033538818359375
1790173710599229000,10.27022900390625,-0.2660369873046875,-0.9452972412109375,0.168182373046875
1790173710609300700,10.28030078125,-0.4066162109375,-1.05517578125,0.0622100830078125
1790173710619371800,10.290371826171874,-0.6657867431640625,-1.053741455078125,0.074249267578125
1790173710629443800,10.30044384765625,-0.6070709228515625,-1.0649261474609375,0.120025634765625
1790173710639516000,10.310515869140625,-0.442596435546875,-1.02471923828125,0.1369476318359375
1790173710649586700,10.320586669921875,-0.321075439453125,-1.0022125244140625,0.03271484375
1790173710659658800,10.33065869140625,-0.2396240234375,-0.8838653564453125,-0.0440216064453125
1790173710669729800,10.340729736328125,-0.256805419921875,-0.774993896484375,0.042236328125
1790173710679801600,10.350801513671875,-0.16265869140625,-0.7677001953125,0.050048828125
1790173710689873700,10.360873779296876,-0.145904541015625,-0.7769775390625,0.071990966796875
1790173710699944700,10.37094482421875,-0.3963470458984375,-0.713775634765625,0.0814208984375
1790173710710016800,10.381016845703124,-0.7408905029296875,-0.6891326904296875,0.071990966796875
1790173710720088800,10.3910888671875,-0.753204345703125,-0.791656494140625,0.1319580078125
1790173710730159900,10.401159912109375,-0.8056488037109375,-0.8791351318359375,-0.0090789794921875
1790173710740231700,10.411231689453125,-0.5649566650390625,-0.99847412109375,-0.0160675048828125
1790173710750302700,10.421302734375,-0.1409454345703125,-1.0270538330078125,-0.0013427734375
1790173710760374800,10.431374755859375,-0.4083099365234375,-0.86224365234375,-0.024017333984375
1790173710770446800,10.44144677734375,-0.5517730712890625,-0.8558502197265625,0.0456085205078125
1790173710780518000,10.451517822265625,-0.613739013671875,-0.8746490478515625,0.0341339111328125
1790173710790589700,10.461589599609376,-0.241943359375,-1.04876708984375,0.04754638671875
1790173710800660700,10.47166064453125,0.020660400390625,-0.989044189453125,0.052825927734375
1790173710810732800,10.48173291015625,-0.27728271484375,-0.791229248046875,0.134185791015625
1790173710820804900,10.491804931640624,-0.642608642578125,-0.7100830078125,0.1492156982421875
1790173710830876000,10.5018759765625,-0.6121978759765625,-0.7775115966796875,0.154937744140625
1790173710840948000,10.511947998046875,-0.6679534912109375,-0.897613525390625,0.0622100830078125
1790173710851018800,10.522018798828125,-0.7559051513671875,-1.0236053466796875,0.0316162109375
1790173710861090600,10.532090576171875,-0.709259033203125,-1.05914306640625,0.0872955322265625
1790173710871162600,10.54216259765625,-0.5482330322265625,-0.9795074462890625,0.0953369140625
1790173710881233700,10.552233642578125,-0.2027587890625,-1.050689697265625,0.077392578125
1790173710891305700,10.5623056640625,0.157470703125,-1.066680908203125,0.03369140625
1790173710901377800,10.572377685546876,-0.062103271484375,-0.849884033203125,-0.00213623046875
1790173710911448800,10.58244873046875,-0.336883544921875,-0.7515716552734375,0.044036865234375
1790173710921520600,10.592520751953124,-0.3769378662109375,-0.8172149658203125,0.183197021484375
1790173710931591700,10.602591796875,-0.68597412109375,-0.798553466796875,0.0984649658203125
1790173710941663700,10.612663818359374,-0.9212188720703125,-0.9393157958984375,-0.0266571044921875
1790173710951735800,10.62273583984375,-0.586090087890625,-0.99169921875,-0.017242431640625
1790173710961806800,10.632806884765625,-0.5532684326171875,-0.8341064453125,-0.0355377197265625
1790173710971878700,10.642878662109375,-1.0026702880859375,-0.7918548583984375,0.0413360595703125
1790173710981949700,10.65294970703125,-0.8699951171875,-0.976348876953125,0.155059814453125
1790173710992021800,10.663021728515625,-0.301513671875,-1.00537109375,0.05804443359375
1790173711002093800,10.67309375,0.1828460693359375,-1.119232177734375,-0.0187835693359375
1790173711012164900,10.683164794921876,0.013702392578125,-0.9534759521484375,0.0218353271484375
1790173711022237000,10.69323681640625,-0.4847869873046875,-0.6097412109375,0.087554931640625
1790173711032308000,10.703307861328126,-0.6632232666015625,-0.6472625732421875,0.21990966796875
1790173711042379800,10.7133798828125,-0.3738250732421875,-0.9653778076171875,0.11737060546875
1790173711052451800,10.723451904296875,-0.2644195556640625,-1.0132904052734375,-0.1344451904296875
1790173711062522600,10.733522705078125,-0.38336181640625,-0.8924407958984375,-0.1501007080078125
1790173711072595000,10.743594970703125,-0.5543975830078125,-0.7772064208984375,0.0569000244140625
1790173711082665700,10.753665771484375,-0.670654296875,-0.7557373046875,0.08795166015625
1790173711092737800,10.76373779296875,-0.695098876953125,-0.8079833984375,0.0214691162109375
1790173711102809600,10.7738095703125,-0.349090576171875,-1.068145751953125,0.0974273681640625
1790173711112880600,10.783880615234375,-0.030242919921875,-1.15399169921875,0.113525390625
1790173711122952700,10.79395263671875,-0.3379364013671875,-1.0065765380859375,0.1134033203125
1790173711133024800,10.804024658203126,-0.423370361328125,-1.058837890625,0.16217041015625
1790173711143095800,10.814095703125,-0.266937255859375,-1.0872039794921875,0.0881500244140625
1790173711153167600,10.824167724609374,-0.409942626953125,-0.8233642578125,0.080841064453125
1790173711163238700,10.83423876953125,-0.729248046875,-0.69677734375,0.1485595703125
1790173711173310700,10.844310791015625,-0.6548614501953125,-0.873077392578125,0.1881256103515625
1790173711183382800,10.8543828125,-0.6267242431640625,-0.879638671875,0.1535491943359375
1790173711193453800,10.864453857421875,-0.427154541015625,-0.9014892578125,0.0892791748046875
1790173711203526000,10.87452587890625,-0.1186981201171875,-0.9294586181640625,-0.0185699462890625
1790173711213597000,10.884596923828125,-0.2744598388671875,-0.8429412841796875,0.0429534912109375
1790173711223668700,10.894668701171875,-0.5977630615234375,-0.827789306640625,-0.03057861328125
1790173711233740800,10.90474072265625,-0.4806976318359375,-1.10833740234375,-0.064483642578125
1790173711243811800,10.914811767578126,-0.43865966796875,-1.1049957275390625,-0.12255859375
1790173711253884000,10.9248837890625,-0.3902740478515625,-0.954803466796875,-0.04534912109375
1790173711263955000,10.934954833984374,-0.2943267822265625,-0.8251800537109375,0.025726318359375
1790173711274026800,10.94502685546875,-0.3933563232421875,-0.77996826171875,-0.034698486328125
1790173711284098600,10.9550986328125,-0.5428466796875,-0.7751922607421875,-0.0203399658203125
1790173711294169300,10.96516943359375,-0.540313720703125,-0.876129150390625,-0.0228729248046875
1790173711304241400,10.975241455078125,-0.5562286376953125,-0.908966064453125,-0.0221405029296875
1790173711314312400,10.9853125,-0.6156158447265625,-0.96942138671875,0.0306549072265625
1790173711324384500,10.995384521484375,-0.44342041015625,-0.9857330322265625,0.0213470458984375
1790173711334456300,11.005456298828125,-0.3445892333984375,-0.91632080078125,-0.0354156494140625
1790173711344527400,11.01552734375,-0.25921630859375,-0.943389892578125,-0.0303802490234375
1790173711354599400,11.025599365234376,-0.2152557373046875,-0.9061126708984375,-0.0431671142578125
1790173711364671500,11.03567138671875,-0.434478759765625,-0.7729949951171875,-0.0172576904296875
1790173711374742500,11.045742431640624,-0.3587188720703125,-0.960601806640625,-0.0198822021484375
1790173711384814600,11.055814697265625,-0.2481842041015625,-1.0406494140625,-0.0790252685546875
1790173711394885600,11.0658857421875,-0.2820892333984375,-1.07183837890625,-0.150299072265625
1790173711404957400,11.07595751953125,-0.4714508056640625,-0.954925537109375,-0.12042236328125
1790173711415029500,11.086029541015625,-0.53900146484375,-0.85595703125,-0.1321563720703125
1790173711425100500,11.0961005859375,-0.4282379150390625,-0.9129791259765625,-0.159454345703125
1790173711435172600,11.106172607421875,-0.331451416015625,-0.9159698486328125,-0.1155853271484375
1790173711445243600,11.11624365234375,-0.313751220703125,-0.8861236572265625,-0.1129302978515625
1790173711455315700,11.126315673828126,-0.36279296875,-0.9284820556640625,-0.1048736572265625
1790173711465387500,11.136387451171874,-0.437042236328125,-0.88555908203125,-0.1348114013671875
1790173711475458600,11.14645849609375,-0.4880828857421875,-0.8870391845703125,-0.1102142333984375
1790173711485530600,11.156530517578124,-0.289276123046875,-1.041595458984375,-0.0730438232421875
1790173711495601400,11.166601318359374,-0.2144622802734375,-1.1180877685546875,-0.151214599609375
1790173711505673500,11.176673583984375,-0.2740631103515625,-0.9554443359375,-0.142364501953125
1790173711515745300,11.186745361328125,-0.43798828125,-0.9174346923828125,-0.0504150390625
1790173711525816300,11.19681640625,-0.5815582275390625,-0.84637451171875,-0.039703369140625
1790173711535888400,11.206888427734375,-0.493408203125,-0.849334716796875,-0.0364532470703125
1790173711545959400,11.21695947265625,-0.38079833984375,-0.945770263671875,-0.07958984375
1790173711556031500,11.227031494140626,-0.33123779296875,-0.961517333984375,-0.131439208984375
1790173711566103600,11.237103515625,-0.5121917724609375,-0.86187744140625,-0.04541015625
1790173711576174600,11.247174560546876,-0.623809814453125,-0.8743743896484375,0.005279541015625
1790173711586246400,11.257246337890624,-0.4157562255859375,-0.9650115966796875,0.0188140869140625
1790173711596318500,11.267318359375,-0.4646148681640625,-0.915740966796875,0.042022705078125
1790173711606389500,11.277389404296875,-0.465576171875,-0.922637939453125,0.0283966064453125
1790173711616461600,11.287461669921875,-0.3820953369140625,-0.9438018798828125,0.00811767578125
1790173711626532600,11.29753271484375,-0.5876007080078125,-0.8525390625,-0.0274505615234375
1790173711636604700,11.307604736328125,-0.6268768310546875,-0.8701629638671875,0.0225982666015625
1790173711646676500,11.317676513671875,-0.264678955078125,-0.962432861328125,0.01409912109375
1790173711656747500,11.32774755859375,-0.0885467529296875,-0.8906097412109375,0.0955352783203125
1790173711666819600,11.337819580078126,-0.310089111328125,-0.7772979736328125,0.185791015625
1790173711676890600,11.347890625,-0.7122802734375,-0.7919158935546875,0.172271728515625
1790173711686962700,11.357962646484374,-0.6897125244140625,-0.9930419921875,0.125946044921875
1790173711697034500,11.368034423828124,-0.585479736328125,-1.0221710205078125,0.112060546875
1790173711707105500,11.37810546875,-0.4567718505859375,-0.9373321533203125,0.1380767822265625
1790173711717177600,11.388177490234375,-0.3145294189453125,-0.855743408203125,0.2127685546875
1790173711727248400,11.398248291015625,-0.3533172607421875,-0.7783966064453125,0.2237396240234375
1790173711737320400,11.408320556640625,-0.5916595458984375,-0.7675323486328125,0.1158599853515625
1790173711747392500,11.418392578125,-0.7104949951171875,-0.92926025390625,0.104705810546875
1790173711757463600,11.428463623046875,-0.4586639404296875,-0.9535980224609375,-0.048187255859375
1790173711767535400,11.438535400390625,-0.2628631591796875,-0.887359619140625,-0.0183868408203125
1790173711777606400,11.4486064453125,-0.3692626953125,-0.7258758544921875,0.0797119140625
1790173711787678500,11.458678466796876,-0.517730712890625,-0.7492523193359375,-0.041656494140625
1790173711797750500,11.46875048828125,-0.5096282958984375,-0.83197021484375,-0.1478729248046875
1790173711807821600,11.478821533203124,-0.5691680908203125,-0.922943115234375,-0.1317901611328125
1790173711817893600,11.4888935546875,-0.484832763671875,-0.9738922119140625,-0.155517578125
1790173711827965400,11.49896533203125,-0.4324951171875,-0.959503173828125,-0.1762847900390625
1790173711838036500,11.509036376953125,-0.20660400390625,-0.9522857666015625,-0.0383453369140625
1790173711848108500,11.519108642578125,-0.21893310546875,-0.934478759765625,-0.028076171875
1790173711858179600,11.5291796875,-0.363861083984375,-0.9209442138671875,-0.0037841796875
1790173711868251600,11.539251708984375,-0.5302581787109375,-0.9254913330078125,0.0315093994140625
1790173711878323500,11.549323486328126,-0.3934326171875,-1.0050201416015625,0.033782958984375
1790173711888394500,11.55939453125,-0.0566864013671875,-1.0885772705078125,0.0084381103515625
1790173711898466600,11.569466552734376,-0.101409912109375,-0.949005126953125,0.0463409423828125
1790173711908537600,11.57953759765625,-0.3970947265625,-0.911712646484375,0.0730133056640625
1790173711918609700,11.589609619140624,-0.570709228515625,-0.888427734375,0.0805206298828125
1790173711928681700,11.599681640625,-0.52606201171875,-0.9942169189453125,0.0549468994140625
1790173711938752500,11.60975244140625,-0.2576446533203125,-1.0957794189453125,0.0134735107421875
1790173711948824300,11.61982421875,-0.35595703125,-0.9712982177734375,-0.059295654296875
1790173711958895400,11.629895263671875,-0.5061187744140625,-0.899810791015625,-0.13543701171875
1790173711968967400,11.639967529296875,-0.505340576171875,-0.84326171875,-0.168182373046875
1790173711979039500,11.65003955078125,-0.1787109375,-0.89935302734375,-0.15692138671875
1790173711989110500,11.660110595703125,-0.1705322265625,-0.9138336181640625,-0.1687469482421875
1790173711999182300,11.670182373046876,-0.412506103515625,-0.9673614501953125,-0.122161865234375
1790173712009253400,11.68025341796875,-0.5654754638671875,-0.8538970947265625,-0.1237335205078125
1790173712019325400,11.690325439453124,-0.4014434814453125,-0.94635009765625,-0.1446990966796875
1790173712029397500,11.7003974609375,-0.358551025390625,-0.944915771484375,-0.112030029296875
1790173712039468500,11.710468505859374,-0.3546600341796875,-0.8795928955078125,-0.141845703125
1790173712049540600,11.72054052734375,-0.4202728271484375,-0.81048583984375,-0.0811767578125
1790173712059611600,11.730611572265625,-0.3612060546875,-0.84844970703125,-0.099822998046875
1790173712069683500,11.740683349609375,-0.4040985107421875,-0.8126068115234375,-0.0989227294921875
1790173712079755500,11.750755615234375,-0.3914642333984375,-0.9073944091796875,-0.0683135986328125
1790173712089826600,11.76082666015625,-0.49395751953125,-0.83721923828125,-0.038726806640625
1790173712099898600,11.770898681640626,-0.7642974853515625,-0.816986083984375,-0.01544189453125
1790173712109969700,11.7809697265625,-0.8142852783203125,-0.8643035888671875,0.0375213623046875
1790173712120041700,11.791041748046876,-0.5564117431640625,-0.94537353515625,0.026214599609375
1790173712130113500,11.801113525390624,-0.3166656494140625,-0.92694091796875,-0.0806427001953125
1790173712140184300,11.811184326171874,-0.3013153076171875,-0.8925628662109375,-0.0302886962890625
1790173712150256600,11.821256591796875,-0.529388427734375,-0.8038482666015625,0.0372314453125
1790173712160328700,11.83132861328125,-0.658355712890625,-0.765960693359375,-0.028472900390625
1790173712170399500,11.8413994140625,-0.5721588134765625,-0.8495330810546875,-0.0537567138671875
1790173712180471300,11.85147119140625,-0.45538330078125,-0.9551239013671875,-0.064178466796875
1790173712190542300,11.861542236328125,-0.3886566162109375,-0.9508056640625,-0.1123199462890625
1790173712200614400,11.871614501953125,-0.48883056640625,-0.879852294921875,-0.08624267578125
1790173712210685400,11.881685546875,-0.4577484130859375,-0.90228271484375,-0.01300048828125
1790173712220757500,11.891757568359376,-0.1793670654296875,-0.8931427001953125,0.0190582275390625
1790173712230829600,11.90182958984375,-0.25225830078125,-0.884735107421875,0.0688018798828125
1790173712240900600,11.911900634765624,-0.6671295166015625,-0.874664306640625,0.0918121337890625
1790173712250972400,11.921972412109374,-0.6444244384765625,-0.9608001708984375,-0.009002685546875
1790173712261044500,11.93204443359375,-0.46533203125,-0.975860595703125,-0.0058441162109375
1790173712271115500,11.942115478515625,-0.15576171875,-0.994964599609375,-0.0126800537109375
1790173712281187800,11.952187744140625,-0.043853759765625,-0.9206390380859375,-0.0262603759765625
1790173712291258600,11.962258544921875,-0.340179443359375,-0.8247528076171875,-0.0090484619140625
1790173712301330700,11.97233056640625,-0.5380706787109375,-0.802764892578125,0.041107177734375
1790173712311402800,11.98240283203125,-0.67376708984375,-0.9455108642578125,0.086212158203125
1790173712321473500,11.9924736328125,-0.590606689453125,-1.0779876708984375,0.118011474609375
1790173712331545600,12.002545654296876,-0.4715576171875,-1.0688323974609375,0.148529052734375
1790173712341616600,12.01261669921875,-0.4024200439453125,-0.839141845703125,0.174530029296875
1790173712351688700,12.022688720703124,-0.2091064453125,-0.788848876953125,0.1592254638671875
1790173712361760500,12.032760498046875,-0.166961669921875,-0.8091583251953125,0.1175537109375
1790173712371831600,12.04283154296875,-0.496337890625,-0.7504119873046875,0.0696868896484375
1790173712381903600,12.052903564453125,-0.43670654296875,-0.862548828125,0.1039581298828125
1790173712391974700,12.062974609375,-0.3415679931640625,-1.0230712890625,0.016448974609375
1790173712402046700,12.073046630859375,-0.4733734130859375,-0.98651123046875,-0.0322113037109375
1790173712412118800,12.083118896484375,-0.583892822265625,-0.9111175537109375,-0.11309814453125
1790173712422189800,12.09318994140625,-0.5076446533203125,-0.892822265625,-0.1340179443359375
1790173712432261600,12.10326171875,-0.38433837890625,-0.8863372802734375,-0.1324462890625
1790173712442332700,12.113332763671876,-0.3782806396484375,-0.95367431640625,-0.0545654296875
1790173712452404700,12.12340478515625,-0.5472259521484375,-0.8343048095703125,-0.072723388671875
1790173712462476800,12.133476806640624,-0.5606842041015625,-0.85711669921875,-0.10443115234375
1790173712472547800,12.1435478515625,-0.4645843505859375,-0.8933563232421875,-0.1201171875
1790173712482619600,12.15361962890625,-0.26666259765625,-0.88116455078125,-0.1299896240234375
1790173712492690700,12.163690673828125,-0.1508941650390625,-0.9486083984375,-0.1217498779296875
1790173712502762800,12.1737626953125,-0.3753814697265625,-0.9512481689453125,-0.060546875
1790173712512834800,12.183834716796875,-0.425140380859375,-0.865203857421875,-0.0630340576171875
1790173712522905600,12.193905517578125,-0.310089111328125,-0.9947357177734375,-0.0562896728515625
1790173712532977700,12.203977783203126,-0.4077911376953125,-0.933380126953125,-0.0142822265625
1790173712543048700,12.214048583984376,-0.49896240234375,-0.924468994140625,-0.024200439453125
1790173712553120500,12.22412060546875,-0.331024169921875,-0.956634521484375,-0.025054931640625
1790173712563192600,12.234192626953124,-0.2636260986328125,-0.899322509765625,-0.06707763671875
1790173712573263600,12.244263671875,-0.2948455810546875,-0.9184722900390625,-0.0702667236328125
1790173712583335700,12.254335693359375,-0.3199462890625,-0.8914031982421875,-0.071533203125
1790173712593406700,12.26440673828125,-0.406005859375,-0.917572021484375,-0.0123748779296875
1790173712603478800,12.274478759765625,-0.60235595703125,-0.9475250244140625,-0.01031494140625
1790173712613550600,12.284550537109375,-0.6569061279296875,-0.9632415771484375,-0.0699462890625
1790173712623621600,12.29462158203125,-0.499725341796875,-0.941497802734375,-0.0711517333984375
1790173712633693700,12.304693603515625,-0.2426605224609375,-0.9464874267578125,-0.1507110595703125
1790173712643765800,12.314765869140626,-0.316619873046875,-0.86944580078125,-0.0908355712890625
1790173712653836800,12.3248369140625,-0.459930419921875,-0.8389739990234375,-0.0010986328125
1790173712663908600,12.33490869140625,-0.2893829345703125,-0.9027862548828125,-0.055572509765625
1790173712673979600,12.344979736328124,-0.4275054931640625,-0.892486572265625,-0.1084442138671875
1790173712684051700,12.3550517578125,-0.6478729248046875,-0.9027557373046875,-0.0985260009765625
1790173712694123800,12.365123779296875,-0.573211669921875,-0.9675445556640625,-0.0849151611328125
1790173712704194800,12.37519482421875,-0.4434967041015625,-0.892181396484375,-0.0321502685546875
1790173712714267000,12.385266845703125,-0.2495269775390625,-0.8439178466796875,-0.0250396728515625
1790173712724337700,12.395337646484375,-0.26910400390625,-0.8634185791015625,-0.0220794677734375
1790173712734409500,12.405409423828125,-0.70849609375,-0.7642364501953125,0.0174713134765625
1790173712744481800,12.415481689453125,-0.8709259033203125,-0.84832763671875,-0.018096923828125
1790173712754552600,12.425552490234375,-0.453399658203125,-1.0084075927734375,-0.082763671875
1790173712764624600,12.435624755859376,-0.0683135986328125,-1.0238037109375,-0.0712738037109375
1790173712774695700,12.44569580078125,-0.2256927490234375,-0.823577880859375,-0.0421142578125
1790173712784767700,12.455767822265624,-0.513702392578125,-0.6523895263671875,-0.0021209716796875
1790173712794839600,12.465839599609374,-0.4641571044921875,-0.827056884765625,-0.0131378173828125
1790173712804910600,12.47591064453125,-0.477264404296875,-1.0522918701171875,-0.050750732421875
1790173712814982700,12.485982666015625,-0.7190093994140625,-0.978179931640625,-0.004608154296875
1790173712825053700,12.4960537109375,-0.6973724365234375,-0.9528656005859375,0.0220947265625
1790173712835125800,12.506125732421875,-0.325714111328125,-0.972930908203125,-0.0922698974609375
1790173712845197600,12.516197509765625,-0.315185546875,-0.9091949462890625,-0.03839111328125
1790173712855268600,12.5262685546875,-0.3135986328125,-0.7919464111328125,0.0706939697265625
1790173712865340700,12.536340576171876,-0.1063079833984375,-0.83551025390625,-0.014434814453125
1790173712875411700,12.54641162109375,-0.427825927734375,-0.906982421875,-0.10589599609375
1790173712885483800,12.55648388671875,-0.604888916015625,-1.0467529296875,-0.14447021484375
1790173712895555800,12.566555908203124,-0.6078033447265625,-1.1037445068359375,-0.1166839599609375
1790173712905627000,12.576626953125,-0.605010986328125,-1.0030670166015625,-0.0868377685546875
1790173712915698700,12.58669873046875,-0.5450897216796875,-0.9119720458984375,0.031494140625
1790173712925769500,12.59676953125,-0.3389892578125,-0.9259796142578125,0.040618896484375
1790173712935841800,12.606841796875,-0.22955322265625,-0.89056396484375,-0.0529022216796875
1790173712945913900,12.616913818359375,-0.2064056396484375,-0.8878021240234375,-0.0516510009765625
1790173712955984600,12.626984619140625,-0.4333953857421875,-0.8241119384765625,-0.020111083984375
1790173712966056700,12.637056640625,-0.43585205078125,-0.829315185546875,0.0123748779296875
1790173712976127700,12.647127685546875,-0.324737548828125,-0.923583984375,0.002197265625
1790173712986199600,12.657199462890626,-0.558807373046875,-0.9844818115234375,-0.010009765625
1790173712996271600,12.667271728515624,-0.39239501953125,-1.0048980712890625,-0.033111572265625
1790173713006342700,12.6773427734375,-0.39398193359375,-0.9011383056640625,-0.039642333984375
1790173713016414700,12.687414794921875,-0.5737762451171875,-0.7298126220703125,0.0893707275390625
1790173713026485800,12.69748583984375,-0.2888641357421875,-0.8075103759765625,0.0096282958984375
1790173713036557600,12.7075576171875,-0.19921875,-0.9304962158203125,-0.0287628173828125
1790173713046629600,12.717629638671875,-0.491119384765625,-0.819671630859375,-0.004852294921875
1790173713056700700,12.72770068359375,-0.544891357421875,-0.891693115234375,-0.0172576904296875
1790173713066772700,12.737772705078125,-0.448486328125,-0.9117584228515625,-0.012359619140625
1790173713076843800,12.74784375,-0.28009033203125,-0.9193572998046875,-0.011322021484375
1790173713086915800,12.757915771484376,-0.396148681640625,-0.9761810302734375,0.050384521484375
1790173713096987600,12.767987548828126,-0.57086181640625,-0.922637939453125,0.0240478515625
1790173713107058700,12.77805859375,-0.4392547607421875,-0.987213134765625,-0.0006256103515625
1790173713117130800,12.788130859375,-0.3786468505859375,-1.0255889892578125,0.0572357177734375
1790173713127201800,12.798201904296874,-0.4096832275390625,-0.969451904296875,0.1136322021484375
1790173713137273900,12.80827392578125,-0.3375396728515625,-0.9511566162109375,0.101806640625
1790173713147345700,12.818345703125,-0.3218994140625,-0.863433837890625,0.077362060546875
1790173713157416700,12.828416748046875,-0.383392333984375,-0.89959716796875,0.0138397216796875
1790173713167488500,12.838488525390625,-0.43231201171875,-0.9910888671875,0.0371551513671875
1790173713177559600,12.8485595703125,-0.4114227294921875,-0.8985595703125,0.09686279296875
1790173713187631600,12.858631591796875,-0.46307373046875,-0.854644775390625,0.128814697265625
1790173713197703700,12.86870361328125,-0.3854217529296875,-0.894622802734375,0.066650390625
1790173713207774700,12.878774658203126,-0.6941070556640625,-0.7975006103515625,0.03460693359375
1790173713217846500,12.888846435546874,-0.7988739013671875,-0.823089599609375,0.0269012451171875
1790173713227918600,12.898918701171874,-0.31494140625,-1.030181884765625,-0.040374755859375
1790173713237989600,12.90898974609375,0.0610809326171875,-0.9713287353515625,-0.0316009521484375
1790173713248061700,12.919061767578125,-0.1312255859375,-0.7259979248046875,0.0701141357421875
1790173713258132700,12.9291328125,-0.4293212890625,-0.7419586181640625,0.0211334228515625
1790173713268204800,12.939204833984375,-0.72216796875,-0.8154754638671875,-0.0489959716796875
1790173713278275800,12.94927587890625,-0.84210205078125,-0.916534423828125,-0.043365478515625
