time,seconds_elapsed,z,y,x
1790173700401702100,0.0727021484375,0.18798242509365082,0.16439667344093323,0.04719920456409454
1790173700411773200,0.082773193359375,0.1640334129333496,0.20685650408267975,0.02231782302260399
1790173700421845200,0.09284521484375,0.1941758692264557,0.24943512678146362,0.0030804784037172794
1790173700431917300,0.102917236328125,0.17753803730010986,0.26335015892982483,0.01594940572977066
1790173700441988400,0.11298828125,0.17302104830741882,0.28585466742515564,-0.030068952590227127
1790173700452060200,0.12306005859375,0.19893519580364227,0.2654692232608795,-0.005720203742384911
1790173700462132200,0.13313232421875,0.16290982067584991,0.2209845781326294,0.044259339570999146
1790173700472203300,0.143203369140625,0.09476432204246521,0.20343594253063202,0.034391261637210846
1790173700482275300,0.153275390625,0.08162082731723785,0.22429941594600677,-0.033308420330286026
1790173700492347100,0.16334716796875,0.07221055030822754,0.18131253123283386,-0.04063690826296806
1790173700502418200,0.173418212890625,0.010734403505921364,0.11379900574684143,-0.053589724004268646
1790173700512490200,0.183490234375,-0.07205288857221603,0.06625199317932129,-0.03437288850545883
1790173700522562300,0.193562255859375,-0.13334819674491882,0.029620742425322533,0.06649406999349594
1790173700532633000,0.203633056640625,-0.18643832206726074,-0.007398261222988367,0.03194088861346245
1790173700542705400,0.213705322265625,-0.12988902628421783,-0.032271385192871094,-0.003638410707935691
1790173700552777200,0.223777099609375,-0.1616232544183731,-0.07493815571069717,0.02623293548822403
1790173700562848000,0.233847900390625,-0.2882051467895508,-0.14429698884487152,0.059968527406454086
1790173700572920000,0.243920166015625,-0.35483717918395996,-0.15706445276737213,0.05001203343272209
1790173700582992100,0.2539921875,-0.32952356338500977,-0.1714058369398117,0.07339166104793549
1790173700593063200,0.264063232421875,-0.2878277897834778,-0.22946381568908691,0.028072647750377655
1790173700603135200,0.27413525390625,-0.33523499965667725,-0.21295195817947388,-0.016104402020573616
1790173700613207000,0.28420703125,-0.4153282344341278,-0.23770922422409058,0.017054617404937744
1790173700623278000,0.294278076171875,-0.45699843764305115,-0.29320523142814636,0.04315119981765747
1790173700633350100,0.30435009765625,-0.43369072675704956,-0.30773624777793884,0.03075152076780796
1790173700643421200,0.314421142578125,-0.37355732917785645,-0.3109932839870453,-0.05133296176791191
1790173700653493200,0.3244931640625,-0.3668523132801056,-0.31794148683547974,-0.11462537944316864
1790173700663565000,0.33456494140625,-0.4279633164405823,-0.34111469984054565,-0.03544241189956665
1790173700673636000,0.344635986328125,-0.46102941036224365,-0.3482266962528229,-0.024757809937000275
1790173700683708200,0.354708251953125,-0.43667906522750854,-0.3645936846733093,0.021034179255366325
1790173700693780200,0.3647802734375,-0.38948652148246765,-0.3636762201786041,0.009453422389924526
1790173700703851300,0.374851318359375,-0.4026430547237396,-0.337347149848938,0.045876678079366684
1790173700713923300,0.38492333984375,-0.4370332658290863,-0.3327057957649231,0.023631293326616287
1790173700723995100,0.3949951171875,-0.3863775432109833,-0.3440055847167969,0.021190505474805832
1790173700734066200,0.405066162109375,-0.3019859492778778,-0.35278069972991943,-0.011117099784314632
1790173700744138200,0.41513818359375,-0.26976728439331055,-0.3125877380371094,-0.04849589616060257
1790173700754210300,0.425210205078125,-0.2638561427593231,-0.25529035925865173,-0.02075960673391819
1790173700764281300,0.43528125,-0.2619035243988037,-0.22275984287261963,0.000517718493938446
1790173700774353200,0.445353271484375,-0.18495014309883118,-0.22167833149433136,-0.03633696958422661
1790173700784425200,0.45542529296875,-0.10401961207389832,-0.22464802861213684,0.022782277315855026
1790173700794496300,0.465496337890625,-0.03599501773715019,-0.20513424277305603,-0.02594185248017311
1790173700804568300,0.475568359375,0.03695135936141014,-0.16456924378871918,-0.06225857883691788
1790173700814639000,0.48563916015625,0.06800035387277603,-0.12966318428516388,-0.043536026030778885
1790173700824711200,0.495711181640625,0.0977044552564621,-0.1141156554222107,-0.010202037170529366
1790173700834783000,0.505782958984375,0.1887856274843216,-0.07549183070659637,-0.06988614052534103
1790173700844854000,0.51585400390625,0.27676716446876526,0.00993359088897705,-0.0783480703830719
1790173700854926000,0.525926025390625,0.3174373507499695,0.0379822701215744,-0.03496810421347618
1790173700864998100,0.535998046875,0.3177526593208313,0.06875722855329514,0.01926184445619583
1790173700875069200,0.546069091796875,0.46828463673591614,0.15001080930233002,-0.01534726470708847
1790173700885141200,0.556141357421875,0.5227454900741577,0.23271100223064423,-0.02660417929291725
1790173700895213000,0.566213134765625,0.5465986132621765,0.22892212867736816,0.02034681662917137
1790173700905284000,0.5762841796875,0.5420832633972168,0.2612694203853607,0.004572381265461445
1790173700915356200,0.586356201171875,0.6480575799942017,0.305410236120224,-0.05235162004828453
1790173700925428200,0.59642822265625,0.6334725618362427,0.33836179971694946,0.044023916125297546
1790173700935499300,0.606499267578125,0.6306322813034058,0.33839935064315796,-0.03700914978981018
1790173700945571000,0.616571044921875,0.7382564544677734,0.4117180407047272,-0.06096428260207176
1790173700955643100,0.62664306640625,0.8381175398826599,0.439414918422699,-0.055032890290021896
1790173700965714200,0.636714111328125,0.8172748684883118,0.3838406205177307,-0.02028449811041355
1790173700975786200,0.6467861328125,0.7576613426208496,0.37277331948280334,0.0544496588408947
1790173700985858300,0.6568583984375,0.7329634428024292,0.3943459689617157,-0.016707340255379677
1790173700995929300,0.666929443359375,0.7573087215423584,0.4270663857460022,-0.07498183101415634
1790173701006001200,0.677001220703125,0.8062901496887207,0.41836902499198914,-0.06764775514602661
1790173701016072200,0.687072265625,0.7492510676383972,0.42010167241096497,-0.03819319233298302
1790173701026144300,0.697144287109375,0.7193222045898438,0.4496465027332306,-0.09783601760864258
1790173701036216300,0.70721630859375,0.6779654622077942,0.4940030574798584,-0.016454074531793594
1790173701046287400,0.717287353515625,0.6815468668937683,0.5237202048301697,-0.05741961672902107
1790173701056359200,0.727359130859375,0.7396106719970703,0.5636377930641174,-0.05149541422724724
1790173701066431200,0.73743115234375,0.7549046874046326,0.5720752477645874,-0.004944957327097654
1790173701076502000,0.747501953125,0.7200431227684021,0.5900906920433044,0.005119660869240761
1790173701086574000,0.757573974609375,0.7008063197135925,0.5884627103805542,0.010701379738748074
1790173701096646100,0.767646240234375,0.6461912393569946,0.5474604368209839,-0.021562283858656883
1790173701106717200,0.77771728515625,0.5894081592559814,0.5250744223594666,-0.02719966322183609
1790173701116789000,0.7877890625,0.5875828266143799,0.5351139903068542,0.00202267081476748
1790173701126861000,0.797861083984375,0.574580192565918,0.542748749256134,0.04909803718328476
1790173701136932000,0.80793212890625,0.5389052629470825,0.5536011457443237,0.01920192316174507
1790173701147004200,0.818004150390625,0.5726510286331177,0.5226882100105286,0.015548067167401314
1790173701157076200,0.828076171875,0.5469530820846558,0.5258715152740479,0.011355718597769737
1790173701167147300,0.838147216796875,0.47663605213165283,0.5009640455245972,0.04421380162239075
1790173701177219000,0.848218994140625,0.42272087931632996,0.530570387840271,-0.04579172283411026
1790173701187291100,0.858291015625,0.4438203275203705,0.5184950828552246,-0.0017547567840665579
1790173701197362200,0.868362060546875,0.4182150959968567,0.42800673842430115,0.07946260273456573
1790173701207434200,0.878434326171875,0.39482322335243225,0.38896265625953674,0.1474056988954544
1790173701217506000,0.888506103515625,0.36654549837112427,0.42727863788604736,0.03807814419269562
1790173701227577000,0.8985771484375,0.2996000349521637,0.4356561303138733,-0.03038720041513443
1790173701237649200,0.908649169921875,0.25780996680259705,0.39236485958099365,0.06656597554683685
1790173701247720200,0.91872021484375,0.2706701159477234,0.3919376730918884,0.01461729221045971
1790173701257792300,0.928792236328125,0.30115529894828796,0.3960336148738861,0.01426335796713829
1790173701267864000,0.938864013671875,0.28489723801612854,0.3851298391819,0.04553632438182831
1790173701277935000,0.94893505859375,0.25382429361343384,0.3835170269012451,0.04467159882187843
1790173701288007000,0.9590068359375,0.22800546884536743,0.36648237705230713,0.06960944086313248
1790173701298079000,0.969078857421875,0.1754210889339447,0.3657878339290619,0.05650988221168518
1790173701308150000,0.97914990234375,0.1717459261417389,0.351808100938797,0.07642020285129547
1790173701318222000,0.98922216796875,0.18499009311199188,0.36459073424339294,0.09749753028154373
1790173701328294100,0.999294189453125,0.19142775237560272,0.3558869957923889,0.06816919893026352
1790173701338365200,1.009365234375,0.17378218472003937,0.343737930059433,0.12702186405658722
1790173701348437000,1.01943701171875,0.10971105098724365,0.34818461537361145,0.1302671879529953
1790173701358509000,1.029509033203125,0.12732280790805817,0.35583212971687317,0.09542452543973923
1790173701368580000,1.039580078125,0.18919122219085693,0.3458000123500824,0.10668197274208069
1790173701378652200,1.049652099609375,0.17616517841815948,0.34669482707977295,0.0839199349284172
1790173701388724000,1.059723876953125,0.09430306404829025,0.3676304817199707,0.05818793922662735
1790173701398795000,1.069794921875,0.09148304164409637,0.385804146528244,0.030769098550081253
1790173701408867000,1.0798671875,0.11919030547142029,0.39775508642196655,0.023016102612018585
1790173701418939100,1.089939208984375,0.08687657862901688,0.40288007259368896,0.003576092654839158
1790173701429010200,1.10001025390625,0.09446578472852707,0.3890779912471771,0.047313984483480453
1790173701439082200,1.110082275390625,0.10090983659029007,0.37764689326286316,0.12904533743858337
1790173701449153000,1.120153076171875,0.09135734289884567,0.3863280117511749,0.11604857444763184
1790173701459225000,1.13022509765625,0.07891851663589478,0.37491050362586975,0.11788402497768402
1790173701469297200,1.140297119140625,0.06127320975065231,0.37476614117622375,0.10409284383058548
1790173701479368000,1.150367919921875,0.0730409175157547,0.38202327489852905,0.09013308584690094
1790173701489440000,1.16043994140625,0.04610464349389076,0.4037967324256897,0.08929365873336792
1790173701499512000,1.170511962890625,-0.010148241184651852,0.39127588272094727,0.09620243310928345
1790173701509583000,1.1805830078125,-0.030847128480672836,0.37443965673446655,0.14041410386562347
1790173701519655000,1.190655029296875,-0.046777624636888504,0.3644173741340637,0.16304618120193481
1790173701529727000,1.20072705078125,-0.10273543000221252,0.34446045756340027,0.1373373568058014
1790173701539798000,1.210798095703125,-0.11856818944215775,0.26159992814064026,0.17414677143096924
1790173701549870000,1.2208701171875,-0.20379680395126343,0.21364890038967133,0.13909557461738586
1790173701559942000,1.23094189453125,-0.3054640293121338,0.17592042684555054,0.12700028717517853
1790173701570013000,1.241012939453125,-0.3495907485485077,0.09689831733703613,0.1521035134792328
1790173701580085000,1.2510849609375,-0.4039650559425354,0.01635686866939068,0.08882974088191986
1790173701590156000,1.261156005859375,-0.5141152739524841,-0.05824439600110054,0.05892510339617729
1790173701600228000,1.27122802734375,-0.5951656103134155,-0.11651595681905746,0.06439843028783798
1790173701610300200,1.281300048828125,-0.6206129193305969,-0.19521529972553253,0.10413385927677155
1790173701620371200,1.29137109375,-0.6425312757492065,-0.25809651613235474,0.057255301624536514
1790173701630443000,1.301443115234375,-0.7138336896896362,-0.292257159948349,0.09455712884664536
1790173701640515000,1.31151513671875,-0.8243700861930847,-0.3033806383609772,-0.0021662150975316763
1790173701650586000,1.321586181640625,-0.8591565489768982,-0.33221790194511414,0.054064035415649414
1790173701660658200,1.331658203125,-0.8595812916755676,-0.3616902828216553,0.05465126037597656
1790173701670730200,1.341730224609375,-0.8349406719207764,-0.4283263087272644,0.10624974220991135
1790173701680801300,1.35180126953125,-0.8469677567481995,-0.4250167906284332,0.02821512706577778
1790173701690873000,1.361873046875,-0.8223960995674133,-0.3929781913757324,0.08222083747386932
1790173701700945200,1.371945068359375,-0.8151360750198364,-0.3678600490093231,0.06810874491930008
1790173701711016200,1.38201611328125,-0.7967299222946167,-0.3351287245750427,0.11360432952642441
1790173701721088300,1.392088134765625,-0.7656415104866028,-0.3076275885105133,0.15318156778812408
1790173701731160000,1.40216015625,-0.6995341181755066,-0.29544416069984436,0.061464693397283554
1790173701741230800,1.41223095703125,-0.6680251955986023,-0.29356610774993896,0.0399056039750576
1790173701751303000,1.422302978515625,-0.6541847586631775,-0.2632177770137787,0.014574947766959667
1790173701761375000,1.432375,-0.6262585520744324,-0.2599490284919739,-0.024266989901661873
1790173701771446000,1.442446044921875,-0.5844927430152893,-0.26987889409065247,-0.03726827725768089
1790173701781518000,1.45251806640625,-0.5151664018630981,-0.2551707923412323,0.0019441075855866075
1790173701791589000,1.462589111328125,-0.4687826633453369,-0.23558083176612854,0.019568640738725662
1790173701801661000,1.472660888671875,-0.46864524483680725,-0.25304797291755676,0.01883414201438427
1790173701811733000,1.48273291015625,-0.45272353291511536,-0.24883805215358734,0.0696757510304451
1790173701821804000,1.492803955078125,-0.4332382380962372,-0.2106800079345703,0.039930373430252075
1790173701831876000,1.5028759765625,-0.4046926200389862,-0.2198261022567749,-0.011570103466510773
1790173701841948200,1.5129482421875,-0.3368515372276306,-0.24442172050476074,-0.030732346698641777
1790173701852019000,1.52301904296875,-0.31977641582489014,-0.22571967542171478,0.05680922046303749
1790173701862091000,1.533091064453125,-0.3344078063964844,-0.22855861485004425,0.06486048549413681
1790173701872163000,1.5431630859375,-0.3203223645687103,-0.2650071680545807,0.021104220300912857
1790173701882234000,1.553234130859375,-0.29907432198524475,-0.2803208827972412,0.014659636653959751
1790173701892306200,1.56330615234375,-0.2830583453178406,-0.3084995150566101,0.03743445873260498
1790173701902378000,1.5733779296875,-0.3086252212524414,-0.31296855211257935,-0.03712473064661026
1790173701912449000,1.583448974609375,-0.3598090410232544,-0.3257879614830017,-0.017376858741044998
1790173701922521000,1.59352099609375,-0.39971891045570374,-0.3482631742954254,-0.038350317627191544
1790173701932593200,1.60359326171875,-0.42651429772377014,-0.3632780611515045,-0.01413632556796074
1790173701942664200,1.613664306640625,-0.45683038234710693,-0.37712225317955017,-0.0561375729739666
1790173701952736300,1.623736328125,-0.4813173711299896,-0.3700092136859894,-0.10232823342084885
1790173701962807300,1.633807373046875,-0.49036890268325806,-0.3602471351623535,-0.0688813328742981
1790173701972879000,1.643879150390625,-0.5198133587837219,-0.34915265440940857,-0.035705532878637314
1790173701982951200,1.653951171875,-0.4990614652633667,-0.36236193776130676,-0.009358614683151245
1790173701993022000,1.66402197265625,-0.44586774706840515,-0.3487292230129242,-0.0628303587436676
1790173702003094000,1.674093994140625,-0.41306453943252563,-0.36474600434303284,-0.07492776960134506
1790173702013165800,1.684165771484375,-0.41629335284233093,-0.3609829545021057,-0.04966183006763458
1790173702023236900,1.69423681640625,-0.41321712732315063,-0.3479846119880676,-0.0037675739731639624
1790173702033309000,1.704308837890625,-0.3627326488494873,-0.34578242897987366,0.009342635050415993
1790173702043381000,1.714381103515625,-0.28222984075546265,-0.36070865392684937,-0.0102566322311759
1790173702053452000,1.7244521484375,-0.2508905529975891,-0.3693532645702362,0.01056396123021841
1790173702063524000,1.734524169921875,-0.2540314793586731,-0.3930002748966217,0.05469786748290062
1790173702073596000,1.744595947265625,-0.2405201941728592,-0.38966360688209534,0.05848514661192894
1790173702083667000,1.7546669921875,-0.24171115458011627,-0.3626226782798767,0.007013434544205666
1790173702093739000,1.764739013671875,-0.20726025104522705,-0.3411485254764557,-0.054068293422460556
1790173702103810000,1.77481005859375,-0.14829306304454803,-0.3228406310081482,-0.011121893301606178
1790173702113882000,1.784882080078125,-0.13013988733291626,-0.28841716051101685,0.05403660237789154
1790173702123954200,1.7949541015625,-0.0969582349061966,-0.2645834684371948,0.020562266930937767
1790173702134025200,1.805025146484375,-0.04279913008213043,-0.24033057689666748,-0.009310677647590637
1790173702144097000,1.815096923828125,0.05179741606116295,-0.1997799575328827,-0.06513452529907227
1790173702154169000,1.825169189453125,0.10539859533309937,-0.18223105370998383,-0.011113370768725872
1790173702164240100,1.835240234375,0.12597310543060303,-0.14109906554222107,-0.007956460118293762
1790173702174312200,1.845312255859375,0.11120694875717163,-0.10276765376329422,0.04376132786273956
1790173702184384000,1.855384033203125,0.1090649664402008,-0.08133719861507416,0.0010333064710721374
1790173702194455000,1.865455078125,0.13149437308311462,-0.05547817423939705,0.02460574358701706
1790173702204527000,1.875527099609375,0.16944734752178192,-0.021038439124822617,-0.024588966742157936
1790173702214599200,1.88559912109375,0.21977390348911285,-0.010044378228485584,-0.02154097892343998
1790173702224670200,1.895670166015625,0.2235601246356964,0.00720464950427413,0.014519554562866688
1790173702234742300,1.9057421875,0.22346743941307068,0.029514748603105545,-0.0006407565670087934
1790173702244814000,1.91581396484375,0.27760472893714905,0.04544498026371002,-0.04650704935193062
1790173702254884900,1.925884765625,0.30292391777038574,0.0610087588429451,-0.04740160331130028
1790173702264957000,1.93595703125,0.2878507077693939,0.03584987670183182,0.03243197500705719
1790173702275028500,1.946028564453125,0.2753863036632538,0.0009776464430615306,0.05089673772454262
1790173702285100500,1.9561005859375,0.3053077161312103,0.0027254789602011442,-0.04928179457783699
1790173702295172400,1.96617236328125,0.31773269176483154,0.026744795963168144,-0.052076783031225204
1790173702305243400,1.976243408203125,0.2789221704006195,0.036863476037979126,-0.07712647318840027
1790173702315315500,1.9863154296875,0.3085043132305145,0.01350595522671938,-0.014366689138114452
1790173702325387500,1.996387451171875,0.3087756931781769,0.03864007070660591,0.03899986296892166
1790173702335458600,2.00645849609375,0.31323593854904175,0.08259820938110352,0.04495948553085327
1790173702345530600,2.016530517578125,0.35080674290657043,0.11873676627874374,-0.008795621804893017
1790173702355602400,2.0266025390625,0.38391944766044617,0.15149152278900146,-0.05314710736274719
1790173702365673500,2.036673583984375,0.36593058705329895,0.16778473556041718,-0.013227121904492378
1790173702375745500,2.04674560546875,0.3558497130870819,0.19533993303775787,0.018329739570617676
1790173702385817600,2.056817626953125,0.3625776469707489,0.22254066169261932,0.054558318108320236
1790173702395888600,2.066888671875,0.34289637207984924,0.2286512851715088,0.021020064130425453
1790173702405960400,2.07696044921875,0.312319815158844,0.22113078832626343,0.12126810103654861
1790173702416031500,2.087031494140625,0.3024253845214844,0.22471247613430023,0.062255118042230606
1790173702426103600,2.097103515625,0.2854783535003662,0.21697865426540375,-0.09179356694221497
1790173702436175600,2.107175537109375,0.2569092810153961,0.16534395515918732,0.10008612275123596
1790173702446246700,2.11724658203125,0.18568891286849976,0.14245940744876862,-0.029211148619651794
1790173702456318700,2.127318603515625,0.1284506469964981,0.1397472470998764,-0.1747875213623047
1790173702466390500,2.137390625,0.20745864510536194,0.10903353989124298,0.07007362693548203
1790173702476461300,2.14746142578125,0.22307036817073822,0.09322821348905563,0.10903380811214447
1790173702486533400,2.157533447265625,0.16633997857570648,0.08829550445079803,-0.04104170948266983
1790173702496605700,2.167605712890625,0.15244705975055695,0.09197253733873367,-0.04741119220852852
1790173702506676500,2.177676513671875,0.2123253047466278,0.07736935466527939,0.023615846410393715
1790173702516748500,2.18774853515625,0.19594740867614746,0.07046671211719513,0.007355384528636932
1790173702526820400,2.1978203125,0.1736932247877121,0.06936842203140259,0.0156133146956563
1790173702536891400,2.207891357421875,0.14006869494915009,0.06308309733867645,0.0407242588698864
1790173702546963500,2.21796337890625,0.12612225115299225,0.06789755821228027,-0.03641419857740402
1790173702557035500,2.228035400390625,0.12943948805332184,0.04616163671016693,-0.0419921912252903
1790173702567106600,2.2381064453125,0.13365766406059265,0.031496673822402954,0.005077050067484379
1790173702577178400,2.248178466796875,0.13621190190315247,0.008346347138285637,0.024157799780368805
1790173702587249400,2.25824951171875,0.07339778542518616,0.023478694260120392,-0.012650813907384872
1790173702597321500,2.268321533203125,0.04069682955741882,0.02809661626815796,-0.048224788159132004
1790173702607393500,2.2783935546875,0.08054943382740021,0.015588813461363316,-0.04703541845083237
1790173702617464600,2.288464599609375,0.07641781121492386,0.02888810634613037,-0.011403122916817665
1790173702627536600,2.29853662109375,0.05450878292322159,0.02106640301644802,0.03464746102690697
1790173702637608400,2.3086083984375,0.014120345935225487,0.017111076042056084,0.009727195836603642
1790173702647679500,2.318679443359375,-0.007306382525712252,0.022366026416420937,0.0038959383964538574
1790173702657751600,2.32875146484375,-0.004782504867762327,0.029647374525666237,-0.038066424429416656
1790173702667823600,2.33882373046875,-0.03243676945567131,0.019216038286685944,-0.006354302167892456
1790173702677894700,2.348894775390625,-0.035473838448524475,0.012501942925155163,-0.04867672547698021
1790173702687966500,2.358966552734375,-0.07905407249927521,0.026105636730790138,-0.02491120807826519
1790173702698038500,2.36903857421875,-0.07520394027233124,0.04621356725692749,-0.0683782547712326
1790173702708109600,2.379109619140625,-0.03532629832625389,0.04411846026778221,-0.05579002946615219
1790173702718181600,2.389181640625,-0.028198348358273506,0.04849083721637726,0.016401609405875206
1790173702728252400,2.39925244140625,0.009110141545534134,0.030102508142590523,-0.018849587067961693
1790173702738324500,2.409324462890625,-0.009342102333903313,0.03790450468659401,-0.0005318332696333528
1790173702748396500,2.419396484375,-0.008039018139243126,0.05517856776714325,-0.01709829270839691
1790173702758467300,2.42946728515625,0.002092445734888315,0.032763805240392685,0.027728566899895668
1790173702768539400,2.439539306640625,0.009118396788835526,0.023938355967402458,0.007988417521119118
1790173702778611500,2.449611572265625,0.000788561999797821,0.03407328203320503,-0.06417232751846313
1790173702788682500,2.4596826171875,-0.02756078727543354,0.03117016889154911,-0.07996460795402527
1790173702798754600,2.469754638671875,-0.013549097813665867,0.02045946940779686,-0.040460873395204544
1790173702808826400,2.479826416015625,0.009787649847567081,0.014418354257941246,-0.07278525829315186
1790173702818897400,2.4898974609375,-0.010070211254060268,-0.004281564150005579,-0.0385252870619297
1790173702828969500,2.499969482421875,-0.015741677954792976,-0.008570585399866104,-0.03414066135883331
1790173702839041500,2.51004150390625,-0.02959863841533661,0.003500725142657757,-0.02797863818705082
1790173702849112600,2.520112548828125,-0.054430484771728516,-0.02334553562104702,-0.008539692498743534
1790173702859184400,2.530184326171875,-0.017737984657287598,-0.05955467373132706,-0.0813790112733841
1790173702869255400,2.54025537109375,-0.03549061715602875,-0.07530833780765533,-0.04777337983250618
1790173702879327500,2.550327392578125,-0.07355597615242004,-0.07311708480119705,-0.12304896116256714
1790173702889399600,2.560399658203125,-0.1095517948269844,-0.07956832647323608,-0.10995738953351974
1790173702899470600,2.570470703125,-0.09996361285448074,-0.09249132126569748,-0.015305452980101109
1790173702909542700,2.580542724609375,-0.031619444489479065,-0.11228206753730774,-0.03785976395010948
1790173702919614500,2.590614501953125,-0.03345463052392006,-0.10640820115804672,-0.05101338401436806
1790173702929685500,2.600685546875,-0.06935111433267593,-0.08854131400585175,-0.06590205430984497
1790173702939757600,2.610757568359375,-0.08378145098686218,-0.062380287796258926,-0.08220858871936798
1790173702949829600,2.62082958984375,-0.08133267611265182,-0.040886178612709045,-0.09578804671764374
1790173702959900700,2.630900634765625,-0.04948792606592178,-0.029273200780153275,-0.05010044947266579
1790173702969972700,2.64097265625,0.028809810057282448,-0.005642439238727093,-0.04262416064739227
1790173702980044500,2.65104443359375,0.05807129293680191,0.014251640066504478,-0.007933823391795158
1790173702990115300,2.661115234375,0.1001010313630104,0.03591538965702057,0.015284414403140545
1790173703000187600,2.671187744140625,0.15898431837558746,0.04644233360886574,0.07852383702993393
1790173703010258400,2.681258544921875,0.17506608366966248,0.0696302130818367,0.05903775244951248
1790173703020330500,2.69133056640625,0.18280629813671112,0.05519614368677139,0.08632423728704453
1790173703030402300,2.70140234375,0.16512291133403778,0.08801161497831345,0.056837715208530426
1790173703040473300,2.711473388671875,0.1608235090970993,0.14322879910469055,0.007612912449985743
1790173703050545400,2.72154541015625,0.131184384226799,0.20035412907600403,0.034142788499593735
1790173703060617500,2.731617431640625,0.1127995178103447,0.20931407809257507,0.11043090373277664
1790173703070688500,2.7416884765625,0.16349758207798004,0.1858670711517334,0.11801878362894058
1790173703080760600,2.751760498046875,0.18310457468032837,0.19949953258037567,0.08378997445106506
1790173703090832400,2.761832275390625,0.15287956595420837,0.21042807400226593,0.06480109691619873
1790173703100903400,2.7719033203125,0.11669225990772247,0.225625142455101,-0.014814365655183792
1790173703110975500,2.7819755859375,0.10921730101108551,0.21391016244888306,0.052322592586278915
1790173703121046500,2.792046630859375,0.12572437524795532,0.20822776854038239,0.055153798311948776
1790173703131118600,2.80211865234375,0.10049651563167572,0.18803754448890686,0.04677043482661247
1790173703141190700,2.812190673828125,0.044257208704948425,0.1605185717344284,-0.0001685781026026234
1790173703151261700,2.82226171875,-0.012781308963894844,0.12389504909515381,0.0028972530271857977
1790173703161333500,2.83233349609375,-0.07166539877653122,0.10705401748418808,-0.02900288999080658
1790173703171405600,2.842405517578125,-0.10024111717939377,0.07509554922580719,0.027332555502653122
1790173703181476600,2.8524765625,-0.1154317855834961,0.029884928837418556,0.02509257011115551
1790173703191548700,2.862548583984375,-0.18587586283683777,-0.010114685632288456,-0.03352547064423561
1790173703201620500,2.872620361328125,-0.26894038915634155,-0.051904477179050446,0.01284629013389349
1790173703211691500,2.88269140625,-0.2931852638721466,-0.07514295727014542,0.0805228054523468
1790173703221763600,2.892763671875,-0.2605964243412018,-0.12732599675655365,0.032769132405519485
1790173703231835600,2.902835693359375,-0.31015971302986145,-0.1494014710187912,-0.03327939286828041
1790173703241906400,2.912906494140625,-0.3682946562767029,-0.14461949467658997,0.010496316477656364
1790173703251978800,2.922978759765625,-0.3463864326477051,-0.1474991738796234,0.04801732674241066
1790173703262049500,2.933049560546875,-0.3238790035247803,-0.14633910357952118,0.02418656274676323
1790173703272121300,2.943121337890625,-0.31105321645736694,-0.15005740523338318,0.05499720573425293
1790173703282193400,2.953193359375,-0.3279951810836792,-0.1509820520877838,0.023730630055069923
1790173703292264400,2.963264404296875,-0.3592630922794342,-0.16759298741817474,-0.04151149094104767
1790173703302336500,2.97333642578125,-0.3451533913612366,-0.1817258596420288,-0.020909009501338005
1790173703312408300,2.983408203125,-0.2948441505432129,-0.1825658231973648,0.014590926468372345
1790173703322479400,2.993479248046875,-0.30213403701782227,-0.18186967074871063,0.06698302924633026
1790173703332551400,3.003551513671875,-0.32634082436561584,-0.19007033109664917,0.010129866190254688
1790173703342623500,3.01362353515625,-0.301223486661911,-0.23266573250293732,0.025480326265096664
1790173703352694500,3.023694580078125,-0.2751713693141937,-0.24027864634990692,-0.008539159782230854
1790173703362766600,3.0337666015625,-0.2423737496137619,-0.2395169883966446,0.03419845178723335
1790173703372838400,3.04383837890625,-0.26790735125541687,-0.24308988451957703,0.06267376989126205
1790173703382909400,3.053909423828125,-0.28974127769470215,-0.21954141557216644,0.027532026171684265
1790173703392981500,3.0639814453125,-0.29977765679359436,-0.1979101449251175,-0.013146961107850075
1790173703403052500,3.074052490234375,-0.25931331515312195,-0.16952484846115112,-0.011395665816962719
1790173703413124600,3.08412451171875,-0.20106147229671478,-0.15454323589801788,-0.021076789125800133
1790173703423196700,3.09419677734375,-0.18146219849586487,-0.12361595034599304,-0.06815242022275925
1790173703433267700,3.104267822265625,-0.1434471756219864,-0.10083553194999695,-0.061470285058021545
1790173703443339500,3.114339599609375,-0.09461971372365952,-0.08455776423215866,-0.03235740587115288
1790173703453411600,3.12441162109375,-0.06186975911259651,-0.08101362735033035,0.02309919334948063
1790173703463482600,3.134482666015625,-0.03229242563247681,-0.04814941808581352,-0.012702479027211666
1790173703473554700,3.1445546875,-0.021833127364516258,-0.039078958332538605,0.007327155210077763
1790173703483626500,3.15462646484375,-0.014606639742851257,-0.025477929040789604,-0.036861345171928406
1790173703493697300,3.164697265625,0.022876553237438202,-0.002971555106341839,-0.02233007363975048
1790173703503769600,3.17476953125,0.051182761788368225,0.052740443497896194,-0.015835421159863472
1790173703513840400,3.18484033203125,0.0530158132314682,0.05953283607959747,-0.01501250546425581
1790173703523912400,3.194912353515625,0.06949572265148163,0.07149415463209152,-0.08610878884792328
1790173703533984500,3.204984619140625,0.10993742197751999,0.08862414211034775,-0.020078636705875397
1790173703544055600,3.2150556640625,0.15137434005737305,0.11480221897363663,-0.06751353293657303
1790173703554127400,3.22512744140625,0.12264815717935562,0.15069709718227386,-0.07883968949317932
1790173703564199400,3.235199462890625,0.09195069223642349,0.18102145195007324,-0.10143767297267914
1790173703574270500,3.2452705078125,0.11770878732204437,0.19612237811088562,-0.0006684534018859267
1790173703584342500,3.255342529296875,0.14589329063892365,0.18872517347335815,-0.06712151318788528
1790173703594414600,3.26541455078125,0.10798319429159164,0.17435023188591003,-0.039869919419288635
1790173703604485600,3.275485595703125,0.0786047950387001,0.16493701934814453,-0.011214038357138634
1790173703614557400,3.285557373046875,0.05644383281469345,0.15577174723148346,-0.04280152544379234
1790173703624629500,3.29562939453125,0.04980963468551636,0.1240372583270073,-0.035172633826732635
1790173703634700500,3.305700439453125,0.0492708757519722,0.11043516546487808,0.006911169271916151
1790173703644772600,3.315772705078125,0.004864263813942671,0.10688330978155136,-0.006689061876386404
1790173703654843600,3.32584375,-0.0641733929514885,0.081330806016922,-0.0014860439114272594
1790173703664915500,3.33591552734375,-0.10666998475790024,0.0788588598370552,0.0371692068874836
1790173703674987500,3.345987548828125,-0.1101376861333847,0.06844350695610046,0.07126672565937042
1790173703685058600,3.35605859375,-0.14090731739997864,0.05036650225520134,0.04284626618027687
1790173703695130600,3.366130615234375,-0.20624105632305145,0.0539226196706295,0.06456328183412552
1790173703705202700,3.37620263671875,-0.2468702346086502,0.03098294883966446,0.03381974995136261
1790173703715273700,3.386273681640625,-0.2453668862581253,-0.00523790530860424,-0.04489290714263916
1790173703725345500,3.396345458984375,-0.2839667499065399,-0.004917527083307505,-0.04146594926714897
1790173703735417600,3.40641748046875,-0.2707071304321289,-0.02389254979789257,-0.00842917151749134
1790173703745488400,3.41648828125,-0.24667449295520782,-0.06278881430625916,-0.03786136209964752
1790173703755560700,3.426560791015625,-0.2868237793445587,-0.09484288841485977,-0.025730930268764496
1790173703765631500,3.436631591796875,-0.33153480291366577,-0.1166352704167366,-0.04441886395215988
1790173703775703600,3.44670361328125,-0.38753122091293335,-0.1465281844139099,-0.02737596444785595
1790173703785775400,3.456775390625,-0.4050622582435608,-0.16968730092048645,-0.009614810347557068
1790173703795846400,3.466846435546875,-0.3781347870826721,-0.1994723677635193,0.014281467534601688
1790173703805918500,3.47691845703125,-0.3803803622722626,-0.21619275212287903,-0.0008069378091022372
1790173703815990500,3.486990478515625,-0.40653207898139954,-0.23347321152687073,-0.03224741667509079
1790173703826061600,3.4970615234375,-0.43716534972190857,-0.2509744465351105,-0.03137123957276344
1790173703836133400,3.50713330078125,-0.46559059619903564,-0.2512836158275604,0.0019827233627438545
1790173703846205400,3.517205322265625,-0.4196808934211731,-0.2912371754646301,0.03291560709476471
1790173703856276500,3.5272763671875,-0.41111963987350464,-0.3200531005859375,0.13938026130199432
1790173703866348500,3.5373486328125,-0.4135921001434326,-0.3298655152320862,0.017409350723028183
1790173703876419600,3.547419677734375,-0.47514042258262634,-0.3137890696525574,0.04435627907514572
1790173703886491600,3.55749169921875,-0.5134180188179016,-0.30404138565063477,0.05553942546248436
1790173703896563500,3.5675634765625,-0.45983976125717163,-0.34450384974479675,0.11812477558851242
1790173703906634500,3.577634521484375,-0.41486990451812744,-0.33883026242256165,0.08586031198501587
1790173703916706600,3.58770654296875,-0.41334283351898193,-0.34128037095069885,-0.007713845930993557
1790173703926778600,3.597778564453125,-0.4080130457878113,-0.34265029430389404,-0.028298482298851013
1790173703936849700,3.607849609375,-0.3938192129135132,-0.32703670859336853,-0.05373327061533928
1790173703946921500,3.61792138671875,-0.3584772050380707,-0.34103161096572876,-0.04828257858753204
1790173703956993500,3.62799365234375,-0.37607136368751526,-0.3410004675388336,-0.02870594710111618
1790173703967064600,3.638064697265625,-0.3661864995956421,-0.3390262722969055,-0.06527407467365265
1790173703977136600,3.64813671875,-0.35519644618034363,-0.3484290838241577,-0.07264570891857147
1790173703987207400,3.65820751953125,-0.343178927898407,-0.36890771985054016,-0.13025227189064026
1790173703997279500,3.668279541015625,-0.3448774814605713,-0.388418585062027,-0.14629249274730682
1790173704007351600,3.6783515625,-0.37967967987060547,-0.3642221689224243,-0.21855364739894867
1790173704017422300,3.68842236328125,-0.36919429898262024,-0.3946397304534912,-0.1443667709827423
1790173704027494400,3.698494384765625,-0.2735370099544525,-0.42012032866477966,0.00950748473405838
1790173704037566500,3.70856640625,-0.25945979356765747,-0.41020163893699646,0.0808170884847641
1790173704047637500,3.718637451171875,-0.3363279402256012,-0.4428490698337555,0.004968393128365278
1790173704057709600,3.72870947265625,-0.3883834183216095,-0.45422688126564026,-0.04460901394486427
1790173704067781400,3.738781494140625,-0.3774804472923279,-0.41477933526039124,-0.07848415523767471
1790173704077852400,3.748852294921875,-0.32951346039772034,-0.4097052216529846,-0.10649475455284119
1790173704087924500,3.758924560546875,-0.27881166338920593,-0.38387441635131836,-0.019529759883880615
1790173704097995500,3.76899560546875,-0.28099918365478516,-0.37037166953086853,0.07059107720851898
1790173704108067600,3.779067626953125,-0.2737167775630951,-0.3908204734325409,0.11812184751033783
1790173704118139400,3.789139404296875,-0.2729785442352295,-0.37290486693382263,0.07190721482038498
1790173704128210400,3.79921044921875,-0.2679544985294342,-0.36320990324020386,0.059722986072301865
1790173704138282500,3.809282470703125,-0.2495080977678299,-0.35868358612060547,0.02381984516978264
1790173704148354600,3.8193544921875,-0.2887455224990845,-0.34364765882492065,0.021499432623386383
1790173704158425600,3.829425537109375,-0.2554650604724884,-0.343443900346756,0.04658321291208267
1790173704168497700,3.83949755859375,-0.20279093086719513,-0.37032371759414673,0.12743279337882996
1790173704178569500,3.849569580078125,-0.13906069099903107,-0.38290929794311523,0.17015361785888672
1790173704188640500,3.859640625,-0.15635710954666138,-0.3638589084148407,0.12965013086795807
1790173704198712600,3.869712646484375,-0.19154785573482513,-0.34573182463645935,0.03761768341064453
1790173704208783600,3.87978369140625,-0.1922788918018341,-0.34787461161613464,0.04671690613031387
1790173704218855700,3.889855712890625,-0.09724346548318863,-0.34521812200546265,0.09560375660657883
1790173704228927500,3.899927490234375,-0.025379126891493797,-0.34812334179878235,0.1468975692987442
1790173704238998500,3.90999853515625,-0.06315872818231583,-0.3890273869037628,0.16162778437137604
1790173704249070300,3.9200703125,-0.11367436498403549,-0.40962666273117065,0.11776844412088394
1790173704259142700,3.930142578125,-0.07205022126436234,-0.40357863903045654,0.028622590005397797
1790173704269213400,3.94021337890625,0.006640592124313116,-0.4051927626132965,0.13813230395317078
1790173704279285000,3.950284912109375,0.042451586574316025,-0.4232223629951477,0.1836254894733429
1790173704289357000,3.960357177734375,0.018020013347268105,-0.43994835019111633,0.22876420617103577
1790173704299428000,3.970427978515625,-0.027102457359433174,-0.440797358751297,0.23106969892978668
1790173704309500000,3.9805,-0.012501942925155163,-0.43278712034225464,0.19349037110805511
1790173704319571000,3.990571044921875,0.039509326219558716,-0.40879523754119873,0.09869755059480667
1790173704329643000,4.00064306640625,0.07547025382518768,-0.38673973083496094,0.06585437804460526
1790173704339715000,4.010715087890625,0.07814992964267731,-0.362457275390625,0.12258929759263992
1790173704349786000,4.0207861328125,0.10835763067007065,-0.30705979466438293,0.06634067744016647
1790173704359858000,4.03085791015625,0.19847607612609863,-0.263044148683548,0.06778277456760406
1790173704369930000,4.040929931640625,0.25701582431793213,-0.21817520260810852,0.00012117382721044123
1790173704380000800,4.051000732421875,0.2753966748714447,-0.22082266211509705,0.02612454444169998
1790173704390072800,4.06107275390625,0.25207406282424927,-0.18277700245380402,0.09824907034635544
1790173704400145200,4.071145263671875,0.3301163911819458,-0.14248497784137726,0.09013308584690094
1790173704410216000,4.0812158203125,0.4027876555919647,-0.07413068413734436,-0.0715508833527565
1790173704420287700,4.091287841796875,0.4304312765598297,-0.0374901182949543,-0.014820224605500698
1790173704430358800,4.10135888671875,0.4470440745353699,-0.037034984678030014,-0.08600039780139923
1790173704440430800,4.111430908203125,0.4230026602745056,-0.000895621080417186,-0.05923003330826759
1790173704450503000,4.1215029296875,0.4576522409915924,0.007222492713481188,0.027232952415943146
1790173704460574000,4.131573974609375,0.5059321522712708,0.04114796966314316,-0.06853485107421875
1790173704470646000,4.14164599609375,0.5142199397087097,0.0786074623465538,-0.04773982614278793
1790173704480717800,4.1517177734375,0.5071625113487244,0.11509037017822266,-0.02008875645697117
1790173704490788900,4.161788818359375,0.5329312682151794,0.1349484920501709,-0.05624702572822571
1790173704500861000,4.17186083984375,0.5631099343299866,0.15455815196037292,-0.05158436298370361
1790173704510933000,4.18193310546875,0.5811941623687744,0.18201853334903717,-0.05636740103363991
1790173704521004000,4.192004150390625,0.5377124547958374,0.18731556832790375,-0.14433693885803223
1790173704531075800,4.202075927734375,0.4958507716655731,0.17949572205543518,-0.08291618525981903
1790173704541147000,4.21214697265625,0.4760128855705261,0.18212053179740906,-0.07476744800806046
1790173704551219000,4.222218994140625,0.4458579123020172,0.16149674355983734,-0.07312214374542236
1790173704561291000,4.232291015625,0.41348931193351746,0.14813433587551117,-0.085364431142807
1790173704571362000,4.242362060546875,0.3695650100708008,0.14404718577861786,-0.07718506455421448
1790173704581434000,4.25243408203125,0.3604782819747925,0.1009412631392479,-0.0626431405544281
1790173704591506000,4.262505859375,0.35050928592681885,0.07428355515003204,-0.06512866914272308
1790173704601577000,4.272576904296875,0.297938734292984,0.05856264382600784,0.013421266339719296
1790173704611649000,4.28264892578125,0.24799223244190216,0.03807707875967026,0.052086103707551956
1790173704621721000,4.29272119140625,0.2290387749671936,0.007954062893986702,0.06608074903488159
1790173704631791900,4.3027919921875,0.2542858123779297,-0.03332626447081566,0.0324503518640995
1790173704641864000,4.312864013671875,0.2466404139995575,-0.0473126545548439,0.019211778417229652
1790173704651935000,4.32293505859375,0.20390039682388306,-0.08023252338171005,0.02003895491361618
1790173704662006800,4.3330068359375,0.20412170886993408,-0.0953797847032547,-0.026022812351584435
1790173704672078800,4.343078857421875,0.21828626096248627,-0.07605801522731781,-0.02394155226647854
1790173704682150000,4.35314990234375,0.20556727051734924,-0.05404406040906906,-0.04927913099527359
1790173704692222000,4.363221923828125,0.23363086581230164,-0.07459887117147446,-0.008580971509218216
1790173704702293800,4.373293701171875,0.2922619581222534,-0.0696009173989296,0.08467147499322891
1790173704712364800,4.38336474609375,0.2829209268093109,-0.06584133207798004,0.0668858215212822
1790173704722436900,4.393436767578125,0.3104665279388428,-0.06412359327077866,0.042210835963487625
1790173704732508000,4.4035078125,0.3463113307952881,-0.025671275332570076,-0.002666356973350048
1790173704742580000,4.413580078125,0.32999786734580994,-0.005190767347812653,-0.0398789718747139
1790173704752652000,4.423652099609375,0.35911208391189575,-0.014508634805679321,-0.019099125638604164
1790173704762723000,4.43372314453125,0.40878111124038696,-0.010219880379736423,0.017177121713757515
1790173704772795000,4.443794921875,0.45118770003318787,0.013083045370876789,0.017537448555231094
1790173704782867000,4.453866943359375,0.456857293844223,0.03750556334853172,0.06934098899364471
1790173704792938000,4.46393798828125,0.43684762716293335,0.0668884888291359,0.011713647283613682
1790173704803010000,4.474010009765625,0.46485236287117004,0.09220582991838455,-0.0009403621661476791
1790173704813081900,4.484081787109375,0.48695313930511475,0.13949185609817505,0.005693838465958834
1790173704823153000,4.49415283203125,0.49699458479881287,0.15908285975456238,-0.021564148366451263
1790173704833225000,4.504224853515625,0.5559878945350647,0.19798685610294342,-0.006690659560263157
1790173704843296000,4.5142958984375,0.6332967877388,0.2497757524251938,0.0603104792535305
1790173704853368000,4.5243681640625,0.6716330051422119,0.29940134286880493,0.05477296561002731
1790173704863440100,4.534440185546875,0.6745480895042419,0.34042975306510925,0.03507276624441147
1790173704873511000,4.544510986328125,0.6894676089286804,0.39252516627311707,0.03855884447693825
1790173704883582700,4.554582763671875,0.6936187148094177,0.44610050320625305,0.009579390287399292
1790173704893654800,4.56465478515625,0.695168137550354,0.48142150044441223,-0.07380631566047668
1790173704903725800,4.574725830078125,0.6929720640182495,0.5262643098831177,-0.09960728138685226
1790173704913798000,4.5847978515625,0.6867213845252991,0.545669436454773,-0.02177560329437256
1790173704923870000,4.594869873046875,0.691210150718689,0.5543338060379028,0.04116874188184738
1790173704933941000,4.60494091796875,0.7117122411727905,0.5811446309089661,0.03941531479358673
1790173704944012800,4.6150126953125,0.6739805340766907,0.5953738689422607,0.0984615907073021
1790173704954083800,4.625083740234375,0.6325407028198242,0.5684695839881897,0.09271156042814255
1790173704964156000,4.635156005859375,0.6008392572402954,0.5550515055656433,0.08327571302652359
1790173704974228000,4.64522802734375,0.5632827877998352,0.5901695489883423,0.019277824088931084
1790173704984299000,4.655299072265625,0.5185065269470215,0.5783376693725586,0.00004793690095539205
1790173704994370800,4.665370849609375,0.4518961012363434,0.5507307648658752,0.00854608416557312
1790173705004443000,4.67544287109375,0.3690888285636902,0.5396043658256531,0.07854274660348892
1790173705014514000,4.685513916015625,0.3167630434036255,0.4920320510864258,0.1054566502571106
1790173705024586000,4.6955859375,0.295207142829895,0.46327924728393555,0.07469447702169418
1790173705034657000,4.705656982421875,0.23516911268234253,0.4511578679084778,0.0804881826043129
1790173705044729000,4.71572900390625,0.1609920859336853,0.4008592665195465,0.11315584927797318
1790173705054801000,4.72580078125,0.09144842624664307,0.34494513273239136,0.06744455546140671
1790173705064872000,4.735871826171875,0.0505976639688015,0.3141278326511383,0.07708306610584259
1790173705074944000,4.745944091796875,-0.011894476599991322,0.27296683192253113,0.0355561301112175
1790173705085016000,4.75601611328125,-0.059174373745918274,0.22291989624500275,0.02672482095658779
1790173705095087000,4.766087158203125,-0.11151134967803955,0.17837932705879211,0.05891871079802513
1790173705105159200,4.7761591796875,-0.18559569120407104,0.12711720168590546,0.09494994580745697
1790173705115231000,4.78623095703125,-0.27496337890625,0.09825360029935837,0.09017383307218552
1790173705125301800,4.7963017578125,-0.319266676902771,0.05360277369618416,0.09507032483816147
1790173705135373800,4.806373779296875,-0.3238385319709778,0.006327404174953699,0.06452280282974243
1790173705145444900,4.81644482421875,-0.3413213789463043,-0.02340785413980484,0.06860942393541336
1790173705155517000,4.826516845703125,-0.3714454472064972,-0.03321867436170578,0.0893690288066864
1790173705165588700,4.836588623046875,-0.34719017148017883,-0.07309551537036896,0.08261392265558243
1790173705175659800,4.84665966796875,-0.34901365637779236,-0.08413884788751602,0.05471410974860191
1790173705185731800,4.85673193359375,-0.34243136644363403,-0.09877318143844604,0.05238970369100571
1790173705195804000,4.866803955078125,-0.324980229139328,-0.0939326211810112,0.023629961535334587
1790173705205875000,4.876875,-0.3243066966533661,-0.07884794473648071,-0.04659013822674751
1790173705215947000,4.886947021484375,-0.28247642517089844,-0.06562614440917969,-0.04718482121825218
1790173705226018800,4.897018798828125,-0.2352825552225113,-0.029862558469176292,-0.058237474411726
1790173705236089900,4.90708984375,-0.17341838777065277,-0.02761591412127018,-0.01834758184850216
1790173705246162000,4.917161865234375,-0.1350741982460022,-0.025424133986234665,-0.05620308592915535
1790173705256233000,4.92723291015625,-0.10966524481773376,0.005035238806158304,-0.05724677816033363
1790173705266305000,4.937304931640625,-0.06905603408813477,0.03183462843298912,-0.06748024374246597
1790173705276377000,4.947377197265625,-0.012288358062505722,0.04283028841018677,-0.04641596972942352
1790173705286448000,4.9574482421875,0.019215239211916924,0.06912846863269806,-0.03243596851825714
1790173705296520000,4.96752001953125,0.06590018421411514,0.07802502810955048,-0.0028421254828572273
1790173705306592000,4.977592041015625,0.05609229579567909,0.09577233344316483,-0.08159845322370529
1790173705316663000,4.9876630859375,0.04066726937890053,0.09629537910223007,-0.006960703991353512
1790173705326735000,4.997735107421875,0.06005747616291046,0.11323521286249161,0.008568987250328064
1790173705336806100,5.00780615234375,0.07348433881998062,0.11902066320180893,-0.031386420130729675
1790173705346878000,5.0178779296875,0.07455892115831375,0.15038231015205383,-0.010987670160830021
1790173705356950000,5.027949951171875,0.0648098886013031,0.17216376960277557,0.024820128455758095
1790173705367021000,5.03802099609375,0.0019680759869515896,0.20650337636470795,-0.05199795216321945
1790173705377093000,5.048093017578125,-0.003942277282476425,0.20965255796909332,-0.01944773457944393
1790173705387165200,5.058165283203125,0.04308195784687996,0.21384358406066895,0.010155698284506798
1790173705397236200,5.068236328125,0.04544897377490997,0.2146955281496048,-0.06990744173526764
1790173705407308000,5.07830810546875,0.03605706989765167,0.2161693125963211,-0.0757104754447937
1790173705417380000,5.088380126953125,0.019054118543863297,0.21256420016288757,-0.020146014168858528
1790173705427451100,5.098451171875,-0.016266321763396263,0.22082026302814484,0.02238120511174202
1790173705437523200,5.108523193359375,-0.010459565557539463,0.2110230177640915,0.05379265919327736
1790173705447594200,5.11859423828125,0.013711817562580109,0.1936376392841339,0.10676506161689758
1790173705457666000,5.128666015625,-0.025766616687178612,0.18805378675460815,0.07134262472391129
1790173705467738000,5.138738037109375,-0.06600804626941681,0.16483822464942932,0.09677714109420776
1790173705477809000,5.148808837890625,-0.0707511380314827,0.15387745201587677,0.0645691379904747
1790173705487881000,5.158880859375,-0.07985701411962509,0.15300552546977997,0.04404468834400177
1790173705497953300,5.168953369140625,-0.08573940396308899,0.12416349351406097,0.024275777861475945
1790173705508024000,5.179024169921875,-0.10592243820428848,0.10696027427911758,-0.000005592638444795739
1790173705518096000,5.189095947265625,-0.1217527985572815,0.08100483566522598,0.03549434617161751
1790173705528167000,5.1991669921875,-0.16214390099048615,0.06408897042274475,0.08741000294685364
1790173705538239000,5.209239013671875,-0.21262384951114655,0.03524240851402283,0.053895723074674606
1790173705548311000,5.21931103515625,-0.22479583323001862,-0.011975702829658985,0.041730936616659164
1790173705558382000,5.229382080078125,-0.24033191800117493,-0.03927390277385712,0.08253882080316544
1790173705568454100,5.2394541015625,-0.25820332765579224,-0.058167964220047,0.04237302392721176
1790173705578526000,5.24952587890625,-0.25946512818336487,-0.06536116451025009,0.016522783786058426
1790173705588597000,5.259596923828125,-0.252549946308136,-0.09656728804111481,0.05160833150148392
1790173705598669000,5.2696689453125,-0.26108139753341675,-0.12493474781513214,0.0671904906630516
1790173705608740000,5.279739990234375,-0.25898388028144836,-0.13259346783161163,0.015096660703420639
1790173705618812200,5.289812255859375,-0.255235493183136,-0.12663650512695312,0.014010624028742313
1790173705628884000,5.299884033203125,-0.25479528307914734,-0.14599262177944183,0.0478423573076725
1790173705638955000,5.309955078125,-0.26886022090911865,-0.12577444314956665,0.013295299373567104
1790173705649027000,5.320027099609375,-0.27931687235832214,-0.10181424766778946,-0.03331880643963814
1790173705659099100,5.33009912109375,-0.2582848072052002,-0.0895695611834526,-0.011795938946306705
1790173705669170200,5.340170166015625,-0.2359267771244049,-0.08643395453691483,-0.022431273013353348
1790173705679242200,5.3502421875,-0.22977779805660248,-0.04391605779528618,-0.06067027151584625
1790173705689314000,5.36031396484375,-0.2052716612815857,-0.01629455015063286,-0.058342669159173965
1790173705699385000,5.370385009765625,-0.1790882647037506,0.0323781780898571,-0.07415971159934998
1790173705709457200,5.38045703125,-0.18005898594856262,0.054060306400060654,-0.011868377216160297
1790173705719528000,5.39052783203125,-0.1007513776421547,0.05780977010726929,-0.0036008600145578384
1790173705729600000,5.40060009765625,-0.06696944683790207,0.06829223781824112,-0.009751963429152966
1790173705739672000,5.410672119140625,-0.09036371856927872,0.09571294486522675,0.010025735944509506
1790173705749743000,5.4207431640625,-0.17048917710781097,0.0992879718542099,0.06402558833360672
1790173705759815000,5.43081494140625,-0.09500826895236969,0.049493517726659775,0.039077628403902054
1790173705769887000,5.440886962890625,-0.03225993365049362,0.08011134713888168,0.021931132301688194
1790173705779958000,5.4509580078125,-0.045337121933698654,0.08884332329034805,0.004811533261090517
1790173705790030000,5.461030029296875,-0.07676614820957184,0.08270340412855148,0.008461661636829376
1790173705800101000,5.47110107421875,-0.05636846646666527,0.12346601486206055,-0.007077350746840239
1790173705810173000,5.4811728515625,0.002820287598297,0.13768063485622406,-0.07873688638210297
1790173705820245000,5.491244873046875,0.04002837464213371,0.11507146060466766,-0.038725290447473526
1790173705830316000,5.50131591796875,0.009151420556008816,0.10708091408014297,0.05542943626642227
1790173705840388000,5.51138818359375,-0.021401163190603256,0.09136080741882324,0.1478448510169983
1790173705850460200,5.521460205078125,-0.0231721643358469,0.10132768750190735,0.06782299280166626
1790173705860531200,5.53153125,0.00008868326403899118,0.1190401017665863,0.052500758320093155
1790173705870603000,5.54160302734375,0.002805640222504735,0.06523173302412033,0.011952533386647701
1790173705880675000,5.551675048828125,-0.07746043801307678,-0.018484201282262802,0.13039182126522064
1790173705890746000,5.56174609375,-0.2060495764017105,-0.027152525261044502,0.16771310567855835
1790173705900818200,5.571818115234375,-0.1975143998861313,-0.018323613330721855,0.08796527236700058
1790173705910889200,5.58188916015625,-0.09585408866405487,-0.032760076224803925,-0.002915362361818552
1790173705920961000,5.5919609375,-0.08752558380365372,-0.06053285300731659,-0.026643594726920128
1790173705931033000,5.602033203125,-0.21988655626773834,-0.055037420243024826,-0.020534835755825043
1790173705941104000,5.612104248046875,-0.2900986671447754,-0.0875713974237442,0.009843842126429081
1790173705951176200,5.62217626953125,-0.2762930989265442,-0.08828724920749664,-0.023426229134202003
1790173705961248300,5.632248291015625,-0.2195107787847519,-0.05422435700893402,-0.028869464993476868
1790173705971319000,5.642319091796875,-0.13665132224559784,-0.11277741193771362,-0.015560317784547806
1790173705981390800,5.652390869140625,-0.20025986433029175,-0.15029816329479218,0.13758821785449982
1790173705991462000,5.6624619140625,-0.3283696174621582,-0.1061626523733139,0.11536946892738342
1790173706001534000,5.672533935546875,-0.25274544954299927,-0.06274620443582535,0.0075812204740941525
1790173706011606000,5.68260595703125,-0.12781254947185516,-0.08649521321058273,0.05055984482169151
1790173706021677000,5.692677001953125,-0.12460291385650635,-0.0741589143872261,0.0036573191173374653
1790173706031749000,5.7027490234375,-0.13638128340244293,-0.06600937992334366,0.05182112008333206
1790173706041821000,5.712821044921875,-0.09357788413763046,-0.044849496334791183,0.043475836515426636
1790173706051892000,5.72289208984375,-0.06024576351046562,0.043963730335235596,-0.09974949806928635
1790173706061964000,5.732964111328125,-0.019243203103542328,0.08498040586709976,-0.17268681526184082
1790173706072035000,5.74303515625,-0.0681508257985115,0.058764778077602386,-0.1067861020565033
1790173706082107100,5.753107177734375,-0.07112611085176468,0.011217767372727394,-0.039922647178173065
1790173706092179000,5.763178955078125,-0.049563825130462646,-0.0024085629265755415,-0.015957660973072052
1790173706102250000,5.77325,-0.03955326974391937,0.06030275672674179,-0.11148951202630997
1790173706112322000,5.783322021484375,-0.059722986072301865,0.051840562373399734,-0.06912340968847275
1790173706122394000,5.79339404296875,-0.07992998510599136,0.009214004501700401,-0.06789383292198181
1790173706132465200,5.803465087890625,-0.08866781741380692,-0.0016338493442162871,-0.08239181339740753
1790173706142537200,5.813537109375,-0.15801866352558136,-0.006157760974019766,0.022724486887454987
1790173706152608300,5.823608154296875,-0.20762589573860168,-0.028836175799369812,0.017884457483887672
1790173706162680000,5.83368017578125,-0.07631900906562805,-0.055089350789785385,-0.027086744084954262
1790173706172752100,5.843752197265625,-0.022406505420804024,-0.06377285718917847,-0.045154962688684464
1790173706182823000,5.853822998046875,-0.14842543005943298,-0.07945913821458817,0.04296744242310524
1790173706192895200,5.863895263671875,-0.27184802293777466,-0.05652080103754997,-0.05188823118805885
1790173706202967000,5.873967041015625,-0.22113025188446045,-0.04988633468747139,-0.06066281348466873
1790173706213038000,5.8840380859375,-0.15981602668762207,-0.03949494659900665,-0.09729086607694626
1790173706223110000,5.89410986328125,-0.11008203029632568,-0.10069944709539413,-0.03136058524250984
1790173706233181000,5.904180908203125,-0.10976431518793106,-0.08276624977588654,-0.0743354856967926
1790173706243253000,5.9142529296875,-0.15636670589447021,-0.0828368291258812,-0.05431943014264107
1790173706253325000,5.924324951171875,-0.23547910153865814,-0.1123419851064682,-0.0023193468805402517
1790173706263396000,5.93439599609375,-0.2812923789024353,-0.1447950005531311,0.047559529542922974
1790173706273468200,5.94446826171875,-0.21715708076953888,-0.1404801458120346,0.03364105150103569
1790173706283540200,5.954540283203125,-0.18330563604831696,-0.13656103610992432,0.000603738590143621
1790173706293611300,5.964611328125,-0.20902565121650696,-0.17700327932834625,-0.02448323927819729
1790173706303683300,5.974683349609375,-0.2112957388162613,-0.233246311545372,0.04878484830260277
1790173706313754400,5.98475439453125,-0.24796639382839203,-0.20858517289161682,0.14093022048473358
1790173706323826400,5.994826416015625,-0.26765674352645874,-0.15380899608135223,0.05914294719696045
1790173706333898200,6.004898193359375,-0.20534436404705048,-0.15979045629501343,0.017165936529636383
1790173706343969300,6.01496923828125,-0.14273451268672943,-0.15917660295963287,-0.07301562279462814
1790173706354041300,6.025041259765625,-0.14681127667427063,-0.1525687724351883,-0.06320426613092422
1790173706364113400,6.035113525390625,-0.10736507177352905,-0.11384481191635132,-0.006313023157417774
1790173706374184400,6.045184326171875,-0.062493205070495605,-0.11223705857992172,0.03922063857316971
1790173706384256300,6.05525634765625,-0.014720356091856956,-0.13621562719345093,0.042866773903369904
1790173706394328300,6.065328369140625,-0.04507959261536598,-0.09442450851202011,0.036457609385252
1790173706404399000,6.075399169921875,-0.060208480805158615,-0.041437722742557526,0.027406856417655945
1790173706414471200,6.08547119140625,0.000580036488827318,-0.025021729990839958,-0.025502962991595268
1790173706424542200,6.095542236328125,0.037874944508075714,-0.008508266881108284,-0.039801474660634995
1790173706434614300,6.1056142578125,0.036244023591279984,-0.04601303115487099,0.06210917606949806
1790173706444686000,6.11568603515625,0.05235055461525917,-0.08518599718809128,0.14917883276939392
1790173706454757000,6.125757080078125,0.11008389294147491,0.0302569717168808,-0.0059899818152189255
1790173706464829200,6.1358291015625,0.15509425103664398,0.08375481516122818,-0.019664514809846878
1790173706474901200,6.1459013671875,0.08756206929683685,0.03797721117734909,0.01794011890888214
1790173706484972300,6.15597216796875,0.09385565668344498,0.008529838174581528,-0.027949342504143715
1790173706495044400,6.16604443359375,0.18878190219402313,0.06427672505378723,-0.06647223234176636
1790173706505115400,6.176115478515625,0.118202805519104,0.06914950907230377,0.0642668679356575
1790173706515187200,6.186187255859375,0.04302123561501503,0.06161889061331749,0.01822933740913868
1790173706525259300,6.19625927734375,0.05656341090798378,0.07797176390886307,-0.05865638703107834
1790173706535330300,6.206330322265625,0.121854268014431,0.006214220076799393,0.08629734069108963
1790173706545402400,6.21640234375,0.02748781628906727,-0.009613478556275368,0.038966309279203415
1790173706555474200,6.22647412109375,-0.021137775853276253,-0.022765234112739563,0.07090559601783752
1790173706565545200,6.236545166015625,-0.052377454936504364,-0.020731110125780106,0.08302085101604462
1790173706575617300,6.2466171875,-0.06939771771430969,-0.026675552129745483,0.04080362245440483
1790173706585688300,6.256688232421875,-0.034806448966264725,-0.015125690028071404,-0.0761008933186531
1790173706595760400,6.266760498046875,0.032639700919389725,-0.031928639858961105,-0.08202802389860153
1790173706605832400,6.27683251953125,-0.022598786279559135,-0.10196924209594727,0.031241541728377342
1790173706615903500,6.286903564453125,-0.14996419847011566,-0.09224843978881836,-0.03906750679016113
1790173706625975300,6.296975341796875,-0.17866748571395874,-0.059836167842149734,-0.02713548019528389
1790173706636047400,6.30704736328125,-0.13110102713108063,-0.04879763349890709,-0.026674222201108932
1790173706646118100,6.3171181640625,-0.12564314901828766,-0.15411339700222015,0.06912048161029816
1790173706656190200,6.327190185546875,-0.20659871399402618,-0.16594742238521576,0.017412811517715454
1790173706666261200,6.33726123046875,-0.1837621033191681,-0.14985740184783936,-0.0023731428664177656
1790173706676333300,6.347333251953125,-0.19815462827682495,-0.13437405228614807,0.0006860303110443056
1790173706686405000,6.357405029296875,-0.18216048181056976,-0.20996415615081787,0.06970158219337463
1790173706696476200,6.36747607421875,-0.22558146715164185,-0.1977546215057373,0.006551642436534166
1790173706706548200,6.37754833984375,-0.17965099215507507,-0.20641522109508514,0.023483222350478172
1790173706716620300,6.387620361328125,-0.19416867196559906,-0.18358473479747772,0.006461361423134804
1790173706726691300,6.39769140625,-0.16773439943790436,-0.22959004342556,0.047510262578725815
1790173706736763100,6.40776318359375,-0.1386854499578476,-0.21097375452518463,-0.08191990107297897
1790173706746834200,6.417834228515625,-0.1348574161529541,-0.15355893969535828,-0.05728619173169136
1790173706756906200,6.42790625,-0.14434252679347992,-0.15172961354255676,-0.01672278717160225
1790173706766978300,6.437978271484375,-0.12283031642436981,-0.1488691121339798,-0.10389737039804459
1790173706777049300,6.44804931640625,-0.04674886167049408,-0.15061055123806,-0.042329881340265274
1790173706787121400,6.458121337890625,-0.10440443456172943,-0.16092737019062042,0.024672856554389
1790173706797193200,6.468193115234375,-0.1379496157169342,-0.19908300042152405,0.037274666130542755
1790173706807264300,6.47826416015625,-0.11084236204624176,-0.16993097960948944,-0.08416201174259186
1790173706817336300,6.48833642578125,-0.11004048585891724,-0.14006203413009644,-0.029869215562939644
1790173706827407400,6.498407470703125,-0.13400840759277344,-0.20150621235370636,0.09336323291063309
1790173706837479400,6.5084794921875,-0.12239328771829605,-0.18417011201381683,-0.0038924762047827244
1790173706847551200,6.51855126953125,-0.08071269094944,-0.17193767428398132,-0.05339371785521507
1790173706857622300,6.528622314453125,-0.043293412774801254,-0.22224745154380798,0.010478473268449306
1790173706867694300,6.5386943359375,-0.05620095506310463,-0.23396934568881989,-0.005346562247723341
1790173706877766400,6.548766357421875,-0.11603046208620071,-0.2242557406425476,0.0365939624607563
1790173706887837200,6.558837158203125,-0.1687629222869873,-0.23111604154109955,0.155989870429039
1790173706897909200,6.5689091796875,-0.11623206734657288,-0.2478926181793213,0.0837865099310875
1790173706907980300,6.578980224609375,-0.062251389026641846,-0.24612721800804138,0.015026619657874107
1790173706918052000,6.589052001953125,-0.05916345492005348,-0.2700834274291992,-0.01900777965784073
1790173706928124200,6.599124267578125,-0.04643834009766579,-0.2635786533355713,-0.04077539220452309
1790173706938195200,6.6091953125,0.02821486070752144,-0.19644834101200104,-0.0980575904250145
1790173706948267300,6.619267333984375,0.06304527819156647,-0.15849456191062927,-0.06977908313274384
1790173706958339300,6.62933935546875,0.006993460934609175,-0.15890096127986908,-0.0033015208318829536
1790173706968410400,6.639410400390625,0.0054911719635128975,-0.17028012871742249,0.024773523211479187
1790173706978482200,6.649482177734375,0.03707413002848625,-0.14861717820167542,0.10084033012390137
1790173706988553200,6.65955322265625,0.0398976132273674,-0.11942386627197266,0.04591129720211029
1790173706998625300,6.669625244140625,0.038035798817873,-0.14644482731819153,0.015686817467212677
1790173707008697300,6.679697265625,0.1063069999217987,-0.1301172524690628,-0.015622635371983051
1790173707018768400,6.689768310546875,0.18990682065486908,-0.13303421437740326,0.09535394608974457
1790173707028840200,6.699840087890625,0.19360782206058502,-0.13769102096557617,0.10386141389608383
1790173707038912300,6.709912353515625,0.16485366225242615,-0.07244890183210373,0.05568110570311546
1790173707048983300,6.7199833984375,0.22358089685440063,-0.02599724568426609,0.03068041428923607
1790173707059055400,6.730055419921875,0.29002729058265686,0.010642790235579014,-0.01480397954583168
1790173707069126400,6.74012646484375,0.3227117359638214,0.0498887300491333,-0.024349547922611237
1790173707079198500,6.750198486328125,0.34010377526283264,0.073166623711586,0.005065864883363247
1790173707089270300,6.760270263671875,0.3596263527870178,0.12930738925933838,0.057249706238508224
1790173707099341000,6.770341064453125,0.4085472822189331,0.0962197408080101,0.044925663620233536
1790173707109413400,6.780413330078125,0.3939038813114166,0.06855722516775131,0.1126415953040123
1790173707119485400,6.7904853515625,0.37515097856521606,0.10704442858695984,0.11559051275253296
1790173707129556200,6.80055615234375,0.3933190703392029,0.12986505031585693,0.06616464257240295
1790173707139628300,6.810628173828125,0.3562563955783844,0.13657967746257782,0.048948898911476135
1790173707149699300,6.82069921875,0.385208398103714,0.15871481597423553,-0.041303765028715134
1790173707159771100,6.830771240234375,0.41861268877983093,0.16759352385997772,0.007296528667211533
1790173707169843200,6.84084326171875,0.4169178605079651,0.1515144258737564,0.018220283091068268
1790173707179914200,6.850914306640625,0.421112596988678,0.1596437245607376,0.027714984491467476
1790173707189986300,6.860986328125,0.3876103162765503,0.22034569084644318,0.012072108685970306
1790173707200057300,6.871057373046875,0.3935994803905487,0.19500383734703064,-0.02400599978864193
1790173707210129200,6.881129150390625,0.34966185688972473,0.14761795103549957,0.0318191833794117
1790173707220201200,6.891201171875,0.32472535967826843,0.13582254946231842,-0.044920336455106735
1790173707230272300,6.901272216796875,0.35080090165138245,0.13766145706176758,-0.04844849184155464
1790173707240344300,6.91134423828125,0.3452939987182617,0.1922599822282791,-0.04495948553085327
1790173707250416400,6.92141650390625,0.33520275354385376,0.17972661554813385,-0.012049471959471703
1790173707260487400,6.9314873046875,0.36591753363609314,0.1784198135137558,-0.11003781855106354
1790173707270559200,6.941559326171875,0.3965145945549011,0.23001429438591003,-0.09543384611606598
1790173707280630300,6.95163037109375,0.36061251163482666,0.2649323344230652,-0.09798648208379745
1790173707290702300,6.961702392578125,0.37061187624931335,0.26898857951164246,-0.11835593730211258
1790173707300774400,6.9717744140625,0.4182039201259613,0.3224009573459625,-0.05285069718956947
1790173707310845400,6.981845458984375,0.3880790174007416,0.35009142756462097,-0.00558278476819396
1790173707320917200,6.991917236328125,0.3261754512786865,0.39141595363616943,-0.06643947958946228
1790173707330989300,7.0019892578125,0.3431035578250885,0.4010654091835022,-0.08587203174829483
1790173707341060400,7.012060302734375,0.3803931474685669,0.3853977620601654,-0.0029710223898291588
1790173707351132400,7.02213232421875,0.27151885628700256,0.41074520349502563,0.0331057570874691
1790173707361203200,7.032203125,0.2429516613483429,0.3710513114929199,0.03588050231337547
1790173707371275500,7.042275634765625,0.26833105087280273,0.38151833415031433,0.05156465619802475
1790173707381347300,7.052347412109375,0.25529515743255615,0.36187803745269775,0.09815612435340881
1790173707391418000,7.062418212890625,0.16935627162456512,0.3324066996574402,0.10415223240852356
1790173707401490200,7.072490234375,0.08766966313123703,0.3162136375904083,0.05649922788143158
1790173707411562200,7.082562255859375,0.029321670532226562,0.28631749749183655,0.026151442900300026
1790173707421633300,7.09263330078125,-0.017317738384008408,0.24620231986045837,-0.014536065980792046
1790173707431705300,7.102705322265625,-0.05204189568758011,0.18413494527339935,0.06538193672895432
1790173707441776400,7.1127763671875,-0.14653617143630981,0.16031137108802795,0.09475420415401459
1790173707451848200,7.12284814453125,-0.22169378399848938,0.14973489940166473,0.11067777872085571
1790173707461920300,7.132920166015625,-0.23088914155960083,0.11446505784988403,0.06042659282684326
1790173707471991300,7.1429912109375,-0.24967800080776215,0.055084291845560074,0.028422586619853973
1790173707482063400,7.1530634765625,-0.32326459884643555,0.002566488226875663,-0.021640846505761147
1790173707492135200,7.16313525390625,-0.43173596262931824,-0.033784862607717514,0.019363312050700188
1790173707502206200,7.173206298828125,-0.4816473126411438,-0.06863019615411758,0.00221947836689651
1790173707512278300,7.1832783203125,-0.483863890171051,-0.042994070798158646,-0.03719157725572586
1790173707522349300,7.193349365234375,-0.4705861508846283,-0.09019673615694046,-0.06782805174589157
1790173707532421400,7.20342138671875,-0.48141270875930786,-0.15992175042629242,-0.05694131180644035
1790173707542493400,7.213493408203125,-0.574581503868103,-0.2010446935892105,0.005586779210716486
1790173707552564500,7.223564453125,-0.6509157419204712,-0.2385246902704239,0.06185750663280487
1790173707562636300,7.23363623046875,-0.6843400001525879,-0.26479223370552063,0.09334326535463333
1790173707572708400,7.243708251953125,-0.6297566294670105,-0.33552154898643494,0.05201340094208717
1790173707582779400,7.253779296875,-0.6046065092086792,-0.3635321259498596,0.06208627298474312
1790173707592851500,7.2638515625,-0.6163891553878784,-0.4019189476966858,0.07840346544981003
1790173707602922200,7.273922119140625,-0.6144216060638428,-0.4081973433494568,0.04384468495845795
1790173707612994300,7.283994384765625,-0.5826138854026794,-0.45050936937332153,0.08953813463449478
1790173707623066400,7.29406640625,-0.5825542211532593,-0.4442022144794464,0.1179085299372673
1790173707633137200,7.30413720703125,-0.6050020456314087,-0.40977126359939575,0.03660514950752258
1790173707643209200,7.314209228515625,-0.5981350541114807,-0.42144230008125305,0.031749408692121506
1790173707653280300,7.3242802734375,-0.571509838104248,-0.42582932114601135,0.05790138244628906
1790173707663352300,7.334352294921875,-0.5140441656112671,-0.3729565441608429,0.0022743395529687405
1790173707673424100,7.344424072265625,-0.4066830575466156,-0.3242180347442627,0.0067905280739068985
1790173707683495200,7.3544951171875,-0.39675959944725037,-0.31408974528312683,-0.015044995583593845
1790173707693567200,7.364567138671875,-0.39907121658325195,-0.3399450480937958,0.028491828590631485
1790173707703639300,7.374639404296875,-0.3835436701774597,-0.2904001474380493,0.0480937585234642
1790173707713710300,7.38471044921875,-0.2714157998561859,-0.2146603763103485,-0.04062572494149208
1790173707723782400,7.394782470703125,-0.15499570965766907,-0.1930171251296997,-0.0751863643527031
1790173707733853400,7.404853515625,-0.1544971615076065,-0.20756037533283234,-0.02713920921087265
1790173707743925200,7.41492529296875,-0.1878974586725235,-0.20074722170829773,-0.031613051891326904
1790173707753997300,7.424997314453125,-0.17888586223125458,-0.19250845909118652,-0.0140183474868536
1790173707764068400,7.435068359375,-0.13063843548297882,-0.1699642688035965,-0.04195250943303108
1790173707774140400,7.445140380859375,-0.12354058027267456,-0.15807165205478668,-0.0059841228649020195
1790173707784212200,7.455212158203125,-0.11278486996889114,-0.17038078606128693,-0.04724128171801567
1790173707794283300,7.465283203125,-0.10333304852247238,-0.20107345283031464,-0.06374329328536987
1790173707804355300,7.475355224609375,-0.08406294882297516,-0.20492012798786163,0.006619819439947605
1790173707814426400,7.48542626953125,-0.08156809955835342,-0.1612544059753418,0.04579545184969902
1790173707824498400,7.49549853515625,-0.026667296886444092,-0.11978339403867722,-0.019032547250390053
1790173707834570500,7.505570556640625,0.00029401297797448933,-0.12004651129245758,0.021157482638955116
1790173707844641300,7.515641357421875,0.014327007345855236,-0.1257970780134201,0.0072805495001375675
1790173707854713000,7.525713134765625,0.005671467632055283,-0.09211048483848572,0.05927610769867897
1790173707864785200,7.53578515625,0.00954130757600069,-0.06727437674999237,0.03051343373954296
1790173707874856200,7.545856201171875,0.02454662136733532,-0.046604786068201065,0.022821959108114243
1790173707884928300,7.55592822265625,0.07301907986402512,-0.02599911019206047,-0.020146813243627548
1790173707894999300,7.565999267578125,0.10962209850549698,0.01734117418527603,-0.030643396079540253
1790173707905071400,7.5760712890625,0.1252298206090927,0.03711088374257088,-0.012106464244425297
1790173707915143200,7.58614306640625,0.08113480359315872,0.028855882585048676,0.041860099881887436
1790173707925214200,7.596214111328125,0.08370555192232132,-0.0037529265973716974,-0.03213423490524292
1790173707935286300,7.606286376953125,0.12258557230234146,0.03147296980023384,-0.1515013724565506
1790173707945357300,7.616357421875,0.14302346110343933,0.028294755145907402,-0.09471426159143448
1790173707955429400,7.626429443359375,0.09590601921081543,0.009521333500742912,-0.004601942375302315
1790173707965501200,7.636501220703125,0.10302145779132843,-0.0006024070316925645,0.02510109171271324
1790173707975572200,7.646572265625,0.09827596694231033,0.0073226275853812695,0.0933573767542839
1790173707985644300,7.656644287109375,0.12590625882148743,-0.045587725937366486,0.05543476343154907
1790173707995716400,7.66671630859375,0.1311953067779541,-0.008140751160681248,-0.05721801519393921
1790173708005787400,7.676787353515625,0.11283813416957855,-0.05018167942762375,0.056228917092084885
1790173708015859500,7.686859375,0.04645618051290512,-0.0851665586233139,0.13162806630134583
1790173708025930500,7.696930419921875,0.031002124771475792,-0.022351112216711044,0.05420465022325516
1790173708036002300,7.707002197265625,0.07908257097005844,0.015415174886584282,0.07871291786432266
1790173708046074400,7.717074462890625,0.1088029146194458,-0.013166136108338833,-0.019238408654928207
1790173708056145200,7.727145263671875,0.09699765592813492,-0.05047941952943802,-0.04163319617509842
1790173708066217500,7.737217529296875,0.04878644645214081,-0.07497251033782959,0.010629208758473396
1790173708076289500,7.74728955078125,-0.029675336554646492,-0.03466743230819702,0.05446910113096237
1790173708086360300,7.7573603515625,-0.017544105648994446,-0.03238696977496147,0.06274273991584778
1790173708096432000,7.76743212890625,0.028774389997124672,-0.05826437100768089,0.05549468472599983
1790173708106503200,7.777503173828125,0.0021827267482876778,-0.08721932768821716,0.011331483721733093
1790173708116575200,7.7875751953125,-0.13013403117656708,-0.11185222864151001,0.04232295602560043
1790173708126647300,7.797647216796875,-0.14554893970489502,-0.13940928876399994,0.05446430668234825
1790173708136718300,7.80771826171875,-0.08144958317279816,-0.1073610782623291,0.08704622089862823
1790173708146790100,7.8177900390625,-0.04408969730138779,-0.105734683573246,0.04670865088701248
1790173708156862200,7.8278623046875,-0.05301954224705696,-0.1298951506614685,-0.023252325132489204
1790173708166933200,7.837933349609375,-0.10436209291219711,-0.11141334474086761,0.04887433350086212
1790173708177005300,7.84800537109375,-0.10492055863142014,-0.115859754383564,0.08194094151258469
1790173708187076400,7.858076416015625,-0.1329926699399948,-0.07877790182828903,-0.031368840485811234
1790173708197148400,7.8681484375,-0.0960967019200325,-0.07832063734531403,0.01326813455671072
1790173708207220200,7.87822021484375,-0.0703071877360344,0.0012663330417126417,-0.024928253144025803
1790173708217291300,7.888291259765625,-0.039318911731243134,0.02503291517496109,-0.07512164860963821
1790173708227363300,7.89836328125,0.004285026341676712,-0.025192171335220337,0.020891699939966202
1790173708237434400,7.908434326171875,-0.0664096474647522,-0.026039589196443558,0.011504855938255787
1790173708247506400,7.91850634765625,-0.06656677275896072,-0.02105308696627617,0.034761976450681686
1790173708257578500,7.92857861328125,-0.08614127337932587,0.003947869874536991,0.08451621234416962
1790173708267649500,7.9386494140625,-0.06485623121261597,-0.010363425128161907,0.06545304507017136
1790173708277721300,7.948721435546875,-0.009915481321513653,0.025708027184009552,0.004837365821003914
1790173708287793400,7.95879345703125,0.051655203104019165,0.03659449517726898,-0.03609675168991089
1790173708297864200,7.9688642578125,0.08127461373806,0.00529463030397892,0.05070791766047478
1790173708307936300,7.978936279296875,0.06417419016361237,-0.008768990635871887,0.10801195353269577
1790173708318007300,7.98900732421875,0.02268507145345211,0.0024383901618421078,0.09812949597835541
1790173708328079000,7.9990791015625,0.06346578896045685,0.03885125741362572,0.04030108451843262
1790173708338151200,8.009151123046875,0.07616853713989258,0.0990070104598999,-0.021863220259547234
1790173708348222200,8.01922216796875,0.09004627168178558,0.032283104956150055,0.032279375940561295
1790173708358294300,8.029294189453125,0.08023278415203094,0.003035471076145768,0.07255329936742783
1790173708368365300,8.039365234375,0.014630608260631561,0.06093685328960419,0.13807184994220734
1790173708378437400,8.049437255859376,-0.0010524812387302518,0.033479928970336914,0.1754317432641983
1790173708388509200,8.05950927734375,0.06745760142803192,0.0875660702586174,-0.03641766309738159
1790173708398580200,8.069580322265624,0.13000087440013885,0.14477156102657318,-0.13551947474479675
1790173708408652300,8.07965234375,0.09156720340251923,0.14209748804569244,-0.08813358843326569
1790173708418724400,8.089724365234375,0.052314870059490204,0.1192462295293808,0.0073231603018939495
1790173708428795400,8.09979541015625,0.021168135106563568,0.15553340315818787,0.07368966937065125
1790173708438867500,8.109867431640625,0.03993356600403786,0.13793976604938507,0.059418320655822754
1790173708448938500,8.1199384765625,0.058457449078559875,0.11359900236129761,0.05242086201906204
1790173708459010300,8.13001025390625,0.04782291501760483,0.10784044861793518,0.012024705298244953
1790173708469082400,8.140082275390625,-0.00600436283275485,0.13600043952465057,-0.06808717548847198
1790173708479153400,8.1501533203125,-0.09403808414936066,0.10366460680961609,0.04237701743841171
1790173708489225500,8.1602255859375,-0.1268162727355957,0.0332983024418354,0.0945747122168541
1790173708499297300,8.17029736328125,-0.05829739570617676,0.0640394389629364,0.04433470591902733
1790173708509368300,8.180368408203124,-0.0016615461790934205,0.09715478122234344,0.006749249063432217
1790173708519440400,8.1904404296875,-0.09363594651222229,0.04327210783958435,0.042512305080890656
1790173708529511200,8.20051123046875,-0.1588599532842636,0.020436566323041916,-0.042159438133239746
1790173708539583200,8.210583251953125,-0.19540145993232727,0.08624514192342758,-0.03587491065263748
1790173708549655300,8.2206552734375,-0.27578631043434143,0.05847369506955147,0.014042848721146584
1790173708559726300,8.230726318359375,-0.28531190752983093,-0.04839123412966728,0.005661614239215851
1790173708569798100,8.240798095703125,-0.2544597089290619,0.003743072971701622,-0.03317180275917053
1790173708579869200,8.250869140625,-0.28439444303512573,0.039444610476493835,-0.0007861651247367263
1790173708589941200,8.260941162109376,-0.3880135118961334,-0.01206838060170412,-0.013616742566227913
1790173708600013300,8.271013427734376,-0.4015602171421051,-0.07124967873096466,0.025314677506685257
1790173708610084400,8.28108447265625,-0.4184369444847107,-0.06310999393463135,0.07050532847642899
1790173708620156400,8.291156494140624,-0.4522063434123993,-0.08403817564249039,0.04621143639087677
1790173708630228200,8.301228271484375,-0.4627431333065033,-0.11193931847810745,0.001936917076818645
1790173708640299300,8.31129931640625,-0.47843581438064575,-0.11002929508686066,0.04566149413585663
1790173708650371300,8.321371337890625,-0.5553923845291138,-0.14069533348083496,0.01882748305797577
1790173708660442400,8.3314423828125,-0.6305177807807922,-0.28648900985717773,0.03686320781707764
1790173708670514400,8.341514404296875,-0.6864039301872253,-0.3148921728134155,0.05224349722266197
1790173708680586200,8.351586181640625,-0.6800206303596497,-0.24701431393623352,0.05411649867892265
1790173708690657300,8.3616572265625,-0.734248161315918,-0.278432160615921,0.09050646424293518
1790173708700729300,8.371729248046876,-0.7302326560020447,-0.4068987965583801,0.06501442193984985
1790173708710801400,8.381801513671874,-0.6695048213005066,-0.37460315227508545,-0.01703251339495182
1790173708720872400,8.39187255859375,-0.6973351240158081,-0.3901160657405853,0.0060059609822928905
1790173708730944500,8.401944580078125,-0.7638720870018005,-0.4841517508029938,0.06746825575828552
1790173708741015300,8.412015380859375,-0.7675943970680237,-0.44000667333602905,-0.017487114295363426
1790173708751087400,8.42208740234375,-0.6813183426856995,-0.4069456458091736,-0.04897047206759453
1790173708761159400,8.432159423828125,-0.6284213066101074,-0.40555283427238464,-0.017464211210608482
1790173708771230200,8.442230224609375,-0.6659098267555237,-0.403698205947876,0.033308688551187515
1790173708781302300,8.45230224609375,-0.747322678565979,-0.4155109226703644,0.0327981598675251
1790173708791373300,8.462373291015625,-0.7444182634353638,-0.4517890214920044,0.034929223358631134
1790173708801445000,8.472445068359375,-0.7288062572479248,-0.47640517354011536,0.07644550502300262
1790173708811517200,8.48251708984375,-0.6960461735725403,-0.533399224281311,0.15793077647686005
1790173708821588200,8.492588134765626,-0.5589040517807007,-0.4901002049446106,0.1402231603860855
1790173708831660300,8.502660400390624,-0.5677933692932129,-0.4545280933380127,0.18314053118228912
1790173708841732400,8.512732421875,-0.6725091338157654,-0.4731992483139038,0.20546047389507294
1790173708851803400,8.522803466796875,-0.6052411794662476,-0.49119022488594055,0.09758833795785904
1790173708861875200,8.532875244140625,-0.5043904781341553,-0.4553062617778778,0.05594022944569588
1790173708871946200,8.5429462890625,-0.4715390205383301,-0.474488228559494,0.095740906894207
1790173708882018300,8.553018310546875,-0.4813186824321747,-0.4119124412536621,0.0778905376791954
1790173708892090400,8.56309033203125,-0.49106159806251526,-0.3645992577075958,0.15856647491455078
1790173708902161400,8.573161376953125,-0.488278329372406,-0.42708075046539307,0.1616261750459671
1790173708912233500,8.5832333984375,-0.4542974531650543,-0.4968084394931793,0.14193503558635712
1790173708922304500,8.593304443359376,-0.4385043978691101,-0.4614349901676178,0.10062035173177719
1790173708932376300,8.603376220703124,-0.3873293399810791,-0.4251883029937744,0.10736427456140518
1790173708942448400,8.613448486328124,-0.37347477674484253,-0.3335220515727997,0.03285381942987442
1790173708952519400,8.62351953125,-0.3703540861606598,-0.3340187072753906,0.07936406135559082
1790173708962591500,8.633591552734375,-0.3645577132701874,-0.3953414559364319,0.16174176335334778
1790173708972663300,8.643663330078125,-0.3115035593509674,-0.4334704875946045,0.15665937960147858
1790173708982734000,8.653734130859375,-0.3028053939342499,-0.41156649589538574,0.11324959248304367
1790173708992806100,8.66380615234375,-0.3343276381492615,-0.3630061745643616,0.09335871040821075
1790173709002877200,8.673877197265625,-0.34438666701316833,-0.301748126745224,0.05452928692102432
1790173709012949200,8.68394921875,-0.30371540784835815,-0.3185260593891144,0.09970315545797348
1790173709023021300,8.694021240234376,-0.20757342875003815,-0.37322524189949036,0.09928157925605774
1790173709033092400,8.70409228515625,-0.20856918394565582,-0.3818807899951935,0.11022530496120453
1790173709043164200,8.7141640625,-0.29308459162712097,-0.4021623432636261,0.09903470426797867
1790173709053235200,8.724235107421874,-0.3680001199245453,-0.42299386858940125,0.14174382388591766
1790173709063307300,8.734307373046875,-0.3793103098869324,-0.4307785630226135,0.07669317722320557
1790173709073379300,8.74437939453125,-0.34309396147727966,-0.4300898611545563,0.04453790560364723
1790173709083450400,8.754450439453125,-0.33810535073280334,-0.46538659930229187,0.11768987774848938
1790173709093522400,8.7645224609375,-0.38481637835502625,-0.5001280903816223,0.1609252393245697
1790173709103594200,8.77459423828125,-0.3793582320213318,-0.4941466152667999,0.09147239476442337
1790173709113665300,8.784665283203125,-0.30685076117515564,-0.45428466796875,0.05361742153763771
1790173709123737300,8.7947373046875,-0.2095111459493637,-0.4057736098766327,-0.0073561836034059525
1790173709133808400,8.804808349609376,-0.1942935734987259,-0.3566018044948578,0.11887738853693008
1790173709143880400,8.81488037109375,-0.148837149143219,-0.35239800810813904,0.119117870926857
1790173709153952300,8.8249521484375,-0.10308776795864105,-0.2988530099391937,0.08913839608430862
1790173709164023300,8.835023193359374,-0.033843718469142914,-0.23328731954097748,0.10566544532775879
1790173709174095400,8.845095458984375,0.022823557257652283,-0.20282500982284546,0.10788172483444214
1790173709184166100,8.855166259765625,0.030468160286545753,-0.14749598503112793,0.029260683804750443
1790173709194238500,8.865238525390625,0.05959701910614967,-0.09992499649524689,0.042342931032180786
1790173709204310500,8.875310546875,0.10086003690958023,-0.06107107549905777,0.024387631565332413
1790173709214381300,8.88538134765625,0.12881390750408173,-0.021326327696442604,-0.10076788812875748
1790173709224453000,8.895453125,0.12104599922895432,-0.007284810766577721,-0.03795457258820534
1790173709234525200,8.905525146484376,0.15085315704345703,-0.023420104756951332,0.06970131397247314
1790173709244596200,8.91559619140625,0.06288069486618042,0.007209975738078356,0.053456034511327744
1790173709254668300,8.925668212890624,0.022349247708916664,-0.020778514444828033,0.041433993726968765
1790173709264739300,8.9357392578125,-0.03184821084141731,-0.0787360891699791,0.02744067832827568
1790173709274811400,8.945811279296874,-0.06435022503137589,-0.1291654407978058,-0.0971481204032898
1790173709284883200,8.95588330078125,-0.0935206264257431,-0.1854148656129837,0.04493604972958565
1790173709294954000,8.9659541015625,-0.17113658785820007,-0.2183283418416977,0.09978251904249191
1790173709305026000,8.976026123046875,-0.22443203628063202,-0.27033960819244385,0.09313873201608658
1790173709315097000,8.98609716796875,-0.289493590593338,-0.34708231687545776,0.04704846814274788
1790173709325169200,8.996169189453125,-0.3593325912952423,-0.4138381779193878,0.0013190637109801173
1790173709335241000,9.006240966796875,-0.4190284311771393,-0.4472488760948181,0.02209251932799816
1790173709345312000,9.01631201171875,-0.5197073817253113,-0.4899156391620636,0.07247207313776016
1790173709355384000,9.026384033203126,-0.5896188020706177,-0.56666499376297,0.11410366743803024
1790173709365456100,9.0364560546875,-0.6592727303504944,-0.6251328587532043,0.03248018026351929
1790173709375527200,9.046527099609374,-0.6880279183387756,-0.6773086786270142,0.0783693715929985
1790173709385599200,9.05659912109375,-0.7243156433105469,-0.6708419919013977,0.1347128003835678
1790173709395670300,9.066670166015625,-0.7553563714027405,-0.6906610131263733,0.13034921884536743
1790173709405742000,9.0767421875,-0.7426232695579529,-0.752261221408844,0.11070521175861359
1790173709415814100,9.086814208984375,-0.7232384085655212,-0.7434174418449402,0.05572797730565071
1790173709425885200,9.09688525390625,-0.7067640423774719,-0.72190922498703,0.08080296963453293
1790173709435957200,9.106957275390625,-0.7495908737182617,-0.6968563199043274,0.06966722756624222
1790173709446028300,9.1170283203125,-0.7578117847442627,-0.6879687905311584,0.12307426333427429
1790173709456100400,9.127100341796876,-0.7423486709594727,-0.713767409324646,0.0731719508767128
1790173709466172200,9.137172119140626,-0.7213693857192993,-0.7330595850944519,0.1316341906785965
1790173709476243200,9.1472431640625,-0.6523522138595581,-0.690760612487793,0.07890599966049194
1790173709486315300,9.157315185546874,-0.6014323234558105,-0.6417107582092285,0.09991301596164703
1790173709496387300,9.16738720703125,-0.5486740469932556,-0.6611369252204895,0.12320742011070251
1790173709506458000,9.1774580078125,-0.4983951449394226,-0.6733791828155518,0.058945607393980026
1790173709516530000,9.187530029296875,-0.46384143829345703,-0.6233205795288086,0.1030438244342804
1790173709526601000,9.19760107421875,-0.40205156803131104,-0.5934289693832397,0.07802902162075043
1790173709536673000,9.207673095703125,-0.3548971116542816,-0.5770148634910583,0.14222079515457153
1790173709546745000,9.2177451171875,-0.22909656167030334,-0.5992192029953003,0.1725025326013565
1790173709556816100,9.227816162109375,-0.13461028039455414,-0.5813667178153992,0.1607811599969864
1790173709566888200,9.23788818359375,-0.08504405617713928,-0.5087916254997253,0.16188611090183258
1790173709576959200,9.247959228515626,-0.08422699570655823,-0.441912442445755,0.18136392533779144
1790173709587031000,9.258031005859374,0.03916098549962044,-0.4239416718482971,0.18288592994213104
1790173709597103000,9.26810302734375,0.1332443356513977,-0.3623105585575104,0.20080234110355377
1790173709607174100,9.278174072265625,0.21851849555969238,-0.3563173711299896,0.20932073891162872
1790173709617246200,9.28824609375,0.29565003514289856,-0.3120409846305847,0.1301225870847702
1790173709627318000,9.298318115234375,0.34002360701560974,-0.1912602335214615,0.08625153452157974
1790173709637389000,9.30838916015625,0.3583541512489319,-0.1097097173333168,0.14337553083896637
1790173709647461000,9.318461181640625,0.38427630066871643,-0.07993531227111816,0.15736645460128784
1790173709657532200,9.3285322265625,0.43146803975105286,-0.03334570676088333,0.09282900393009186
1790173709667604200,9.338604248046876,0.4701760411262512,0.008381234481930733,0.07255729287862778
1790173709677676300,9.34867626953125,0.4865496754646301,0.030519559979438782,0.16649070382118225
1790173709687747300,9.358747314453124,0.41591599583625793,0.09592786431312561,0.2031203657388687
1790173709697819100,9.368819091796874,0.4044220447540283,0.10661991685628891,0.10830383747816086
1790173709707890000,9.378889892578124,0.4190846085548401,0.05949368700385094,0.0801188051700592
1790173709717962000,9.3889619140625,0.4217863976955414,0.052315667271614075,0.048595231026411057
1790173709728034300,9.399034423828125,0.3536355793476105,0.050822965800762177,0.05645155906677246
1790173709738105000,9.40910498046875,0.24508485198020935,0.06260612607002258,-0.006176669616252184
1790173709748177200,9.41917724609375,0.12476350367069244,0.03975646570324898,0.023563649505376816
1790173709758249000,9.4292490234375,0.13039208948612213,-0.03586052730679512,-0.010417221114039421
1790173709768320000,9.439320068359375,0.09626714885234833,-0.07295543700456619,0.029339512810111046
1790173709778392000,9.44939208984375,0.0032618397381156683,-0.0814083069562912,0.13428324460983276
1790173709788463000,9.459463134765626,-0.11430659890174866,-0.10525531321763992,0.090035080909729
1790173709798535200,9.46953515625,-0.12697525322437286,-0.16023653745651245,-0.010054764337837696
1790173709808607000,9.47960693359375,-0.15577681362628937,-0.1762986034154892,0.013683055527508259
1790173709818678000,9.489677978515624,-0.1799900084733963,-0.1989288181066513,0.09333261102437973
1790173709828750000,9.49975,-0.3157142698764801,-0.23324869573116302,0.013227388262748718
1790173709838821000,9.509821044921875,-0.3949023187160492,-0.2834191918373108,-0.017598967999219894
1790173709848893200,9.51989306640625,-0.3585658669471741,-0.26885515451431274,0.02852112427353859
1790173709858965200,9.52996533203125,-0.3633688986301422,-0.2787943482398987,0.051234159618616104
1790173709869036300,9.540036376953125,-0.46793419122695923,-0.2913181185722351,-0.0282867643982172
1790173709879108000,9.550108154296876,-0.590266764163971,-0.29136741161346436,0.017716679722070694
1790173709889180200,9.56018017578125,-0.6322624087333679,-0.28704482316970825,0.05600414797663689
1790173709899251200,9.570251220703126,-0.5794111490249634,-0.27965134382247925,0.1044856607913971
1790173709909323300,9.5803232421875,-0.5527129769325256,-0.3087623715400696,0.047799479216337204
1790173709919394300,9.590394287109374,-0.539982259273529,-0.3420420289039612,0.06747251749038696
1790173709929466400,9.60046630859375,-0.5764718651771545,-0.32106536626815796,0.0706573948264122
1790173709939538200,9.6105380859375,-0.5867407321929932,-0.2977270185947418,0.13182540237903595
1790173709949609000,9.62060888671875,-0.5815243721008301,-0.2807818651199341,0.09942006319761276
1790173709959681000,9.630680908203125,-0.5388498902320862,-0.3100380301475525,0.07993371784687042
1790173709969752000,9.640751953125,-0.5155707001686096,-0.34682372212409973,0.14910319447517395
1790173709979824000,9.65082421875,-0.5341398119926453,-0.3488434851169586,0.02906680479645729
1790173709989896000,9.66089599609375,-0.5682644844055176,-0.31584078073501587,-0.05637885257601738
1790173709999967000,9.670967041015626,-0.6160160303115845,-0.2804255485534668,-0.0033220271579921246
1790173710010039000,9.6810390625,-0.6038230657577515,-0.33359289169311523,0.03212438151240349
1790173710020110000,9.691110107421874,-0.5805480480194092,-0.40625298023223877,-0.015028484165668488
1790173710030182100,9.70118212890625,-0.5694312453269958,-0.4250895082950592,0.005994775798171759
1790173710040254200,9.711254150390625,-0.6313750147819519,-0.4255547523498535,0.05007941275835037
1790173710050325200,9.7213251953125,-0.7561246752738953,-0.44766247272491455,0.09220796078443527
1790173710060397000,9.73139697265625,-0.7858570218086243,-0.5119578242301941,0.0958157405257225
1790173710070469000,9.74146923828125,-0.7796249389648438,-0.5750603675842285,-0.0012897689593955874
1790173710080540200,9.7515400390625,-0.8129839897155762,-0.6127137541770935,0.03896843641996384
1790173710090612200,9.7616123046875,-0.9060696959495544,-0.6459907293319702,0.22323335707187653
1790173710100683300,9.771683349609376,-0.9446711540222168,-0.7090330719947815,0.2196950763463974
1790173710110755300,9.78175537109375,-0.9201173782348633,-0.7670713663101196,0.16977465152740479
1790173710120827100,9.7918271484375,-0.965573251247406,-0.7879185676574707,0.16863055527210236
1790173710130898200,9.801898193359374,-1.0825999975204468,-0.8566169142723083,0.23912470042705536
1790173710140970200,9.81197021484375,-1.1484498977661133,-0.9049237370491028,0.2053544819355011
1790173710151041000,9.822041015625,-1.1583118438720703,-0.945853590965271,0.23512756824493408
1790173710161113300,9.83211328125,-1.2180612087249756,-0.9752242565155029,0.28362157940864563
1790173710171185200,9.84218505859375,-1.244048833847046,-1.0056639909744263,0.2801631987094879
1790173710181256000,9.852255859375,-1.1468913555145264,-1.0292166471481323,0.2271125167608261
1790173710191328000,9.862327880859375,-1.116647720336914,-0.9974507689476013,0.2761405110359192
1790173710201399000,9.87239892578125,-1.1517125368118286,-0.9977559447288513,0.2337869256734848
1790173710211471000,9.88247119140625,-1.1511985063552856,-1.0679155588150024,0.1622283160686493
1790173710221543200,9.892543212890626,-0.9910945892333984,-1.0602978467941284,0.1860063523054123
1790173710231614200,9.9026142578125,-0.8635688424110413,-1.0081406831741333,0.343402624130249
1790173710241686000,9.91268603515625,-0.8903080821037292,-0.9717523455619812,0.25955939292907715
1790173710251758000,9.922758056640625,-0.9264964461326599,-0.9278548955917358,0.1519959270954132
1790173710261829000,9.9328291015625,-0.8337444067001343,-0.9087544679641724,0.2321581393480301
1790173710271901200,9.942901123046875,-0.7123947739601135,-0.8846685290336609,0.3320341408252716
1790173710281973000,9.952972900390625,-0.6106130480766296,-0.875246524810791,0.4720729887485504
1790173710292044800,9.963044921875,-0.5378240346908569,-0.864997923374176,0.5168367624282837
1790173710302116900,9.973116943359376,-0.5698626637458801,-0.8310617804527283,0.5998389720916748
1790173710312187600,9.983187744140626,-0.5512474179267883,-0.8072049021720886,0.4883342683315277
1790173710322259700,9.993259765625,-0.4481719136238098,-0.8217849135398865,0.44216862320899963
1790173710332330800,10.003330810546874,-0.4189551770687103,-0.7989358305931091,0.524746298789978
1790173710342402800,10.01340283203125,-0.4787689745426178,-0.7993435263633728,0.4521104693412781
1790173710352474600,10.023474609375,-0.4971463978290558,-0.8312777876853943,0.36328259110450745
1790173710362545700,10.033545654296875,-0.4600416421890259,-0.8263133764266968,0.45677846670150757
1790173710372617700,10.04361767578125,-0.37520158290863037,-0.8518735766410828,0.39804404973983765
1790173710382689800,10.053689697265625,-0.32015296816825867,-0.8403940200805664,0.3274793326854706
1790173710392760800,10.0637607421875,-0.2949906289577484,-0.8083798885345459,0.3452703058719635
1790173710402832600,10.07383251953125,-0.3289179801940918,-0.7668614983558655,0.3201540410518646
1790173710412903700,10.083903564453125,-0.3743549585342407,-0.7319469451904297,0.39048251509666443
1790173710422975700,10.093975830078126,-0.30714690685272217,-0.7582616209983826,0.44245171546936035
1790173710433047800,10.1040478515625,-0.20937585830688477,-0.775562047958374,0.44833678007125854
1790173710443118800,10.114118896484374,-0.18387103080749512,-0.7818681597709656,0.4939234256744385
1790173710453191000,10.12419091796875,-0.178815558552742,-0.7617916464805603,0.3903413712978363
1790173710463262000,10.134261962890625,-0.1958390176296234,-0.7192564010620117,0.32581380009651184
1790173710473333800,10.144333740234375,-0.17136375606060028,-0.7222447395324707,0.3696688711643219
1790173710483405800,10.15440576171875,-0.07521539181470871,-0.729316234588623,0.3280463218688965
1790173710493476900,10.164476806640625,-0.03644242882728577,-0.6940605044364929,0.3840339481830597
1790173710503549000,10.174548828125,-0.026450250297784805,-0.6821452975273132,0.45622265338897705
1790173710513619700,10.18461962890625,-0.086680568754673,-0.6624565124511719,0.4149132966995239
1790173710523691800,10.19469189453125,-0.0740332156419754,-0.6526734232902527,0.4088048040866852
1790173710533763800,10.204763916015626,0.06409083306789398,-0.6483092904090881,0.34453022480010986
1790173710543834600,10.214834716796876,0.11194251477718353,-0.5903519988059998,0.3545932471752167
1790173710553906700,10.22490673828125,0.11826565861701965,-0.5499384999275208,0.37518373131752014
1790173710563977700,10.234977783203124,0.10114073008298874,-0.5481017231941223,0.35445794463157654
1790173710574049800,10.2450498046875,0.1067778468132019,-0.5789781212806702,0.24224379658699036
1790173710584121600,10.25512158203125,0.12735635042190552,-0.5811297297477722,0.2784939408302307
1790173710594192600,10.265192626953125,0.19459637999534607,-0.5697673559188843,0.31034427881240845
1790173710604264700,10.2752646484375,0.1706811934709549,-0.5332421064376831,0.21410830318927765
1790173710614336800,10.285336669921875,0.132137268781662,-0.5265657901763916,0.1987983137369156
1790173710624407800,10.29540771484375,0.1364862024784088,-0.5247633457183838,0.19802600145339966
1790173710634479900,10.30547998046875,0.16516871750354767,-0.5190189480781555,0.18249177932739258
1790173710644551000,10.315551025390626,0.17793644964694977,-0.5191800594329834,0.12331368029117584
1790173710654622700,10.325622802734374,0.1268753856420517,-0.5164803862571716,0.1099398136138916
1790173710664694800,10.33569482421875,0.11621182411909103,-0.5043100118637085,0.17712604999542236
1790173710674765800,10.345765869140624,0.09304685145616531,-0.4936158359050751,0.14512524008750916
1790173710684838000,10.355837890625,0.042751193046569824,-0.49961939454078674,0.0017861821688711643
1790173710694909000,10.365908935546875,0.05224669352173805,-0.5360817909240723,-0.04639839008450508
1790173710704980700,10.375980712890625,0.07054953277111053,-0.5317464470863342,0.06030754745006561
1790173710715052800,10.386052734375,0.11358275264501572,-0.5173299312591553,0.07419593632221222
1790173710725123800,10.396123779296875,0.06671325117349625,-0.5110006928443909,0.09911806136369705
1790173710735196000,10.40619580078125,0.05961485952138901,-0.5078943967819214,0.18837310373783112
1790173710745268000,10.41626806640625,0.07669451087713242,-0.49367204308509827,0.14186818897724152
1790173710755338800,10.4263388671875,0.046536609530448914,-0.498216450214386,0.15539412200450897
1790173710765410600,10.43641064453125,0.019829364493489265,-0.5121229290962219,0.11696363985538483
1790173710775481600,10.446481689453124,0.030761640518903732,-0.48796167969703674,0.2107790857553482
1790173710785553700,10.4565537109375,0.041304029524326324,-0.46526995301246643,0.15927141904830933
1790173710795625700,10.466625732421875,0.030231405049562454,-0.48040974140167236,0.013635118491947651
1790173710805696800,10.47669677734375,0.061893727630376816,-0.5046245455741882,-0.01047288067638874
1790173710815768800,10.486768798828125,0.08890829980373383,-0.5035326480865479,0.07529954612255096
1790173710825839900,10.49683984375,0.11112731695175171,-0.48870977759361267,0.12535472214221954
1790173710835911700,10.50691162109375,0.09539336711168289,-0.5039536952972412,0.0854635015130043
1790173710845983700,10.516983642578126,0.07269471138715744,-0.47976794838905334,0.14571087062358856
1790173710856054800,10.5270546875,0.05644996091723442,-0.46952807903289795,0.24066507816314697
1790173710866126800,10.537126953125,0.09823335707187653,-0.48622849583625793,0.2589380741119385
1790173710876198000,10.547197998046874,0.1402045041322708,-0.47789067029953003,0.20721124112606049
1790173710886269700,10.557269775390624,0.10799730569124222,-0.45591267943382263,0.11846859008073807
1790173710896341800,10.567341796875,0.049424007534980774,-0.4480150640010834,0.0787065327167511
1790173710906412800,10.577412841796875,0.022221149876713753,-0.4347621202468872,0.03929733857512474
1790173710916484900,10.58748486328125,0.1002243384718895,-0.4698905348777771,-0.06095922365784645
1790173710926557000,10.597556884765625,0.1487380713224411,-0.4908706545829773,0.043241746723651886
1790173710936628000,10.6076279296875,0.13430720567703247,-0.4565526247024536,0.16650909185409546
1790173710946699800,10.61769970703125,0.09880433976650238,-0.44362616539001465,0.15851667523384094
1790173710956770600,10.6277705078125,0.09073789417743683,-0.44680890440940857,0.17335474491119385
1790173710966842600,10.637842529296876,0.11076273024082184,-0.4392836391925812,0.26412326097488403
1790173710976915000,10.6479150390625,0.16174016892910004,-0.4283697307109833,0.2699952721595764
1790173710986985700,10.65798583984375,0.18153011798858643,-0.41075822710990906,0.2961600124835968
1790173710997057800,10.668057861328125,0.15593740344047546,-0.3606732487678528,0.17976896464824677
1790173711007128800,10.67812890625,0.12247531861066818,-0.3785174787044525,0.04859842732548714
1790173711017200600,10.68820068359375,0.14735056459903717,-0.3871767520904541,0.07693446427583694
1790173711027272700,10.698272705078125,0.23736275732517242,-0.34969913959503174,0.22447918355464935
1790173711037343700,10.70834375,0.27262672781944275,-0.32944154739379883,0.18575388193130493
1790173711047415800,10.718415771484375,0.21823327243328094,-0.3580510914325714,0.09075520187616348
1790173711057486800,10.72848681640625,0.15398477017879486,-0.3284679055213928,0.05040911212563515
1790173711067558700,10.73855859375,0.1808217167854309,-0.27920979261398315,0.11305677890777588
1790173711077630700,10.748630615234376,0.2312830239534378,-0.25350841879844666,0.14134381711483002
1790173711087701800,10.75870166015625,0.2301008403301239,-0.25328633189201355,0.18656961619853973
1790173711097773800,10.76877392578125,0.22656789422035217,-0.24690859019756317,0.14781315624713898
1790173711107844900,10.778844970703124,0.2299272119998932,-0.2416222095489502,0.07937870919704437
1790173711117917000,10.7889169921875,0.24193087220191956,-0.23126624524593353,0.059900619089603424
1790173711127988700,10.79898876953125,0.3015933930873871,-0.23413047194480896,0.06558540463447571
1790173711138059800,10.809059814453125,0.2847960591316223,-0.25026416778564453,0.06715187430381775
1790173711148131800,10.8191318359375,0.27901220321655273,-0.27966707944869995,0.05668245255947113
1790173711158204000,10.829203857421875,0.2607327997684479,-0.2569050192832947,0.09198478609323502
1790173711168275000,10.83927490234375,0.24692323803901672,-0.23474273085594177,0.07269391417503357
1790173711178346800,10.8493466796875,0.277839332818985,-0.24062512814998627,0.17665733397006989
1790173711188417800,10.859417724609376,0.3409983217716217,-0.2308982014656067,0.15235118567943573
1790173711198489600,10.869489501953124,0.3017153739929199,-0.18108110129833221,0.06432732194662094
1790173711208561700,10.879561767578124,0.3200421929359436,-0.17538593709468842,0.06036560609936714
1790173711218632700,10.8896328125,0.3457203805446625,-0.14786376059055328,0.13491041958332062
1790173711228704800,10.899704833984375,0.36006203293800354,-0.11314786225557327,0.05331328883767128
1790173711238775800,10.90977587890625,0.31713882088661194,-0.11069589108228683,0.0002181128947995603
1790173711248847600,10.91984765625,0.3077341318130493,-0.11567307263612747,0.016400810331106186
1790173711258919700,10.929919677734375,0.30592209100723267,-0.09426099061965942,0.0019768644124269485
1790173711268990700,10.93999072265625,0.2953703999519348,-0.08063971996307373,-0.06174911931157112
1790173711279062500,10.9500625,0.26577815413475037,-0.09707142412662506,-0.05096997320652008
1790173711289133600,10.960133544921876,0.24462732672691345,-0.10299243032932281,0.012534167617559433
1790173711299205600,10.97020556640625,0.24502013623714447,-0.07847589999437332,0.02556661330163479
1790173711309277400,10.98027734375,0.23293551802635193,-0.08328396826982498,0.03374091908335686
1790173711319348500,10.990348388671874,0.2219209522008896,-0.11315398663282394,0.004772651009261608
1790173711329420500,11.000420654296875,0.1971905678510666,-0.10860157757997513,0.06456167995929718
1790173711339492600,11.01049267578125,0.18892012536525726,-0.09955881536006927,0.057430803775787354
1790173711349563600,11.020563720703125,0.16798368096351624,-0.11740758270025253,0.003906058380380273
1790173711359635700,11.0306357421875,0.15052852034568787,-0.13879543542861938,0.08539159595966339
1790173711369706800,11.040706787109375,0.14338378608226776,-0.14699557423591614,0.09478030353784561
1790173711379778600,11.050778564453125,0.12696035206317902,-0.15505562722682953,0.03542829677462578
1790173711389850600,11.0608505859375,0.07999390363693237,-0.15980271995067596,-0.0030368026345968246
1790173711399921400,11.07092138671875,0.06688928604125977,-0.16646380722522736,0.019647471606731415
1790173711409993500,11.080993408203126,0.06296058744192123,-0.16999968886375427,0.025955434888601303
1790173711420064500,11.091064453125,0.013818344101309776,-0.155318483710289,-0.02201874926686287
1790173711430136300,11.10113623046875,-0.03098481334745884,-0.16386163234710693,-0.0041734399273991585
1790173711440208400,11.11120849609375,-0.05308159440755844,-0.17902247607707977,0.01769723743200302
1790173711450279400,11.121279541015625,-0.059723250567913055,-0.2054077535867691,0.012257731519639492
1790173711460351500,11.1313515625,-0.08032946288585663,-0.2123418152332306,-0.012863866984844208
1790173711470422500,11.141422607421875,-0.10349523276090622,-0.2139596939086914,0.07101212441921234
1790173711480494600,11.15149462890625,-0.101540207862854,-0.24818050861358643,0.07409287244081497
1790173711490566400,11.16156640625,-0.14515240490436554,-0.26859524846076965,-0.0015600797487422824
1790173711500637400,11.171637451171875,-0.176742821931839,-0.28426074981689453,-0.0031909996178001165
1790173711510709500,11.18170947265625,-0.1825554370880127,-0.2956947684288025,0.008799350820481777
1790173711520780500,11.191780517578126,-0.20040100812911987,-0.3197644054889679,0.03465225175023079
1790173711530852600,11.2018525390625,-0.21343931555747986,-0.3340882360935211,0.033303096890449524
1790173711540924700,11.211924560546874,-0.21359403431415558,-0.3529242277145386,0.05652026832103729
1790173711550995700,11.22199560546875,-0.24464330077171326,-0.33156782388687134,0.017189105972647667
1790173711561067500,11.232067626953125,-0.21847215294837952,-0.3495617210865021,0.0036940707359462976
1790173711571139600,11.2421396484375,-0.19561371207237244,-0.37380102276802063,0.061336860060691833
1790173711581210600,11.252210693359375,-0.19920098781585693,-0.37112879753112793,0.03678810968995094
1790173711591282700,11.26228271484375,-0.22009721398353577,-0.379267156124115,0.030779218301177025
1790173711601353500,11.272353515625,-0.22674739360809326,-0.395739883184433,0.03783739358186722
1790173711611425300,11.28242529296875,-0.18167366087436676,-0.39090678095817566,-0.0021763353142887354
1790173711621497600,11.29249755859375,-0.15586762130260468,-0.3787667453289032,0.017409350723028183
1790173711631568400,11.302568359375,-0.13232740759849548,-0.3702062964439392,0.05445924773812294
1790173711641640400,11.312640380859374,-0.13019129633903503,-0.3481638431549072,0.03498328477144241
1790173711651711500,11.32271142578125,-0.11916553974151611,-0.3206895887851715,-0.026612969115376472
1790173711661783600,11.332783447265625,-0.03217577934265137,-0.33318009972572327,-0.04646523669362068
1790173711671855400,11.34285546875,0.04379408434033394,-0.3288034498691559,0.00914263166487217
1790173711681926400,11.352926513671875,0.07131199538707733,-0.3063143789768219,0.046905189752578735
1790173711691998500,11.36299853515625,0.06801047921180725,-0.29661887884140015,0.02948359027504921
1790173711702069500,11.373069580078125,0.09092164784669876,-0.27403342723846436,0.023505859076976776
1790173711712141600,11.3831416015625,0.14069533348083496,-0.2511880099773407,-0.02948678657412529
1790173711722213600,11.393213623046876,0.22313961386680603,-0.24998639523983002,-0.040946099907159805
1790173711732284700,11.40328466796875,0.25474387407302856,-0.2077433466911316,-0.027713386341929436
1790173711742356500,11.4133564453125,0.27827078104019165,-0.18482577800750732,0.04555496945977211
1790173711752427500,11.423427490234374,0.2904597818851471,-0.15733130276203156,0.046129412949085236
1790173711762499600,11.43349951171875,0.3255320191383362,-0.09556859731674194,-0.028355475515127182
1790173711772571600,11.443571533203125,0.39549219608306885,-0.04499943181872368,-0.0332663431763649
1790173711782642700,11.453642578125,0.4287188649177551,0.0023726101499050856,-0.042876891791820526
1790173711792714500,11.463714599609375,0.4215269982814789,0.04888471961021423,-0.01738538220524788
1790173711802786600,11.47378662109375,0.4413209557533264,0.08073212951421738,0.011060640215873718
1790173711812857600,11.483857666015625,0.46705853939056396,0.1330784261226654,-0.03191665560007095
1790173711822929700,11.4939296875,0.4239579439163208,0.18439221382141113,-0.004431233741343021
1790173711833000400,11.50400048828125,0.4443931579589844,0.20292462408542633,-0.006280532572418451
1790173711843072500,11.514072509765626,0.4573691487312317,0.21981118619441986,-0.037631530314683914
1790173711853144300,11.524144287109374,0.4762725234031677,0.23147264122962952,-0.044435907155275345
1790173711863215400,11.53421533203125,0.47551432251930237,0.21126031875610352,-0.007360977120697498
1790173711873287400,11.544287353515625,0.456223726272583,0.19554074108600616,0.06251690536737442
1790173711883358500,11.5543583984375,0.4184587597846985,0.2052096128463745,-0.019695939496159554
1790173711893430500,11.564430419921875,0.3762125074863434,0.1730588674545288,-0.05775970220565796
1790173711903502600,11.574502685546875,0.3197428584098816,0.16082189977169037,-0.06405701488256454
1790173711913573400,11.584573486328125,0.2771884500980377,0.12036875635385513,-0.03574920818209648
1790173711923645400,11.5946455078125,0.2563718557357788,0.0769248753786087,0.0462641678750515
1790173711933716500,11.604716552734375,0.24252475798130035,0.06557341665029526,-0.009454487822949886
1790173711943788500,11.61478857421875,0.17643947899341583,0.0522802472114563,-0.021803831681609154
1790173711953860600,11.624860595703124,0.1197194755077362,0.03056430071592331,0.01293470710515976
1790173711963931600,11.634931640625,0.09137146174907684,0.0057553574442863464,0.06856387853622437
1790173711974003500,11.64500341796875,0.08022186905145645,0.010402573272585869,0.00043010051012970507
1790173711984074500,11.655074462890624,0.02629099227488041,-0.001847701147198677,-0.013295565731823444
1790173711994146600,11.665146484375,-0.014414358884096146,-0.044793568551540375,-0.03449352830648422
1790173712004218600,11.675218505859375,-0.036555878818035126,-0.05783240869641304,0.01864559017121792
1790173712014289700,11.68528955078125,-0.07032369822263718,-0.07192345708608627,-0.009023589082062244
1790173712024361700,11.69536181640625,-0.08145783841609955,-0.1058444082736969,-0.005944175645709038
1790173712034432500,11.7054326171875,-0.11797910183668137,-0.10444678366184235,-0.03565999120473862
1790173712044504300,11.71550439453125,-0.1406117081642151,-0.11773275583982468,-0.019222430884838104
1790173712054576600,11.72557666015625,-0.17629753053188324,-0.15036846697330475,-0.04134717211127281
1790173712064647400,11.7356474609375,-0.17000821232795715,-0.1597108393907547,-0.03110145963728428
1790173712074719500,11.745719482421874,-0.1546311229467392,-0.16402488946914673,-0.04875155910849571
1790173712084790500,11.75579052734375,-0.142037034034729,-0.17663869261741638,-0.06979958713054657
1790173712094862300,11.7658623046875,-0.14388233423233032,-0.1493000090122223,-0.043647877871990204
1790173712104934400,11.775934326171875,-0.13058064877986908,-0.1415582001209259,0.026613768190145493
1790173712115005400,11.78600537109375,-0.08241870999336243,-0.17069850862026215,0.02978000044822693
1790173712125077500,11.796077392578125,-0.06193793565034866,-0.18456904590129852,0.004824848845601082
1790173712135148500,11.8061484375,-0.07575841248035431,-0.16127358376979828,-0.06384236365556717
1790173712145220600,11.816220703125,-0.09733134508132935,-0.15571369230747223,-0.03803766146302223
1790173712155292400,11.82629248046875,-0.11757190525531769,-0.16766223311424255,0.01239195466041565
1790173712165363500,11.836363525390626,-0.06565117835998535,-0.1678084433078766,0.03196166083216667
1790173712175435500,11.846435546875,-0.04123212397098541,-0.16382116079330444,0.0334106869995594
1790173712185507600,11.856507568359374,-0.044736310839653015,-0.1596088409423828,-0.022072013467550278
1790173712195578600,11.86657861328125,-0.07665616273880005,-0.12297066301107407,-0.038113296031951904
1790173712205650700,11.876650634765625,-0.08328024297952652,-0.11723741143941879,-0.015109444037079811
1790173712215721700,11.8867216796875,-0.038610510528087616,-0.12684795260429382,-0.051955610513687134
1790173712225793500,11.89679345703125,0.016650881618261337,-0.12929567694664001,-0.07605428993701935
1790173712235865600,11.906865478515625,0.04512060806155205,-0.13893631100654602,-0.02040407434105873
1790173712245936600,11.9169365234375,0.03477156162261963,-0.11815939843654633,-0.02720818482339382
1790173712256008700,11.9270087890625,0.03840118646621704,-0.11227354407310486,0.01666739396750927
1790173712266079500,11.93707958984375,0.07371842861175537,-0.11375585943460464,0.02949530817568302
1790173712276151300,11.9471513671875,0.10550325363874435,-0.08863559365272522,-0.06792658567428589
1790173712286223600,11.9572236328125,0.08884678035974503,-0.05828674137592316,-0.08564726263284683
1790173712296294700,11.967294677734374,0.0952381044626236,-0.04562314599752426,-0.058812715113162994
1790173712306366700,11.97736669921875,0.15235118567943573,-0.03460671380162239,-0.0009299758239649236
1790173712316437800,11.987437744140625,0.17826400697231293,-0.026226012036204338,0.000999484327621758
1790173712326509800,11.997509765625,0.22193372249603271,-0.03056696429848671,-0.022789468988776207
1790173712336581600,12.00758154296875,0.2618390619754791,-0.03445810824632645,0.007111971732228994
1790173712346652700,12.017652587890625,0.2580355405807495,-0.03362267464399338,-0.020000873133540154
1790173712356724700,12.027724853515625,0.25297048687934875,-0.027652665972709656,-0.060437776148319244
1790173712366795800,12.037795654296875,0.22961083054542542,-0.026134664192795753,-0.0016437029698863626
1790173712376867800,12.047867919921876,0.25950267910957336,-0.024042751640081406,-0.020796358585357666
1790173712386939600,12.057939697265626,0.2693513035774231,-0.012106730602681637,-0.06276378035545349
1790173712397010700,12.0680107421875,0.32791900634765625,-0.0023470439482480288,-0.030438600108027458
1790173712407082800,12.078082763671874,0.31502237915992737,0.02395513467490673,0.007509581744670868
1790173712417153500,12.088153564453124,0.2879455089569092,0.038358308374881744,0.016288159415125847
1790173712427225600,12.0982255859375,0.2649802565574646,0.07001743465662003,0.022711703553795815
1790173712437297700,12.108297607421875,0.28430575132369995,0.07190987467765808,-0.035346005111932755
1790173712447368700,12.11836865234375,0.3086257576942444,0.0624772273004055,0.02551175095140934
1790173712457440500,12.1284404296875,0.33054009079933167,0.08361739665269852,0.05218597128987312
1790173712467511600,12.138511474609375,0.30055370926856995,0.10277857631444931,0.07077297568321228
1790173712477583600,12.14858349609375,0.27791523933410645,0.11391565203666687,0.04459862783551216
1790173712487655700,12.15865576171875,0.2826010584831238,0.12829779088497162,-0.012182896956801414
1790173712497726700,12.168726806640626,0.2910430133342743,0.12239568680524826,-0.04691664129495621
1790173712507798800,12.178798828125,0.2949354946613312,0.12957663834095,-0.019750002771615982
1790173712517869800,12.188869873046874,0.2611527740955353,0.13782843947410583,-0.046129412949085236
1790173712527941600,12.198941650390625,0.2312428057193756,0.10155299305915833,-0.021192369982600212
1790173712538013700,12.209013671875,0.20587725937366486,0.08777911961078644,0.0340072363615036
1790173712548084700,12.219084716796875,0.21151012182235718,0.05387122184038162,0.04110216349363327
1790173712558156800,12.22915673828125,0.19943347573280334,0.05278811231255531,0.015202122740447521
1790173712568227800,12.239227783203125,0.1633726805448532,0.047579504549503326,0.01888633891940117
1790173712578299600,12.249299560546875,0.10902528464794159,0.052853893488645554,-0.01679842174053192
1790173712588371700,12.259371826171876,0.11935781687498093,0.05892856419086456,-0.04818936809897423
1790173712598442800,12.26944287109375,0.1717376708984375,0.03770902752876282,-0.03729437664151192
1790173712608514800,12.279514892578124,0.16839993000030518,0.0332021601498127,0.01938408426940441
1790173712618587000,12.2895869140625,0.14856363832950592,0.01991618424654007,0.0292966365814209
1790173712628657700,12.29965771484375,0.09089581668376923,0.03514440357685089,-0.030342193320393562
1790173712638729500,12.3097294921875,0.06884884089231491,0.0400179885327816,-0.051004860550165176
1790173712648800500,12.319800537109375,0.11720944941043854,0.01395736075937748,-0.006934338714927435
1790173712658872600,12.32987255859375,0.1553051620721817,0.019409917294979095,-0.023983629420399666
1790173712668944600,12.339944580078125,0.11787443608045578,0.04283907637000084,-0.007178550586104393
1790173712679015700,12.350015625,0.08327518403530121,0.05307706817984581,0.02888970449566841
