time,seconds_elapsed,z,y,x
1791114812590776300,0.0657763671875,0.9202093038022517,-0.0016629647761583328,1.202590586600825
1791114812600846600,0.0758466796875,2.331042900931835,0.5880576625972986,0.8477370650485158
1791114812610917400,0.08591748046875,0.7306658061116933,1.3864578652858732,0.047760050630429755
1791114812620988400,0.095988525390625,-0.6310612302824854,0.5418582214802503,-0.596807370764017
1791114812631059500,0.1060595703125,-2.896762767253816,-0.2672510067492723,-0.11675448460523039
1791114812641130500,0.116130615234375,-0.6888830123931169,-0.9550906475692987,-0.1613851968345232
1791114812651200500,0.126200439453125,0.9492249704062938,-0.929509631589055,-0.2047001320238225
1791114812661271300,0.136271240234375,1.2520169538751245,0.21337036347985266,-0.9213541629884392
1791114812671342300,0.14634228515625,0.04995090260505676,0.005543605601787567,-1.5823511703945696
1791114812681413400,0.156413330078125,-0.6999819140344857,-1.1635054344683884,-1.276696198710054
1791114812691484400,0.166484375,-0.7851689651936292,-1.3020605031996966,-0.8266212117835879
1791114812701554400,0.176554443359375,-1.106715333493054,-0.8021107476443052,-1.331988900734484
1791114812711625200,0.186625244140625,-0.38778234301209447,-0.5443453621208667,-1.6743413256973028
1791114812721696300,0.1966962890625,0.7235276247948408,-0.6999146940171718,-1.6650462586075065
1791114812731767300,0.206767333984375,0.9355418974906206,-0.5246083959937096,-1.6588002038247882
1791114812741838300,0.21683837890625,1.6930796361759304,-0.7122381690174341,-2.322396945400536
1791114812751908600,0.22690869140625,1.2707298376515508,-0.8453355568647384,-1.3994362970635295
1791114812761979400,0.2369794921875,-0.28958938754647967,0.468413046041131,-0.5031358382456005
1791114812772050700,0.24705078125,-1.80076610391289,0.8663619782805442,-1.3965757930658758
1791114812782121700,0.257121826171875,0.9444254611700773,-0.47388650901615614,-1.3029381628170609
1791114812792192800,0.26719287109375,2.5473215530738234,0.14153729941248894,-0.3032612084157765
1791114812802262800,0.2772626953125,0.6860004426941275,1.3330787417978047,-0.4737502788832411
1791114812812333600,0.28733349609375,-0.5461939125970006,1.1545768626034258,-1.7086276261806488
1791114812822404600,0.297404541015625,-0.6591250029891729,0.07174947743713855,-1.499079889728874
1791114812832475600,0.3074755859375,-0.6005827976495027,-0.6506032583594322,-0.22912490890733897
1791114812842546700,0.317546630859375,0.16235183164328335,-0.7819459114938974,-0.9456444085057825
1791114812852616700,0.32761669921875,-0.5538654701381921,-0.5528390496999025,-2.0463393857307732
1791114812862687500,0.3376875,-1.245254912394285,0.16458149039149284,-2.453633507812023
1791114812872758500,0.347758544921875,-1.582552684316039,0.03656593585312366,-2.01328788773939
1791114812882829600,0.35782958984375,-0.04044482311308384,-0.6211784264326096,-1.1567979727189988
1791114812892900600,0.367900634765625,-0.6759387751460075,0.4023381071090698,-0.7744548981513828
1791114812902971000,0.377970947265625,-0.4314370680823922,0.1937801123470068,-1.1496668787300586
1791114812913041700,0.388041748046875,-0.3242375070795417,0.35953240008354187,-0.44204336390122767
1791114812923112700,0.39811279296875,-1.3946853031441568,0.4559487012654543,-1.0334912534587084
1791114812933183700,0.408183837890625,-1.3600941744953392,0.10786650047898291,-1.4676231135830282
1791114812943254800,0.4182548828125,-1.156788693434,0.1080196452140808,-1.0965331813704222
1791114812953324500,0.428324462890625,-1.5167688372850416,0.25186112991571424,0.1890606095444411
1791114812963395600,0.4383955078125,2.2168103725522754,-0.6005670155584811,0.20087591582685707
1791114812973466600,0.448466552734375,3.4573020160675045,-0.7328864047706126,1.5171324099004269
1791114812983537700,0.45853759765625,3.206130621981621,0.6787620158731937,1.0312726275611668
1791114812993608700,0.468608642578125,1.8005299570694564,1.2621470104843378,0.016642799504101274
1791114813003678500,0.478678466796875,2.2831369481578467,0.4689917227119207,0.02390204991735518
1791114813013749500,0.48874951171875,0.2012561473160982,1.1166688644915819,0.5126914194351062
1791114813023820500,0.498820556640625,-0.38225714984983206,0.4931032506614923,0.28352683610450474
1791114813033891600,0.5088916015625,-1.9440140066355465,-0.15076514648497102,0.013994367354549467
1791114813043961900,0.5189619140625,-1.621665382042527,-0.6638800885617733,0.30677023945003745
1791114813054032600,0.52903271484375,-0.7113570022687316,-1.3511217634886503,0.5274682424042374
1791114813064103700,0.539103759765625,-0.5289557775482535,-0.46012277207970614,0.26446597914062436
1791114813074174700,0.5491748046875,0.8824676021680236,-0.5887409686863422,-0.5037814061401411
1791114813084245800,0.559245849609375,-0.06868716725707054,-0.2276642617702484,0.1724912771353498
1791114813094315800,0.569315673828125,-1.2394786670804023,0.5030138193011283,0.6846082576833665
1791114813104386600,0.579386474609375,-1.0177478870123624,-0.13060849364101887,0.20382997985947876
1791114813114457600,0.58945751953125,-0.44457799694538114,0.08738193085491656,-0.5535790909448638
1791114813124528600,0.599528564453125,-0.42427755171656606,0.43899172124564645,-0.7793624708719551
1791114813134599700,0.609599609375,0.7306845108121633,-0.21271336087584494,0.973500602876395
1791114813144669700,0.619669677734375,-0.053908115798234936,0.6827642372518777,1.0747599601753055
1791114813154740500,0.629740478515625,0.5514788672626019,0.4967693719536066,-0.6998536114796996
1791114813164811500,0.6398115234375,2.986398614515364,-0.31652035683095453,-1.415877144254744
1791114813174882600,0.649882568359375,2.01312436774075,0.3834282394558191,-0.60223498530332
1791114813184953600,0.65995361328125,-1.8379899191528557,1.7187065371245145,-1.136071703293547
1791114813195024000,0.67002392578125,-0.6294812676146626,0.16216683046519756,-2.1846000015601517
1791114813205094700,0.6800947265625,1.4671484818086027,-1.377334647631645,-1.5327623791001737
1791114813215165700,0.690165771484375,0.8271335452198981,-0.5538812522292137,-1.0087823441378772
1791114813225236700,0.70023681640625,-3.006736176884174,0.562772999215126,-0.9963654917657375
1791114813235307800,0.710307861328125,-2.3134739264935256,-0.27133564571440216,-1.3752758154056965
1791114813245377800,0.720377685546875,-0.8113008930549025,-0.8908709811151028,-1.1133119552791118
1791114813255448600,0.730448486328125,0.5831900565609336,-0.6144032332092523,-1.0794875732190907
1791114813265519600,0.74051953125,-0.61076136957556,0.41904491176009173,0.02865936397965997
1791114813275590700,0.750590576171875,-1.7694512204557655,0.7501549349576234,-0.39393081917185335
1791114813285661700,0.76066162109375,-2.832160238961875,0.3366290788799524,-1.7635864200755953
1791114813295731700,0.770731689453125,-0.8077817790180444,-0.5895224744528532,-2.487246146817505
1791114813305802500,0.780802490234375,0.5509717945232987,-0.6428221029639244,-1.9728040477901696
1791114813315873500,0.79087353515625,-0.21674159347862004,1.2356640772283076,-1.3460663797952235
1791114813325944600,0.800944580078125,-0.7036413133248687,0.9786667534679174,-2.153251361963898
1791114813336015600,0.811015625,-0.7731488570541143,-0.007310615274310111,-2.239105206468701
1791114813346086000,0.8210859375,0.08930091621875762,-0.09380407285690306,-1.1074075535409151
1791114813356156700,0.83115673828125,0.29185470212996006,0.574686724370718,-0.4127122016072273
1791114813366227700,0.841227783203125,0.4918354226827621,0.9237976836830377,-0.5528323276981711
1791114813376298800,0.851298828125,-0.09623071548193693,0.5580348647773266,-0.11974416794050484
1791114813386369800,0.861369873046875,0.3948842839717865,-0.16313830584585665,0.1912892453793436
1791114813396439800,0.871439697265625,1.8550830927729605,-1.0685264726132153,0.2679899885483086
1791114813406510600,0.881510498046875,0.671894468191266,-0.6887479878365993,0.2151426338493824
1791114813416581600,0.89158154296875,-0.8322393439263105,-0.059195116290450094,-0.14731537135727701
1791114813426652700,0.901652587890625,-1.7120096698343752,0.6703226888298988,-0.5409118074756115
1791114813436722700,0.91172265625,0.04925210668593645,-0.500457705077529,-0.12211648656241594
1791114813446793500,0.92179345703125,1.9465455709397792,-0.9599942017018794,2.0659405966490505
1791114813456864500,0.931864501953125,1.3318874861866234,-0.32450141871273513,2.5065093579530715
1791114813466935600,0.941935546875,-0.5042787246704101,0.5497054278492928,1.3560747097209096
1791114813477006600,0.952006591796875,1.0091706128031015,-0.3651145841300487,1.3208768473505974
1791114813487076900,0.962076904296875,0.625735651345551,-0.4353600867450237,1.4691326413631438
1791114813497147600,0.972147705078125,-0.04017360495626926,-0.2935398787379265,0.675044091328606
1791114813507218700,0.98221875,-0.41942017481327054,-1.044110408759117,-0.3413094187159091
1791114813517289700,0.992289794921875,1.199314414474368,-1.3888707716464996,-0.6051636956989764
1791114813527360800,1.00236083984375,2.225628469780087,-0.09728490070998667,-0.3755239691372961
1791114813537430800,1.0124306640625,2.5782857233971357,0.09890402634441851,-0.28482509575411674
1791114813547501600,1.02250146484375,3.5462270847111936,-0.768033705997467,0.2870989589702338
1791114813557572600,1.032572509765625,1.9836790775477886,-0.8232143259495496,0.2773702497035265
1791114813567643600,1.0426435546875,1.3722779487639665,-0.8976426672071218,-0.6892290493518114
1791114813577714700,1.052714599609375,1.3826403528243303,-1.6569857017487286,-1.3051686983481048
1791114813587784700,1.06278466796875,1.2291747152090071,-1.951228760319948,-1.743540972521156
1791114813597855500,1.07285546875,1.3286737848371266,-1.1752514018416405,-1.2430462964341045
1791114813607926500,1.082926513671875,2.137218364921212,-1.330621996295452,-0.7304169459171592
1791114813617997600,1.09299755859375,4.26978335107863,-1.539008726143837,-0.274381589281559
1791114813628068600,1.103068603515625,3.970176719647646,-0.7177291676491498,-0.42847248265575616
1791114813638139000,1.113138916015625,1.7529238640248774,0.2907213141858578,-1.0392647953588514
1791114813648209700,1.123209716796875,-0.012928455156087875,0.01910042178928852,-1.1598203162148595
1791114813658280700,1.13328076171875,-1.5936445716947316,0.030036826345324515,-1.0511967137582598
1791114813668351700,1.143351806640625,-1.2656307609468698,0.13066928391754626,-0.3311072832511738
1791114813678421800,1.153421875,-0.7463692789390682,-0.35878538110852237,-0.8132812532171606
1791114813688492800,1.163492919921875,-0.29021278014183044,-0.3471136480152607,0.1032697107406333
1791114813698563600,1.1735634765625,-0.47331455434709785,-0.0693903470903635,1.088094511914253
1791114813708634600,1.183634521484375,0.9147770496204495,-0.4258411477714777,0.6337399479724466
1791114813718705700,1.19370556640625,0.3878688522517681,-0.9766068983286619,-0.014079342224262653
1791114813728775700,1.203775634765625,-1.2952192590028047,-0.025753449937701223,0.3073462127070874
1791114813738846700,1.2138466796875,-1.5859373583182692,0.4519131621390581,1.102555145073682
1791114813748917500,1.22391748046875,-1.0742395895630121,-0.3091109573572874,2.2133029489532112
1791114813758988500,1.233988525390625,0.6187596748530865,-0.7588678182452917,1.83344087754637
1791114813769059600,1.2440595703125,0.4460132904455065,-0.10860942780077457,1.0886530956450848
1791114813779129600,1.254129638671875,0.20892156737744808,0.8216513144165277,1.3653541408501564
1791114813789200600,1.26420068359375,-1.944983143928647,0.7090700603753328,0.9587952011756599
1791114813799271700,1.274271728515625,-0.7018067913740873,-0.7320066993266343,0.260915227856487
1791114813809342700,1.2843427734375,0.2918389200389385,-0.9464169272482394,-0.041661523692775516
1791114813819413800,1.294413818359375,0.5763140333116055,-0.05381751490533351,-0.7098136452842503
1791114813829483500,1.3044833984375,-0.04148819468617439,1.3223036652833222,-1.0375004160348325
1791114813839554600,1.314554443359375,0.5529565385997295,0.9491191719442605,-1.254751639536023
1791114813849625600,1.32462548828125,-2.3675164823263883,0.9007067309528589,-1.7928735970973968
1791114813859696600,1.334696533203125,-2.7024913642585275,-0.4386579592466354,-2.146309141610563
1791114813869766400,1.344766357421875,-2.072847891819477,-0.7938526223868131,-2.248709339507669
1791114813879837400,1.35483740234375,-0.2227279744118452,-1.245738311997056,-1.8942175639398395
1791114813889908500,1.364908447265625,-0.241122878280282,-1.2817811007589102,-2.206958548362553
1791114813899979500,1.3749794921875,-0.21038754827678202,-0.8030097423106431,-2.613904441528022
1791114813910050600,1.385050537109375,0.7469418181300163,-0.9499977083444595,-2.4833625833824273
1791114813920120600,1.39512060546875,3.796567873191833,-1.14783674069345,-2.4674077661424874
1791114813930191600,1.405191650390625,5.328181228387355,-1.0655623621106147,-3.172897922204435
1791114813940262700,1.4152626953125,4.96828291760087,0.06296937413215636,-3.0696295631706714
1791114813950333700,1.425333740234375,1.8154308813422917,0.5995522855579852,-1.9545958986654877
1791114813960404700,1.43540478515625,-3.643732934695482,0.5947668048471212,-0.8085306976892054
1791114813970474500,1.445474609375,-3.674878014543652,-0.46288931418359275,-1.3264379886090754
1791114813980545500,1.455545654296875,-0.33960780242979527,-1.282130060327053,-2.3200259784854946
1791114813990616600,1.465616455078125,2.2512454338565466,-0.4892383919268846,-2.0312362168841065
1791114814000687600,1.4756875,1.2463900539040564,0.5451835665106773,-1.0726975477527827
1791114814010758700,1.485758544921875,0.6503641889065503,1.356504625570774,-0.11051427504140883
1791114814020828400,1.495828369140625,0.00887654941678047,1.9421651638984678,-0.0765408764321357
1791114814030899500,1.5058994140625,-1.4492051210999488,2.0260721121191976,-0.3219560816114768
1791114814040970500,1.515970458984375,-0.823430014526844,0.889695507594943,-0.6055493705483153
1791114814051041500,1.52604150390625,0.7077928800463676,0.021093056911230087,-1.1987746815744786
1791114814061111600,1.536111572265625,-0.8594833246827125,1.4573404967606067,-0.959373001063615
1791114814071182600,1.5461826171875,-1.3584396852865814,1.6293781483769416,-1.0871148532271384
1791114814081253600,1.556253662109375,-0.5168628964334726,0.3503676813751459,-1.4669851079404352
1791114814091324700,1.56632470703125,-1.1604817027330399,-0.059518356895446774,-0.9967965766593814
1791114814101395700,1.576395751953125,-3.9630364925041794,0.2571680041521788,-1.2261232186838984
1791114814111465500,1.586465576171875,-3.337599531844258,-0.868076380982995,-1.6729013560220598
1791114814121536500,1.59653662109375,-0.5354653055727482,-2.0622370659559963,-1.7669386531129478
1791114814131607600,1.606607666015625,-1.5053835199177263,0.24772563754618165,-0.24861023836098609
1791114814141678600,1.6166787109375,-0.9202619107723236,1.4791601143807172,0.27340295350775123
1791114814151748600,1.62674853515625,0.06545096181482077,1.0594774892389773,1.130143920679763
1791114814161819400,1.6368193359375,-0.7003425640404224,0.7444716286242008,1.8437696715980767
1791114814171890400,1.646890380859375,-0.7287804307565092,0.2575344993770122,1.2408728979177772
1791114814181961500,1.65696142578125,0.21389526413679122,-0.9664765494585037,0.34408377880007024
1791114814192032500,1.667032470703125,0.9577627893880009,-1.7128128029108047,0.3042166825097054
1791114814202102800,1.677102783203125,-0.04884937110394239,-1.3369289874851702,0.9293011764701455
1791114814212173600,1.687173583984375,-0.31715573212504383,-1.6019348456561564,0.36524500557668504
1791114814222244600,1.69724462890625,1.5435416933983563,-2.3265642942130564,0.11471877752654254
1791114814232315600,1.707315673828125,2.2703791733935472,-1.4450684596866368,0.16938677178137004
1791114814242386700,1.71738671875,1.872245824497938,-0.2632610603302717,0.03376622213199734
1791114814252456700,1.727456787109375,0.5511585492670535,0.34527591119408607,0.4207438246324658
1791114814262527500,1.737527587890625,-1.2919301543295383,0.5543792648792266,0.08664068403355776
1791114814272598500,1.7475986328125,-0.7206856793671846,0.30486499035060405,0.2522474988847971
1791114814282669600,1.757669677734375,-0.8846882008269429,-0.06877016936540603,-0.13516191916167736
1791114814292739600,1.767739501953125,-0.8274249293819069,-0.6562386338979005,-0.4256563657891005
1791114814302810400,1.777810302734375,0.9358025942534208,-1.3413041338294744,-0.1958432554218918
1791114814312881400,1.78788134765625,2.0098878700375558,-1.1088818638771771,-0.5607553757824003
1791114814322952400,1.797952392578125,2.879237924218178,-0.985249054467678,-0.5651565333507955
1791114814333023500,1.8080234375,1.358809979903698,-0.14970190116763113,-0.08522829648498445
1791114814343093800,1.81809375,0.2938379849016666,1.5838275265574455,1.0506895679537207
1791114814353164500,1.82816455078125,1.2990402785956858,1.471866450241208,1.204750760309398
1791114814363235600,1.838235595703125,0.9649448098465799,1.233990591058135,0.7409208042748272
1791114814373306600,1.848306640625,0.07052899573147296,1.4796931983441113,0.629435309581086
1791114814383377700,1.858377685546875,0.9045569766402244,1.260404550731182,0.21970541172027586
1791114814393447700,1.86844775390625,0.8320940902367234,1.0038701683074236,0.1884604151615873
1791114814403518500,1.8785185546875,1.7023410932570695,-0.4291764296740293,-0.672460431510955
1791114814413589500,1.888589599609375,1.498472717615962,-0.14070786285102366,-0.692563600602001
1791114814423660500,1.89866064453125,-0.25578560988307,-0.2973538840681314,0.07877599680675193
1791114814433731600,1.908731689453125,0.11847732634246348,0.13861644352972508,0.33882286259718236
1791114814443801600,1.918801513671875,1.4422966568857432,-0.02501519879102707,0.193832171327807
1791114814453872400,1.928872314453125,2.017700297354162,-0.29669629694223404,-0.5159778206946328
1791114814463943400,1.938943359375,0.4102075253099203,-0.4720990410774946,-0.34765129855591803
1791114814474014500,1.949014404296875,-0.6978975089758634,-0.3662339435487985,-0.5089908844167367
1791114814484084500,1.95908447265625,-1.7061983532071112,0.15639409228265286,-0.4641861125284806
1791114814494155500,1.969155517578125,-1.3195990824997423,0.08691606690883635,-1.0006670614171773
1791114814504226600,1.9792265625,0.8684820391744374,-0.9232236831873655,-1.21362920942232
1791114814514297600,1.989297607421875,1.4441186116158962,-0.5769634371310473,-0.6840934400290251
1791114814524368600,1.99936865234375,-1.2846172009676695,0.9112924223750829,-0.16134126636125146
1791114814534438700,2.009438720703125,-2.513088736343384,0.11604805336892604,0.00041534846839495
1791114814544509700,2.019509765625,-1.0393436327487229,-1.4181144017875194,-0.35094058589227495
1791114814554580500,2.02958056640625,-0.031712066081166265,-0.9807646025300025,-0.08931748376106843
1791114814564651500,2.039651611328125,-0.21327508641183376,0.28885668935775755,0.3278958103913814
1791114814574721500,2.049721435546875,0.2788718864381313,0.19271511346399783,0.22070242340099064
1791114814584792600,2.05979248046875,-0.03550006018728018,-0.5291232430696488,-0.37651853313259775
1791114814594863600,2.069863525390625,-0.8737439052253961,-0.5751607716232537,0.04492019669516012
1791114814604934400,2.079934326171875,-0.9557137479037046,-0.5282867922455072,-0.09604573257016018
1791114814615005400,2.09000537109375,1.0061568179398774,-0.8304992222607135,0.2914525145372376
1791114814625075500,2.100075439453125,1.0941969204425812,-0.3624181846529245,0.7655436427474022
1791114814635146500,2.110146484375,-2.1332862861692905,0.15322247650921345,0.682116586998105
1791114814645217500,2.120217529296875,-3.0415736815094947,0.12285714886188506,0.379230532037653
1791114814655288600,2.13028857421875,-2.5509692619264124,0.23556641319692134,0.6825143541440367
1791114814665359600,2.140359619140625,-0.7733645456314087,0.913905235221982,0.70389967200011
1791114814675429600,2.1504296875,2.024836725105345,0.6930424701601267,0.49402142495233564
1791114814685500700,2.160500732421875,2.1422329782128333,1.3471131123691797,0.9093943336687982
1791114814695571700,2.17057177734375,-0.8649106104284524,1.7334025864750147,1.80588987666741
1791114814705642500,2.180642578125,-2.4703368053317067,0.3428121514290571,2.1570308805026115
1791114814715713500,2.190713623046875,-0.9721943425834179,-0.853853794363141,1.789993365485966
1791114814725783600,2.200783447265625,1.8330641531884668,-0.981755951654911,1.7852742280095815
1791114814735854600,2.2108544921875,2.7945465476214886,0.7230775429397821,2.5434584479048845
1791114814745925600,2.220925537109375,2.9748423244953153,1.3513625865072012,2.3719325452029705
1791114814755996400,2.230996337890625,1.9099314120307564,0.9358066859066486,1.7158271822959184
1791114814766066400,2.24106640625,0.1483101545482874,0.588226589423418,1.7220330511987207
1791114814776137700,2.2511376953125,-1.2487754877358674,0.021211130332946776,1.3626532113283871
1791114814786208800,2.261208740234375,-0.697672468048334,-1.0025906498908996,0.7139998449277132
1791114814796279800,2.27127978515625,-0.7343862879395484,-1.4993781420230865,0.2677968771290034
1791114814806350800,2.281350830078125,-0.7409750186800956,-0.45110301479995246,0.24459055439084768
1791114814816421000,2.291421142578125,0.6882371157050132,-0.6085106680393219,0.039829540758952495
1791114814826492000,2.301491943359375,2.9298841156110167,-0.8284533956468105,-0.22417707724161445
1791114814836563000,2.31156298828125,2.652485808856785,-0.8125017932772636,-0.0010423486597836017
1791114814846634000,2.321634033203125,1.4076409385681152,-0.5724959363281726,0.274623142952472
1791114814856704000,2.3317041015625,1.1093439284309745,-1.028446391159296,-0.26546185831017793
1791114814866775000,2.341775146484375,0.2063923411607742,-0.5918751750588417,-0.34229813749231397
1791114814876845800,2.351845703125,1.0475623027786611,-0.31648470099568365,-0.40763438688628373
1791114814886916900,2.361916748046875,1.8209572435483334,-0.815798496735096,-0.896087692850083
1791114814896988000,2.37198779296875,1.6474126945003866,-0.6079127021461724,-1.2532910654641687
1791114814907058000,2.382057861328125,-0.006785714617371558,-0.10608604680299759,-0.9197219586767256
1791114814917129000,2.39212890625,0.9809756149321794,-1.1591250274270772,-0.08292443998940288
1791114814927199700,2.40219970703125,0.7834323506593703,-1.3680273055821657,-0.6779588097315281
1791114814937270800,2.412270751953125,-0.25590076069533824,-0.5791279216885566,-0.2890769810449332
1791114814947341800,2.422341796875,-0.9366495664715766,-1.3737597117543219,-0.262216592778638
1791114814957412000,2.432412109375,-1.1974947978317736,-1.0821703825622797,-0.6173199243735522
1791114814967483000,2.44248291015625,-0.49587739154994487,-0.6301788944900035,-1.4404644730225205
1791114814977554000,2.452553955078125,0.5466898794203996,-0.18705811061561106,-1.8434370786428451
1791114814987625000,2.462625,1.2730711400806902,0.30124855341911316,-2.177300638332218
1791114814997695000,2.472695068359375,0.19296791918128728,0.6177601424217224,-1.9435881824389099
1791114815007766000,2.48276611328125,-1.0721242048442363,0.1694716005206108,-1.3127081539422274
1791114815017836800,2.4928369140625,-0.8626397428870201,-0.8628934253871441,-1.2525522297956049
1791114815027907800,2.502907958984375,0.314180807967484,-0.1781377220571041,-1.0093709576807917
1791114815037979000,2.512978759765625,1.9870985306024551,-0.048211365461349485,-0.741947955365479
1791114815048049000,2.523048828125,-0.4439052122503519,0.6865373260498047,-0.7695609886299818
1791114815058120000,2.533119873046875,-1.6203896630182861,-0.20467092419564722,-0.38691936950720845
1791114815068190700,2.543190673828125,-2.3385092912897467,-0.5571405462861061,-0.2103530614852905
1791114815078261800,2.55326171875,0.15857757380157708,-1.3897142367333173,-0.34789573830366133
1791114815088332000,2.56333203125,2.135092751069367,-0.6970259868383407,-0.4774579377621412
1791114815098403000,2.573403076171875,2.8553587437197563,0.7231143678188323,-0.2603911309171468
1791114815108474000,2.58347412109375,2.2965394505664705,1.565476461830735,0.6077577307801694
1791114815118545000,2.593544921875,0.9210974848136305,1.4553770877331493,-0.4583071740251034
1791114815128616000,2.603615966796875,-0.402658425104618,0.7559440397530793,-0.2656458365749568
1791114815138686000,2.61368603515625,-1.4016297154545783,0.14058686681985855,0.27089754655808207
1791114815148757000,2.623757080078125,-2.225113213734329,-0.7695645688265561,-0.10256404668930917
1791114815158828000,2.633828125,-2.2272972797751427,-0.15823299814760683,-0.20107092694230377
1791114815168898800,2.64389892578125,-0.3588733516529202,0.26656594709455966,-0.4911123691052198
1791114815178969900,2.653969970703125,1.0055503764793277,0.5733183586269617,-0.2826495418133214
1791114815189039900,2.664039794921875,0.0871142198294401,0.8875438825190066,-0.30439302545730024
1791114815199111000,2.67411083984375,-0.19579232895225285,1.1216454838603733,0.3184893188163638
1791114815209182000,2.684181884765625,0.07703355531990527,0.6044289516836404,0.2702705372335389
1791114815219252700,2.694252685546875,0.3815402337521314,-0.02093815861046314,0.2369440947582945
1791114815229323000,2.704322998046875,-0.07946984255611896,-0.6857184108823537,0.5515476216498763
1791114815239394000,2.71439404296875,-1.2170575764358043,-0.6629764177203178,0.4702100124605
1791114815249465000,2.724465087890625,-2.4000100541740657,-0.3743617204248905,0.8900968549374491
1791114815259536100,2.7345361328125,-0.0006628478229045867,-1.1765934641003608,0.18152016756962983
1791114815269607000,2.74460693359375,3.6513375644803046,-1.3278069388747213,-0.4127474190510809
1791114815279677000,2.754677001953125,1.3846546152561903,-0.13208148880302906,-0.9923237420942633
1791114815289748000,2.764748046875,-1.7550334035247563,0.4079372422903776,-0.6254262200701981
1791114815299819000,2.774819091796875,-1.4245648931011556,-0.6836521260023116,-1.4350922784648834
1791114815309890000,2.78489013671875,0.8556617205679417,-0.8478221129834651,-1.7215312391564248
1791114815319959800,2.794959716796875,2.1219576674252747,-0.3570341535270214,-1.511714184243977
1791114815330030800,2.80503076171875,1.4178531205028295,0.25627485470473765,-0.860921102400869
1791114815340102000,2.815101806640625,-0.9593892215460539,0.7522960386395454,-0.694487481336668
1791114815350173000,2.8251728515625,-3.2926708413153887,0.4527443522661924,-0.5017146463360637
1791114815360244000,2.835243896484375,-0.11532733787894248,-1.0077589924395083,-1.0155405131611972
1791114815370314000,2.84531396484375,1.1408195554077625,-0.9160317258566617,-1.6124403114490211
1791114815380385000,2.855385009765625,1.2267214768379926,0.832499456167221,-1.7067023572064934
1791114815390456000,2.8654560546875,0.24406185434162617,1.2634066551566123,-2.545391754055023
1791114815400527000,2.875527099609375,-0.7347568748176098,0.6717629507660865,-2.0059331410624086
1791114815410596900,2.885596923828125,-0.9146580994158983,0.42726212048530576,-1.791539718145132
1791114815420668000,2.89566796875,0.8743044617176056,0.3046913873493671,-2.080521056795865
1791114815430739000,2.905739013671875,0.3222200297772884,1.5903730026781557,-1.4198751278497277
1791114815440810000,2.91581005859375,-0.4909855278551578,1.880250267255306,-0.6126899264853447
1791114815450881000,2.925881103515625,0.33083588243126866,0.69506900755167,-0.3685160631366074
1791114815460950800,2.93595068359375,-0.8672387611150741,-0.257449159181118,-0.5428098596492782
1791114815471021800,2.946021728515625,-0.6170736214622855,-0.7410065828621387,-0.12668222357537598
1791114815481092900,2.9560927734375,-1.9005638642266391,-0.500302806776762,-0.7237154755171388
1791114815491164000,2.966163818359375,-2.1858795199766754,-0.8959183276325464,0.0989126480422914
1791114815501234000,2.97623388671875,-3.4551150274172424,-1.2570067249864338,0.552826044087857
1791114815511305000,2.986304931640625,-2.2428552066519853,-0.6603770488768815,0.64458808972314
1791114815521376000,2.9963759765625,2.009921772307157,-1.0604325980067253,0.7827735214244573
1791114815531447000,3.006447021484375,2.7661569039613005,0.3381166870892048,1.013776791424304
1791114815541518000,3.01651806640625,0.8945306726664304,1.1320365294933319,0.932278365650028
1791114815551587800,3.026587890625,1.2911851811811328,0.24287235229611395,0.892731148963794
1791114815561659000,3.036658935546875,1.4074910087034105,-0.19269523971974847,0.5529156951326877
1791114815571730000,3.04672998046875,1.521343013332784,-0.29391455726921556,0.29090156612358986
1791114815581801000,3.056801025390625,1.771888092213869,-0.05037994167208671,-0.09195705675072967
1791114815591872000,3.0668720703125,-0.7490916896402835,0.9952116455554961,0.21955869672596454
1791114815601941800,3.076941650390625,-0.3153808314070105,0.9201619575291872,0.7309213152427226
1791114815612012800,3.0870126953125,1.4514385792404412,-0.8685410758852958,0.3044703650098294
1791114815622083800,3.097083740234375,-0.4486889393955469,-0.759516053020954,0.7452018425948918
1791114815632155000,3.10715478515625,-1.1874240701943635,-0.32567923032045365,0.7358413090534508
1791114815642225200,3.11722509765625,-0.13726736700832842,0.11090718334913253,1.6012660064838826
1791114815652296000,3.1272958984375,1.4347089782357214,-0.7068962234675884,1.7385102848775684
1791114815662367000,3.137366943359375,0.5508212801367044,-0.1001858828485012,1.701643612512201
1791114815672438000,3.14743798828125,-0.13984101688861847,1.1570002903580665,1.1682171192906796
1791114815682509000,3.157509033203125,0.7784861264288425,1.4494336691588163,0.7916063778299838
1791114815692579000,3.1675791015625,0.3725269062131643,0.8371084112673998,0.8740629080466925
1791114815702649900,3.17764990234375,-1.5382704749971627,0.08110065862834454,-0.010187869477365165
1791114815712721000,3.187720947265625,-1.6329332105100154,-0.7646762122631072,-0.08865439847614616
1791114815722792000,3.1977919921875,-2.0697399889320134,-0.2929115177065134,0.2666321624648757
1791114815732862000,3.207862060546875,-0.7451002819165587,0.27237843276560303,0.24358225413113832
1791114815742933000,3.21793310546875,0.2989107581213116,-0.22698095568120477,-0.6965668448939919
1791114815753003800,3.228003662109375,1.0469853796735404,-0.6952268284618854,-0.5774874610051512
1791114815763074800,3.23807470703125,1.898704792356491,-0.4557371043413877,-0.6899968919191509
1791114815773145600,3.2481455078125,2.19685567202121,0.4173351852327585,-0.15173627480575813
1791114815783215900,3.2582158203125,2.34779091437608,-0.1974608466863632,-0.11941036027572118
1791114815793287000,3.268286865234375,2.0070576150476933,-1.395712600365281,-0.7550047861415893
1791114815803357700,3.278357666015625,0.1347138831332326,-1.32394909440279,-0.46621170007195323
1791114815813428700,3.2884287109375,-2.3917630348324774,-0.1977887634664774,-0.06761299868691713
1791114815823498800,3.298498779296875,-1.4468652799755335,-0.9867997910410166,-0.3289094444133341
1791114815833569800,3.30856982421875,1.3798907618552445,-0.636052754959464,-0.8623971663028002
1791114815843640800,3.318640869140625,-0.6548480563223361,1.7679945919066666,-0.565688375205174
1791114815853711600,3.328711669921875,-0.6666214962244034,1.0643149923980235,-0.5259424941416829
1791114815863782700,3.33878271484375,-1.6326958946228027,-0.450911876142025,-0.7678779309138655
1791114815873852700,3.348852783203125,-2.125634894633293,-0.7065987018257379,-0.7970634011268615
1791114815883923700,3.358923828125,-1.7690251039981841,0.21141513775885104,-0.42895453055165705
1791114815893994800,3.368994873046875,-0.46894788357019423,0.4912047235637903,-0.24042616472039371
1791114815904065500,3.3790654296875,1.1243515279486775,0.2015221047759056,0.15191873696688563
1791114815914135800,3.3891357421875,1.7101912222355604,-0.3818821790575981,0.5283826538354158
1791114815924206800,3.399206787109375,0.3323603155195713,0.7149673017203807,1.0142325723677874
1791114815934278000,3.40927783203125,-0.9204501268208026,1.018649219766259,0.6973842256914824
1791114815944349000,3.419348876953125,0.6386074078783393,-0.11005261234641074,0.4636071801293641
1791114815954419700,3.429419677734375,-0.48296442622393365,-0.4008370548963546,0.795649881067127
1791114815964489700,3.43948974609375,-1.1635896056205033,-0.2139882031172514,1.2204363321539013
1791114815974560800,3.449560791015625,0.3793599671036005,-0.27041911539137364,0.5222376482743769
1791114815984631800,3.4596318359375,0.9343085563033818,0.04756839138269424,0.1693344570722431
1791114815994702800,3.469702880859375,-0.6481085189342498,0.6552174741566181,0.5790950423322617
1791114816004772600,3.479772705078125,-1.2570967413574456,0.6794938372790813,0.38966373631190504
1791114816014843600,3.48984375,1.1499822282895444,0.12023790627419947,-0.2056954814704135
1791114816024914700,3.499914794921875,3.374685107657313,-1.4589315653443335,-0.424456707675755
1791114816034985700,3.50998583984375,1.91742206004709,-0.4247761488884687,0.38642950363103296
1791114816045056800,3.520056884765625,-2.1030799484759566,1.3262836748301983,0.54614031924624
1791114816055126800,3.530126708984375,-0.0374140771150589,-1.0122919596940279,0.3708402683004737
1791114816065197800,3.54019775390625,-0.28060324027538297,-1.5299433761566876,-0.22211729516759512
1791114816075268900,3.550268798828125,-1.7497309132024645,-0.15848843421339986,0.6010950945531949
1791114816085340000,3.56033984375,-0.8016822930991649,-0.16145838993489742,0.5526285487543792
1791114816095409700,3.57040966796875,0.42028818981945515,0.00367255103290081,0.4572197075819596
1791114816105480700,3.580480712890625,0.521131075271964,0.5200123003751039,0.7420595259811729
1791114816115551700,3.5905517578125,3.678560502448678,-0.09147124599516392,0.9246820653021335
1791114816125622800,3.600622802734375,3.6978432950675484,0.1332300743162632,0.5513916273705661
1791114816135692500,3.610692626953125,1.2986527405828237,0.9065881902068853,1.2481021185189485
1791114816145763600,3.620763671875,-0.41655367946624755,0.022144027268886566,1.6170274931088089
1791114816155834600,3.630834716796875,-0.6631126113206148,-1.7606529969722031,0.9668335462026297
1791114816165905700,3.64090576171875,0.5024000713169574,-1.7319085485249757,0.8323329404938965
1791114816175976700,3.650976806640625,2.242697678002715,-1.8955425289332866,0.9184881060328334
1791114816186046700,3.661046630859375,-0.06713818424940109,-1.00691669639647,1.5885152459822593
1791114816196117800,3.67111767578125,-3.0317563441112636,-1.1766074926257133,2.199313148175925
1791114816206188800,3.681188720703125,-3.0423312218785283,-1.7684943581223487,2.553534143978357
1791114816216259800,3.691259765625,-0.7293494628161191,-1.7756810547560453,1.9345489898063242
1791114816226329900,3.701329833984375,3.495418103972077,0.19861060124337673,0.9183065389208495
1791114816236400600,3.711400634765625,4.658047047866881,2.4141806183457373,1.277787501078099
1791114816246471700,3.7214716796875,2.957369211646914,2.8161317719638346,0.21300459890738127
1791114816256542700,3.731542724609375,0.6866530613839625,1.2414981902092694,0.3520613335505128
1791114816266613800,3.74161376953125,-1.723763235992193,-0.7541700158178806,0.4569015450108796
1791114816276683800,3.751683837890625,-2.0519453890442847,-2.1053093149632214,0.2928482432119548
1791114816286754600,3.761754638671875,-1.9621359387814998,-1.3177607611566782,0.8291231116019189
1791114816296825600,3.77182568359375,-0.484858569407463,0.383581384190917,0.31030075166374443
1791114816306896600,3.781896728515625,0.6023325639262795,0.932247532120347,0.455009739914909
1791114816316966700,3.791966552734375,0.7236378071710466,1.1404986528903245,0.45957763235233723
1791114816327037700,3.80203759765625,0.09802110603004693,1.1519371617496013,0.7598574138045311
1791114816337108700,3.812108642578125,-0.30402561691701413,0.42622751674056053,1.0003861255839466
1791114816347179800,3.8221796875,-1.619599097162485,-0.27830431568324565,0.7099430438175797
1791114816357250800,3.832250732421875,-1.8165929108589887,0.09084931470453739,0.8891017794854938
1791114816367320800,3.84232080078125,-0.9682447281748056,-0.3824491652905941,0.8517131290726363
1791114816377391900,3.852391845703125,0.45028994485139845,-0.6021785424083471,0.8063723506115377
1791114816387462700,3.862462646484375,-0.18377046724706886,-0.18139292446076868,0.5231463606171309
1791114816397533700,3.87253369140625,-1.7232283984631298,0.5929799214303493,1.2900266587957738
1791114816407603700,3.882603759765625,-2.1769757902920244,-0.9168997408628463,0.7380063781328499
1791114816417674800,3.8926748046875,-1.6043056664407251,-1.535545433947444,0.2998968465492129
1791114816427745800,3.902745849609375,-0.5561573804676533,-0.4855594111531973,0.7045518522985279
1791114816437816600,3.912816650390625,2.1424697095781564,0.2902665561556816,0.25749957419410346
1791114816447887600,3.9228876953125,3.9501188510030505,0.3441641505599022,-0.2875130196638405
1791114816457957600,3.93295751953125,1.8709765352144836,0.3654565294355154,-0.16698752861991523
1791114816468028700,3.943028564453125,-1.1464829879969358,-0.28019115234315395,0.05448635407760739
1791114816478099700,3.953099609375,-2.6495047472193836,-2.1263521029919383,-0.8342159046962857
1791114816488170500,3.96317041015625,-2.761583312435448,-3.6662124775290486,-1.006098804142326
1791114816498240800,3.97324072265625,2.2358871212050317,-2.0769500664412974,-1.8377724770098924
1791114816508311800,3.983311767578125,2.7803967339769002,0.37032910390794277,-1.763716622326523
1791114816518382800,3.9933828125,6.3398495032250874,0.33281331998407837,-1.497015066153556
1791114816528454000,4.003453857421875,-3.436765423995256,0.953407809048891,-0.8134748760931193
1791114816538523600,4.013523681640625,-9.276337839406729,-0.42210079219937324,-0.6108924486093222
1791114816548594700,4.0235947265625,-7.34021604732573,-3.022714667260647,-1.560191214904189
1791114816558665700,4.033665771484375,0.5140723889321088,-3.0286364585250616,-2.5028648639708755
1791114816568736800,4.04373681640625,8.311215627166629,0.4814747721880674,-1.5093088766679166
1791114816578807800,4.053807861328125,13.581712143826485,5.458606766676902,-1.201424684626609
1791114816588877600,4.063877685546875,10.213175621926784,5.997871464532613,-1.3064432483285664
1791114816598948600,4.073948486328125,-7.152160742366314,2.500634912961721,2.2443159268543122
1791114816609019600,4.08401953125,-16.391436386835576,-1.9394354466736317,2.780214655408263
1791114816619090700,4.094090576171875,-10.122298834693432,-5.448790306061506,-2.891593255661428
1791114816629160700,4.10416064453125,5.913196454548835,-4.8539469288468355,-4.9718712974816555
1791114816639231700,4.114231689453125,9.552774607652426,0.9690303255945444,-2.1555957331329583
1791114816649302800,4.124302734375,4.219505408476293,6.47653234834373,0.7847988167069851
1791114816659373800,4.134373779296875,-3.2287416822403667,4.8110184722244735,0.15006993076242506
1791114816669444900,4.14444482421875,-4.101243478450179,-1.0829255848437547,-0.6763481596644967
1791114816679514600,4.1545146484375,0.06676905867606402,-4.431500099688768,0.4012335434006527
1791114816689585700,4.164585693359375,2.4600533117264507,-2.264575747811794,-0.7273479137353599
1791114816699656700,4.17465673828125,-0.5155407079190015,2.6272557982712983,-1.2173515909463166
1791114816709727700,4.184727783203125,-0.8176374026000499,2.6986434566587207,-0.03176306561604142
1791114816719797500,4.194797607421875,1.8290239378869533,0.4756704698234796,-0.59149476090651
1791114816729868500,4.20486865234375,1.5719921273350714,-1.4815075542896985,-1.0005147203996776
1791114816739939600,4.214939697265625,-0.6231999953880906,-0.9925701911360025,-0.5644253695320338
1791114816750010600,4.2250107421875,-2.0933131722211837,0.7298837158232927,0.7035125723786652
1791114816760081700,4.23508154296875,-1.9164108371779323,0.6575649140655994,1.2051418054535985
1791114816770151700,4.245151611328125,2.5824258919417855,-1.478105052369833,0.7262276775337755
1791114816780223000,4.255222900390625,5.314608630108833,-1.3829893123924732,0.2734530214608647
1791114816790294000,4.2652939453125,0.6497387504845857,1.5938053152143954,0.16939550307709722
1791114816800365000,4.275364990234375,-2.613018598604202,2.1146265938848257,0.9886962723121047
1791114816810434800,4.285434814453125,1.1778285588532686,-0.8448913202285766,0.5696218421965837
1791114816820505900,4.295505859375,0.9645312606096267,-0.49306291865110397,0.43048685468547043
1791114816830577000,4.305576904296875,0.42470279139131306,-1.2475690345555543,0.9779637928303331
1791114816840648000,4.31564794921875,2.7343475149855014,-2.2510908278167245,0.9671681119192391
1791114816850718000,4.325718017578125,-0.5598696789890527,-0.8015221341013908,0.9966843484565615
1791114816860788700,4.335788818359375,-5.279218167775869,1.1567957076966762,1.9618588754057884
1791114816870859800,4.34585986328125,-4.123257157337665,0.9368921430557966,2.0016813288368285
1791114816880930800,4.355930908203125,3.3494226561069484,-0.12419628851115704,0.9956215415306389
1791114816891001900,4.366001953125,4.79310229178369,2.1333944227188826,1.6885113053470848
1791114816901072100,4.376072021484375,2.4556466012001037,1.3770435557305811,1.9483045434363184
1791114816911143000,4.386142822265625,2.033068839138746,-1.5309154360592365,0.35657621715907006
1791114816921214000,4.3962138671875,-1.3898936849534511,-0.714338356167078,-0.4482347658872604
1791114816931285000,4.406284912109375,-3.3492107669219373,0.6214058054476976,-0.9960271997220813
1791114816941355000,4.41635498046875,-1.0212556028723716,-0.15766016669571398,-1.05259971242398
1791114816951426000,4.426426025390625,1.3502043563827872,-0.939573344963789,-1.2714374013990164
1791114816961496800,4.436496826171875,0.23386837710738181,-0.8728542629092931,-0.8347655744682997
1791114816971567900,4.44656787109375,-2.375442599150538,0.81998718059659,-0.18581872328007593
1791114816981639000,4.456638916015625,-2.136938963457942,0.627249855300784,-0.0044725605704821645
1791114816991709000,4.466708984375,1.591907372638583,-0.991166754078865,-0.5113034356754272
1791114817001780000,4.476780029296875,3.0214129370123146,-0.801124659216404,-0.7640696977373213
1791114817011850800,4.486850830078125,0.7343097155719995,1.1360539484411478,0.33632034172434355
1791114817021921800,4.496921875,-0.45892508672773835,1.0547393548011779,-0.11071270195664837
1791114817031992000,4.506991943359375,-1.3782882950946689,0.5524374831616878,-0.15700327368956057
1791114817042063000,4.51706298828125,-1.4170853510007262,-0.3862865514963865,-0.7649855704732239
1791114817052134100,4.527134033203125,0.7919365596324205,-1.542281464204192,-1.0509115401413291
1791114817062205000,4.537204833984375,0.28324761730432507,-0.7928519209116697,-0.8493504915945231
1791114817072275000,4.54727490234375,-0.16463234379589556,0.7097609652489424,-0.2632570234759711
1791114817082346000,4.557345947265625,-0.24544366408884524,0.8224982866346836,0.0915731354670599
1791114817092417000,4.5674169921875,0.6247352421313523,0.3306611103862524,-0.08753127619773149
1791114817102488000,4.577488037109375,0.3477735732287168,0.600433160045743,0.17569739796658976
1791114817112558800,4.587558837890625,0.49714171239733695,1.0511983211934566,0.1192189932889305
1791114817122628900,4.59762890625,-0.24686259097605942,0.8121218540489673,0.19655012504961342
1791114817132700000,4.607699951171875,-0.7491808292284607,-0.0075134443700313564,0.16128093274245037
1791114817142771000,4.61777099609375,0.4839239189058542,-1.1781453697174786,-0.40079847645163535
1791114817152841700,4.627841796875,0.870258401197195,-0.9114216017127037,0.010638718517404049
1791114817162912000,4.637912109375,-2.1196423762202263,0.5340273817241191,0.5674344516875222
1791114817172983000,4.647983154296875,-3.5942297758579254,0.41662557565867897,0.8324455340228974
1791114817183054000,4.65805419921875,-3.124408908845484,-0.4373597361296415,0.06322038975115865
1791114817193125000,4.668125,-1.359363522133231,-0.7685328876912594,-0.47836358136497437
1791114817203196000,4.67819580078125,0.7217372342467308,-0.08654255742132663,-0.784146855604276
1791114817213266000,4.688265869140625,2.0650135449320075,0.39846681863367556,-0.7384870743218809
1791114817223337000,4.6983369140625,2.373165886390209,0.45292204692065713,-0.22636633091419933
1791114817233408000,4.708407958984375,2.113590821096301,-0.3719873925089836,-0.3799360134258866
1791114817243479000,4.71847900390625,-0.2667342893987894,0.22409809372127054,-0.24808489931263028
1791114817253548800,4.728548828125,-1.6522881915822625,-0.5666729292631149,0.1536879020638764
1791114817263619800,4.738619873046875,0.5791062943786383,-0.9479875375658273,0.007635426781885325
1791114817273691000,4.74869091796875,0.3296457958638668,-0.14377484920620917,0.3074199355304241
1791114817283762000,4.758761962890625,-0.38041502911448477,-0.11595920604169369,0.9402214336089789
1791114817293832000,4.76883203125,-1.2229080560296772,-0.22385785522460935,1.4045849119983613
1791114817303903000,4.778903076171875,-1.2715598587349057,-0.05509995593130588,1.4785660940103231
1791114817313974000,4.78897412109375,0.7440630478233099,-0.23798867190778253,1.5368594391554593
1791114817324045000,4.799045166015625,3.742219027888775,0.22766952246725558,0.8680521963898092
1791114817334116000,4.8091162109375,3.0099861185908314,0.7274737320721149,0.5614056198520585
1791114817344185900,4.819185791015625,-0.18361703025102613,1.159636484080553,1.273941931565851
1791114817354257000,4.8292568359375,-1.211241291372478,-0.02697276259958744,1.4861428128749132
1791114817364328000,4.839327880859375,-0.3971960680454969,-0.6557862139552831,1.0595240317944437
1791114817374399000,4.84939892578125,1.4026798090294004,-0.8018184866994619,0.16297635674979538
1791114817384469000,4.859468994140625,0.8581313255518674,0.0756996763676405,-0.05653674726877361
1791114817394539800,4.869539794921875,-0.9937731371849775,0.5245096117943525,0.9922568874031304
1791114817404610800,4.87961083984375,-1.5314549497634171,-0.9554419452250004,0.5070073093840852
1791114817414681900,4.889681884765625,-0.2451847208917141,-1.5489982052385807,-0.16122655394040047
1791114817424751900,4.899751953125,1.7043725990846752,-0.6711024410307407,-0.21166158680059013
1791114817434823000,4.909822998046875,2.2955630067497492,0.6445932042896747,-0.19664003182277082
1791114817444894000,4.91989404296875,0.4068190519154072,0.9657985040664673,-0.2279633177820593
1791114817454965000,4.929965087890625,-1.1785650564342736,0.4598737657546997,0.48485042263362554
1791114817465036000,4.9400361328125,1.0701415065944193,-1.240031040266156,-0.4253033145677298
1791114817475106000,4.95010595703125,2.7754502174854276,-0.9611217444270849,-0.676333327421546
1791114817485177000,4.960177001953125,2.2406194104239345,0.24838439371585844,-0.30980474830772725
1791114817495248000,4.970247802734375,1.8378350208520888,0.5178583372116089,-0.013839505586400628
1791114817505319000,4.98031884765625,-0.23630992504060266,-0.3466466150254011,0.09818166688662022
1791114817515389000,4.990388916015625,-2.4722937846183775,-0.3442839775472879,-0.4659419066872447
1791114817525460000,5.0004599609375,-1.1760986663207411,-0.8547685711205005,-0.5461683397643268
1791114817535530800,5.01053076171875,0.3548664540991187,-0.4863590370982885,-1.3788105654031038
1791114817545601800,5.020601806640625,0.9253688785225153,0.24939094040989873,-0.279526112563163
1791114817555671800,5.030671875,-0.05426642771661281,1.0782406418979167,0.632800548230484
1791114817565742800,5.040742919921875,-1.26389589997828,0.21300620634257791,-0.16759068214483558
1791114817575814000,5.05081396484375,-0.875418852700293,-0.49425826591551303,0.5183707071805372
1791114817585885000,5.060885009765625,-1.5090607471257447,-0.9918687648683786,0.47778223781306295
1791114817595956000,5.0709560546875,-1.4917396099686622,-1.0799059447616337,0.634775647695735
1791114817606026000,5.08102587890625,-0.46686406303346156,-0.9897568872809409,0.9023246875435114
1791114817616097000,5.091096923828125,0.45485038463473315,0.0206786308914423,0.8186212990708649
1791114817626168000,5.10116796875,0.46138767744898795,0.6484598165899514,0.4847587988274172
1791114817636238800,5.11123876953125,1.077555874504149,0.6748404585152864,0.4735459884827956
1791114817646308900,5.121308837890625,1.3935989692121744,0.6005483108580112,0.4026879434600472
1791114817656380000,5.1313798828125,-0.40653088262379167,1.233994098189473,0.14687478798292578
1791114817666451000,5.141450927734375,-0.6197077693581581,0.35941081953048704,0.3131911393430084
1791114817676522000,5.15152197265625,-0.042483050942420955,-0.7697329111307859,0.5634173615332693
1791114817686591700,5.161591796875,-1.4938444732934235,-0.9318792833298444,0.8982392448607832
1791114817696662800,5.171662841796875,-0.6966419559568167,-0.7444681214928627,1.2190510883405803
1791114817706733800,5.18173388671875,-0.12992138815969229,-0.22185528323054313,1.40601859806329
1791114817716804900,5.191804931640625,-1.3191107144609093,0.49707156977057454,1.35253016898185
1791114817726876000,5.2018759765625,-1.15356213260293,0.20723463720381258,1.331575059236586
1791114817736946000,5.21194580078125,-0.8773290702357888,-0.13787585429549215,0.48330870961695904
1791114817747017000,5.222016845703125,-0.45388066281974315,-0.4892167646169662,0.5450538026511669
1791114817757088000,5.232087890625,-0.5930675997138023,-0.33427170209884643,0.683864672774449
1791114817767159000,5.242158935546875,-0.42754532134085893,0.25433599559664727,0.9247660172585398
1791114817777228800,5.252228759765625,-0.45672436181306836,0.8358966973900794,1.5032310180589556
1791114817787299800,5.2622998046875,-0.01768704786002636,0.5790151089638471,1.2040325290374456
1791114817797371000,5.272370849609375,0.6072317341446876,0.08955810585021973,0.8256842231944203
1791114817807442000,5.28244189453125,1.5117954327866434,-0.05854337438344955,0.2514166740838438
1791114817817512000,5.292511962890625,-0.2005897923618555,-0.5902525422930717,0.48768005656898017
1791114817827582700,5.302582763671875,-9.391395712694525,-0.8070797682285309,1.8338763463541865
1791114817837653800,5.31265380859375,-6.463323907202482,-2.1247662951052186,1.3576301224693654
1791114817847724800,5.322724853515625,4.533476665346324,-1.43064596658051,-0.7816321693696081
1791114817857795800,5.3327958984375,19.693879849624633,0.17440204266011713,-2.2087784572660922
1791114817867866000,5.3428662109375,19.303726685827968,5.081014393767714,-1.7635684460274874
1791114817877937000,5.35293701171875,-4.960806882631778,7.267806060153245,2.0319111935362217
1791114817888008000,5.363008056640625,-23.335140256726742,2.2511235610425473,4.953330847662687
1791114817898079000,5.373078857421875,-17.780171549403665,-6.021071138334274,1.1516174282759428
1791114817908149000,5.38314892578125,4.012031994080544,-9.424691248574852,-4.060651063559949
1791114817918219800,5.3932197265625,15.246619870746136,-4.097109155124426,-2.843555493201315
1791114817928290800,5.403290771484375,6.664736121863126,7.099009582415222,0.10644852343983947
1791114817938361900,5.41336181640625,-4.088156033340097,8.241793131372333,0.42626543759815394
1791114817948432000,5.423431884765625,-5.357552284300327,-0.7113391743510961,1.2985881509140134
1791114817958503000,5.4335029296875,-1.9260247609585524,-5.819169094330072,1.3490129546411336
1791114817968573700,5.44357373046875,0.8235127243742346,-3.1792204032242295,0.07064553478322923
1791114817978644700,5.453644775390625,3.761448629015684,0.9406745842039584,-0.03487242980822921
1791114817988715800,5.4637158203125,0.4065390659302473,3.390987423160672,0.1126439440138638
1791114817998786000,5.4737861328125,1.12001057613492,0.005194061511754989,-1.1732490490432828
1791114818008857000,5.483857177734375,1.9585738623857496,-1.698011539620161,-0.8960323824662715
1791114818018927900,5.493927978515625,-0.27317776644974945,-0.5065267958581448,-0.2943414774443954
1791114818028999000,5.5039990234375,-3.0279034680753942,0.38926352148056026,-0.6302662805125117
1791114818039069000,5.51406884765625,-0.7707692684412002,-2.7013971392810343,-0.7736727347977459
1791114818049140000,5.524139892578125,0.8891291058838366,-2.71291163598597,-0.5813980585776269
1791114818059211000,5.5342109375,0.11883037756383419,-0.2523556354343891,0.7043988536939024
1791114818069281800,5.54428173828125,-0.15590601650476454,0.8293670033603906,0.20833806840106844
1791114818079351800,5.554351806640625,1.1021627847552298,0.6614017157495021,-0.23493980573117731
1791114818089422800,5.5644228515625,1.2123849084496496,-0.12554711859822273,-0.15232823108322918
1791114818099494000,5.574493896484375,1.7978098844558,-0.06890460940003394,0.20699702905565498
1791114818109565000,5.58456494140625,4.127149780862033,-1.2154267603635787,0.42375002071112394
1791114818119635000,5.594635009765625,1.8507956247121096,-0.36618016753494737,0.24455855181738734
1791114818129706000,5.6047060546875,-4.486336143986881,0.2610574128061533,1.9453489085011184
1791114818139777000,5.614777099609375,-6.097921738302707,0.6371387966305017,1.5264426745593547
1791114818149848000,5.62484814453125,-3.265385067243874,1.4138538217335939,-0.5109394977338612
1791114818159919000,5.634919189453125,1.6880658996671438,1.7751596612304448,-0.47223370030783113
1791114818169988900,5.64498876953125,4.862534724450111,-0.8819804031729698,0.3364900357354432
1791114818180060000,5.655059814453125,4.271316551995277,-1.5138170017421244,1.3464534794166683
1791114818190131000,5.665130859375,0.13610183036029339,-0.9814835644543171,1.4038818782955407
1791114818200202000,5.675201904296875,-4.688569904163479,1.3773919307768343,1.3807391953781247
1791114818210271700,5.685271728515625,-4.361449242863059,0.3159071933686733,-0.36248956938870247
1791114818220342800,5.6953427734375,-0.5647545284211635,-1.3654004642099142,-2.3030688523352145
1791114818230413800,5.705413818359375,2.3261457765400406,-1.2250298704892397,-1.4485294137954712
1791114818240484900,5.71548486328125,2.572691848912835,1.1613497177392245,0.08428703357949853
1791114818250555100,5.72555517578125,2.718548180568218,1.7507430128544568,0.5361949350215495
1791114818260626000,5.7356259765625,-1.823580285528302,2.221138757145405,0.5466038085721433
1791114818270697000,5.745697021484375,-2.2209975951090453,-0.2777075188338756,0.22093816838562488
1791114818280768000,5.75576806640625,0.2977244709461927,-1.7926672608703373,-0.9675346802093088
1791114818290839000,5.765839111328125,-2.4291171984538433,0.31779695263803004,-1.3643141302779316
1791114818300908800,5.77590869140625,-2.314291672617197,-0.2675461903035641,0.42080739138796924
1791114818310979800,5.785979736328125,2.6905513356179,-2.4543261662513016,0.5209003352560103
1791114818321051000,5.79605078125,1.5462795939296483,-0.49785073744952674,1.3441561622597276
1791114818331122000,5.806121826171875,-0.7885743897229432,0.587404167124629,1.9979466723531483
1791114818341192000,5.81619189453125,1.1922510519593954,0.07038929499983787,1.433986509180069
1791114818351262700,5.8262626953125,0.31897768685519695,0.2794873879879713,1.105478850500658
1791114818361333800,5.836333740234375,-1.4099182358503342,-0.13121347379684448,1.0701708788193762
1791114818371404800,5.84640478515625,-0.041296471506357194,-0.8361404430180788,2.158674117664993
1791114818381475000,5.85647509765625,0.1229208617478609,0.4057715886890888,2.4396748328253626
1791114818391546000,5.866546142578125,-0.5773270097464323,1.1306184793889522,2.4326135161370037
1791114818401617000,5.876616943359375,0.2046855372428894,0.02177168682515621,0.9249497032623738
1791114818411688000,5.88668798828125,0.7999322345614432,0.09990122068822384,-0.23212913222461937
1791114818421759000,5.896759033203125,0.061437926781177515,0.7708756514251232,-0.06803966313377022
1791114818431829000,5.9068291015625,0.5198503878116607,0.7650923918485641,-0.2432445466093719
1791114818441900000,5.916900146484375,0.22635025656223295,0.568153523209691,-0.36183147080615163
1791114818451970800,5.926970703125,-1.7104507499545811,0.37786417558789254,-0.014726955945417284
1791114818462041900,5.937041748046875,-2.247326506847143,-0.5372551115989684,-0.5278079226873815
1791114818472111900,5.94711181640625,-1.355887370455265,-0.290366509398818,-0.8903126896452158
1791114818482183000,5.957182861328125,0.03818096983432769,-0.5683358940392732,-1.0461137844707815
1791114818492254000,5.96725390625,0.8930366347163915,-0.9703063368797301,-0.05029540519379079
1791114818502324700,5.97732470703125,0.35857846035957336,0.03120645464658737,0.20062471754476427
1791114818512395000,5.98739501953125,-0.16212766749858856,0.4066343429982662,0.8581604785811155
1791114818522466000,5.997466064453125,0.005086217223107815,-0.32580314896106716,0.8728265711847693
1791114818532537000,6.007537109375,-1.049731755772233,0.1057195515781641,0.6029857671380042
1791114818542608100,6.017608154296875,0.754818250593543,-0.7878115886569023,0.6952172569159418
1791114818552678000,6.027677978515625,2.517043611449003,0.3417179264515638,0.8360289454676211
1791114818562749000,6.0377490234375,3.7064299216270444,0.3442079897016287,0.8497324035841971
1791114818572820000,6.047820068359375,3.1523738973528146,-1.145911910110712,0.34035905918851495
1791114818582891000,6.05789111328125,0.7579904508888721,-1.8854174407601356,0.9023905923865735
1791114818592962000,6.067962158203125,-2.111468714375794,-1.5856266849339007,1.381525669580698
1791114818603031800,6.07803173828125,-0.5681912248715758,-2.355230416727066,1.1989080986957996
1791114818613102800,6.088102783203125,0.21406828261613844,-1.1571721397936343,1.4863962031140923
1791114818623174000,6.098173828125,1.2888725203245877,0.12491817304491996,1.777710807017982
1791114818633245000,6.108244873046875,1.1180120957940816,0.9186509684443473,1.545541635043919
1791114818643315000,6.11831494140625,2.5257538643881676,0.6401221963554621,1.023523693934828
1791114818653386000,6.128385986328125,2.423238369548321,0.9883540347456932,0.45284291726984083
1791114818663457000,6.13845703125,1.9961989519029855,-0.05046703543365001,0.7745195608854293
1791114818673528000,6.148528076171875,0.4896858434334397,-1.1638526404708622,0.8674391790580004
1791114818683598000,6.15859814453125,-1.9821034987941384,-1.057059322181344,1.0754713233150541
1791114818693668900,6.1686689453125,-1.459309458746016,-1.5147434689372776,0.533482168931514
1791114818703740000,6.178739990234375,-0.45367695694118737,-1.0002636682480572,0.40319450474269686
1791114818713811000,6.18881103515625,-0.8715329511776566,1.2912146995365619,0.4371972390443086
1791114818723882000,6.198882080078125,0.8288321658313273,1.7678998993605375,0.37182584527172147
1791114818733951700,6.20895166015625,2.2230448830276726,0.6843319249600172,-0.1426306476071477
1791114818744022800,6.219022705078125,-0.1734364124983549,0.8928168544858693,-0.24129056299738585
1791114818754093800,6.22909375,-2.425842999088764,-0.08039806331694126,0.8464394995186477
1791114818764164900,6.239164794921875,-1.8387474595218896,-0.8114940775394439,0.7032314173497259
1791114818774235000,6.24923486328125,-1.7798586327016352,-0.043000352814793585,0.6728328450199216
1791114818784306000,6.259305908203125,-0.5726619405448437,0.12998071713149548,1.3912027217254042
1791114818794377000,6.269376953125,0.2467524085998535,0.05651274533867836,0.7342354812920093
1791114818804448000,6.279447998046875,-0.4561664356693625,0.5543576375693082,1.1107694311894476
1791114818814517800,6.289517822265625,-1.5508789044186473,0.15170505768358705,1.4470667938970028
1791114818824588800,6.2995888671875,-2.4506112373813984,-0.09151274704933166,1.563898837250471
1791114818834659800,6.309659912109375,-0.6417945134818553,-0.8735019131630659,1.3001172601774333
1791114818844731000,6.31973095703125,1.208984744617343,-0.2595142750173807,1.4549556474506855
1791114818854800600,6.329800537109375,1.0109943210989236,0.1872831515431404,1.7009170518033205
1791114818864871700,6.33987158203125,1.6271496586725114,-0.28530221174657344,1.3091072068408132
1791114818874942700,6.349942626953125,-0.33070728761553764,-0.9022317485630512,0.7689773435231297
1791114818885013800,6.360013671875,-0.35207623885869976,-1.018895888003707,0.643265243621543
1791114818895084000,6.370083984375,0.42749417567551135,-1.3357932614535093,0.5776823990553617
1791114818905154800,6.38015478515625,0.9783137022465467,-0.9271925868183374,0.33329642732590437
1791114818915225900,6.390225830078125,0.09197159673273562,-0.18086860832571983,0.514931928370893
1791114818925297000,6.400296875,-0.1881149261921644,0.6425082147091626,1.2797178846187889
1791114818935368000,6.410367919921875,0.6519587646216154,-0.06512099920809268,0.022138766571879385
1791114818945438000,6.42043798828125,1.6731518236517906,-0.25952538093328475,-0.3392527053818106
1791114818955508700,6.4305087890625,1.152812191018462,-0.3061602908581495,-0.0427175903506577
1791114818965579800,6.440579833984375,-0.7091355268269777,-0.06894377236664295,0.7186405103404074
1791114818975650800,6.45065087890625,-1.9939082106173038,-0.5899105969876051,1.9274466104552148
1791114818985720800,6.460720947265625,-1.2743424751907586,-0.8652326819896697,0.7387113115318119
1791114818995792000,6.4707919921875,-0.815466488301754,-0.11074410174190998,0.4234500879164785
1791114819005862700,6.480862548828125,1.7257745758146046,-0.21271803705096243,-0.5856130459241569
1791114819015933700,6.49093359375,2.1777888602405784,-0.5300543864399194,-1.210838263529539
1791114819026003700,6.501003662109375,-1.607547717101872,0.7956792532920837,-0.0024698241796344516
1791114819036074800,6.51107470703125,-5.516141256278753,0.5390437485814095,0.5233657024562358
1791114819046145800,6.521145751953125,-5.064346752083301,-1.3441162686407566,-0.016922639358788728
1791114819056216800,6.531216796875,-2.6428432435035702,-0.7680331214755773,-1.4839111083000898
1791114819066286800,6.541286865234375,0.0015755787536501883,0.6461310813814402,-1.6668769811660051
1791114819076358000,6.55135791015625,3.6248023165151473,1.9458587577193975,-0.6931276642255485
1791114819086429000,6.561428955078125,5.7160302068948745,1.8157950384795665,-0.6566369855657219
1791114819096499700,6.571499755859375,2.878345943814516,1.8653361912399529,0.07210501287654042
1791114819106570800,6.58157080078125,-0.7231067690342664,0.48331543161869045,1.2185061678089202
1791114819116640800,6.591640869140625,-2.8932348853886127,-0.81500763861835,1.0203224867407232
1791114819126711800,6.6017119140625,-3.8474449507310986,-2.1912205887436866,-0.13050108774378896
1791114819136782800,6.611782958984375,-3.604477029106021,-1.5207698896199464,-0.5190649365223944
1791114819146853600,6.621853515625,0.5547475136697292,-0.9881091200739145,0.5291185668945312
1791114819156923600,6.631923583984375,4.206229162795841,-0.01307458562850952,0.9543138910431415
1791114819166994700,6.64199462890625,5.5775172237396236,0.5539765292972326,1.846747518365085
1791114819177065700,6.652065673828125,3.9297675523698326,1.1061772810935973,3.0288240900516508
1791114819187136800,6.66213671875,2.2446868059933185,0.26353461657464505,3.012609452831745
1791114819197206800,6.672206787109375,1.6573492743641136,-1.0167910246789456,2.675289469078183
1791114819207277800,6.68227783203125,0.29032851547598837,-1.1203414155244826,2.560798874284327
1791114819217348900,6.692348876953125,0.2534171271860599,-1.5581033027142286,1.8791773773267864
1791114819227420000,6.702419921875,-0.7496306188225745,-1.8245254574239254,0.7662296522501856
1791114819237489700,6.71248974609375,-1.2743226014465092,-0.971856488931179,1.2146378019429742
1791114819247560700,6.722560791015625,0.4664087204813957,-1.3632996925383805,0.9945771470442414
1791114819257631700,6.7326318359375,2.7495813244745135,-1.1626397575497627,0.7744806901797652
1791114819267702800,6.742702880859375,2.4893100936099883,0.08821370550394057,1.684512591099739
1791114819277773800,6.75277392578125,1.3968518335282802,0.8287392268508672,1.2278804376147687
1791114819287843600,6.762843505859375,-0.614607231348753,0.7868839524179697,1.096725123745948
1791114819297914600,6.77291455078125,-0.9859896437019109,0.5324076715677977,0.4235542058780789
1791114819307985700,6.782985595703125,0.11539864954948424,-0.08694587752521038,-0.8311429269917309
1791114819318056700,6.793056640625,1.2185218037694692,-0.6227630652755498,-1.8210064895175397
1791114819328127000,6.803126953125,-2.346548805360496,-0.6772025114715099,-1.7864843344517052
1791114819338197800,6.81319775390625,-5.013814834719896,-0.8799334075152874,-1.7603505068942904
1791114819348268800,6.823268798828125,-4.322177262921631,-1.1730629518866538,-2.5803151833981275
1791114819358339800,6.83333984375,-1.9978262608438728,-0.6849579479038715,-2.523973702973127
1791114819368409900,6.843409912109375,0.5366676670998335,0.11763912195265293,-2.1793374048568306
1791114819378481000,6.85348095703125,1.6586913366228342,1.0945189920037983,-1.7710379051253198
1791114819388551700,6.8635517578125,1.4383330139517783,0.9169739751428365,-0.3492700953967869
1791114819398622700,6.873622802734375,2.2099545153081417,-0.5251473251760006,-0.6743889153555035
1791114819408692700,6.883692626953125,0.40225218239128585,-1.4305109420239925,-0.8025785112865269
1791114819418763800,6.893763671875,0.7372510297209024,-1.1208002652078866,-0.9825347540076822
1791114819428834800,6.903834716796875,0.15678279933929443,-0.4340034114390611,-1.6888702017873525
1791114819438905600,6.913905517578125,-0.9827999077498912,-0.013024316745996474,-0.5792305052801966
1791114819448976000,6.923975830078125,-0.8895634056478738,0.27690438575744625,-0.29434184277057646
1791114819459047000,6.934046875,0.1703188649997115,1.01165366179049,-0.6798311064094305
1791114819469118000,6.944117919921875,1.194413198429346,1.3916519267976284,-0.6969451766870915
1791114819479188700,6.954188720703125,2.62824130217731,1.5080559539973735,-0.4913281307477504
1791114819489259800,6.964259765625,1.7274997921720145,1.0651607955724,-0.2535916800353676
1791114819499329800,6.974329833984375,-0.2911298949867487,1.0991904909461736,-0.20705635802745817
1791114819509400800,6.98440087890625,-1.3274842827916145,0.42070203131735323,0.34433687677830455
1791114819519471900,6.994471923828125,-1.654747275172174,-0.17742694343924523,0.5071734962638468
1791114819529542700,7.004542724609375,-0.716941816663742,-0.5688415054738521,0.42884507882781325
1791114819539612700,7.01461279296875,0.7239779989108442,0.40062721153795716,0.9450816600564866
1791114819549683700,7.02468359375,1.3293570909261703,0.12712474317848682,1.3250944650456309
1791114819559754800,7.034754638671875,-0.6772329066097736,0.24022388361394403,1.5543424888759851
1791114819569825800,7.04482568359375,-1.0720768585711717,0.2963087589293718,2.03004466901198
1791114819579895800,7.054895751953125,-1.9596762706696986,0.4995663091957569,2.328237049730867
1791114819589966800,7.064966796875,-1.3534656962662934,-0.23436229810416698,2.73991713181138
1791114819600038000,7.075037841796875,-0.7341086400419473,-0.34978725113868714,2.331668193223327
1791114819610109000,7.08510888671875,1.6967492645993827,-1.3548118501782416,1.7722176164291799
1791114819620178700,7.0951787109375,1.4073591990172862,0.057955345362424845,1.4649930573403835
1791114819630249700,7.105249755859375,2.257359825083613,-1.0790379297554493,0.36475210749320686
1791114819640320800,7.11532080078125,1.456347394070029,-1.3721967002213,-0.3864779458826408
1791114819650391800,7.125391845703125,-3.2372558280855417,0.011146247914433478,0.7638033749513328
1791114819660461800,7.1354619140625,-2.13194480843246,-0.44590369259119034,1.4981873248033224
1791114819670532600,7.14553271484375,0.8194976435139775,-1.0082231028199196,0.9912715296275914
1791114819680603600,7.155603759765625,1.4869786791771649,0.35831133385598657,1.1099888022057711
1791114819690674700,7.1656748046875,1.7347586772590875,1.1247937187582253,1.2646405808657406
1791114819700745700,7.175745849609375,2.4320938761770723,1.365802030748129,0.16032869178522377
1791114819710816000,7.18581591796875,0.8330401389151811,0.7642430815428495,-0.5001851352138444
1791114819720886800,7.19588671875,-0.3390817327290773,-1.040419737547636,-0.746422908822447
1791114819730957800,7.205957763671875,0.5957704289317131,-2.5305209326595066,-0.3409178621150553
1791114819741028900,7.21602880859375,1.5311112508922815,-0.8471282855004072,0.020414536595158277
1791114819751099000,7.226098876953125,3.486574872303009,-0.28859833068251606,-0.6939462140668183
1791114819761170000,7.236169921875,2.4012013097852467,-0.04632803593277931,-1.1913302107874304
1791114819771240700,7.24624072265625,-0.5450266223832965,0.0830365951269865,-0.7553015040658414
1791114819781312000,7.25631201171875,-0.13769699059724808,-0.8519079209923743,-0.87050550782606
1791114819791382000,7.266382080078125,1.320985568422079,-1.1652864726662635,-1.7351134820461271
1791114819801453000,7.276453125,2.185755309075117,-0.2971697596728802,-1.904271048181504
1791114819811524000,7.286524169921875,2.1281857481598854,-0.1204635317236185,-1.7996056818313895
1791114819821595000,7.296594970703125,-0.7426891291216016,0.3730769413113594,-1.4640876329332588
1791114819831665200,7.3066650390625,-1.2235150820121168,-0.4293780897259712,-0.6293095643095672
1791114819841736200,7.316736083984375,0.9205041950955987,-1.3211620940327644,-0.5497437505656853
1791114819851807200,7.32680712890625,-0.13645254349410532,-0.44265608897209163,-1.138947916316986
1791114819861878300,7.336878173828125,-1.472650001834333,0.3846650877743959,-0.44925501231309023
1791114819871948000,7.346947998046875,-1.1529629976660012,0.5808797337919474,0.09506105064805596
1791114819882019000,7.35701904296875,0.744743431302905,-0.09456219774782657,0.4809015023447573
1791114819892090000,7.367090087890625,0.5176607688128948,0.08267243798971176,1.1090335473075508
1791114819902161200,7.3771611328125,0.9042378276884555,0.4759387653708458,1.6425924347370862
1791114819912231000,7.38723095703125,1.4558265850663183,0.9356669851750135,1.8210630420103668
1791114819922302000,7.397302001953125,-0.6687339583337306,0.942879985293746,2.217238973227888
1791114819932373000,7.407373046875,-2.5644641187936066,-0.7946060711026192,1.5780495276778936
1791114819942444000,7.417444091796875,-0.8843938940554856,-0.6243558874249457,1.642643288141489
1791114819952515000,7.42751513671875,1.8042445936784146,0.1739846940308809,1.7681385304220019
1791114819962585000,7.437585205078125,2.168976023709774,0.03821779471337795,1.5006141135588287
1791114819972656000,7.44765625,-0.14918693738281727,0.3457043657392263,1.3128544305451213
1791114819982727200,7.45772705078125,-0.5786284477338195,-0.49242052909433837,0.9605819384619593
1791114819992798200,7.467798095703125,-0.022473113092780113,-1.9353496386647224,0.18283709538709372
1791114820002868000,7.477867919921875,-1.1399293285697698,-0.5778723686695099,-0.4547357818117365
1791114820012939000,7.48793896484375,-0.7978875769913196,0.5010726221054792,0.05429828415960073
1791114820023010000,7.498010009765625,-0.3832067056596279,1.4836241080522536,-0.6032880745528265
1791114820033081000,7.5080810546875,0.5909191895082593,0.6856441766023635,-1.8452892823807894
1791114820043151000,7.518151123046875,-1.159890458841622,0.7099953585267067,-1.685560931108892
1791114820053222000,7.528221923828125,-1.786882832249999,-0.8843582382202148,-1.7216370376184582
1791114820063293000,7.53829296875,0.43042964460551736,-2.0248335102349517,-2.0738738738663494
1791114820073364000,7.548364013671875,0.2225140394002199,-0.712266226068139,-1.3806456718757747
1791114820083434000,7.55843408203125,0.09127776924967765,1.0350859753042458,-1.099913252262771
1791114820093505000,7.568505126953125,1.8130390177696942,0.5980804594397544,-1.9862077192425727
1791114820103576000,7.578576171875,1.8415224771931766,0.9759662623375653,-2.4476053335636854
1791114820113647000,7.588647216796875,-1.7161159361094236,0.6363607979953289,-1.933435475606471
1791114820123717000,7.598717041015625,-2.5276287183493373,-0.3472340595245361,-1.148966621506214
1791114820133788200,7.6087880859375,-1.0391574625268578,-0.5145511123597621,-0.8870100679032504
1791114820143859200,7.618859130859375,1.280813132509589,-0.5702776757568121,-0.11775387090612202
1791114820153930000,7.628929931640625,1.8640593031719326,-0.4438426684081554,-0.2880237273986451
1791114820164001000,7.6390009765625,0.5141495458215475,0.9472031091898679,0.5587598911162466
1791114820174071000,7.649071044921875,-2.7822525909766553,1.4406512277662753,1.6653537171214818
1791114820184142000,7.65914208984375,-2.790397026726603,-0.5354910245358944,1.7157779363267123
1791114820194213000,7.669213134765625,0.17967735271453855,-1.109779104977846,1.5030824033685029
1791114820204284000,7.679283935546875,2.1994459807753564,0.3792272806346416,0.08544305348051712
1791114820214354000,7.68935400390625,2.7162030787467955,0.479524807164073,-0.7083022908732295
1791114820224425000,7.699425048828125,1.339538877722621,1.7727426632165908,-0.41572756737302985
1791114820234496000,7.70949609375,0.2989031593367457,0.08534311850368977,-0.4233522535651922
1791114820244567000,7.719567138671875,0.08361001110076904,-0.8206155416280031,-0.5702488149885088
1791114820254637000,7.729636962890625,0.05729308206140995,-1.372351598522067,-1.5372718193486332
1791114820264708000,7.7397080078125,-0.9095102151334286,-0.8784750254005194,-2.495307288198173
1791114820274779100,7.749779052734375,-2.184619583043456,-0.5147925199002027,-2.2994725814089176
1791114820284850200,7.75985009765625,-0.7520119610011577,0.21149171012639997,-2.1964386156529185
1791114820294920000,7.769919921875,2.4858821649879217,-0.4962894794821739,-2.5877675452306863
1791114820304991000,7.779990966796875,3.4901284731313584,-0.09906535438597201,-2.467335869950056
1791114820315062000,7.79006201171875,1.2085016372755168,0.9045797729939222,-2.5352757259711622
1791114820325133000,7.800133056640625,-0.1112877070993185,0.3510644314676523,-1.9981486246660352
1791114820335202800,7.810202880859375,0.30671558665335175,-0.7844827364951372,-1.3227978785410524
1791114820345273900,7.82027392578125,0.2748474532276392,-0.37667291997671126,-2.3348930004887283
1791114820355345000,7.830344970703125,0.6151204415678978,-0.057580666831135746,-2.3988889411896466
1791114820365416000,7.840416015625,-0.4802811784893274,0.5881196219176054,-1.2751523302689194
1791114820375486200,7.850486328125,-0.690867171947658,0.37211189567148684,-0.9033231970615685
1791114820385557000,7.860556884765625,-0.635651772943139,-1.2241577638298273,-0.8984842325977981
1791114820395628000,7.8706279296875,-0.46250236069262024,-1.2632868281692267,-0.2774803590144962
1791114820405699000,7.880698974609375,-0.48645782129764553,-0.5896838024944067,0.15425013905651866
1791114820415769000,7.89076904296875,0.08304828556478024,0.2548088738054037,-0.08135463338941336
1791114820425840000,7.900840087890625,0.7791641718208789,0.9539555060595274,-0.2630492442104965
1791114820435911000,7.910910888671875,1.1083403043463826,0.6687129155457019,-0.7147106966108083
1791114820445982000,7.92098193359375,-0.35291444324851035,-0.20355331834256649,-1.365530374199897
1791114820456053000,7.931052978515625,-1.4399904257699847,0.6711854431390762,-1.1971665887907146
1791114820466123000,7.941123046875,0.6672253073364496,0.25812545100748535,-1.0112400394883005
1791114820476194000,7.951194091796875,1.3706018322452902,-0.3583791383951902,-0.6873377557124942
1791114820486264800,7.961264892578125,-0.7851292177051306,-0.14792846175432203,-0.5817938529621809
1791114820496336000,7.9713359375,-1.7758911903753876,-0.09750234285295009,-1.1237713169079273
1791114820506406100,7.98140625,0.036684886057674886,-0.8188912020534277,-0.9803465963136404
1791114820516477200,7.991477294921875,2.393276362004876,-0.3963555255681276,-1.0327817169498652
1791114820526548200,8.00154833984375,2.3177573029011485,-0.22535189317464827,-1.0698582326736301
1791114820536619000,8.011618896484375,0.3279378229022026,0.75312664424479,-0.3010308190152049
1791114820546689000,8.02168896484375,-1.1030839912533759,0.9505611874461174,-0.6347736749343573
1791114820556760000,8.031760009765625,-2.0896949817240236,0.15070903238356112,-1.5340826679185031
1791114820566831000,8.0418310546875,-0.441530884334445,-1.4507915135085583,-1.7785680083692073
1791114820576902100,8.051902099609375,0.8360682545647025,-0.751190707746148,-1.6224674922056495
1791114820586972000,8.061971923828125,0.021527356675267218,0.6600994009792804,-2.0560151227012273
1791114820597043000,8.07204296875,-0.7214344519078731,0.23091069634556768,-1.3500325069472192
1791114820607114000,8.082114013671875,0.6083066698998213,0.394782577162981,-0.647320145035535
1791114820617185000,8.09218505859375,-0.32226533022373915,0.8767904333144426,-0.2783556805443019
1791114820627255000,8.102255126953125,0.7495908713340759,-0.5451683689415454,-0.48948374499008057
1791114820637326000,8.112326171875,0.81729224242419,-0.5205184963315725,-0.12526523291692138
1791114820647397000,8.122397216796875,-0.21583003159165381,0.5919821425646543,0.41464017399512226
1791114820657468200,8.13246826171875,0.27994039245247837,0.199958508720994,-0.3447654774539172
1791114820667538200,8.1425380859375,-0.23284604832231998,0.05832300963103771,-1.10409740607962
1791114820677609000,8.15260888671875,-1.5474863393709062,0.19684008443951606,-0.6270566708162426
1791114820687680000,8.162679931640625,-2.4210882057771084,0.015024550652503967,0.3122951403513551
1791114820697751000,8.1727509765625,-2.550593414351344,0.08682663505971432,0.8621369809966534
1791114820707822000,8.182822021484375,-1.0829279229313133,0.23569734610021112,0.2814340650763362
1791114820717891800,8.192891845703125,0.7256260583788157,0.07620178067088126,-0.18615283233895896
1791114820727963000,8.202962890625,0.4718731233671307,1.2353180402696131,0.5535785429555923
1791114820738034000,8.213033935546875,-1.3902093267738818,1.2688240040302277,0.9850398686964065
1791114820748105000,8.22310498046875,0.12323650356829166,-0.2589046186864376,0.7525762438204139
1791114820758175200,8.23317529296875,-0.5207736401364207,-1.2410294036537408,0.5643490894254297
1791114820768246000,8.24324609375,-1.0822545537143946,-0.8865233072996139,0.6967381828729062
1791114820778316800,8.25331689453125,-0.7031088138833642,-0.16242460461854935,0.8910974833473563
1791114820788387800,8.263387939453125,-0.7984545632243156,0.5206552744537591,0.8512562521506101
1791114820798457900,8.273457763671875,1.076615671044588,-0.21400690781772136,0.16739873976930975
1791114820808529000,8.28352880859375,2.80552796036303,-0.9286696736335753,-0.6140862031493336
1791114820818599700,8.293599609375,3.16830913310945,0.13802724546492098,-0.3014697949543595
1791114820828670700,8.303670654296875,2.4423256395950914,0.43808512779474257,-0.3702879681799561
1791114820838740700,8.31374072265625,1.5032289722323418,0.04540390682518482,-0.9786980253890156
1791114820848811800,8.323811767578125,1.3393284498423337,-0.9236416163384914,-0.7490445625629275
1791114820858882800,8.3338828125,0.7606658075779676,-1.541498204872012,-0.5517305039361119
1791114820868953600,8.34395361328125,-0.6337506154969335,-1.1749661551594734,-0.6941657020363956
1791114820879023900,8.35402392578125,-1.0314736300259828,-0.357786433199048,0.11020999486520885
1791114820889095000,8.364094970703125,0.566618568727374,-0.5344973373234272,0.11963256079219281
1791114820899166000,8.374166015625,1.4808026208907366,-0.6357897201091051,-0.7657371925581247
1791114820909237000,8.384237060546875,1.6375018335998057,-0.7100549797594546,0.07200688626430929
1791114820919306800,8.394306640625,1.5980986284941434,-0.34097090747654435,0.16434322465620935
1791114820929377800,8.404377685546875,1.9724018967300652,-0.07784194909334183,-0.00915131123755127
1791114820939448800,8.41444873046875,0.7440937352225184,-0.057306526064872736,0.3555233836378902
1791114820949520000,8.424519775390625,-0.32006665113568306,-0.7681102783650159,0.2715003712894395
1791114820959589600,8.434589599609374,-0.397809523768723,0.25716566606462,0.05600596486032009
1791114820969660700,8.44466064453125,1.5041373192489147,0.22046879730820654,0.03870641848053783
1791114820979731700,8.454731689453125,0.6750421185672283,-0.048909284597635265,-0.36349268201664087
1791114820989802800,8.464802734375,-1.247909226295352,0.30713118171691894,-0.3041920777914114
1791114820999872800,8.474872802734374,-1.4036387171894311,-0.0971837784230709,-0.40068712503165005
1791114821009943800,8.48494384765625,0.6588268968254327,-0.7634352722913026,-1.445992442663759
1791114821020014800,8.495014892578125,1.2973434115499258,0.3662655077308416,-1.4225446393199264
1791114821030086000,8.5050859375,0.4044645977437496,0.988712346664071,-0.7851221303772181
1791114821040156000,8.515156005859374,-0.1551949456259608,0.7063011801838874,-0.9225922534160316
1791114821050226700,8.525226806640624,-1.5404147935494779,0.43692835897505283,-0.6068808383477852
1791114821060297700,8.535297607421874,-1.130079842467606,-0.8514619307905436,-0.5875582617077976
1791114821070368800,8.54536865234375,0.17938304594308138,-0.42569326373338695,-1.221591347407922
1791114821080438800,8.555438720703124,-0.06188245567828417,0.5709937150716782,-1.5158385706976054
1791114821090509800,8.565509765625,-0.3365036989346146,0.37601883998215196,-1.0500064810603857
1791114821100580600,8.57558056640625,-0.3023573914438486,0.013789455899596214,-0.9961877971112727
1791114821110651600,8.585651611328124,0.6897995427161455,0.0019189853638410567,-1.3307367087163031
1791114821120722700,8.59572265625,0.3882341784328222,-0.2863222024440765,-1.102431737889722
1791114821130793000,8.60579296875,0.41908465924859045,-0.4221317718595266,-1.0399023626100272
1791114821140864000,8.615864013671874,-0.46802316994071,-0.3949322147667408,-0.9432347900807857
1791114821150934800,8.625934814453124,-0.6248562381625176,-0.5757365256845951,-0.16075455251447857
1791114821161005800,8.636005859375,-0.08148001333475112,-0.7117699669837951,-0.43796135528460145
1791114821171075800,8.646075927734374,-0.2760802098929882,0.17417817077636719,-0.5287560171924531
1791114821181147000,8.65614697265625,-2.079377001327276,0.556883356654644,0.22435042451452464
1791114821191218000,8.666218017578124,-2.456929042226076,-0.2241787577420473,0.5428776641884818
1791114821201288700,8.676288818359374,-1.1233011421129107,-0.7857365359485149,0.3009293496684171
1791114821211358700,8.686358642578124,1.0103788195490837,-0.08457505674064159,-0.4547143371649086
1791114821221429800,8.6964296875,3.5946956398040055,0.690665804156661,-0.7414018657900393
1791114821231500800,8.706500732421874,2.870641360786557,1.1353630435675381,-0.4777915901632979
1791114821241571800,8.71657177734375,0.09370353509187698,0.7677373533993959,0.1262860638646409
1791114821251641900,8.726641845703124,-1.040645362997055,-1.05346743516922,0.5772668770570307
1791114821261713000,8.736712890625,-2.0098522142022848,-1.755692159694433,-0.4050827661747113
1791114821271784000,8.746783935546874,-2.677818403033912,-0.746481799402833,-0.4619118839861825
1791114821281855000,8.75685498046875,-1.1902426347464323,0.8431313248187303,-0.3323718963595107
1791114821291924700,8.7669248046875,1.1617618056714534,1.0190209756881,-0.3586916018778458
1791114821301995800,8.776995849609374,2.365457796230912,0.9912006563484668,-0.4444388442030176
1791114821312066800,8.78706689453125,1.2701365479335187,1.188510696387291,-0.42178931509740647
1791114821322137900,8.797137939453124,0.3897013283759355,0.8682990838229656,-0.4186502864193171
1791114821332207600,8.80720751953125,-1.0846639529436826,0.06518003591895104,-0.019148498714715242
1791114821342278700,8.817278564453124,-2.4761300017803904,0.1404804838359356,-0.24047625093981623
1791114821352349700,8.827349609375,-0.4773842880040407,-1.4048095145344734,-0.720296241658181
1791114821362420700,8.837420654296874,-0.34638299565315245,-0.2931576014220714,-0.9967833518516271
1791114821372491000,8.847490966796874,-0.3779343182146549,0.1462485458433628,-0.8454637132890522
1791114821382561800,8.857561767578124,0.723887105756998,-0.48441900894641876,-0.8512677233926952
1791114821392632800,8.8676328125,-0.321342370159924,-0.16217968994677065,-0.052999567852262404
1791114821402704000,8.877703857421874,0.22980682675689457,-0.8888649019896984,-0.14229828298077918
1791114821412774000,8.88777392578125,0.9841700270593166,-0.2038350578933954,0.19957761964462697
1791114821422845000,8.897844970703124,2.0995511898279187,-0.10996785667240619,-0.21269644627366213
1791114821432915700,8.907915771484374,1.4931532761588693,0.32298575345277786,-0.9692224141005427
1791114821442986800,8.91798681640625,-1.6799448447927832,-0.2664899592489004,-0.8571233906183391
1791114821453057800,8.928057861328124,-0.1065472345739603,-0.4809995558917522,-0.6381867713134736
1791114821463127800,8.9381279296875,1.8148516201496123,-1.189118599152565,-0.8730402870006859
1791114821473198800,8.94819873046875,-0.764199242401123,0.4327344144165516,-0.9706926327835768
1791114821483269600,8.95826953125,-1.2235393396705387,0.3266495366573334,-0.7771285743400455
1791114821493340700,8.968340576171874,0.7594485407426953,-0.42912674531340594,-1.3158246785275638
1791114821503411000,8.978410888671876,1.2619269379928708,-0.7930851451456546,-0.8912113189853728
1791114821513481700,8.988481689453126,2.231354738472402,-0.45628480135202404,-0.8195528077673166
1791114821523552800,8.998552734375,1.268118193848431,0.23829379233419895,-0.543564623539336
1791114821533623800,9.008623779296874,0.13933043701797723,0.9645072952121496,0.3718138625729829
1791114821543693800,9.01869384765625,-0.30079028825759885,0.056007718425989145,-0.24051008014418182
1791114821553764900,9.028764892578126,-0.57368514611274,-1.5077198539108037,0.3652015317611396
1791114821563836000,9.0388359375,-0.17267478047609328,-0.33811201091408727,0.9035490417066961
1791114821573907000,9.048906982421874,0.09051672174930572,0.16270809773504732,0.37883192464150484
1791114821583976700,9.058976806640626,0.8343819089129567,-0.39722412509620186,0.5628590335307643
1791114821594047700,9.0690478515625,-0.7989414699584245,0.5271627566516399,1.2271692206054925
1791114821604118800,9.079118896484376,0.6879641439825296,0.4192822276473045,1.1255619997169821
1791114821614189800,9.08918994140625,1.5225421599894762,-0.1318400812625885,0.4191344532070681
1791114821624259600,9.099259521484376,0.5551093327194452,0.565744123980403,-0.16763857640717178
1791114821634330600,9.10933056640625,-0.9335007470518351,0.06495616403520107,-0.36611784288845955
1791114821644401700,9.119401611328126,-1.164401506525278,-0.6155120712339878,-0.6319636590149253
1791114821654472700,9.12947265625,-0.9061030370384454,-0.5817033251345157,-0.9498045969251543
1791114821664543000,9.13954296875,-1.249194005408883,0.03647124330699444,-0.9338578899264335
1791114821674613800,9.14961376953125,-0.6902116306483745,-0.06610241146087646,-0.5590322783168405
1791114821684684800,9.159684814453126,-0.2290826041355729,0.26748013933002945,-0.30034466338194904
1791114821694755800,9.169755859375,-0.9495786061495542,0.694852734452486,-0.172017576942686
1791114821704825900,9.179825927734376,0.09305442353338003,-0.11868892326653004,-0.8494942839793861
1791114821714896600,9.189896728515626,2.1264678383260964,-0.5077162979036569,-1.3147792611278593
1791114821724967700,9.1999677734375,0.7400631645321846,0.2571025377005339,-0.8815867276802658
1791114821735038700,9.210038818359376,0.42643502201139927,0.4956266316592693,-0.6171209677353501
1791114821745108700,9.220108642578126,0.5570651429623366,-1.0130325489282608,-0.5206851581353694
1791114821755179800,9.2301796875,-1.6148293985426425,-0.9371563469499349,0.27428561809379604
1791114821765250600,9.24025048828125,-3.9074437846198675,-0.005610825619101524,0.4735351382952183
1791114821775321600,9.250321533203126,-0.3711483113363385,-0.23624913476407527,0.6873582139786333
1791114821785391900,9.260391845703126,2.8659745380192994,-0.5982166530400514,0.5751009677274153
1791114821795463000,9.270462890625,2.499608200262487,-0.28639000698328015,0.6904673589751124
1791114821805534000,9.280533935546876,0.5013122760802508,0.6264975756287574,0.6717161159496754
1791114821815604700,9.290604736328126,0.14182371513843536,0.10375789611637591,1.257824324979633
1791114821825674800,9.3006748046875,-1.3831190762519836,-0.03832242413163185,0.9557035918358713
1791114821835745800,9.310745849609376,-1.3842401892364025,-0.4007920467108488,0.02060525512797758
1791114821845816800,9.32081689453125,-0.0547071572214365,-0.8431926996171474,-0.6953329191848635
1791114821855888000,9.330887939453126,0.18293956938087938,-0.3861965351253748,-0.39724852888509626
1791114821865957600,9.34095751953125,0.21228198372125626,0.37973464563488957,-0.24466427721418438
1791114821876028700,9.351028564453125,1.2224439456492662,-0.7300047118544578,-0.5108549612555653
1791114821886099700,9.361099609375,-0.20239654952287672,-0.14897943211197853,-0.15673784595271573
1791114821896170800,9.371170654296876,0.42030455643236636,-0.6845721634566784,-0.011702383959852158
1791114821906240800,9.38124072265625,1.6723720714509487,-0.37563597814440725,-0.2605890646420419
1791114821916311800,9.391311767578125,2.155335036370158,0.08656184664368628,-0.329555414166674
1791114821926382800,9.4013828125,0.7041817038118838,-0.11998363925218582,-0.4395146491412073
1791114821936454000,9.411453857421876,0.3697527653247118,0.19284604636728764,0.2495389523121528
1791114821946524000,9.42152392578125,2.3545450648114086,-0.9746481654763222,0.30439309852253643
1791114821956594700,9.4315947265625,1.0086708465874195,0.12531097175478934,0.036100820825714613
1791114821966665700,9.441665771484375,0.8696540055632591,-0.9075327775806188,0.30577625997662544
1791114821976736800,9.45173681640625,0.5853668160781264,-0.6080342826992273,-0.041004046164732424
1791114821986806800,9.461806884765625,-0.2731792277544737,-0.2013122614175081,0.4811249723697081
1791114821996877800,9.4718779296875,1.7063351313292978,-0.7667091793954371,0.4060291436467319
1791114822006948600,9.481948486328125,2.2426208133742214,-0.7911042004615068,0.21167804474504665
1791114822017019600,9.49201953125,1.7015373756587504,0.007128828966617584,0.5301971193788573
1791114822027090000,9.50208984375,-1.0929729316055774,0.2518897714883089,0.5284763600008562
1791114822037161000,9.512160888671875,-1.0321809015125036,-0.7780459814459085,0.5687345379680395
1791114822047232000,9.52223193359375,0.39197336496114726,-0.7522884398549795,0.647524946892634
1791114822057302800,9.532302734375,1.6386936737328768,-1.0134750319987536,-0.3437947327256202
1791114822067372800,9.542372802734375,0.2801367918074131,0.2668032629817724,-0.2723476357685402
1791114822077443800,9.55244384765625,-2.55231716940403,0.8615478559970855,-0.05016085556130856
1791114822087515000,9.562514892578125,-0.9467018816694617,0.2131120048046112,0.2824731988657266
1791114822097585700,9.572585693359375,0.38204409162104125,0.033226562297344206,-1.1637581671204418
1791114822107656700,9.58265673828125,1.0691174242436885,-0.44433366679549213,-1.3729612548530101
1791114822117726700,9.592726806640625,1.8114812669336795,0.2567383805632591,-0.6149940387092531
1791114822127797800,9.6027978515625,-0.2925222261279821,1.6335077955275774,-0.11503752461951225
1791114822137868800,9.612868896484375,-1.730850563904643,1.2016752983868122,0.6470693120796233
1791114822147939600,9.622939697265625,-1.596467227900028,-0.32323417525589465,1.0309997289039194
1791114822158009900,9.633009765625,-2.192400446178019,0.04884557171165943,0.1498676861885935
1791114822168081000,9.643080810546875,-2.5842966542497274,-0.13563187476098537,0.2846339205635711
1791114822178152000,9.65315185546875,0.4582224914163351,0.12066285368800163,0.2759593965249136
1791114822188223000,9.663222900390625,3.073488284425437,0.6596990034848451,0.06298563114721327
1791114822198292700,9.673292724609375,2.2585475735634564,0.7788409312158823,0.5988067278876901
1791114822208363800,9.68336376953125,-0.3567161736190319,0.49345805544853205,0.883107215245813
1791114822218434800,9.693434814453125,-2.6954350160062313,-0.8564590084254741,1.50383351399675
1791114822228505900,9.703505859375,-3.852497850206494,-1.17435708335042,1.6253336952917277
1791114822238575600,9.71357568359375,-2.0491420220613477,-0.9628706339210271,1.365451025353372
1791114822248646700,9.723646728515625,0.9162789786159992,-0.34769466277360916,0.5183724972788244
1791114822258717700,9.7337177734375,1.4205506890237332,0.38933541767299173,0.16087277206666767
1791114822268788700,9.743788818359375,2.1149410666614767,0.9558739069014787,0.34458047627583144
1791114822278859000,9.75385888671875,3.3658091427624224,0.8555611828029155,-0.34880459677688774
1791114822288929800,9.7639296875,1.8893933586537837,0.10228373191058635,0.16701799682341514
1791114822299000800,9.774000732421875,-3.284790024937689,0.33449206685125826,0.9919858884420245
1791114822309072000,9.78407177734375,-6.161164084157347,0.06120879420042038,1.6583141738735139
1791114822319142000,9.794141845703125,-1.8946087552145123,-1.455886790820956,0.3012497224628925
1791114822329213000,9.804212890625,1.3231997373402118,-2.1067209353268144,-1.4346052256003021
1791114822339283700,9.81428369140625,-0.08228665354251861,-0.4450386001944542,-0.7043425934620201
1791114822349354800,9.824354736328125,-2.107299319736659,1.0316244366735219,0.047129123182594775
1791114822359424800,9.8344248046875,-2.0180980645000934,0.8266168278694153,0.6935486661165953
1791114822369495800,9.844495849609375,1.2759841049179435,-0.6698071405231952,0.5552264562930912
1791114822379566800,9.85456689453125,2.4815765767484903,-0.19807517919242382,-0.37378472425453363
1791114822389637600,9.8646376953125,-0.17250848399847746,1.0359861390143632,-0.4023495052859187
1791114822399708000,9.8747080078125,-1.7397513709798453,1.4459569329589606,0.6765814569637179
1791114822409779000,9.884779052734375,1.204202771037817,0.39635435652434825,0.8047388311255723
1791114822419850000,9.89485009765625,5.18622716486752,-0.39796997502744197,-0.4765385578949004
1791114822429921000,9.904921142578125,3.455544943267107,0.49274084708988664,-0.6051771397024392
1791114822439990800,9.91499072265625,-0.6393827761650085,0.9568588262856006,0.1233973932184279
1791114822450061800,9.925061767578125,-3.6772833221197128,-0.20760171695053575,0.5338400424584746
1791114822460132900,9.9351328125,-2.2096716067135334,-1.8909061013042925,0.029581410728022454
1791114822470204000,9.945203857421875,0.8876917665570974,-2.1057991443067787,-0.5457228610191494
1791114822480273700,9.955273681640625,0.7761001080751418,-0.8627396961301564,-0.32071079425811766
1791114822490344700,9.9653447265625,-0.2954717235833406,1.2504349453806876,0.4738713845122605
1791114822500415700,9.975415771484375,-0.19751637626588345,0.5016144738972187,0.831901271078363
1791114822510486800,9.98548681640625,0.3546452125638723,-0.3766056999593973,1.1140365432266146
1791114822520556800,9.995556884765625,0.8694576062083244,-0.18933833050727844,1.2591887452006338
1791114822530627800,10.0056279296875,-0.5902426054209471,0.6535135928481817,1.1542009419631212
1791114822540699000,10.015698974609375,-2.382250525599718,1.530547187268734,1.156743685248494
1791114822550770000,10.02577001953125,0.541661237603426,-0.7232955696046351,1.2735885880835354
1791114822560840000,10.03583984375,2.9455127696365118,-0.8731693202078342,0.6969635891266167
1791114822570910700,10.04591064453125,3.858799580699205,-0.9275544058680534,-0.008957724894210695
1791114822580981800,10.055981689453125,2.2959783095523716,-0.32999124830067156,-0.17526742731779812
1791114822591052800,10.066052734375,-0.4763818329632282,-0.5169359616696835,0.644574937980622
1791114822601122800,10.076122802734375,-0.43912382319271565,-1.2506436196953057,0.5062192642789334
1791114822611193900,10.08619384765625,1.6630904483646154,-1.7985662557810544,1.0003782345384358
1791114822621264600,10.0962646484375,1.2462655507415532,0.039295068556070324,1.222391850135848
1791114822631335700,10.106335693359375,-1.1262655448764562,1.4633727626621722,1.2478762008085846
1791114822641405700,10.11640576171875,-1.716293923024833,0.7301894207715988,1.6476657924786209
1791114822651476700,10.126476806640625,0.42604426912814375,0.7056196276605129,0.8776621015824377
1791114822661547800,10.1365478515625,2.6246879936099052,-0.11155308003723621,0.2306299066428095
1791114822671618800,10.146618896484375,4.510619229111075,0.05268003530800342,0.28840587685033675
1791114822681688800,10.156688720703125,0.5171808763414621,1.7910580721080303,0.626107188071683
1791114822691759900,10.166759765625,-3.616365619820356,0.23181319814324378,1.1684138109065592
1791114822701831000,10.176830810546875,-5.553924751228093,-2.2560370520472524,0.5656023043569177
1791114822711902000,10.18690185546875,-5.089322203385829,-2.4013076927691697,-0.44174116608425973
1791114822721971700,10.1969716796875,-1.271396777127683,-1.5262936214774847,-1.0018977722559124
1791114822732042800,10.207042724609375,3.80722312271893,-1.366497611796856,-1.1552231976829468
1791114822742113800,10.21711376953125,4.778627191707492,0.43576223780512807,-1.2666136345043777
1791114822752184800,10.227184814453125,1.2456482956260442,2.2165946839749813,-0.12164653096310793
1791114822762254600,10.237254638671875,0.0033668460845947264,1.0752379529505967,1.4034233208730815
1791114822772325600,10.24732568359375,-2.278457558169961,-0.07194704583585262,1.2528069352090359
1791114822782396700,10.257396728515625,-2.553122640568018,-0.5151759662598371,0.055282034499943254
1791114822792467700,10.2674677734375,0.7912018156170845,-0.9387602750152348,-0.8686231281455605
1791114822802537700,10.277537841796875,2.9075995108276604,-1.0578975265711545,-0.22399821354337035
1791114822812608500,10.2876083984375,0.5927519578933715,-0.15048632954359054,0.5422416678398847
1791114822822679600,10.297679443359375,-1.6795698740005491,-0.020316227319836615,1.0275053109169006
1791114822832750600,10.30775048828125,-0.7532099386140704,-0.7150771918356418,1.2052527915474027
1791114822842820600,10.317820556640624,-0.3151511143043637,-1.2661363723814487,0.5689418240431696
1791114822852891600,10.3278916015625,-0.45747547244131564,-0.3723872054815292,0.7591136827651411
1791114822862962400,10.33796240234375,0.45410716505199666,0.4639560666322708,0.658083238851279
1791114822873033500,10.348033447265625,-0.006718494600057602,0.7678454899489879,0.22671952826604247
1791114822883103500,10.358103515625,2.397991115567088,0.6699415805578232,0.3500073966953903
1791114822893174500,10.368174560546874,3.0878114088103175,1.029455275940895,0.3121737059287727
1791114822903245600,10.37824560546875,1.2530872134551405,1.9532681571930646,0.803040868101269
1791114822913316600,10.388316650390625,-0.4093196365594864,1.134195753353834,0.8585797999717295
1791114822923386600,10.39838671875,-1.7144669998586177,0.5968307516396045,1.4723723539367317
1791114822933457700,10.408457763671874,-2.083064165407419,-0.34453649100363254,0.7862460929058491
1791114822943528700,10.41852880859375,0.24241204130798577,-2.00784613507688,0.006706658031791448
1791114822953599700,10.428599853515625,-0.3283218537837267,-1.4823340682417154,0.5741049789600075
1791114822963669500,10.43866943359375,-1.6719538460388779,-0.32678105408251285,0.909870134487003
1791114822973740500,10.448740478515624,-0.4580477193713188,-0.7715443444669247,0.8584710058350116
1791114822983811600,10.4588115234375,0.5649006588935852,-0.6340805781036615,1.0778920476559548
1791114822993882600,10.468882568359374,-0.8792349038571119,1.1435779142051934,1.6960712192073464
1791114823003952400,10.478952392578124,-0.6871101575016975,0.488790063637495,1.000820133087039
1791114823014023400,10.4890234375,-0.3894166662156582,0.34287995596826076,0.0944435398042202
1791114823024094500,10.499094482421874,-0.11922843697071074,0.1549146673798561,-0.5959896246403455
1791114823034165500,10.50916552734375,3.609922727291286,-0.9177525582998991,-0.8563911308210342
1791114823044235800,10.51923583984375,3.8454187056005,0.30780045928061006,-1.1478698392454534
1791114823054306600,10.529306640625,2.700601604989171,-0.3643067748785019,-1.1158371629077941
1791114823064377600,10.539377685546874,-0.5926198559463024,-0.5068839387327433,-0.1265771922983229
1791114823074448600,10.54944873046875,-2.287836211889982,-0.6899795754581689,0.67563328939341
1791114823084518700,10.5595185546875,1.1214929236471651,-2.448463996219635,-0.5067793093144893
1791114823094589400,10.56958935546875,0.6999988651692867,-1.3514046720832587,-1.0645881833162159
1791114823104660500,10.579660400390624,-1.1099819340735673,-0.33801264219284055,-0.2620107680082321
1791114823114731500,10.5897314453125,-0.20910452272891997,0.03958849854469299,-0.05566898799091577
1791114823124801500,10.599801513671874,2.0754484297066926,0.7454840205371379,-0.1533518019773066
1791114823134872600,10.60987255859375,2.7020205318763852,0.6804197199523448,-0.2731335619818419
1791114823144943400,10.619943359375,2.826241078045964,0.5612807148307561,0.23408340809755027
1791114823155014400,10.630014404296874,1.5242875423520803,1.2038882982611656,0.6699875385913997
1791114823165084700,10.640084716796874,-1.4206056340813635,0.4441390210062265,0.5727020533595234
1791114823175155700,10.65015576171875,-4.187174625974893,-0.3196101395398378,1.1296642474040388
1791114823185226800,10.660226806640624,-2.765382704718411,-0.9577397007733582,0.48018144444189964
1791114823195297500,10.670297607421874,1.9895216660961508,-1.989610805684328,-0.35294366934299465
1791114823205367600,10.680367431640626,2.657517665544152,-0.7791828765213489,-0.08178951767534016
1791114823215438600,10.6904384765625,0.8573378370866179,0.9198124134391545,0.8504496119428425
1791114823225509600,10.700509521484374,-0.09255494957864284,1.3358137197196482,0.9046037383913993
1791114823235580700,10.71058056640625,-1.0718909806102515,0.4973404498398304,1.1950795533835887
1791114823245650400,10.720650390625,-1.9008330365568398,-0.20116729998886584,1.2900085386171936
1791114823255721500,10.730721435546876,-0.7954056970477104,-1.497258665651083,0.9008928281094878
1791114823265792500,10.74079248046875,-1.6936124278783797,-0.9799930336356163,1.3230015844196081
1791114823275863600,10.750863525390624,-2.3605796688005327,0.3396148166924715,0.9171369836848229
1791114823285933600,10.76093359375,-0.08794774804413318,-0.14976210692226885,1.5374845853164791
1791114823296004600,10.771004638671876,1.4310714985162019,-0.17389993835687637,0.926987273504585
1791114823306075600,10.78107568359375,1.182999239489436,-0.08141922305822372,0.4579127678800374
1791114823316146700,10.791146728515624,0.2678644624724984,0.3836901052623987,0.677389704606682
1791114823326216700,10.801216796875,0.9861375277400016,-0.38794893175065515,0.4790571165870875
1791114823336287500,10.81128759765625,-1.7717302713036536,-0.4032663278698921,0.6896741627708077
1791114823346358500,10.821358642578126,-1.564866805499792,-0.29423604430854317,0.7616091528426855
1791114823356429600,10.8314296875,1.8092098148703575,-0.45930093430280683,-0.07342274441160261
1791114823366499600,10.84149951171875,0.8534475516498088,0.8912661179125309,-0.029262115645781156
1791114823376570600,10.851570556640626,-0.6376590211123228,1.4009633605003355,0.5277518816512078
1791114823386641400,10.861641357421876,-0.7486240721285343,0.41020401817858215,0.5584590815387666
1791114823396712400,10.87171240234375,-1.9050638059943914,0.046188919723033905,0.4666396066278219
1791114823406782700,10.88178271484375,-1.1389786037161946,-0.3879202901780605,0.4781825987748801
1791114823416853800,10.891853759765626,0.49203123751580713,-0.0335579862087965,-0.1600621863361448
1791114823426924800,10.9019248046875,1.6118492136880755,0.17735972342193126,0.6046216977767646
1791114823436995600,10.91199560546875,-0.45183863559812304,0.5651695389628411,0.7638664302501827
1791114823447065600,10.922065673828126,-1.336537650080025,0.14505144501328468,1.3082326159633695
1791114823457136600,10.93213671875,0.27123744603693484,-0.322129428884387,1.605623909432441
1791114823467207700,10.942207763671876,1.0221046209171414,-0.077093761074543,-0.11305179416239261
1791114823477278500,10.952278564453126,-0.9555421907290815,0.5114776962637901,0.11666581994108854
1791114823487348500,10.962348388671876,-0.09505553422272205,1.1161252591341733,0.9676999537736177
1791114823497419500,10.97241943359375,3.080331574448943,-0.0029892449438571928,0.033062311646342275
1791114823507490600,10.982490478515626,1.6591232982993125,-0.3717155898302793,-0.015312208487465976
1791114823517561600,10.9925615234375,0.24126608614325523,-0.5514437959492207,0.606419833239913
1791114823527631600,11.002631591796876,-1.332841425910592,0.07213701545000076,0.9441226057659834
1791114823537702700,11.01270263671875,-1.7295312979996202,0.29547289262712,1.0550770623229444
1791114823547773700,11.022773681640626,0.16350772368013858,-0.6100339320838452,1.203551613652706
1791114823557844700,11.0328447265625,-1.0491636004954576,-0.10342179602980613,0.3917671017993241
1791114823567914500,11.04291455078125,-0.49494624817967414,0.014299743509292601,0.920402415221557
1791114823577985500,11.052985595703126,0.6170353352785111,0.4127653930991888,0.4841710255347192
1791114823588056600,11.063056640625,3.7964492152482268,-0.27578210372924805,-0.21338431893996893
1791114823598127600,11.073127685546876,4.214787732304632,-0.3358177624970674,-0.07291106856241822
1791114823608197600,11.08319775390625,0.21647563601881264,0.8157640099436044,0.7107840977516025
1791114823618268400,11.093268310546875,-1.9506570979118345,0.42139001358151434,1.4638181683421134
1791114823628339500,11.10333935546875,-1.992769854237139,-1.532782983496785,0.5988436258319765
1791114823638410500,11.113410400390626,-1.45043378611207,-1.5052864892840385,0.2346040709707886
1791114823648480800,11.123480712890625,0.887431362055242,-1.5594541328012943,-0.19595416845045982
1791114823658551800,11.1335517578125,0.5863856377318502,-0.9368225849509239,-0.6952070277828722
1791114823668622600,11.14362255859375,0.13456804492175578,0.23444588473439215,-0.6337762613948434
1791114823678693600,11.153693603515626,-0.06837620161175728,-0.2946627452880144,0.6688087771356105
1791114823688763600,11.163763671875,0.5374693388715386,-0.7284189039677381,0.5518085376083851
1791114823698834700,11.173834716796875,-1.727827124430239,-0.3532569730758667,0.6602290917735546
1791114823708905700,11.18390576171875,-2.4185160172015427,-0.09464695342183113,1.3549389836892485
1791114823718976500,11.1939765625,-0.2167459773927927,-0.6427700805157422,0.026659020475298164
1791114823729046500,11.204046630859375,2.931981087890267,-0.94787063318789,-0.6572560673121363
1791114823739117600,11.21411767578125,1.7420681234896183,0.5225052862346172,-0.0784683373633772
1791114823749188600,11.224188720703125,-0.6063637191385031,0.8243155651897192,0.14566073601804672
1791114823759259600,11.234259765625,-2.2822534433215855,-0.23146599214076993,0.45119609991088505
1791114823769329700,11.24432958984375,-2.4507976998642085,-0.9491320314258337,-0.30271694547124206
1791114823779400700,11.254400634765625,-0.6940753203392028,-0.8895119677215814,-0.3091371877770871
1791114823789472300,11.26447216796875,1.7075401232048868,-0.5117150121510029,-0.43923451702557503
1791114823799543300,11.274543212890626,1.1301485237896443,-0.1296218206912279,-0.345480713051185
1791114823809613300,11.28461328125,0.5918415650501847,1.141322244232893,0.24028328565098345
1791114823819684400,11.294684326171875,1.2631801529243587,0.8568874629706144,0.5116739494882524
1791114823829755400,11.30475537109375,1.306865565393865,0.08140987070798873,0.2962264144081622
1791114823839826400,11.314826416015626,0.831729348577559,0.04014671694934368,0.3873600990120321
1791114823849896200,11.324896240234375,-0.139563953512907,0.41782910622954367,0.7896052671406417
1791114823859967200,11.33496728515625,0.40713235564827915,-0.2194248412132263,0.3379098394054919
1791114823870038300,11.345038330078125,0.5526803520068526,-0.8115104441523552,-0.3942364875875413
1791114823880109300,11.355109375,0.2547489603117108,-0.03903846344649792,-0.3611057138148695
1791114823890179300,11.365179443359375,-0.25873627638220786,0.0684404990196228,-0.059662806867435574
1791114823900250000,11.37525,-0.38415012398958204,-0.4273690879911184,0.4957251966629177
1791114823910321200,11.385321044921875,-0.31624913867413995,-0.6899275530099869,0.9031697600655257
1791114823920392200,11.39539208984375,0.12710896108746528,-0.8406026831239461,0.7107559676356613
1791114823930462500,11.40546240234375,-0.06359013637900351,-0.4976052382558584,0.6840776579380035
1791114823940533500,11.415533447265625,0.24530279431343077,-0.23986498717367646,0.6664741236429661
1791114823950604300,11.425604248046875,1.8318208751291036,-0.2677671395778656,0.18975304878801105
1791114823960675300,11.43567529296875,1.6114543691515921,-0.6696013888180256,-0.1684292518608272
1791114823970745300,11.445745361328125,0.3983496219947934,-0.7416179927587508,-0.5605594878841191
1791114823980816400,11.45581640625,-0.10409925689995288,-0.09192775759100913,-0.2029666775610298
1791114823990887400,11.465887451171875,-1.037713401198387,0.47170858045518393,0.684722458647564
1791114824000958200,11.475958251953125,0.6059738430380821,-1.0734914015442132,0.24949337787106632
1791114824011028200,11.4860283203125,-0.43128070847690103,-1.2630781538546085,-0.09862192146740853
1791114824021099300,11.496099365234375,-2.337342293336987,-1.6818372344106436,0.04120660126581788
1791114824031170300,11.50617041015625,-1.1319079346776009,-0.5521007985532284,-0.2786459687277674
1791114824041241300,11.516241455078125,4.447878987559676,-0.8943728517562151,0.2102841609675437
1791114824051311400,11.526311279296875,5.291120787015557,-0.08219254551827906,-0.31168548402041196
1791114824061382400,11.53638232421875,1.5640075583219528,0.7970452809482812,0.49451501715555785
1791114824071453400,11.546453369140625,-1.135121051505208,0.5448036272823811,0.9142357823505997
1791114824081524500,11.5565244140625,-3.2931910657972097,0.5023077168583869,0.8659621653079986
1791114824091594200,11.56659423828125,-3.290376592898369,-0.44175943239331245,0.9425811484776436
1791114824101665300,11.576665283203125,-0.6442293394133448,-0.9280489113867282,0.0032785832792520523
1791114824111736300,11.586736328125,1.4270809675753116,-0.2411363222837448,0.42632535109184677
1791114824121807400,11.596807373046875,2.2319448133200406,0.23441139794290064,0.9615405543610454
1791114824131877000,11.606877197265625,2.1576520811408755,1.0406851104855537,0.8508473790887743
1791114824141948200,11.6169482421875,0.6904243966162205,1.317432844376564,0.5649903099384158
1791114824152019200,11.627019287109375,-0.893811710742116,0.44410687230229373,0.23248488685972987
1791114824162090200,11.63709033203125,-0.5122960269093513,0.012500585132837295,-0.7507863647289573
1791114824172160500,11.647160400390625,-0.22001257797330617,-0.29944413434565065,-0.6305621216539293
1791114824182231300,11.657231201171875,-0.91087828861624,-0.6115268009901046,-0.4723003358032554
1791114824192302300,11.66730224609375,-2.0069000863984225,0.4286608813673258,0.36243615870103235
1791114824202373400,11.677373291015625,-2.2410221460059283,0.6370423505187034,0.3559619942508638
1791114824212443400,11.687443359375,-0.407723891800642,-1.0264677845627068,-0.11508534581661224
1791114824222514400,11.697514404296875,2.9009786313831802,-1.4135785119235516,-0.657595966790989
1791114824232585200,11.707585205078125,2.0205682540059087,0.38459377610385415,-0.2640649240590632
1791114824242656300,11.71765625,0.3914639541342854,0.9850374575436115,0.8159859090659767
1791114824252726300,11.727726318359375,-0.1476116508901119,-0.6024684652656317,0.30894926398955286
1791114824262797300,11.73779736328125,1.9019243389248848,-1.3732546848416327,0.1550874666634947
1791114824272868400,11.747868408203125,-0.18956717082709074,-0.317825009688735,0.31828532067686316
1791114824282939100,11.757939208984375,-0.790546274317801,-0.48303310754597184,0.47142055729404087
1791114824293009400,11.768009521484375,0.12266980959624052,-0.41150341033935545,0.38796727112494406
1791114824303080400,11.77808056640625,-0.07578034038841724,-0.35310733547210693,0.6238930922187864
1791114824313151200,11.788151123046875,0.7490642171114683,-0.41523149095177647,0.26673662748634813
1791114824323222300,11.79822216796875,2.464482526345551,-0.6625239977777004,-0.2779899890370667
1791114824333292300,11.808292236328125,1.4487167530611156,0.3052665568888187,-0.3756793058294803
1791114824343363300,11.81836328125,-2.218340066337585,0.8456728259950875,0.18083894383981822
1791114824353434400,11.828434326171875,-3.3058424575775858,-0.4655418745189905,0.120471678497456
1791114824363505400,11.83850537109375,-1.0947831958979368,-1.040315108129382,-0.2879793585339561
1791114824373575200,11.8485751953125,-1.4046382496207952,0.21979835070073603,-1.2571256751909852
1791114824383646200,11.858646240234375,-1.4870821395516394,1.0618775361180306,-0.5195617435960099
1791114824393717200,11.86871728515625,-1.100068442824483,1.1618132435977457,0.03977799323480576
1791114824403788300,11.878788330078125,0.228453950843215,0.8148731985837221,-0.02749035673290491
1791114824413858300,11.8888583984375,1.138006251552701,0.14972352847754955,-0.23451321434956043
1791114824423929000,11.89892919921875,0.26665187181234357,0.526166731351614,-0.31729934184681624
1791114824434000100,11.909000244140625,-1.0482646058291196,1.1270119793295859,0.31677308948300775
1791114824444071200,11.9190712890625,-1.5498632976353168,0.7304477794468403,0.6129675013177096
1791114824454141400,11.929141357421875,-1.6992302677601574,0.7076163544356823,0.3589859817145392
1791114824464212200,11.939212158203125,-2.4603484952807424,0.6458896738409996,0.11101853476911783
1791114824474283300,11.949283203125,-2.165910206398368,0.6325941389381885,-0.1690173539470881
1791114824484354300,11.959354248046875,0.2380336800932884,0.6191752699166536,0.2880952765312046
1791114824494424300,11.96942431640625,3.0090926768824455,-0.04962707747817039,0.39766470847055313
1791114824504495400,11.979495361328125,3.258823516771197,-0.3149152597218752,0.4185286328010261
1791114824514566100,11.989566162109375,0.5587628867909312,0.3721095575839281,0.8676384279571473
1791114824524637200,11.99963720703125,-0.999980759653449,0.24127836110293863,1.7408946957960725
1791114824534707200,12.009707275390625,-2.6727076358914372,-0.1112614036142826,1.6353803114011882
1791114824544778200,12.0197783203125,-1.8449919068694114,-1.439381646221876,1.3556133758194744
1791114824554849300,12.029849365234375,1.085711416170001,-2.025712046635151,0.8367587941121309
1791114824564920000,12.039920166015625,1.60366269236207,-0.34575989531874657,0.46800070238057523
1791114824574990300,12.049990234375,2.093614785516262,-0.01281271982192993,1.0664911673933266
1791114824585061400,12.060061279296875,2.248911730211973,0.34530630633234977,1.0178279665112495
1791114824595132400,12.07013232421875,0.003049450698494911,0.03018295681774616,0.4741149840097874
1791114824605203500,12.080203369140625,-0.8133587023675442,-1.3342752581059931,0.215109571829997
1791114824615273200,12.090273193359375,-1.5841688873410225,-0.6536614768862724,-0.2560306706853211
1791114824625344300,12.10034423828125,-0.09642039283514023,-0.7819751375883818,-0.6926205914862453
1791114824635415300,12.110415283203125,1.5513924068987368,-1.0939350546360016,-0.45861989323608576
1791114824645486300,12.120486328125,1.9468308176219462,0.13754969108104706,-1.0767309679873287
1791114824655556000,12.13055615234375,-0.23732582408487796,0.41636078724265096,-0.7064773404683917
1791114824665627100,12.140627197265625,-1.0067483540922402,-0.06722644705474376,0.06934877297095954
1791114824675698200,12.1506982421875,0.41460897513926026,-0.005794365492463111,-0.7412827694550156
1791114824685769200,12.160769287109375,-1.066792780688405,-0.22097674683034418,-0.08965732844099401
1791114824695839500,12.170839599609375,-1.88198658952862,-0.6807721866518258,0.4536585079690441
1791114824705910300,12.18091015625,-1.7453852852135896,-0.22529811716079712,0.9563904781214893
1791114824715981300,12.190981201171875,0.9073661888420581,0.23324936842620372,0.2699180705340579
1791114824726051300,12.20105126953125,2.1960896560847756,-0.25800153236687184,0.12686846686247735
1791114824736122400,12.211122314453124,2.6993203330069777,-0.1877846713244915,0.21858744054101406
1791114824746193400,12.221193359375,-0.5301628152504563,1.2002461423665285,0.7101397354334592
1791114824756264200,12.23126416015625,-2.56948428504318,-0.030167174726724623,1.466490748552233
1791114824766334200,12.241334228515624,-1.9118483515679836,-0.6673340284079313,0.16094097846467048
1791114824776405200,12.2514052734375,-0.4296180359616875,-0.25942835029959677,-0.4918811980532482
1791114824786476000,12.26147607421875,1.705085423529148,0.009395604854822158,-0.22949472860042006
1791114824796546800,12.271546875,0.8188976317942142,0.4669873971521854,-0.4600107265399769
1791114824806617000,12.2816171875,-1.3813658028438687,-0.10813771863579749,0.46610780130606144
1791114824816688000,12.291688232421874,-0.35615210999548436,-0.10408873550593853,0.625540567164868
1791114824826759200,12.30175927734375,0.4125210629492998,-0.24602993954420088,-0.2650235399581492
1791114824836830200,12.311830322265624,0.543930936101079,-0.4438607885867357,-0.26364677171222867
1791114824846900000,12.32189990234375,0.7088228076159954,0.03507365146875381,0.2653212077304721
1791114824856971000,12.331970947265624,0.8210656234830618,-0.27927637558579443,0.4086257360111922
1791114824867042000,12.3420419921875,-0.09296353037953377,-0.7761796030521393,0.3792525612063706
1791114824877113000,12.352113037109374,-1.8198031050771475,-0.4135977522701025,0.8430150049626827
1791114824887182800,12.362182861328124,-1.7107731137767432,0.15360007764995098,1.5698383103020488
1791114824897254000,12.37225390625,-0.4202089871034026,0.20918460222780702,0.4492363806778565
1791114824907325000,12.382324951171874,1.0260653412416576,-0.28096213671565057,0.0854203849909827
1791114824917396000,12.39239599609375,0.9249313638880848,0.21833353884518145,-0.2582080147244036
1791114824927466200,12.40246630859375,1.3125553014680742,0.4711328263938427,-0.7243704322945326
1791114824937537000,12.412537109375,2.7074393420547245,-0.03837386205792427,-0.6617599546026438
1791114824947608000,12.422608154296874,2.941111904329061,-0.841095435076952,-0.6542986057460307
1791114824957679000,12.43267919921875,-0.6102087041288614,-0.9744915136098861,-0.7748772882819175
1791114824967749000,12.4427490234375,-5.2048494477510445,-0.8017600345104933,0.11810480323564261
1791114824977820200,12.452820068359374,-5.206174558874965,-0.5733388168931007,-0.013922909553535283
1791114824987891000,12.462890869140624,-1.6918077165439724,-0.03120820821225643,-0.725721481577307
1791114824997962000,12.4729619140625,5.23904397829771,-1.0582143374353647,-1.5444930027738213
1791114825008032000,12.483031982421876,7.162463525193929,0.10951251412034034,-2.07969220475629
1791114825018103000,12.49310302734375,1.9475202611908315,2.1745120305269956,-0.6811427735298872
1791114825028174000,12.503174072265624,0.425215709349513,0.5935001459121704,1.3405007084921001
1791114825038244900,12.513244873046874,-0.39433541791737076,0.09492167870998382,0.3425136799391359
1791114825048315100,12.523315185546876,-0.2169640040576458,-1.4500047470450401,-1.2415106112994252
1791114825058386200,12.53338623046875,-2.417219255389273,-0.5044657716751099,-1.5744877435430884
1791114825068457200,12.543457275390624,-2.6072850233882665,0.22264380325973032,-0.5806836266979575
1791114825078528300,12.5535283203125,0.4831207858294248,-1.711083202639222,-0.48294550232775507
1791114825088598000,12.563597900390626,0.8095458660811186,-0.6994897466033697,0.19842172760777174
1791114825098669000,12.5736689453125,1.7451655049830674,-0.9248357945591211,0.6503859623469412
1791114825108740000,12.583739990234376,1.5011685325711965,-0.26289222701787945,-0.08943148379586636
1791114825118811100,12.59381103515625,-0.4078548247039318,0.1792915682673454,0.1549301572099328
1791114825128881000,12.603880859375,0.4018412635028362,-1.2887088541954754,0.7843137366037816
1791114825138952000,12.613951904296876,0.2132929143294692,-0.364280471393466,0.8540149032089859
1791114825149023000,12.62402294921875,-0.8611495043292641,0.48612464382052417,1.479304929678887
1791114825159094000,12.634093994140626,0.7344795191809534,0.6171773740977049,0.8659350581053644
1791114825169164000,12.6441640625,1.1045645851999522,1.2513847934514284,0.42984903170596805
