time,seconds_elapsed,z,y,x
1791114812590776300,0.0657763671875,0.23188696801662445,0.11687030643224716,-0.005438761319965124
1791114812600846600,0.0758466796875,0.22475822269916534,0.10133582353591919,0.0031499331817030907
1791114812610917400,0.08591748046875,0.1738557368516922,0.08506683260202408,-0.026111580431461334
1791114812620988400,0.095988525390625,0.1360098123550415,0.07009320706129074,0.03552968055009842
1791114812631059500,0.1060595703125,0.12880384922027588,0.08568091690540314,0.06031246855854988
1791114812641130500,0.116130615234375,0.15233580768108368,0.09022719413042068,0.03665054962038994
1791114812651200500,0.126200439453125,0.15496928989887238,0.10432735085487366,-0.0006250974838621914
1791114812661271300,0.136271240234375,0.13386613130569458,0.11763250082731247,0.007067709695547819
1791114812671342300,0.14634228515625,0.1312321424484253,0.1205848902463913,0.02575737051665783
1791114812681413400,0.156413330078125,0.1444254368543625,0.12045334279537201,0.028245029971003532
1791114812691484400,0.166484375,0.1039852648973465,0.11532867699861526,0.054441168904304504
1791114812701554400,0.176554443359375,0.04474031552672386,0.08393586426973343,0.0662299171090126
1791114812711625200,0.186625244140625,-0.016912151128053665,0.0917355865240097,0.049296557903289795
1791114812721696300,0.1966962890625,-0.05761244148015976,0.07676968723535538,0.0592607744038105
1791114812731767300,0.206767333984375,-0.11370617151260376,0.08238568156957626,0.03504757210612297
1791114812741838300,0.21683837890625,-0.10803044587373734,0.06132407858967781,-0.041458651423454285
1791114812751908600,0.22690869140625,-0.10884681344032288,0.03884420543909073,-0.024719545617699623
1791114812761979400,0.2369794921875,-0.20294241607189178,-0.03760182857513428,0.05028066039085388
1791114812772050700,0.24705078125,-0.2634822428226471,-0.06414327025413513,0.028784045949578285
1791114812782121700,0.257121826171875,-0.25432097911834717,-0.03218453750014305,0.0025441846810281277
1791114812792192800,0.26719287109375,-0.2800489068031311,-0.08738663792610168,0.007230888120830059
1791114812802262800,0.2772626953125,-0.367400586605072,-0.18120980262756348,0.01954428106546402
1791114812812333600,0.28733349609375,-0.44345736503601074,-0.23139333724975586,0.042859192937612534
1791114812822404600,0.297404541015625,-0.4692000150680542,-0.26137521862983704,0.025834403932094574
1791114812832475600,0.3074755859375,-0.47296059131622314,-0.2778059244155884,0.004486010409891605
1791114812842546700,0.317546630859375,-0.4891507625579834,-0.31095319986343384,0.01639273576438427
1791114812852616700,0.32761669921875,-0.5508987307548523,-0.3405817151069641,0.03802181035280228
1791114812862687500,0.3376875,-0.5953429341316223,-0.3606073558330536,0.07419419288635254
1791114812872758500,0.347758544921875,-0.5883771777153015,-0.3589519262313843,0.05325296148657799
1791114812882829600,0.35782958984375,-0.5945226550102234,-0.402797132730484,0.06256762892007828
1791114812892900600,0.367900634765625,-0.5955503582954407,-0.4427024722099304,0.0367371030151844
1791114812902971000,0.377970947265625,-0.5417729020118713,-0.4400627613067627,0.03137988597154617
1791114812913041700,0.388041748046875,-0.5474370718002319,-0.4259265661239624,0.07119246572256088
1791114812923112700,0.39811279296875,-0.5651623010635376,-0.44406428933143616,0.10890096426010132
1791114812933183700,0.408183837890625,-0.5632534027099609,-0.45732569694519043,0.11269316077232361
1791114812943254800,0.4182548828125,-0.5421584844589233,-0.4950363039970398,0.14435121417045593
1791114812953324500,0.428324462890625,-0.5300540328025818,-0.4517667591571808,0.07369454205036163
1791114812963395600,0.4383955078125,-0.44313883781433105,-0.4214003384113312,0.026913726702332497
1791114812973466600,0.448466552734375,-0.39946112036705017,-0.40964481234550476,-0.0164556372910738
1791114812983537700,0.45853759765625,-0.3589184880256653,-0.40324071049690247,-0.034729719161987305
1791114812993608700,0.468608642578125,-0.26911354064941406,-0.33635425567626953,-0.07330754399299622
1791114813003678500,0.478678466796875,-0.20120692253112793,-0.30190733075141907,-0.05305047705769539
1791114813013749500,0.48874951171875,-0.14751581847667694,-0.2762019634246826,-0.031646978110075
1791114813023820500,0.498820556640625,-0.14771422743797302,-0.23375120759010315,0.012183858081698418
1791114813033891600,0.5088916015625,-0.11912191659212112,-0.20559906959533691,-0.018683992326259613
1791114813043961900,0.5189619140625,-0.033206742256879807,-0.1476212739944458,-0.03549972549080849
1791114813054032600,0.52903271484375,0.0243435800075531,-0.1087813451886177,-0.0031938222236931324
1791114813064103700,0.539103759765625,0.05817265063524246,-0.07601168006658554,-0.00702850753441453
1791114813074174700,0.5491748046875,0.1246449202299118,-0.036104992032051086,-0.027314983308315277
1791114813084245800,0.559245849609375,0.18733812868595123,-0.00823208224028349,0.01780775375664234
1791114813094315800,0.569315673828125,0.20373138785362244,0.003609670326113701,0.03787602484226227
1791114813104386600,0.579386474609375,0.150529146194458,0.027240963652729988,0.04406361281871796
1791114813114457600,0.58945751953125,0.07585412263870239,0.02099824696779251,0.053619034588336945
1791114813124528600,0.599528564453125,0.1556490808725357,-0.006604617461562157,-0.015620488673448563
1791114813134599700,0.609599609375,0.2082805335521698,-0.021494023501873016,0.0246744342148304
1791114813144669700,0.619669677734375,0.14701610803604126,-0.054708704352378845,0.06436619162559509
1791114813154740500,0.629740478515625,0.08634679764509201,-0.03539366275072098,-0.0380384661257267
1791114813164811500,0.6398115234375,0.09334292262792587,-0.023709043860435486,-0.10014764219522476
1791114813174882600,0.649882568359375,0.045021332800388336,-0.059537529945373535,-0.02430840954184532
1791114813184953600,0.65995361328125,-0.007417640648782253,-0.07101575285196304,-0.0011799216736108065
1791114813195024000,0.67002392578125,-0.026965433731675148,-0.0632321909070015,-0.044694069772958755
1791114813205094700,0.6800947265625,-0.024658070877194405,-0.06605194509029388,-0.1044980138540268
1791114813215165700,0.690165771484375,-0.049821823835372925,-0.10815726220607758,-0.03622046113014221
1791114813225236700,0.70023681640625,-0.1021052673459053,-0.14427798986434937,-0.0342814140021801
1791114813235307800,0.710307861328125,-0.1346290111541748,-0.14470475912094116,-0.01355996634811163
1791114813245377800,0.720377685546875,-0.18473131954669952,-0.13338179886341095,-0.048461489379405975
1791114813255448600,0.730448486328125,-0.16361360251903534,-0.1893443465232849,-0.07521670311689377
1791114813265519600,0.74051953125,-0.14130297303199768,-0.2234455943107605,-0.03695906698703766
1791114813275590700,0.750590576171875,-0.19882860779762268,-0.21969714760780334,0.016756147146224976
1791114813285661700,0.76066162109375,-0.26773443818092346,-0.22964832186698914,-0.002078527584671974
1791114813295731700,0.770731689453125,-0.26256880164146423,-0.20319992303848267,-0.07729840278625488
1791114813305802500,0.780802490234375,-0.23003241419792175,-0.1736646592617035,-0.06136737018823624
1791114813315873500,0.79087353515625,-0.20180614292621613,-0.17999571561813354,-0.034163083881139755
1791114813325944600,0.800944580078125,-0.2349020391702652,-0.17836907505989075,-0.016332954168319702
1791114813336015600,0.811015625,-0.24951796233654022,-0.17389775812625885,-0.01113005168735981
1791114813346086000,0.8210859375,-0.2506215572357178,-0.17107002437114716,-0.014155668206512928
1791114813356156700,0.83115673828125,-0.2845907509326935,-0.190083310008049,0.01617642305791378
1791114813366227700,0.841227783203125,-0.28281867504119873,-0.24071213603019714,0.0051874201744794846
1791114813376298800,0.851298828125,-0.2931534945964813,-0.23998647928237915,0.016557421535253525
1791114813386369800,0.861369873046875,-0.29714661836624146,-0.2489141970872879,-0.032187748700380325
1791114813396439800,0.871439697265625,-0.2948921322822571,-0.2832956314086914,-0.07013547420501709
1791114813406510600,0.881510498046875,-0.3091384470462799,-0.2990567684173584,-0.052900027483701706
1791114813416581600,0.89158154296875,-0.36920636892318726,-0.30704331398010254,0.023218611255288124
1791114813426652700,0.901652587890625,-0.4048154950141907,-0.3349716067314148,0.03629233315587044
1791114813436722700,0.91172265625,-0.3092072904109955,-0.33610206842422485,-0.03172515705227852
1791114813446793500,0.92179345703125,-0.24293212592601776,-0.337248831987381,-0.030125128105282784
1791114813456864500,0.931864501953125,-0.25498634576797485,-0.3671148419380188,0.020714495331048965
1791114813466935600,0.941935546875,-0.2341867983341217,-0.3683745265007019,0.007178980391472578
1791114813477006600,0.952006591796875,-0.1544031947851181,-0.3609648048877716,0.03432830795645714
1791114813487076900,0.962076904296875,-0.10402283072471619,-0.3332871198654175,0.05469483137130737
1791114813497147600,0.972147705078125,-0.06904146075248718,-0.3108817934989929,0.10803218930959702
1791114813507218700,0.98221875,-0.03379478678107262,-0.28487417101860046,0.11013928055763245
1791114813517289700,0.992289794921875,0.01267408486455679,-0.2405107617378235,0.11481155455112457
1791114813527360800,1.00236083984375,0.026056203991174698,-0.2168309986591339,0.12735611200332642
1791114813537430800,1.0124306640625,0.08273714035749435,-0.19817321002483368,0.05230533704161644
1791114813547501600,1.02250146484375,0.15677674114704132,-0.17425137758255005,0.037353552877902985
1791114813557572600,1.032572509765625,0.16498908400535583,-0.14325618743896484,0.03943891450762749
1791114813567643600,1.0426435546875,0.17148160934448242,-0.13069911301136017,0.07212682068347931
1791114813577714700,1.052714599609375,0.18234004080295563,-0.10689456760883331,0.06531602889299393
1791114813587784700,1.06278466796875,0.17082081735134125,-0.07158397138118744,0.06976323574781418
1791114813597855500,1.07285546875,0.14548034965991974,-0.04742256551980972,0.08827362209558487
1791114813607926500,1.082926513671875,0.1933586597442627,-0.027148719877004623,0.04605692997574806
1791114813617997600,1.09299755859375,0.25905218720436096,-0.014237940311431885,0.00677482970058918
1791114813628068600,1.103068603515625,0.2781324088573456,0.004619636572897434,-0.014179986901581287
1791114813638139000,1.113138916015625,0.289630651473999,0.03170786052942276,-0.03625829890370369
1791114813648209700,1.123209716796875,0.2660198509693146,0.06741418689489365,-0.024091379716992378
1791114813658280700,1.13328076171875,0.2832920551300049,0.10115537792444229,0.0027319774962961674
1791114813668351700,1.143351806640625,0.2795974612236023,0.1326826810836792,0.01911334879696369
1791114813678421800,1.153421875,0.3044906258583069,0.15681681036949158,-0.03628647327423096
1791114813688492800,1.163492919921875,0.3679433763027191,0.18189100921154022,-0.016125278547406197
1791114813698563600,1.1735634765625,0.3948938548564911,0.21816515922546387,-0.026928553357720375
1791114813708634600,1.183634521484375,0.39335986971855164,0.23260030150413513,-0.03051609732210636
1791114813718705700,1.19370556640625,0.36962464451789856,0.22668743133544922,0.01070354599505663
1791114813728775700,1.203775634765625,0.360026091337204,0.23945382237434387,0.053003329783678055
1791114813738846700,1.2138466796875,0.37328410148620605,0.2278577834367752,0.08216360956430435
1791114813748917500,1.22391748046875,0.38122886419296265,0.22172905504703522,0.06341655552387238
1791114813758988500,1.233988525390625,0.34771618247032166,0.2183588445186615,0.01626543700695038
1791114813769059600,1.2440595703125,0.31280481815338135,0.19207370281219482,-0.03541986271739006
1791114813779129600,1.254129638671875,0.25979962944984436,0.15395937860012054,0.01817578263580799
1791114813789200600,1.26420068359375,0.20716999471187592,0.12562255561351776,0.01655152067542076
1791114813799271700,1.274271728515625,0.16886505484580994,0.1027197539806366,0.021622899919748306
1791114813809342700,1.2843427734375,0.12160833179950714,0.07845356315374374,-0.0037274635396897793
1791114813819413800,1.294413818359375,0.08329053968191147,0.050532735884189606,0.03472980484366417
1791114813829483500,1.3044833984375,0.04937305301427841,0.02390751615166664,0.03144266828894615
1791114813839554600,1.314554443359375,-0.011581453494727612,0.003295512869954109,0.06831888854503632
1791114813849625600,1.32462548828125,-0.07239633798599243,-0.03082703799009323,0.06220186874270439
1791114813859696600,1.334696533203125,-0.14190007746219635,-0.07757768034934998,0.09728541225194931
1791114813869766400,1.344766357421875,-0.19736173748970032,-0.11201661825180054,0.10387273877859116
1791114813879837400,1.35483740234375,-0.27192243933677673,-0.14934417605400085,0.11674968898296356
1791114813889908500,1.364908447265625,-0.3330957889556885,-0.19767655432224274,0.1326010823249817
1791114813899979500,1.3749794921875,-0.379616379737854,-0.23554179072380066,0.15476635098457336
1791114813910050600,1.385050537109375,-0.4180135428905487,-0.2741751968860626,0.11832419037818909
1791114813920120600,1.39512060546875,-0.4716801941394806,-0.3064712882041931,0.05139477923512459
1791114813930191600,1.405191650390625,-0.5186058282852173,-0.3272644579410553,0.015164606273174286
1791114813940262700,1.4152626953125,-0.5133798122406006,-0.3355925381183624,-0.011086823418736458
1791114813950333700,1.425333740234375,-0.46191370487213135,-0.33364468812942505,0.035138994455337524
1791114813960404700,1.43540478515625,-0.4453113079071045,-0.3561778664588928,0.0542217455804348
1791114813970474500,1.445474609375,-0.4860992133617401,-0.37444156408309937,0.04491373151540756
1791114813980545500,1.455545654296875,-0.5345192551612854,-0.3834271728992462,-0.025343958288431168
1791114813990616600,1.465616455078125,-0.5766158103942871,-0.40932801365852356,-0.031341928988695145
1791114814000687600,1.4756875,-0.5769587755203247,-0.4378904402256012,-0.07445786893367767
1791114814010758700,1.485758544921875,-0.5528915524482727,-0.45615652203559875,-0.07806006073951721
1791114814020828400,1.495828369140625,-0.5623817443847656,-0.4766535460948944,-0.02393626980483532
1791114814030899500,1.5058994140625,-0.5662673115730286,-0.519084632396698,-0.019562294706702232
1791114814040970500,1.515970458984375,-0.5709506869316101,-0.5246644616127014,-0.08799178153276443
1791114814051041500,1.52604150390625,-0.5691043138504028,-0.5087352991104126,-0.07650849968194962
1791114814061111600,1.536111572265625,-0.5604533553123474,-0.5255692601203918,-0.03630446270108223
1791114814071182600,1.5461826171875,-0.5600613355636597,-0.5051158666610718,-0.061484917998313904
1791114814081253600,1.556253662109375,-0.518891453742981,-0.49956977367401123,-0.06983062624931335
1791114814091324700,1.56632470703125,-0.4762057960033417,-0.4989814758300781,-0.008338505402207375
1791114814101395700,1.576395751953125,-0.4583721458911896,-0.4975025951862335,0.041688088327646255
1791114814111465500,1.586465576171875,-0.4730006456375122,-0.4850078523159027,-0.037558797746896744
1791114814121536500,1.59653662109375,-0.43692195415496826,-0.48420286178588867,-0.0111456997692585
1791114814131607600,1.606607666015625,-0.4091894030570984,-0.47352197766304016,0.004216211847960949
1791114814141678600,1.6166787109375,-0.3543700575828552,-0.4695391058921814,-0.013055640272796154
1791114814151748600,1.62674853515625,-0.2756020128726959,-0.48194995522499084,0.004551582969725132
1791114814161819400,1.6368193359375,-0.23829130828380585,-0.4778556227684021,0.016809148713946342
1791114814171890400,1.646890380859375,-0.23963060975074768,-0.45414310693740845,0.01907789707183838
1791114814181961500,1.65696142578125,-0.2388821840286255,-0.44566047191619873,-0.022062307223677635
1791114814192032500,1.667032470703125,-0.1694093644618988,-0.44471079111099243,-0.04620173200964928
1791114814202102800,1.677102783203125,-0.11789793521165848,-0.4199095368385315,-0.027942124754190445
1791114814212173600,1.687173583984375,-0.08877786248922348,-0.3914715051651001,0.0011907272273674607
1791114814222244600,1.69724462890625,-0.04523240774869919,-0.3702974021434784,-0.012400537729263306
1791114814232315600,1.707315673828125,-0.012232115492224693,-0.34316110610961914,-0.07148277014493942
1791114814242386700,1.71738671875,0.0507882684469223,-0.3299306333065033,-0.10669412463903427
1791114814252456700,1.727456787109375,0.08705279976129532,-0.3091348111629486,-0.010890633799135685
1791114814262527500,1.737527587890625,0.12020878493785858,-0.2708260118961334,0.045773159712553024
1791114814272598500,1.7475986328125,0.14970862865447998,-0.244595468044281,0.11280838400125504
1791114814282669600,1.757669677734375,0.16939279437065125,-0.2265179306268692,0.12495673447847366
1791114814292739600,1.767739501953125,0.23036585748195648,-0.20518042147159576,0.10060425847768784
1791114814302810400,1.777810302734375,0.2725318670272827,-0.1739112287759781,0.08093162626028061
1791114814312881400,1.78788134765625,0.2792683243751526,-0.1458902359008789,0.02366327866911888
1791114814322952400,1.797952392578125,0.25348103046417236,-0.11831717193126678,0.0027986005879938602
1791114814333023500,1.8080234375,0.27163445949554443,-0.11647585779428482,0.023345688357949257
1791114814343093800,1.81809375,0.3214613199234009,-0.10322960466146469,0.019033905118703842
1791114814353164500,1.82816455078125,0.3427623510360718,-0.0900711938738823,0.037530358880758286
1791114814363235600,1.838235595703125,0.3833784759044647,-0.0906943753361702,0.07939577847719193
1791114814373306600,1.848306640625,0.4044819176197052,-0.07776924967765808,0.09111662209033966
1791114814383377700,1.858377685546875,0.4158998131752014,-0.070419542491436,0.09880879521369934
1791114814393447700,1.86844775390625,0.3885672688484192,-0.029005521908402443,0.057313017547130585
1791114814403518500,1.8785185546875,0.34578269720077515,0.0011617215350270271,0.07518324255943298
1791114814413589500,1.888589599609375,0.3443893492221832,-0.0010313913226127625,0.056896381080150604
1791114814423660500,1.89866064453125,0.3709772825241089,-0.006208635866641998,0.04814285784959793
1791114814433731600,1.908731689453125,0.41447070240974426,-0.005586521700024605,0.024021277204155922
1791114814443801600,1.918801513671875,0.3877575695514679,0.01364100817590952,-0.0473223440349102
1791114814453872400,1.928872314453125,0.33496811985969543,0.021273627877235413,-0.08480021357536316
1791114814463943400,1.938943359375,0.3081614673137665,0.014286945573985577,-0.07899858057498932
1791114814474014500,1.949014404296875,0.32554659247398376,0.017381004989147186,-0.048415374010801315
1791114814484084500,1.95908447265625,0.33413949608802795,0.029485322535037994,0.014889650046825409
1791114814494155500,1.969155517578125,0.30511823296546936,0.02854549139738083,-0.004439839161932468
1791114814504226600,1.9792265625,0.2767450213432312,0.03189331293106079,-0.053046029061079025
1791114814514297600,1.989297607421875,0.26622262597084045,0.04425942897796631,-0.06389281898736954
1791114814524368600,1.99936865234375,0.2715767025947571,0.04469607025384903,-0.019201718270778656
1791114814534438700,2.009438720703125,0.2547614872455597,0.03153073415160179,-0.030014686286449432
1791114814544509700,2.019509765625,0.256096214056015,0.01904239133000374,-0.05127773433923721
1791114814554580500,2.02958056640625,0.26081427931785583,0.016616253182291985,-0.05823364853858948
1791114814564651500,2.039651611328125,0.25502797961235046,0.01567414589226246,-0.05229619890451431
1791114814574721500,2.049721435546875,0.20683301985263824,0.038406357169151306,-0.05179259553551674
1791114814584792600,2.05979248046875,0.19039303064346313,0.04207516834139824,-0.06528516113758087
1791114814594863600,2.069863525390625,0.19593027234077454,0.0571151003241539,-0.06533283740282059
1791114814604934400,2.079934326171875,0.20975087583065033,0.059290457516908646,-0.08701378852128983
1791114814615005400,2.09000537109375,0.24674218893051147,0.05413883924484253,-0.10577522963285446
1791114814625075500,2.100075439453125,0.272579163312912,0.06919969618320465,-0.10786546766757965
1791114814635146500,2.110146484375,0.25150689482688904,0.09199768304824829,-0.06659018993377686
1791114814645217500,2.120217529296875,0.2661394476890564,0.10275726765394211,-0.049715518951416016
1791114814655288600,2.13028857421875,0.3011704087257385,0.11210256814956665,-0.023592038080096245
1791114814665359600,2.140359619140625,0.2915059030056,0.11070282012224197,-0.07354798167943954
1791114814675429600,2.1504296875,0.27069544792175293,0.10716987401247025,-0.09780831634998322
1791114814685500700,2.160500732421875,0.2702021598815918,0.10027328878641129,-0.03900535777211189
1791114814695571700,2.17057177734375,0.30753299593925476,0.10107117146253586,0.025724638253450394
1791114814705642500,2.180642578125,0.3398091793060303,0.09844812005758286,0.07062652707099915
1791114814715713500,2.190713623046875,0.3548933267593384,0.1190444752573967,0.008597244508564472
1791114814725783600,2.200783447265625,0.3650415539741516,0.12353726476430893,-0.003831543494015932
1791114814735854600,2.2108544921875,0.37451493740081787,0.13517528772354126,-0.03674262389540672
1791114814745925600,2.220925537109375,0.3827022314071655,0.13957618176937103,-0.04920937493443489
1791114814755996400,2.230996337890625,0.4177270531654358,0.14729082584381104,-0.04873986169695854
1791114814766066400,2.24106640625,0.4582676589488983,0.1866167038679123,-0.036209836602211
1791114814776137700,2.2511376953125,0.47643253207206726,0.21755091845989227,0.0002333932789042592
1791114814786208800,2.261208740234375,0.48298054933547974,0.2579284608364105,0.03175467252731323
1791114814796279800,2.27127978515625,0.5236291885375977,0.3015846014022827,0.08311506360769272
1791114814806350800,2.281350830078125,0.5719596743583679,0.34011274576187134,0.07974983006715775
1791114814816421000,2.291421142578125,0.5833953022956848,0.3825523555278778,0.08351234346628189
1791114814826492000,2.301491943359375,0.5883218050003052,0.4191835820674896,0.08148130029439926
1791114814836563000,2.31156298828125,0.6078097820281982,0.44091418385505676,0.08310823142528534
1791114814846634000,2.321634033203125,0.5861629247665405,0.4416356384754181,0.005734034813940525
1791114814856704000,2.3317041015625,0.5529397130012512,0.4370294511318207,-0.010477425530552864
1791114814866775000,2.341775146484375,0.5158267617225647,0.41859692335128784,0.035893190652132034
1791114814876845800,2.351845703125,0.47008565068244934,0.4121784269809723,0.05273155868053436
1791114814886916900,2.361916748046875,0.42561689019203186,0.429686039686203,0.04578733444213867
1791114814896988000,2.37198779296875,0.33429229259490967,0.4293736517429352,0.05490813031792641
1791114814907058000,2.382057861328125,0.2467431277036667,0.3715638518333435,-0.002804744290187955
1791114814917129000,2.39212890625,0.15469229221343994,0.3271212875843048,-0.0739809200167656
1791114814927199700,2.40219970703125,0.08935283124446869,0.28247401118278503,-0.09140560775995255
1791114814937270800,2.412270751953125,0.06267861276865005,0.24284592270851135,-0.041390642523765564
1791114814947341800,2.422341796875,0.05904928222298622,0.2000894546508789,0.05216352641582489
1791114814957412000,2.432412109375,0.02671770751476288,0.18146063387393951,0.07695090025663376
1791114814967483000,2.44248291015625,-0.03915323689579964,0.14840935170650482,0.06956653296947479
1791114814977554000,2.452553955078125,-0.12917473912239075,0.12838584184646606,0.02491304650902748
1791114814987625000,2.462625,-0.20525424182415009,0.11979266256093979,-0.02225065976381302
1791114814997695000,2.472695068359375,-0.24860411882400513,0.09362337738275528,0.008901401422917843
1791114815007766000,2.48276611328125,-0.2575207054615021,0.07939945161342621,-0.0025497712194919586
1791114815017836800,2.4928369140625,-0.2793564796447754,0.0577402301132679,0.04370241239666939
1791114815027907800,2.502907958984375,-0.3009961247444153,0.03226953744888306,0.03055817075073719
1791114815037979000,2.512978759765625,-0.32498374581336975,0.02163127437233925,0.03253556787967682
1791114815048049000,2.523048828125,-0.35557764768600464,0.014151292853057384,0.019249117001891136
1791114815058120000,2.533119873046875,-0.34177714586257935,-0.008465070277452469,0.08800447732210159
1791114815068190700,2.543190673828125,-0.3222017288208008,-0.03874402120709419,0.13160860538482666
1791114815078261800,2.55326171875,-0.31781843304634094,-0.06630214303731918,0.13525687158107758
1791114815088332000,2.56333203125,-0.36243000626564026,-0.05542745441198349,0.09915775060653687
1791114815098403000,2.573403076171875,-0.34642601013183594,-0.06921623647212982,0.03234463930130005
1791114815108474000,2.58347412109375,-0.3501220941543579,-0.04883990436792374,0.016838861629366875
1791114815118545000,2.593544921875,-0.33483582735061646,-0.02323947101831436,-0.006073644384741783
1791114815128616000,2.603615966796875,-0.29808229207992554,-0.009722351096570492,-0.009757747873663902
1791114815138686000,2.61368603515625,-0.27618736028671265,0.0034669535234570503,-0.016450803726911545
1791114815148757000,2.623757080078125,-0.2389616072177887,0.018873941153287888,0.014058575965464115
1791114815158828000,2.633828125,-0.24186232686042786,0.029387302696704865,0.058007657527923584
1791114815168898800,2.64389892578125,-0.24144335091114044,0.032384272664785385,0.05469917133450508
1791114815178969900,2.653969970703125,-0.23797164857387543,0.058498695492744446,0.05957861617207527
1791114815189039900,2.664039794921875,-0.21332988142967224,0.07249580323696136,0.06022994592785835
1791114815199111000,2.67411083984375,-0.20123007893562317,0.0671020969748497,0.05012112110853195
1791114815209182000,2.684181884765625,-0.18826057016849518,0.059093017131090164,0.04713334143161774
1791114815219252700,2.694252685546875,-0.15365386009216309,0.047431301325559616,0.04907850921154022
1791114815229323000,2.704322998046875,-0.1668517291545868,0.0552428662776947,0.07173998653888702
1791114815239394000,2.71439404296875,-0.15718364715576172,0.03352585434913635,0.14509356021881104
1791114815249465000,2.724465087890625,-0.19539190828800201,0.004189757630228996,0.11653163284063339
1791114815259536100,2.7345361328125,-0.2370820939540863,-0.02111693099141121,0.026402540504932404
1791114815269607000,2.74460693359375,-0.31058597564697266,-0.028397543355822563,-0.0065673054195940495
1791114815279677000,2.754677001953125,-0.35487353801727295,-0.05327253043651581,0.013830910436809063
1791114815289748000,2.764748046875,-0.39147159457206726,-0.07483548671007156,0.025460267439484596
1791114815299819000,2.774819091796875,-0.41714152693748474,-0.10859505087137222,0.048258524388074875
1791114815309890000,2.78489013671875,-0.4506743252277374,-0.1514796018600464,0.045817192643880844
1791114815319959800,2.794959716796875,-0.47716933488845825,-0.1947927176952362,-0.0018957355059683323
1791114815330030800,2.80503076171875,-0.5407539010047913,-0.23257414996623993,-0.005596924107521772
1791114815340102000,2.815101806640625,-0.5862519145011902,-0.2893514335155487,0.03365087881684303
1791114815350173000,2.8251728515625,-0.5928274989128113,-0.33032339811325073,0.0072290534153580666
1791114815360244000,2.835243896484375,-0.5859562754631042,-0.34733298420906067,-0.021027885377407074
1791114815370314000,2.84531396484375,-0.5774039030075073,-0.3766109347343445,-0.03517609089612961
1791114815380385000,2.855385009765625,-0.6325286626815796,-0.39466556906700134,-0.04740825295448303
1791114815390456000,2.8654560546875,-0.6897261142730713,-0.42496562004089355,-0.0343770794570446
1791114815400527000,2.875527099609375,-0.7246614694595337,-0.4552534818649292,-0.013932790607213974
1791114815410596900,2.885596923828125,-0.7685976028442383,-0.4850046932697296,-0.02737582102417946
1791114815420668000,2.89566796875,-0.7755473852157593,-0.5209243297576904,0.006859115790575743
1791114815430739000,2.905739013671875,-0.7256684303283691,-0.5471897125244141,0.03431800752878189
1791114815440810000,2.91581005859375,-0.6642359495162964,-0.5701158046722412,-0.008562612347304821
1791114815450881000,2.925881103515625,-0.6698110699653625,-0.5813692808151245,-0.011356500908732414
1791114815460950800,2.93595068359375,-0.6734558343887329,-0.5984185338020325,-0.014441773295402527
1791114815471021800,2.946021728515625,-0.6973506808280945,-0.5812627673149109,0.028797898441553116
1791114815481092900,2.9560927734375,-0.6874703764915466,-0.6018628478050232,0.02991376258432865
1791114815491164000,2.966163818359375,-0.6215826272964478,-0.6072126626968384,0.06675156205892563
1791114815501234000,2.97623388671875,-0.5537114143371582,-0.5811977982521057,0.08961719274520874
1791114815511305000,2.986304931640625,-0.49320805072784424,-0.5732685327529907,0.10413198918104172
1791114815521376000,2.9963759765625,-0.4093770682811737,-0.5561092495918274,0.09358693659305573
1791114815531447000,3.006447021484375,-0.32871049642562866,-0.5206910967826843,0.09382103383541107
1791114815541518000,3.01651806640625,-0.2469828575849533,-0.48953187465667725,0.03215474635362625
1791114815551587800,3.026587890625,-0.1766950935125351,-0.4540347456932068,0.015263023786246777
1791114815561659000,3.036658935546875,-0.11709781736135483,-0.4163494110107422,0.008869307115674019
1791114815571730000,3.04672998046875,-0.0914386585354805,-0.3719256818294525,-0.03738022595643997
1791114815581801000,3.056801025390625,-0.06758259981870651,-0.32008886337280273,-0.05024222657084465
1791114815591872000,3.0668720703125,0.026140477508306503,-0.27182862162590027,-0.05341971665620804
1791114815601941800,3.076941650390625,0.10038940608501434,-0.21622689068317413,-0.05227002874016762
1791114815612012800,3.0870126953125,0.1706729382276535,-0.19769446551799774,-0.0011845293920487165
1791114815622083800,3.097083740234375,0.2028186172246933,-0.1589454710483551,0.014651425182819366
1791114815632155000,3.10715478515625,0.25875234603881836,-0.12873058021068573,-0.00006234273314476013
1791114815642225200,3.11722509765625,0.30145958065986633,-0.08965109288692474,-0.05091087892651558
1791114815652296000,3.1272958984375,0.3366384506225586,-0.07658930867910385,-0.06711792200803757
1791114815662367000,3.137366943359375,0.3692523241043091,-0.060960277915000916,-0.07555081695318222
1791114815672438000,3.14743798828125,0.4016979932785034,-0.018038135021924973,-0.049193523824214935
1791114815682509000,3.157509033203125,0.45570263266563416,0.00695270299911499,-0.021614892408251762
1791114815692579000,3.1675791015625,0.47016167640686035,0.04776123911142349,0.016409672796726227
1791114815702649900,3.17764990234375,0.4574192464351654,0.07776042073965073,-0.015574623830616474
1791114815712721000,3.187720947265625,0.455670565366745,0.0786186009645462,-0.022868528962135315
1791114815722792000,3.1977919921875,0.4943234324455261,0.0649067834019661,0.04390783607959747
1791114815732862000,3.207862060546875,0.48737388849258423,0.08939118683338165,0.08093634247779846
1791114815742933000,3.21793310546875,0.45980405807495117,0.10657736659049988,0.09930495917797089
1791114815753003800,3.228003662109375,0.4045726954936981,0.11006783694028854,0.04864147678017616
1791114815763074800,3.23807470703125,0.3542194962501526,0.07377481460571289,-0.011616273783147335
1791114815773145600,3.2481455078125,0.32176676392555237,0.02643592283129692,-0.027890164405107498
1791114815783215900,3.2582158203125,0.2560199797153473,0.003310362808406353,-0.07956800609827042
1791114815793287000,3.268286865234375,0.19245493412017822,-0.02078082039952278,-0.10851621627807617
1791114815803357700,3.278357666015625,0.16298146545886993,-0.03215811029076576,-0.05564926937222481
1791114815813428700,3.2884287109375,0.14468508958816528,-0.06864507496356964,-0.03376948833465576
1791114815823498800,3.298498779296875,0.12198510766029358,-0.11023140698671341,-0.08835070580244064
1791114815833569800,3.30856982421875,0.10113173723220825,-0.12431629002094269,-0.034203242510557175
1791114815843640800,3.318640869140625,0.09376490116119385,-0.11953325569629669,-0.022219285368919373
1791114815853711600,3.328711669921875,0.07982484996318817,-0.11176241189241409,-0.0206964910030365
1791114815863782700,3.33878271484375,0.0779273509979248,-0.10159792751073837,-0.005511412397027016
1791114815873852700,3.348852783203125,0.09975020587444305,-0.10343591868877411,0.03509131073951721
1791114815883923700,3.358923828125,0.11512702703475952,-0.07678966224193573,0.061345282942056656
1791114815893994800,3.368994873046875,0.13134083151817322,-0.05402377247810364,0.042054370045661926
1791114815904065500,3.3790654296875,0.15671703219413757,-0.02574925497174263,-0.012678385712206364
1791114815914135800,3.3891357421875,0.21679222583770752,-0.028647612780332565,-0.020697427913546562
1791114815924206800,3.399206787109375,0.2220197319984436,-0.020938828587532043,0.05315389111638069
1791114815934278000,3.40927783203125,0.20420001447200775,-0.01065404899418354,0.03304766118526459
1791114815944349000,3.419348876953125,0.21178098022937775,0.0063736699521541595,0.01368914544582367
1791114815954419700,3.429419677734375,0.23848789930343628,-0.010529126971960068,0.018754612654447556
1791114815964489700,3.43948974609375,0.2491549253463745,-0.011496652849018574,0.01619984209537506
1791114815974560800,3.449560791015625,0.23579822480678558,-0.003593947272747755,0.005590895190834999
1791114815984631800,3.4596318359375,0.23551486432552338,0.004999274387955666,0.02594730071723461
1791114815994702800,3.469702880859375,0.22512313723564148,0.01268552616238594,0.06662631034851074
1791114816004772600,3.479772705078125,0.21795682609081268,0.01015525683760643,0.0388849601149559
1791114816014843600,3.48984375,0.18267855048179626,0.005535287782549858,-0.039859164506196976
1791114816024914700,3.499914794921875,0.17437507212162018,-0.012993921525776386,-0.08766796439886093
1791114816034985700,3.50998583984375,0.18382418155670166,-0.00705140084028244,0.021461620926856995
1791114816045056800,3.520056884765625,0.19319717586040497,-0.0016033723950386047,-0.05136065557599068
1791114816055126800,3.530126708984375,0.17173515260219574,0.00477546826004982,-0.11639614403247833
1791114816065197800,3.54019775390625,0.17421536147594452,-0.016428086906671524,-0.07127980142831802
1791114816075268900,3.550268798828125,0.16788390278816223,-0.03235886991024017,-0.019373681396245956
1791114816085340000,3.56033984375,0.17189089953899384,-0.015209447592496872,-0.013342153280973434
1791114816095409700,3.57040966796875,0.17615212500095367,-0.0050404733046889305,0.051659341901540756
1791114816105480700,3.580480712890625,0.22130681574344635,-0.003059880342334509,0.02989678829908371
1791114816115551700,3.5905517578125,0.23519065976142883,0.016943736001849174,-0.02087223343551159
1791114816125622800,3.600622802734375,0.27502942085266113,0.04627792537212372,-0.06605622172355652
1791114816135692500,3.610692626953125,0.32357481122016907,0.06340143829584122,-0.0756840780377388
1791114816145763600,3.620763671875,0.34831586480140686,0.07396593689918518,-0.09103293716907501
1791114816155834600,3.630834716796875,0.3698226511478424,0.10026810318231583,-0.035513050854206085
1791114816165905700,3.64090576171875,0.3681997060775757,0.12841986119747162,-0.038941070437431335
1791114816175976700,3.650976806640625,0.37409576773643494,0.16740939021110535,-0.06395571678876877
1791114816186046700,3.661046630859375,0.40794214606285095,0.17495305836200714,-0.025543877854943275
1791114816196117800,3.67111767578125,0.4876648485660553,0.181787371635437,0.01118965819478035
1791114816206188800,3.681188720703125,0.5367737412452698,0.19475270807743073,0.04531700164079666
1791114816216259800,3.691259765625,0.5089357495307922,0.23172633349895477,0.04268236830830574
1791114816226329900,3.701329833984375,0.5253990888595581,0.2515855133533478,0.005193847697228193
1791114816236400600,3.711400634765625,0.5086030960083008,0.2871319651603699,-0.04061739519238472
1791114816246471700,3.7214716796875,0.5226235389709473,0.3104220926761627,-0.08465169370174408
1791114816256542700,3.731542724609375,0.5508675575256348,0.33891406655311584,-0.04569951817393303
1791114816266613800,3.74161376953125,0.5415065288543701,0.38394173979759216,0.005453681573271751
1791114816276683800,3.751683837890625,0.5592507123947144,0.40291598439216614,-0.00998089462518692
1791114816286754600,3.761754638671875,0.5498204827308655,0.4255451261997223,-0.035637255758047104
1791114816296825600,3.77182568359375,0.5406861305236816,0.42912957072257996,-0.034048568457365036
1791114816306896600,3.781896728515625,0.5268712043762207,0.44734987616539,-0.03366001322865486
1791114816316966700,3.791966552734375,0.5392550230026245,0.4746411442756653,-0.005005336832255125
1791114816327037700,3.80203759765625,0.5581655502319336,0.4754408895969391,-0.006372337695211172
1791114816337108700,3.812108642578125,0.5187201499938965,0.4772418439388275,0.012041714042425156
1791114816347179800,3.8221796875,0.5026442408561707,0.47655659914016724,0.0327049121260643
1791114816357250800,3.832250732421875,0.4576526880264282,0.4778744578361511,0.07316315174102783
1791114816367320800,3.84232080078125,0.4390409290790558,0.46470993757247925,0.07301853597164154
1791114816377391900,3.852391845703125,0.3972149193286896,0.4976101815700531,0.031099217012524605
1791114816387462700,3.862462646484375,0.37747183442115784,0.49689534306526184,0.025263965129852295
1791114816397533700,3.87253369140625,0.33947792649269104,0.4621078372001648,0.08546057343482971
1791114816407603700,3.882603759765625,0.31779366731643677,0.425930917263031,0.15120390057563782
1791114816417674800,3.8926748046875,0.3241632580757141,0.42821139097213745,0.1849443018436432
1791114816427745800,3.902745849609375,0.2753744125366211,0.4294111430644989,0.1077302098274231
1791114816437816600,3.912816650390625,0.19672393798828125,0.4035223722457886,0.041254330426454544
1791114816447887600,3.9228876953125,0.11509991437196732,0.38274601101875305,0.021200193092226982
1791114816457957600,3.93295751953125,0.10747819393873215,0.3523235321044922,0.057865992188453674
1791114816468028700,3.943028564453125,0.0782334953546524,0.33691874146461487,0.05562174692749977
1791114816478099700,3.953099609375,0.026041096076369286,0.3053296208381653,0.10723065584897995
1791114816488170500,3.96317041015625,-0.034483764320611954,0.25675567984580994,0.038838014006614685
1791114816498240800,3.97324072265625,-0.1310344934463501,0.23654058575630188,0.06882816553115845
1791114816508311800,3.983311767578125,-0.22330743074417114,0.21007302403450012,-0.05589565634727478
1791114816518382800,3.9933828125,-0.24283269047737122,0.17154675722122192,0.0009861589642241597
1791114816528454000,4.003453857421875,-0.23240189254283905,0.16824176907539368,0.12393950670957565
1791114816538523600,4.013523681640625,-0.2835201621055603,0.07449095696210861,0.2641124427318573
1791114816548594700,4.0235947265625,-0.3777182996273041,0.008588108234107494,0.25126615166664124
1791114816558665700,4.033665771484375,-0.39782243967056274,-0.02667411044239998,0.2125173956155777
1791114816568736800,4.04373681640625,-0.49699774384498596,-0.07218194007873535,0.014564636163413525
1791114816578807800,4.053807861328125,-0.6758444309234619,-0.14343804121017456,-0.09952633082866669
1791114816588877600,4.063877685546875,-0.6265077590942383,-0.1291789561510086,-0.04680665582418442
1791114816598948600,4.073948486328125,-0.43859022855758667,-0.11950666457414627,0.021023251116275787
1791114816609019600,4.08401953125,-0.5326070189476013,-0.1770743429660797,0.1420823037624359
1791114816619090700,4.094090576171875,-0.7042598128318787,-0.247955784201622,0.08133605122566223
1791114816629160700,4.10416064453125,-0.6660953760147095,-0.2027486264705658,0.012388142757117748
1791114816639231700,4.114231689453125,-0.6369063854217529,-0.21472959220409393,-0.05436709523200989
1791114816649302800,4.124302734375,-0.6482527852058411,-0.24449068307876587,-0.01670573651790619
1791114816659373800,4.134373779296875,-0.6773545742034912,-0.2483513355255127,0.02378159388899803
1791114816669444900,4.14444482421875,-0.679165780544281,-0.30615872144699097,0.03788888826966286
1791114816679514600,4.1545146484375,-0.6685531139373779,-0.338626891374588,-0.035433415323495865
1791114816689585700,4.164585693359375,-0.6906821131706238,-0.3286794424057007,0.0430760383605957
1791114816699656700,4.17465673828125,-0.6258359551429749,-0.32798489928245544,0.0603717565536499
1791114816709727700,4.184727783203125,-0.5408496856689453,-0.32295525074005127,0.03731783479452133
1791114816719797500,4.194797607421875,-0.5127826929092407,-0.2862628698348999,-0.0050277104601264
1791114816729868500,4.20486865234375,-0.5212949514389038,-0.2590610682964325,-0.035349663347005844
1791114816739939600,4.214939697265625,-0.47033098340034485,-0.21815697848796844,-0.05283810570836067
1791114816750010600,4.2250107421875,-0.415922075510025,-0.2406737357378006,0.05300496891140938
1791114816760081700,4.23508154296875,-0.381916880607605,-0.24384388327598572,0.03376494720578194
1791114816770151700,4.245151611328125,-0.3450688421726227,-0.24283428490161896,-0.07644171267747879
1791114816780223000,4.255222900390625,-0.3370608389377594,-0.21794860064983368,-0.08598543703556061
1791114816790294000,4.2652939453125,-0.28085482120513916,-0.18066167831420898,-0.04313650727272034
1791114816800365000,4.275364990234375,-0.24140259623527527,-0.1538965404033661,-0.0633072629570961
1791114816810434800,4.285434814453125,-0.22219960391521454,-0.14071336388587952,0.005312012508511543
1791114816820505900,4.295505859375,-0.19193941354751587,-0.1448591947555542,0.016483280807733536
1791114816830577000,4.305576904296875,-0.1423092782497406,-0.13502439856529236,-0.14696823060512543
1791114816840648000,4.31564794921875,-0.10708848387002945,-0.10638479888439178,-0.16736292839050293
1791114816850718000,4.325718017578125,-0.0383717305958271,-0.09138108044862747,-0.034212060272693634
1791114816860788700,4.335788818359375,0.018539439886808395,-0.08256696164608002,0.1358318030834198
1791114816870859800,4.34585986328125,-0.0010438492754474282,-0.06502844393253326,0.030308306217193604
1791114816880930800,4.355930908203125,0.04184773936867714,-0.0532936155796051,0.0006292802281677723
1791114816891001900,4.366001953125,0.10908802598714828,-0.061066050082445145,-0.010646544396877289
1791114816901072100,4.376072021484375,0.11104296147823334,-0.050821028649806976,-0.06472466886043549
1791114816911143000,4.386142822265625,0.08504518121480942,-0.04065734148025513,-0.07249391078948975
1791114816921214000,4.3962138671875,0.07760102301836014,-0.0029058679938316345,-0.042088039219379425
1791114816931285000,4.406284912109375,0.08444720506668091,0.026767073199152946,-0.005499402992427349
1791114816941355000,4.41635498046875,0.07954829186201096,0.052601151168346405,-0.02453712373971939
1791114816951426000,4.426426025390625,0.0680125430226326,0.07472455501556396,-0.03831338882446289
1791114816961496800,4.436496826171875,0.06943398714065552,0.07232730090618134,0.006035329774022102
1791114816971567900,4.44656787109375,0.12153793126344681,0.07233130186796188,0.031216848641633987
1791114816981639000,4.456638916015625,0.16058450937271118,0.0885508731007576,0.006868534255772829
1791114816991709000,4.466708984375,0.1205526664853096,0.09620000422000885,-0.06508608162403107
1791114817001780000,4.476780029296875,0.10208189487457275,0.08101371675729752,-0.06042192131280899
1791114817011850800,4.486850830078125,0.05008367449045181,0.07960303872823715,-0.049018532037734985
1791114817021921800,4.496921875,0.026895171031355858,0.053043048828840256,-0.004209853708744049
1791114817031992000,4.506991943359375,0.01219745259732008,0.033964432775974274,0.040694501250982285
1791114817042063000,4.51706298828125,-0.003110650461167097,0.03991827368736267,-0.03695153072476387
1791114817052134100,4.527134033203125,-0.04031208157539368,0.015463796444237232,-0.032574091106653214
1791114817062205000,4.537204833984375,-0.07926873117685318,-0.011545591987669468,-0.02422584965825081
1791114817072275000,4.54727490234375,-0.1002296730875969,-0.024262718856334686,-0.002696856390684843
1791114817082346000,4.557345947265625,-0.15042124688625336,-0.04840414971113205,-0.043489035218954086
1791114817092417000,4.5674169921875,-0.1598491072654724,-0.08713316917419434,-0.0515189990401268
1791114817102488000,4.577488037109375,-0.13350233435630798,-0.10712851583957672,-0.057256631553173065
1791114817112558800,4.587558837890625,-0.12020384520292282,-0.1221332997083664,-0.03403865918517113
1791114817122628900,4.59762890625,-0.1369597613811493,-0.1470174491405487,-0.018442556262016296
1791114817132700000,4.607699951171875,-0.19873417913913727,-0.1564791351556778,-0.03523245453834534
1791114817142771000,4.61777099609375,-0.2399432361125946,-0.1743147075176239,-0.10727085918188095
1791114817152841700,4.627841796875,-0.2515964210033417,-0.18242377042770386,-0.07878409326076508
1791114817162912000,4.637912109375,-0.2077995240688324,-0.20156407356262207,0.007282910402864218
1791114817172983000,4.647983154296875,-0.1579297035932541,-0.20662301778793335,0.0808415487408638
1791114817183054000,4.65805419921875,-0.1260785609483719,-0.20429061353206635,0.0720728263258934
1791114817193125000,4.668125,-0.1177910640835762,-0.18507298827171326,0.037191007286310196
1791114817203196000,4.67819580078125,-0.1271641105413437,-0.15308403968811035,0.009117542766034603
1791114817213266000,4.688265869140625,-0.11148127913475037,-0.13427679240703583,-0.0004759624134749174
1791114817223337000,4.6983369140625,-0.09373636543750763,-0.12321428954601288,-0.04882538691163063
1791114817233408000,4.708407958984375,-0.07645697891712189,-0.10913336277008057,-0.018961496651172638
1791114817243479000,4.71847900390625,-0.04245183616876602,-0.09946061670780182,-0.0023574659135192633
1791114817253548800,4.728548828125,-0.007985472679138184,-0.09303973615169525,-0.07101935148239136
1791114817263619800,4.738619873046875,0.0009256611228920519,-0.08684874325990677,-0.05048462748527527
1791114817273691000,4.74869091796875,-0.0020533506758511066,-0.06952221691608429,-0.053420763462781906
1791114817283762000,4.758761962890625,0.0240665003657341,-0.06751421838998795,-0.04507472738623619
1791114817293832000,4.76883203125,0.07138661295175552,-0.05562134087085724,-0.012696811929345131
1791114817303903000,4.778903076171875,0.10920277237892151,-0.05109250545501709,0.0021399983670562506
1791114817313974000,4.78897412109375,0.1270155906677246,-0.03880388289690018,-0.018974607810378075
1791114817324045000,4.799045166015625,0.13959619402885437,-0.02329978346824646,-0.05179625377058983
1791114817334116000,4.8091162109375,0.17515712976455688,-0.018223265185952187,-0.02238030731678009
1791114817344185900,4.819185791015625,0.2176087498664856,0.006757515482604504,-0.010514299385249615
1791114817354257000,4.8292568359375,0.2332870364189148,0.012066527269780636,0.012484492734074593
1791114817364328000,4.839327880859375,0.23239830136299133,0.023401863873004913,0.007194116245955229
1791114817374399000,4.84939892578125,0.21587738394737244,0.03751688450574875,0.012680495157837868
1791114817384469000,4.859468994140625,0.23909547924995422,0.01931106299161911,0.027617696672677994
1791114817394539800,4.869539794921875,0.24720053374767303,0.026423301547765732,0.04068848863244057
1791114817404610800,4.87961083984375,0.22719793021678925,0.02685561217367649,0.054875489324331284
1791114817414681900,4.889681884765625,0.20656082034111023,0.03402404487133026,0.03587916120886803
1791114817424751900,4.899751953125,0.20282511413097382,0.03084980696439743,-0.00300194276496768
1791114817434823000,4.909822998046875,0.16984480619430542,0.02753443643450737,-0.006291745696216822
1791114817444894000,4.91989404296875,0.1852167546749115,0.011720913462340832,0.03363456949591637
1791114817454965000,4.929965087890625,0.1476896107196808,0.018390268087387085,0.001121635315939784
1791114817465036000,4.9400361328125,0.09943383932113647,0.004799992777407169,-0.0208430215716362
1791114817475106000,4.95010595703125,0.08879078924655914,-0.01475000660866499,-0.0439523346722126
1791114817485177000,4.960177001953125,0.06892711669206619,-0.015555811114609241,-0.04416397958993912
1791114817495248000,4.970247802734375,0.08543764799833298,-0.026661992073059082,-0.07901117205619812
1791114817505319000,4.98031884765625,0.0754106268286705,-0.02268419787287712,-0.03826278820633888
1791114817515389000,4.990388916015625,0.08143921941518784,-0.023632284253835678,-0.007275843992829323
1791114817525460000,5.0004599609375,0.05239581689238548,-0.012965323403477669,-0.01550852507352829
1791114817535530800,5.01053076171875,0.04240736365318298,-0.0044298917055130005,-0.02026253379881382
1791114817545601800,5.020601806640625,0.08492260426282883,-0.03059864416718483,-0.0005183906760066748
1791114817555671800,5.030671875,0.06194085255265236,-0.017122782766819,0.023998403921723366
1791114817565742800,5.040742919921875,0.054470378905534744,-0.013155881315469742,-0.007293479982763529
1791114817575814000,5.05081396484375,0.04360468313097954,-0.020813534036278725,0.002334912773221731
1791114817585885000,5.060885009765625,0.04866033419966698,-0.02377673052251339,0.010335343889892101
1791114817595956000,5.0709560546875,0.06201981380581856,-0.022486962378025055,0.029758043587207794
1791114817606026000,5.08102587890625,0.06244887784123421,-0.0299481563270092,0.013425234705209732
1791114817616097000,5.091096923828125,0.06504306197166443,-0.017870455980300903,-0.001136397011578083
1791114817626168000,5.10116796875,0.07369036227464676,-0.0029924805276095867,-0.03439589962363243
1791114817636238800,5.11123876953125,0.099085733294487,0.00012501608580350876,-0.06173085421323776
1791114817646308900,5.121308837890625,0.11113228648900986,0.007328558713197708,-0.03353285789489746
1791114817656380000,5.1313798828125,0.11970340460538864,0.03574156016111374,0.01623683236539364
1791114817666451000,5.141450927734375,0.12109094858169556,0.04948539659380913,-0.041373953223228455
1791114817676522000,5.15152197265625,0.14097677171230316,0.05809726193547249,-0.03344971686601639
1791114817686591700,5.161591796875,0.17833031713962555,0.0596073754131794,-0.044080331921577454
1791114817696662800,5.171662841796875,0.21996325254440308,0.06677313894033432,-0.02956077642738819
1791114817706733800,5.18173388671875,0.22608156502246857,0.07970238476991653,0.014778177253901958
1791114817716804900,5.191804931640625,0.2331884801387787,0.0911763459444046,0.0024868904147297144
1791114817726876000,5.2018759765625,0.2265898585319519,0.0926571637392044,0.009747229516506195
1791114817736946000,5.21194580078125,0.2281787097454071,0.10165518522262573,0.018180660903453827
1791114817747017000,5.222016845703125,0.23992732167243958,0.11039021611213684,0.049685485661029816
1791114817757088000,5.232087890625,0.23415866494178772,0.12945260107517242,0.03747861832380295
1791114817767159000,5.242158935546875,0.26379334926605225,0.1356499195098877,0.03245958685874939
1791114817777228800,5.252228759765625,0.2743533253669739,0.12595975399017334,0.05527755245566368
1791114817787299800,5.2622998046875,0.2793636918067932,0.1272837072610855,0.08255607634782791
1791114817797371000,5.272370849609375,0.26516690850257874,0.14499053359031677,0.07573305815458298
1791114817807442000,5.28244189453125,0.2369765341281891,0.17442578077316284,-0.062278080731630325
1791114817817512000,5.292511962890625,0.2597241997718811,0.15975868701934814,0.0845252126455307
1791114817827582700,5.302582763671875,0.3124232292175293,0.15414150059223175,0.17197178304195404
1791114817837653800,5.31265380859375,0.3128557503223419,0.132956862449646,0.18746791779994965
1791114817847724800,5.322724853515625,0.21351520717144012,0.13903500139713287,-0.05715799704194069
1791114817857795800,5.3327958984375,0.0939488634467125,0.20207415521144867,-0.35070013999938965
1791114817867866000,5.3428662109375,0.14047065377235413,0.20172153413295746,-0.35829129815101624
1791114817877937000,5.35293701171875,0.21587300300598145,0.12366881221532822,-0.029119785875082016
1791114817888008000,5.363008056640625,0.19141429662704468,0.1196935772895813,0.27834460139274597
1791114817898079000,5.373078857421875,0.14427368342876434,0.13459528982639313,0.1328102946281433
1791114817908149000,5.38314892578125,0.158033087849617,0.11745445430278778,-0.13477540016174316
1791114817918219800,5.3932197265625,0.1743534803390503,0.23001402616500854,-0.1477319449186325
1791114817928290800,5.403290771484375,0.07950139045715332,0.2433360368013382,0.027450604364275932
1791114817938361900,5.41336181640625,0.03980537876486778,0.15127988159656525,0.111289843916893
1791114817948432000,5.423431884765625,0.0661005899310112,0.09034767001867294,0.05978962406516075
1791114817958503000,5.4335029296875,0.10340135544538498,0.12915046513080597,-0.030751993879675865
1791114817968573700,5.44357373046875,0.11211980134248734,0.1263372004032135,-0.083326056599617
1791114817978644700,5.453644775390625,0.10327038168907166,0.10902771353721619,0.03674495220184326
1791114817988715800,5.4637158203125,0.03565201908349991,0.09706541150808334,0.10744470357894897
1791114817998786000,5.4737861328125,0.014420764520764351,0.07587490975856781,0.01691081002354622
1791114818008857000,5.483857177734375,0.029179655015468597,0.09883540868759155,-0.06881880015134811
1791114818018927900,5.493927978515625,-0.0035178358666598797,0.13472150266170502,-0.005825455766171217
1791114818028999000,5.5039990234375,-0.057912785559892654,0.12270312756299973,0.04207988455891609
1791114818039069000,5.51406884765625,-0.12931481003761292,0.08737283200025558,0.05585534870624542
1791114818049140000,5.524139892578125,-0.08609654754400253,0.08359503746032715,0.010464752092957497
1791114818059211000,5.5342109375,-0.05938850715756416,0.0729818046092987,-0.028895968571305275
1791114818069281800,5.54428173828125,-0.05839712917804718,0.06534884870052338,-0.01254289597272873
1791114818079351800,5.554351806640625,-0.050903793424367905,0.06666684150695801,0.01838545873761177
1791114818089422800,5.5644228515625,-0.09278412163257599,0.04430766776204109,0.0350436232984066
1791114818099494000,5.574493896484375,-0.12752719223499298,0.021576788276433945,-0.12794262170791626
1791114818109565000,5.58456494140625,-0.198251873254776,0.0034391535446047783,-0.19508923590183258
1791114818119635000,5.594635009765625,-0.15634997189044952,-0.015252774581313133,-0.08889514952898026
1791114818129706000,5.6047060546875,-0.10338272899389267,-0.07281990349292755,0.07301923632621765
1791114818139777000,5.614777099609375,-0.1425977647304535,-0.08308319747447968,0.12852510809898376
1791114818149848000,5.62484814453125,-0.1776331663131714,-0.07163117080926895,0.07704031467437744
1791114818159919000,5.634919189453125,-0.2109977751970291,-0.09491012990474701,-0.01974082924425602
1791114818169988900,5.64498876953125,-0.2108963429927826,-0.13996700942516327,-0.024570822715759277
1791114818180060000,5.655059814453125,-0.20152707397937775,-0.16375355422496796,-0.045797813683748245
1791114818190131000,5.665130859375,-0.17446903884410858,-0.1769169270992279,-0.0022163381800055504
1791114818200202000,5.675201904296875,-0.15821975469589233,-0.17459625005722046,0.029447048902511597
1791114818210271700,5.685271728515625,-0.19564969837665558,-0.15549562871456146,0.052571963518857956
1791114818220342800,5.6953427734375,-0.20129507780075073,-0.12116456031799316,0.04977671056985855
1791114818230413800,5.705413818359375,-0.17470070719718933,-0.10823336988687515,0.04521498084068298
1791114818240484900,5.71548486328125,-0.12945200502872467,-0.0922943502664566,-0.0705699473619461
1791114818250555100,5.72555517578125,-0.055717285722494125,-0.07724228501319885,-0.04140274599194527
1791114818260626000,5.7356259765625,0.013896946795284748,-0.05020853877067566,0.021493664011359215
1791114818270697000,5.745697021484375,0.02621496468782425,-0.02538006752729416,-0.008794402703642845
1791114818280768000,5.75576806640625,-0.024765660986304283,0.01692211627960205,0.07048816978931427
1791114818290839000,5.765839111328125,0.003220627550035715,0.03217998892068863,0.10708349198102951
1791114818300908800,5.77590869140625,0.02676616609096527,0.06155439093708992,0.0159224234521389
1791114818310979800,5.785979736328125,0.0865740180015564,0.08397804200649261,-0.011163493618369102
1791114818321051000,5.79605078125,0.16527947783470154,0.10219885408878326,0.03343220427632332
1791114818331122000,5.806121826171875,0.20065240561962128,0.1292486935853958,-0.021736623719334602
1791114818341192000,5.81619189453125,0.2035645693540573,0.14776697754859924,-0.00394084956496954
1791114818351262700,5.8262626953125,0.1645919531583786,0.15646892786026,0.04116599261760712
1791114818361333800,5.836333740234375,0.18313074111938477,0.14744453132152557,-0.01976899430155754
1791114818371404800,5.84640478515625,0.20133070647716522,0.13951730728149414,-0.006476178765296936
1791114818381475000,5.85647509765625,0.2515720725059509,0.11411581188440323,0.04422108829021454
1791114818391546000,5.866546142578125,0.2508466839790344,0.10148890316486359,0.04362114146351814
1791114818401617000,5.876616943359375,0.18011897802352905,0.10269878059625626,0.0211014486849308
1791114818411688000,5.88668798828125,0.13219435513019562,0.10340242087841034,-0.005798217374831438
1791114818421759000,5.896759033203125,0.09120670706033707,0.0942307561635971,0.0047529605217278
1791114818431829000,5.9068291015625,0.0828288123011589,0.10507135093212128,-0.021901626139879227
1791114818441900000,5.916900146484375,0.1027364730834961,0.08937546610832214,0.006731084547936916
1791114818451970800,5.926970703125,0.11163835972547531,0.07693931460380554,-0.01812180131673813
1791114818462041900,5.937041748046875,0.09669908881187439,0.07481276988983154,0.010391333140432835
1791114818472111900,5.94711181640625,0.03460361063480377,0.08831793069839478,0.04545596241950989
1791114818482183000,5.957182861328125,0.004200697876513004,0.06759108603000641,-0.004921456798911095
1791114818492254000,5.96725390625,0.007951147854328156,0.05031468719244003,-0.02573545277118683
1791114818502324700,5.97732470703125,0.029113955795764923,0.025848757475614548,-0.023302922025322914
1791114818512395000,5.98739501953125,0.02959361858665943,0.007289371453225613,-0.02414865605533123
1791114818522466000,5.997466064453125,0.012353111989796162,0.005868574604392052,0.05978725478053093
1791114818532537000,6.007537109375,-0.007457488216459751,0.009175960905849934,0.030483830720186234
1791114818542608100,6.017608154296875,-0.013336415402591228,-0.00982595980167389,0.016229793429374695
1791114818552678000,6.027677978515625,0.025791063904762268,-0.006449508480727673,-0.00043504126369953156
1791114818562749000,6.0377490234375,0.03067823126912117,0.007832757197320461,-0.026380622759461403
1791114818572820000,6.047820068359375,0.05929391086101532,0.006060383282601833,-0.04319857433438301
1791114818582891000,6.05789111328125,0.0997031107544899,0.004391380585730076,0.006788427941501141
1791114818592962000,6.067962158203125,0.10410519689321518,0.055055007338523865,-0.02522442303597927
1791114818603031800,6.07803173828125,0.09887395054101944,0.050482895225286484,-0.03609384968876839
1791114818613102800,6.088102783203125,0.1639377772808075,0.07614325731992722,-0.031122379004955292
1791114818623174000,6.098173828125,0.2203243523836136,0.08370476961135864,0.011476745828986168
1791114818633245000,6.108244873046875,0.2546122670173645,0.11386008560657501,0.00483233667910099
1791114818643315000,6.11831494140625,0.26765188574790955,0.14559271931648254,0.0065775057300925255
1791114818653386000,6.128385986328125,0.2691357433795929,0.16729460656642914,0.008490396663546562
1791114818663457000,6.13845703125,0.2649362087249756,0.1754278987646103,-0.023187104612588882
1791114818673528000,6.148528076171875,0.29630759358406067,0.187261700630188,-0.005726364906877279
1791114818683598000,6.15859814453125,0.29024624824523926,0.19591590762138367,-0.002529239747673273
1791114818693668900,6.1686689453125,0.2853027284145355,0.19526579976081848,-0.01411077007651329
1791114818703740000,6.178739990234375,0.2932890057563782,0.20628969371318817,0.04162253066897392
1791114818713811000,6.18881103515625,0.2763001620769501,0.23716561496257782,0.045966219156980515
1791114818723882000,6.198882080078125,0.23217611014842987,0.2392394095659256,-0.04088319092988968
1791114818733951700,6.20895166015625,0.19541186094284058,0.24462711811065674,-0.03037317469716072
1791114818744022800,6.219022705078125,0.22316040098667145,0.23584988713264465,0.03082600235939026
1791114818754093800,6.22909375,0.2497711330652237,0.24851401150226593,-0.025604357942938805
1791114818764164900,6.239164794921875,0.2429869920015335,0.2701686918735504,-0.046963177621364594
1791114818774235000,6.24923486328125,0.25418612360954285,0.2412765622138977,-0.0037463121116161346
1791114818784306000,6.259305908203125,0.19713427126407623,0.21882106363773346,-0.0014796959003433585
1791114818794377000,6.269376953125,0.17576874792575836,0.22014032304286957,0.022970978170633316
1791114818804448000,6.279447998046875,0.17737624049186707,0.23589931428432465,-0.012127354741096497
1791114818814517800,6.289517822265625,0.17975090444087982,0.21715407073497772,0.04834551364183426
1791114818824588800,6.2995888671875,0.16054445505142212,0.18093881011009216,0.06268423795700073
1791114818834659800,6.309659912109375,0.1584608554840088,0.15505723655223846,0.05650266259908676
1791114818844731000,6.31973095703125,0.15905313193798065,0.14834128320217133,0.022045619785785675
1791114818854800600,6.329800537109375,0.11595619469881058,0.14331428706645966,-0.04055299609899521
1791114818864871700,6.33987158203125,0.07441887259483337,0.1403118520975113,0.001627746387384832
1791114818874942700,6.349942626953125,0.0741550475358963,0.13048042356967926,0.07230028510093689
1791114818885013800,6.360013671875,0.09266667813062668,0.13053394854068756,0.07660235464572906
1791114818895084000,6.370083984375,0.1223793625831604,0.13020464777946472,-0.0014024301199242473
1791114818905154800,6.38015478515625,0.10638095438480377,0.13622444868087769,-0.027244146913290024
1791114818915225900,6.390225830078125,0.13224224746227264,0.1237649992108345,0.0027370178140699863
1791114818925297000,6.400296875,0.08015508204698563,0.12737330794334412,0.04715454950928688
1791114818935368000,6.410367919921875,0.030197571963071823,0.12992490828037262,0.026805706322193146
1791114818945438000,6.42043798828125,0.014756830409169197,0.1209934651851654,-0.012922530993819237
1791114818955508700,6.4305087890625,-0.0033465949818491936,0.10870109498500824,-0.03602250665426254
1791114818965579800,6.440579833984375,0.04617595300078392,0.06105341017246246,0.045362893491983414
1791114818975650800,6.45065087890625,0.02182893455028534,0.031209267675876617,0.06621435284614563
1791114818985720800,6.460720947265625,-0.00837983563542366,0.02260991930961609,0.08282981812953949
1791114818995792000,6.4707919921875,-0.04047173634171486,0.02321789041161537,0.01093103177845478
1791114819005862700,6.480862548828125,-0.10253909975290298,0.008640809915959835,-0.032240405678749084
1791114819015933700,6.49093359375,-0.08509665727615356,-0.009674801491200924,-0.010676818899810314
1791114819026003700,6.501003662109375,-0.03331947326660156,0.015483814291656017,0.04738222062587738
1791114819036074800,6.51107470703125,-0.03273308277130127,0.010798108763992786,0.09310071170330048
1791114819046145800,6.521145751953125,-0.057512201368808746,-0.012602554634213448,0.14177770912647247
1791114819056216800,6.531216796875,-0.09083402156829834,0.007652977481484413,0.19767233729362488
1791114819066286800,6.541286865234375,-0.08626057207584381,0.021443890407681465,0.1602056473493576
1791114819076358000,6.55135791015625,-0.09929689764976501,0.04484676197171211,0.031177684664726257
1791114819086429000,6.561428955078125,-0.08713876456022263,0.06962854415178299,-0.015418044291436672
1791114819096499700,6.571499755859375,-0.016048341989517212,0.06651291251182556,-0.03423221409320831
1791114819106570800,6.58157080078125,0.009667940437793732,0.055270109325647354,0.043386682868003845
1791114819116640800,6.591640869140625,0.013694853521883488,0.0653834417462349,0.06925613433122635
1791114819126711800,6.6017119140625,0.004787378944456577,0.10030360519886017,0.11059025675058365
1791114819136782800,6.611782958984375,0.018419327214360237,0.11911708116531372,0.09454059600830078
1791114819146853600,6.621853515625,0.04379499331116676,0.1381637454032898,0.10317455977201462
1791114819156923600,6.631923583984375,0.04715121537446976,0.16144496202468872,0.06132366135716438
1791114819166994700,6.64199462890625,0.1029665395617485,0.17515571415424347,0.03271865099668503
1791114819177065700,6.652065673828125,0.1534537822008133,0.2035491168498993,-0.039619047194719315
1791114819187136800,6.66213671875,0.18813826143741608,0.2127857655286789,-0.09752362221479416
1791114819197206800,6.672206787109375,0.2397712767124176,0.20951303839683533,-0.017048904672265053
1791114819207277800,6.68227783203125,0.31276556849479675,0.25459209084510803,0.036015644669532776
1791114819217348900,6.692348876953125,0.3189081847667694,0.309436559677124,0.028113778680562973
1791114819227420000,6.702419921875,0.337806761264801,0.3409960865974426,0.02616274729371071
1791114819237489700,6.71248974609375,0.3467046618461609,0.3708208203315735,0.04447411000728607
1791114819247560700,6.722560791015625,0.31716805696487427,0.3928004205226898,0.036015111953020096
1791114819257631700,6.7326318359375,0.355968713760376,0.38242921233177185,0.006889894604682922
1791114819267702800,6.742702880859375,0.365116149187088,0.38755765557289124,-0.019141174852848053
1791114819277773800,6.75277392578125,0.3541804552078247,0.3782188296318054,0.0005380548536777496
1791114819287843600,6.762843505859375,0.3347889184951782,0.36653393507003784,0.039919283241033554
1791114819297914600,6.77291455078125,0.27128833532333374,0.35863640904426575,0.006789877079427242
1791114819307985700,6.782985595703125,0.1789938360452652,0.3426457345485687,-0.06527099758386612
1791114819318056700,6.793056640625,0.09721140563488007,0.311870276927948,-0.048765283077955246
1791114819328127000,6.803126953125,0.06814327090978622,0.30688217282295227,0.0382084995508194
1791114819338197800,6.81319775390625,0.006091104354709387,0.2989334762096405,0.10268136113882065
1791114819348268800,6.823268798828125,-0.0595928356051445,0.263109415769577,0.11041677743196487
1791114819358339800,6.83333984375,-0.12967386841773987,0.21643774211406708,0.08538255840539932
1791114819368409900,6.843409912109375,-0.23191075026988983,0.18027973175048828,0.09318669140338898
1791114819378481000,6.85348095703125,-0.272647500038147,0.1260385513305664,0.054841600358486176
1791114819388551700,6.8635517578125,-0.3252641260623932,0.07318440079689026,0.02057098038494587
1791114819398622700,6.873622802734375,-0.3739340603351593,0.02405208721756935,-0.0023523978888988495
1791114819408692700,6.883692626953125,-0.43181493878364563,-0.04034234955906868,-0.03146127983927727
1791114819418763800,6.893763671875,-0.5418157577514648,-0.08561429381370544,-0.010409047827124596
1791114819428834800,6.903834716796875,-0.5664545297622681,-0.12075763195753098,-0.012666343711316586
1791114819438905600,6.913905517578125,-0.5394795536994934,-0.1555541306734085,-0.015482597053050995
1791114819448976000,6.923975830078125,-0.5514073371887207,-0.1565437614917755,0.025199851021170616
1791114819459047000,6.934046875,-0.5589644908905029,-0.16178669035434723,0.019233260303735733
1791114819469118000,6.944117919921875,-0.5550634860992432,-0.16837428510189056,-0.03654345124959946
1791114819479188700,6.954188720703125,-0.5402790307998657,-0.15247419476509094,-0.0650770515203476
1791114819489259800,6.964259765625,-0.5224401354789734,-0.1487598866224289,-0.025214586406946182
1791114819499329800,6.974329833984375,-0.4711431562900543,-0.14824920892715454,0.04138098284602165
1791114819509400800,6.98440087890625,-0.40814608335494995,-0.1464819461107254,0.03397686034440994
1791114819519471900,6.994471923828125,-0.377725750207901,-0.1143937036395073,-0.017312388867139816
1791114819529542700,7.004542724609375,-0.3417198061943054,-0.08637778460979462,-0.007486656773835421
1791114819539612700,7.01461279296875,-0.2901402413845062,-0.076917365193367,-0.020069103688001633
1791114819549683700,7.02468359375,-0.2507305145263672,-0.06851562857627869,0.0023328736424446106
1791114819559754800,7.034754638671875,-0.19118192791938782,-0.05318960174918175,-0.0428936667740345
1791114819569825800,7.04482568359375,-0.15479302406311035,-0.030611854046583176,0.016525983810424805
1791114819579895800,7.054895751953125,-0.13473449647426605,-0.02380584180355072,0.07004350423812866
1791114819589966800,7.064966796875,-0.09390131384134293,-0.024322228506207466,0.11407195031642914
1791114819600038000,7.075037841796875,-0.061261143535375595,-0.006304668262600899,0.06224782019853592
1791114819610109000,7.08510888671875,0.0015236760955303907,0.010046607814729214,0.06391602754592896
1791114819620178700,7.0951787109375,0.02910059317946434,0.043834589421749115,0.05510465055704117
1791114819630249700,7.105249755859375,0.008692789822816849,0.06734310835599899,-0.008137434720993042
1791114819640320800,7.11532080078125,0.01456347294151783,0.06133284419775009,0.029320891946554184
1791114819650391800,7.125391845703125,0.038489844650030136,0.06867997348308563,0.004336446523666382
1791114819660461800,7.1354619140625,0.0536799393594265,0.09588170051574707,-0.019057370722293854
1791114819670532600,7.14553271484375,0.06152587756514549,0.1006397008895874,0.01801915653049946
1791114819680603600,7.155603759765625,0.13416512310504913,0.08659946173429489,0.034832436591386795
1791114819690674700,7.1656748046875,0.15112094581127167,0.06419935077428818,0.007633838802576065
1791114819700745700,7.175745849609375,0.1425372213125229,0.06121306121349335,-0.013211320154368877
1791114819710816000,7.18581591796875,0.08934296667575836,0.05631284415721893,0.025709446519613266
1791114819720886800,7.19588671875,0.03361397981643677,0.05617890506982803,0.06324481219053268
1791114819730957800,7.205957763671875,0.037823375314474106,0.0351569764316082,0.09202586114406586
1791114819741028900,7.21602880859375,0.027470173314213753,0.019184790551662445,0.010782282799482346
1791114819751099000,7.226098876953125,0.011929296888411045,0.010667468421161175,-0.056498754769563675
1791114819761170000,7.236169921875,-0.037550728768110275,-0.007987339049577713,-0.00004450243432074785
1791114819771240700,7.24624072265625,-0.06460046023130417,-0.009786836802959442,0.04146432504057884
1791114819781312000,7.25631201171875,-0.0816444382071495,-0.01002434827387333,0.05016043409705162
1791114819791382000,7.266382080078125,-0.09962929785251617,0.0020099440589547157,0.004816125147044659
1791114819801453000,7.276453125,-0.12082061916589737,0.00579704437404871,-0.04504311829805374
1791114819811524000,7.286524169921875,-0.14145852625370026,0.013810762204229832,-0.055119987577199936
1791114819821595000,7.296594970703125,-0.12702150642871857,0.03126263618469238,-0.012169250287115574
1791114819831665200,7.3066650390625,-0.08589004725217819,0.022083785384893417,-0.011990019120275974
1791114819841736200,7.316736083984375,-0.07053318619728088,0.033814702183008194,0.006766265723854303
1791114819851807200,7.32680712890625,-0.060897331684827805,0.04340741038322449,-0.0031518787145614624
1791114819861878300,7.336878173828125,-0.05688709020614624,0.06275690346956253,0.04007120802998543
1791114819871948000,7.346947998046875,-0.06785984337329865,0.08028369396924973,0.002458586823195219
1791114819882019000,7.35701904296875,-0.06336265057325363,0.07469377666711807,0.00821734219789505
1791114819892090000,7.367090087890625,-0.026308754459023476,0.0788528323173523,-0.0527498722076416
1791114819902161200,7.3771611328125,-0.018826371058821678,0.0976058766245842,-0.07777369767427444
1791114819912231000,7.38723095703125,0.00848461128771305,0.08570873737335205,-0.04206444323062897
1791114819922302000,7.397302001953125,0.01701885461807251,0.08635319024324417,-0.0027515762485563755
1791114819932373000,7.407373046875,0.026502637192606926,0.08436061441898346,0.0035902089439332485
1791114819942444000,7.417444091796875,0.034710485488176346,0.07910360395908356,-0.01499506738036871
1791114819952515000,7.42751513671875,0.02138162963092327,0.08810961246490479,-0.031485360115766525
1791114819962585000,7.437585205078125,0.02686372399330139,0.09149511158466339,-0.013661430217325687
1791114819972656000,7.44765625,0.0315474234521389,0.09428717195987701,-0.021430138498544693
1791114819982727200,7.45772705078125,0.058589544147253036,0.09414316713809967,-0.06178630515933037
1791114819992798200,7.467798095703125,0.062199726700782776,0.09944924712181091,-0.06444281339645386
1791114820002868000,7.477867919921875,0.059175845235586166,0.11993212252855301,-0.05956224352121353
1791114820012939000,7.48793896484375,0.05549162998795509,0.13581493496894836,-0.03658102825284004
1791114820023010000,7.498010009765625,0.002621037419885397,0.146800696849823,-0.059954993426799774
1791114820033081000,7.5080810546875,-0.02226167544722557,0.14408241212368011,0.024685857817530632
1791114820043151000,7.518151123046875,-0.04947396740317345,0.15372513234615326,0.045273974537849426
1791114820053222000,7.528221923828125,-0.08022229373455048,0.16246455907821655,0.03866693750023842
1791114820063293000,7.53829296875,-0.08325326442718506,0.1347389966249466,0.04329010844230652
1791114820073364000,7.548364013671875,-0.0737316682934761,0.13645248115062714,0.06421270221471786
1791114820083434000,7.55843408203125,-0.10427039861679077,0.1516474187374115,0.005063094198703766
1791114820093505000,7.568505126953125,-0.145927295088768,0.14352236688137054,-0.003557824529707432
1791114820103576000,7.578576171875,-0.1907459795475006,0.1491883099079132,0.06098489090800285
1791114820113647000,7.588647216796875,-0.203155517578125,0.14362603425979614,0.05248594284057617
1791114820123717000,7.598717041015625,-0.23728030920028687,0.12785840034484863,0.024948183447122574
1791114820133788200,7.6087880859375,-0.2313920557498932,0.09726081788539886,0.025658980011940002
1791114820143859200,7.618859130859375,-0.2402629405260086,0.08135680109262466,0.00014683662448078394
1791114820153930000,7.628929931640625,-0.24951796233654022,0.056226946413517,-0.008939070627093315
1791114820164001000,7.6390009765625,-0.24557183682918549,0.021849919110536575,0.07165765017271042
1791114820174071000,7.649071044921875,-0.26818206906318665,-0.006219266448169947,0.10999012738466263
1791114820184142000,7.65914208984375,-0.28001880645751953,-0.05415976792573929,0.0980844795703888
1791114820194213000,7.669213134765625,-0.31016314029693604,-0.09031163901090622,0.07131332159042358
1791114820204284000,7.679283935546875,-0.3709745705127716,-0.12573985755443573,0.023891670629382133
1791114820214354000,7.68935400390625,-0.4031676650047302,-0.16782018542289734,0.03857367858290672
1791114820224425000,7.699425048828125,-0.45478540658950806,-0.1686933934688568,0.032274167984724045
1791114820234496000,7.70949609375,-0.48118531703948975,-0.21523186564445496,0.011002170853316784
1791114820244567000,7.719567138671875,-0.4701955020427704,-0.22427141666412354,-0.02925523743033409
1791114820254637000,7.729636962890625,-0.502471387386322,-0.2355230152606964,0.021854551509022713
1791114820264708000,7.7397080078125,-0.5264561772346497,-0.25165948271751404,0.029710549861192703
1791114820274779100,7.749779052734375,-0.5369035005569458,-0.2714294493198395,0.07164735347032547
1791114820284850200,7.75985009765625,-0.5752495527267456,-0.2663426399230957,0.05884525924921036
1791114820294920000,7.769919921875,-0.5927228331565857,-0.3119833767414093,0.029470592737197876
1791114820304991000,7.779990966796875,-0.5895389318466187,-0.3247920274734497,0.011825064197182655
1791114820315062000,7.79006201171875,-0.5803872346878052,-0.306123822927475,-0.01757410354912281
1791114820325133000,7.800133056640625,-0.5650020837783813,-0.31570354104042053,-0.002139957621693611
1791114820335202800,7.810202880859375,-0.5872998833656311,-0.354448527097702,0.051509957760572433
1791114820345273900,7.82027392578125,-0.6120150089263916,-0.36544159054756165,0.01759333163499832
1791114820355345000,7.830344970703125,-0.5932844877243042,-0.3727554380893707,0.016634060069918633
1791114820365416000,7.840416015625,-0.5687552094459534,-0.3637654185295105,0.03808450698852539
1791114820375486200,7.850486328125,-0.5666773915290833,-0.36743712425231934,0.021219773218035698
1791114820385557000,7.860556884765625,-0.562239408493042,-0.37979593873023987,-0.0010766586055979133
1791114820395628000,7.8706279296875,-0.5457795262336731,-0.3948974013328552,0.01873965561389923
1791114820405699000,7.880698974609375,-0.5461097955703735,-0.4215451776981354,-0.01353578083217144
1791114820415769000,7.89076904296875,-0.5431853532791138,-0.4335094392299652,-0.029530193656682968
1791114820425840000,7.900840087890625,-0.5163242816925049,-0.4216378629207611,-0.025286095216870308
1791114820435911000,7.910910888671875,-0.5104195475578308,-0.41749054193496704,-0.040908996015787125
1791114820445982000,7.92098193359375,-0.48091626167297363,-0.4269143044948578,-0.04662526771426201
1791114820456053000,7.931052978515625,-0.4473300874233246,-0.4192313551902771,-0.04520713537931442
1791114820466123000,7.941123046875,-0.4552479088306427,-0.4108421504497528,-0.02378104254603386
1791114820476194000,7.951194091796875,-0.4366941750049591,-0.4249822199344635,-0.02612489089369774
1791114820486264800,7.961264892578125,-0.41102343797683716,-0.4179703891277313,-0.047280244529247284
1791114820496336000,7.9713359375,-0.38007086515426636,-0.39777323603630066,-0.007504334673285484
1791114820506406100,7.98140625,-0.3503258228302002,-0.40234479308128357,-0.018438253551721573
1791114820516477200,7.991477294921875,-0.3466828763484955,-0.39647409319877625,-0.09126905351877213
1791114820526548200,8.00154833984375,-0.2912156581878662,-0.38762715458869934,-0.08247357606887817
1791114820536619000,8.011618896484375,-0.24575366079807281,-0.36827635765075684,-0.01137089729309082
1791114820546689000,8.02168896484375,-0.23018933832645416,-0.36094385385513306,0.027243372052907944
1791114820556760000,8.031760009765625,-0.2282542884349823,-0.34736040234565735,0.0039004995487630367
1791114820566831000,8.0418310546875,-0.20251010358333588,-0.3035045564174652,0.024055860936641693
1791114820576902100,8.051902099609375,-0.21075871586799622,-0.26490870118141174,0.03828752785921097
1791114820586972000,8.061971923828125,-0.18387684226036072,-0.27713683247566223,-0.024555223062634468
1791114820597043000,8.07204296875,-0.12801198661327362,-0.25276172161102295,-0.044946782290935516
1791114820607114000,8.082114013671875,-0.07940816134214401,-0.2173839956521988,0.03658430650830269
1791114820617185000,8.09218505859375,-0.08279357105493546,-0.2226775586605072,0.028376976028084755
1791114820627255000,8.102255126953125,-0.06850750744342804,-0.24288593232631683,-0.0028897621668875217
1791114820637326000,8.112326171875,-0.013295378535985947,-0.23902194201946259,0.035981204360723495
1791114820647397000,8.122397216796875,0.002275672275573015,-0.22683219611644745,-0.027042172849178314
1791114820657468200,8.13246826171875,-0.044072918593883514,-0.2244957983493805,-0.030952492728829384
1791114820667538200,8.1425380859375,-0.08617744594812393,-0.23533718287944794,-0.015082359313964844
1791114820677609000,8.15260888671875,-0.08747600764036179,-0.23245085775852203,-0.026330487802624702
1791114820687680000,8.162679931640625,-0.057164132595062256,-0.26148107647895813,0.04134891927242279
1791114820697751000,8.1727509765625,-0.03129898011684418,-0.27630290389060974,0.08736008405685425
1791114820707822000,8.182822021484375,-0.04177950322628021,-0.27616527676582336,0.04809105023741722
1791114820717891800,8.192891845703125,-0.0314704068005085,-0.29623618721961975,-0.0282782893627882
1791114820727963000,8.202962890625,-0.0106120016425848,-0.30450794100761414,0.02655593305826187
1791114820738034000,8.213033935546875,-0.009111843071877956,-0.2836860120296478,0.011034764349460602
1791114820748105000,8.22310498046875,0.005090146325528622,-0.2689207196235657,0.001991432625800371
1791114820758175200,8.23317529296875,0.038238514214754105,-0.27673256397247314,0.01930490881204605
1791114820768246000,8.24324609375,0.07642211019992828,-0.28766319155693054,0.029785946011543274
1791114820778316800,8.25331689453125,0.10003022849559784,-0.2779144048690796,0.06116783991456032
1791114820788387800,8.263387939453125,0.12764447927474976,-0.26110753417015076,0.05334153771400452
1791114820798457900,8.273457763671875,0.13281607627868652,-0.22847874462604523,0.05980316549539566
1791114820808529000,8.28352880859375,0.1724393516778946,-0.19390593469142914,0.06688971072435379
1791114820818599700,8.293599609375,0.23803460597991943,-0.1808311492204666,0.014868057332932949
1791114820828670700,8.303670654296875,0.2464761883020401,-0.16128847002983093,-0.04964933916926384
1791114820838740700,8.31374072265625,0.23778949677944183,-0.13479934632778168,-0.009928025305271149
1791114820848811800,8.323811767578125,0.24212267994880676,-0.1175815686583519,-0.040007516741752625
1791114820858882800,8.3338828125,0.24435120820999146,-0.07200423628091812,-0.029041951522231102
1791114820868953600,8.34395361328125,0.2812266945838928,-0.0783722773194313,0.05961089953780174
1791114820879023900,8.35402392578125,0.34922122955322266,-0.07287604361772537,0.05209972336888313
1791114820889095000,8.364094970703125,0.3374132513999939,-0.03991173952817917,0.05941246077418327
1791114820899166000,8.374166015625,0.34040185809135437,-0.03396836295723915,0.07802476733922958
1791114820909237000,8.384237060546875,0.3391202986240387,-0.016910914331674576,0.07152514159679413
1791114820919306800,8.394306640625,0.299315869808197,0.01050153560936451,0.005208440590649843
1791114820929377800,8.404377685546875,0.31544873118400574,-0.0035444004461169243,0.014697595499455929
1791114820939448800,8.41444873046875,0.33883821964263916,-0.01038046833127737,-0.024943822994828224
1791114820949520000,8.424519775390625,0.326913058757782,0.011728514917194843,-0.0362466536462307
1791114820959589600,8.434589599609374,0.2885590195655823,0.0004681376740336418,-0.03456646576523781
1791114820969660700,8.44466064453125,0.2631450295448303,0.012092946097254753,-0.045038361102342606
1791114820979731700,8.454731689453125,0.24878579378128052,0.020887503400444984,-0.06497904658317566
1791114820989802800,8.464802734375,0.2657362222671509,-0.009299589321017265,0.033328648656606674
1791114820999872800,8.474872802734374,0.2368616759777069,0.00034478213638067245,0.035923898220062256
1791114821009943800,8.48494384765625,0.17903472483158112,0.0020606471225619316,-0.045876581221818924
1791114821020014800,8.495014892578125,0.14921611547470093,-0.028210705146193504,-0.048298195004463196
1791114821030086000,8.5050859375,0.1253669261932373,-0.02626110054552555,-0.04610229283571243
1791114821040156000,8.515156005859374,0.1059679314494133,-0.028935447335243225,-0.03753677010536194
1791114821050226700,8.525226806640624,0.0873856320977211,-0.05445588380098343,-0.034905266016721725
1791114821060297700,8.535297607421874,0.04308847710490227,-0.08274877071380615,-0.023054463788866997
1791114821070368800,8.54536865234375,0.004678642377257347,-0.06817063689231873,-0.016826819628477097
1791114821080438800,8.555438720703124,-0.02358282171189785,-0.09784278273582458,0.007071055006235838
1791114821090509800,8.565509765625,-0.01129645761102438,-0.11983174085617065,0.00028644362464547157
1791114821100580600,8.57558056640625,-0.04916154593229294,-0.10408100485801697,-0.042845580726861954
1791114821110651600,8.585651611328124,-0.09226880222558975,-0.11377917230129242,0.001042514923028648
1791114821120722700,8.59572265625,-0.10156882554292679,-0.12700575590133667,0.03583351895213127
1791114821130793000,8.60579296875,-0.10293109714984894,-0.128952294588089,0.0063800266943871975
1791114821140864000,8.615864013671874,-0.05859106034040451,-0.14323562383651733,0.005079072900116444
1791114821150934800,8.625934814453124,-0.03649173304438591,-0.13619881868362427,-0.02749701775610447
1791114821161005800,8.636005859375,-0.07031814008951187,-0.14156004786491394,-0.051425520330667496
1791114821171075800,8.646075927734374,-0.07350992411375046,-0.1311853975057602,0.023732971400022507
1791114821181147000,8.65614697265625,-0.04609322175383568,-0.130751833319664,0.04614267125725746
1791114821191218000,8.666218017578124,-0.010805867612361908,-0.1387573629617691,0.051497139036655426
1791114821201288700,8.676288818359374,-0.01852157711982727,-0.14420191943645477,0.05134933441877365
1791114821211358700,8.686358642578124,-0.05170680209994316,-0.13145482540130615,-0.005241377744823694
1791114821221429800,8.6964296875,-0.06152108311653137,-0.1340857595205307,-0.09046865999698639
1791114821231500800,8.706500732421874,-0.0702737495303154,-0.11670754849910736,-0.06775616854429245
1791114821241571800,8.71657177734375,-0.02996947057545185,-0.11906552314758301,-0.037949007004499435
1791114821251641900,8.726641845703124,-0.005995771382004023,-0.11898989230394363,-0.07178498059511185
1791114821261713000,8.736712890625,0.006030265241861343,-0.10509724915027618,-0.04405881464481354
1791114821271784000,8.746783935546874,0.01285397820174694,-0.09678777307271957,0.013752683065831661
1791114821281855000,8.75685498046875,0.008272542618215084,-0.07896243780851364,-0.006518233567476273
1791114821291924700,8.7669248046875,0.004997887182980776,-0.08574218302965164,-0.015285583212971687
1791114821301995800,8.776995849609374,0.029645709320902824,-0.08275837451219559,-0.014138559810817242
1791114821312066800,8.78706689453125,0.035281985998153687,-0.0619666613638401,-0.014604286290705204
1791114821322137900,8.797137939453124,0.047607362270355225,-0.057094939053058624,-0.01045747846364975
1791114821332207600,8.80720751953125,0.07778536528348923,-0.04908706992864609,0.08264040946960449
1791114821342278700,8.817278564453124,0.0789872482419014,-0.027789771556854248,0.059134818613529205
1791114821352349700,8.827349609375,0.08035002648830414,-0.029777612537145615,0.0638841763138771
1791114821362420700,8.837420654296874,0.09733167290687561,-0.014835147187113762,0.0746753066778183
1791114821372491000,8.847490966796874,0.08445984870195389,-0.006328945979475975,0.013629057444632053
1791114821382561800,8.857561767578124,0.09267250448465347,0.003244052641093731,0.06175823509693146
1791114821392632800,8.8676328125,0.06721078604459763,0.009475710801780224,0.04533321410417557
1791114821402704000,8.877703857421874,0.06320992112159729,-0.0025708312168717384,0.03191434219479561
1791114821412774000,8.88777392578125,0.05502566695213318,-0.01902213878929615,-0.01637752167880535
1791114821422845000,8.897844970703124,0.020416289567947388,-0.016648996621370316,-0.04099391773343086
1791114821432915700,8.907915771484374,-0.008250148966908455,-0.018536215648055077,-0.027494920417666435
1791114821442986800,8.91798681640625,-0.00007797259604558349,-0.016477858647704124,-0.0157245472073555
1791114821453057800,8.928057861328124,-0.010093017481267452,-0.031549107283353806,-0.02403659000992775
1791114821463127800,8.9381279296875,-0.032584477216005325,-0.04858827590942383,0.033451467752456665
1791114821473198800,8.94819873046875,-0.03977907821536064,-0.03626418858766556,0.054196570068597794
1791114821483269600,8.95826953125,-0.06531640142202377,-0.05771009251475334,0.0935162827372551
1791114821493340700,8.968340576171874,-0.07246702909469604,-0.08821829408407211,0.07808469980955124
1791114821503411000,8.978410888671876,-0.07626976072788239,-0.09537553787231445,-0.01950310543179512
1791114821513481700,8.988481689453126,-0.14217859506607056,-0.09436091035604477,-0.029094941914081573
1791114821523552800,8.998552734375,-0.143025740981102,-0.1354188621044159,0.016929540783166885
1791114821533623800,9.008623779296874,-0.16033317148685455,-0.13450081646442413,0.03838789090514183
1791114821543693800,9.01869384765625,-0.17844852805137634,-0.15571288764476776,0.021681616082787514
1791114821553764900,9.028764892578126,-0.14480379223823547,-0.20633672177791595,-0.008700355887413025
1791114821563836000,9.0388359375,-0.14459553360939026,-0.20411139726638794,-0.024643102660775185
1791114821573907000,9.048906982421874,-0.181776225566864,-0.2109215259552002,-0.02335553616285324
1791114821583976700,9.058976806640626,-0.18562209606170654,-0.2461695373058319,0.047145795077085495
1791114821594047700,9.0690478515625,-0.1503012776374817,-0.23051753640174866,0.016670214012265205
1791114821604118800,9.079118896484376,-0.13451218605041504,-0.2644922733306885,-0.02964109182357788
1791114821614189800,9.08918994140625,-0.1248670145869255,-0.2887086868286133,-0.018704913556575775
1791114821624259600,9.099259521484376,-0.0990508571267128,-0.26502761244773865,0.015971042215824127
1791114821634330600,9.10933056640625,-0.09345068037509918,-0.24663029611110687,0.04622993990778923
1791114821644401700,9.119401611328126,-0.09563873708248138,-0.22709360718727112,0.01644248329102993
1791114821654472700,9.12947265625,-0.08023560792207718,-0.18621622025966644,0.03507908806204796
1791114821664543000,9.13954296875,-0.0549883134663105,-0.18044275045394897,0.033917151391506195
1791114821674613800,9.14961376953125,-0.018603138625621796,-0.16885188221931458,-0.002224608324468136
1791114821684684800,9.159684814453126,0.028141463175415993,-0.1762077957391739,0.04109223932027817
1791114821694755800,9.169755859375,0.056216031312942505,-0.15301907062530518,0.036508433520793915
1791114821704825900,9.179825927734376,0.035453494638204575,-0.11949466168880463,-0.00019099225755780935
1791114821714896600,9.189896728515626,0.029388077557086945,-0.11913059651851654,0.028282037004828453
1791114821724967700,9.1999677734375,0.0334070548415184,-0.09300152212381363,0.021729329600930214
1791114821735038700,9.210038818359376,0.02866506204009056,-0.0750434547662735,-0.03999749571084976
1791114821745108700,9.220108642578126,0.07650715112686157,-0.07945817708969116,0.0011478109518066049
1791114821755179800,9.2301796875,0.10917612165212631,-0.0785088911652565,0.08238891512155533
1791114821765250600,9.24025048828125,0.14285126328468323,-0.0734800472855568,0.09137175977230072
1791114821775321600,9.250321533203126,0.1446162462234497,-0.056086260825395584,0.038691144436597824
1791114821785391900,9.260391845703126,0.12128694355487823,-0.05022650584578514,-0.0017401669174432755
1791114821795463000,9.270462890625,0.0832596868276596,-0.057511694729328156,-0.012177882716059685
1791114821805534000,9.280533935546876,0.11202102899551392,-0.076751708984375,0.0009400498820468783
1791114821815604700,9.290604736328126,0.15582570433616638,-0.09142574667930603,0.02818072773516178
1791114821825674800,9.3006748046875,0.14325211942195892,-0.07578632980585098,0.0253420639783144
1791114821835745800,9.310745849609376,0.08812820166349411,-0.0742003470659256,0.01631884276866913
1791114821845816800,9.32081689453125,0.08594787120819092,-0.07239366322755814,0.012759261764585972
1791114821855888000,9.330887939453126,0.12338917702436447,-0.06479214131832123,0.04979923367500305
1791114821865957600,9.34095751953125,0.10219839960336685,-0.05065262317657471,0.006564147770404816
1791114821876028700,9.351028564453125,0.11137931793928146,-0.07168838381767273,0.021408971399068832
1791114821886099700,9.361099609375,0.11933204531669617,-0.05650729686021805,0.018235549330711365
1791114821896170800,9.371170654296876,0.11288423091173172,-0.06684207171201706,-0.012877005152404308
1791114821906240800,9.38124072265625,0.12350012362003326,-0.05987177789211273,-0.030397675931453705
1791114821916311800,9.391311767578125,0.09811298549175262,-0.06174656003713608,-0.015914155170321465
1791114821926382800,9.4013828125,0.09961207211017609,-0.03559165447950363,0.0019130450673401356
1791114821936454000,9.411453857421876,0.09761257469654083,-0.05133572965860367,-0.09743112325668335
1791114821946524000,9.42152392578125,0.10565505176782608,-0.0766109973192215,-0.057913269847631454
1791114821956594700,9.4315947265625,0.12081370502710342,-0.08410913497209549,-0.04117470607161522
1791114821966665700,9.441665771484375,0.085785411298275,-0.08817923814058304,0.0048332661390304565
1791114821976736800,9.45173681640625,0.08165901899337769,-0.09192673861980438,0.038378212600946426
1791114821986806800,9.461806884765625,0.10135655850172043,-0.09266283363103867,0.017864946275949478
1791114821996877800,9.4718779296875,0.10385169088840485,-0.09346373379230499,-0.010684347711503506
1791114822006948600,9.481948486328125,0.10739902406930923,-0.09261950850486755,-0.05056998133659363
1791114822017019600,9.49201953125,0.10603496432304382,-0.09110448509454727,-0.0771620124578476
1791114822027090000,9.50208984375,0.08229395002126694,-0.09359747171401978,-0.059514839202165604
1791114822037161000,9.512160888671875,0.11603648960590363,-0.10412982106208801,-0.005699740722775459
1791114822047232000,9.52223193359375,0.10087405145168304,-0.07881061732769012,-0.045275647193193436
1791114822057302800,9.532302734375,0.11958640813827515,-0.07657807320356369,-0.07096545398235321
1791114822067372800,9.542372802734375,0.14334288239479065,-0.06501409411430359,0.0014887717552483082
1791114822077443800,9.55244384765625,0.18584616482257843,-0.07430921494960785,0.030879607424139977
1791114822087515000,9.562514892578125,0.16534169018268585,-0.048719700425863266,0.005776651203632355
1791114822097585700,9.572585693359375,0.11498458683490753,0.0015231696888804436,-0.04517035186290741
1791114822107656700,9.58265673828125,0.1243400052189827,0.016531147062778473,-0.1239519789814949
1791114822117726700,9.592726806640625,0.15557707846164703,0.04330608993768692,-0.08687222003936768
1791114822127797800,9.6027978515625,0.19279181957244873,0.068788543343544,-0.0060937488451600075
1791114822137868800,9.612868896484375,0.24468035995960236,0.06421569734811783,-0.021524013951420784
1791114822147939600,9.622939697265625,0.26752763986587524,0.08868535608053207,0.010617678053677082
1791114822158009900,9.633009765625,0.2784981429576874,0.114814393222332,0.07210428267717361
1791114822168081000,9.643080810546875,0.29344379901885986,0.12359882891178131,0.07519648224115372
1791114822178152000,9.65315185546875,0.27201300859451294,0.164077028632164,0.012740121223032475
1791114822188223000,9.663222900390625,0.27409371733665466,0.18533837795257568,-0.03600558266043663
1791114822198292700,9.673292724609375,0.2682301998138428,0.19717282056808472,-0.03458418324589729
1791114822208363800,9.68336376953125,0.2837276756763458,0.18756280839443207,-0.000434735557064414
1791114822218434800,9.693434814453125,0.3195078670978546,0.17981232702732086,0.05646384134888649
1791114822228505900,9.703505859375,0.3143852949142456,0.15641406178474426,0.07563194632530212
1791114822238575600,9.71357568359375,0.284054160118103,0.1360703557729721,0.037438709288835526
1791114822248646700,9.723646728515625,0.24460555613040924,0.1471504420042038,0.037077318876981735
1791114822258717700,9.7337177734375,0.20702627301216125,0.14340554177761078,0.006043499801307917
1791114822268788700,9.743788818359375,0.10816308110952377,0.12771259248256683,-0.04457227513194084
1791114822278859000,9.75385888671875,0.046221718192100525,0.0904146283864975,-0.11180700361728668
1791114822288929800,9.7639296875,0.06195913627743721,0.0509878545999527,-0.10479756444692612
1791114822299000800,9.774000732421875,0.08788029104471207,0.03567599505186081,0.029560673981904984
1791114822309072000,9.78407177734375,0.08139894902706146,0.015987243503332138,0.013867199420928955
1791114822319142000,9.794141845703125,-0.02131175622344017,-0.00799781084060669,-0.03356355056166649
1791114822329213000,9.804212890625,-0.08804071694612503,-0.02864396758377552,-0.020706873387098312
1791114822339283700,9.81428369140625,-0.10011918842792511,-0.04471387714147568,0.02167515456676483
1791114822349354800,9.824354736328125,-0.05384836345911026,-0.0679483562707901,0.08900252729654312
1791114822359424800,9.8344248046875,-0.021097850054502487,-0.13731127977371216,0.05337775871157646
1791114822369495800,9.844495849609375,-0.06514386832714081,-0.17185913026332855,-0.011245442554354668
1791114822379566800,9.85456689453125,-0.14857111871242523,-0.14455561339855194,0.0028946110978722572
1791114822389637600,9.8646376953125,-0.16612374782562256,-0.13523881137371063,0.055743440985679626
1791114822399708000,9.8747080078125,-0.12135995924472809,-0.15479059517383575,0.07261733710765839
1791114822409779000,9.884779052734375,-0.10597168654203415,-0.16404667496681213,-0.028423525393009186
1791114822419850000,9.89485009765625,-0.10286368429660797,-0.17162054777145386,-0.11113707721233368
1791114822429921000,9.904921142578125,-0.07527413219213486,-0.1304190456867218,-0.12364408373832703
1791114822439990800,9.91499072265625,-0.05002053081989288,-0.10560493916273117,-0.034549061208963394
1791114822450061800,9.925061767578125,-0.048775237053632736,-0.0845305472612381,-0.011140676215291023
1791114822460132900,9.9351328125,-0.02552255429327488,-0.07209368795156479,-0.025602472946047783
1791114822470204000,9.945203857421875,0.011401110328733921,-0.039946142584085464,-0.00897529348731041
1791114822480273700,9.955273681640625,0.06596463918685913,-0.022662034258246422,-0.002710491418838501
1791114822490344700,9.9653447265625,0.09498004615306854,0.02645038440823555,-0.03484605997800827
1791114822500415700,9.975415771484375,0.11917063593864441,0.044458016753196716,-0.032107580453157425
1791114822510486800,9.98548681640625,0.159772127866745,0.04195677489042282,-0.03243914246559143
1791114822520556800,9.995556884765625,0.19186250865459442,0.059976376593112946,-0.04220908507704735
1791114822530627800,10.0056279296875,0.22252695262432098,0.08739441633224487,0.07354786992073059
1791114822540699000,10.015698974609375,0.26301878690719604,0.10710570216178894,0.09323952347040176
1791114822550770000,10.02577001953125,0.3003866672515869,0.11372152715921402,0.10846374928951263
1791114822560840000,10.03583984375,0.3037708103656769,0.12963005900382996,0.025311045348644257
1791114822570910700,10.04591064453125,0.29801520705223083,0.14861227571964264,0.011707352474331856
1791114822580981800,10.055981689453125,0.2972647249698639,0.16684097051620483,0.017735447734594345
1791114822591052800,10.066052734375,0.28443071246147156,0.19773469865322113,-0.009815220721065998
1791114822601122800,10.076122802734375,0.2963019907474518,0.20375153422355652,-0.0671933963894844
1791114822611193900,10.08619384765625,0.3253434896469116,0.19853387773036957,-0.11350550502538681
1791114822621264600,10.0962646484375,0.30496180057525635,0.19784864783287048,-0.09402607381343842
1791114822631335700,10.106335693359375,0.3039591312408447,0.1832561194896698,-0.018703624606132507
1791114822641405700,10.11640576171875,0.3009200692176819,0.17374785244464874,0.02132015861570835
1791114822651476700,10.126476806640625,0.2510174810886383,0.19538603723049164,0.00484158331528306
1791114822661547800,10.1365478515625,0.20399177074432373,0.18419359624385834,-0.08786554634571075
1791114822671618800,10.146618896484375,0.18813557922840118,0.19117027521133423,-0.07768428325653076
1791114822681688800,10.156688720703125,0.20505249500274658,0.18754787743091583,-0.01932952180504799
1791114822691759900,10.166759765625,0.2273133248090744,0.1692572981119156,0.003700428642332554
1791114822701831000,10.176830810546875,0.22129866480827332,0.20334088802337646,0.07468273490667343
1791114822711902000,10.18690185546875,0.1997603476047516,0.21835844218730927,0.08193585276603699
1791114822721971700,10.1969716796875,0.14911572635173798,0.19481009244918823,-0.009044820442795753
1791114822732042800,10.207042724609375,0.09677661210298538,0.18376916646957397,-0.05301467701792717
1791114822742113800,10.21711376953125,0.03742966800928116,0.19464711844921112,0.03263338282704353
1791114822752184800,10.227184814453125,0.058399930596351624,0.19193388521671295,-0.02238965407013893
1791114822762254600,10.237254638671875,0.10495687276124954,0.16929584741592407,-0.042060066014528275
1791114822772325600,10.24732568359375,0.11304596066474915,0.15460078418254852,0.01149317529052496
1791114822782396700,10.257396728515625,0.061887260526418686,0.14538908004760742,0.010316288098692894
1791114822792467700,10.2674677734375,0.03312751650810242,0.15054921805858612,-0.050334274768829346
1791114822802537700,10.277537841796875,0.028656667098402977,0.1461121290922165,-0.039149343967437744
1791114822812608500,10.2876083984375,0.019635742530226707,0.15114018321037292,-0.021705636754631996
1791114822822679600,10.297679443359375,0.043183621019124985,0.14881625771522522,0.006969920359551907
1791114822832750600,10.30775048828125,0.019652729853987694,0.1328974813222885,0.024929745122790337
1791114822842820600,10.317820556640624,0.014624426141381264,0.11287765949964523,-0.0012119471793994308
1791114822852891600,10.3278916015625,0.021113483235239983,0.11584734916687012,-0.030930960550904274
1791114822862962400,10.33796240234375,0.009482682682573795,0.11411886662244797,0.016499999910593033
1791114822873033500,10.348033447265625,0.01658426783978939,0.11480703204870224,0.009282301180064678
1791114822883103500,10.358103515625,0.0011191132944077253,0.1259099841117859,-0.038233138620853424
1791114822893174500,10.368174560546874,-0.003470578696578741,0.12147502601146698,-0.017475394532084465
1791114822903245600,10.37824560546875,-0.01247092243283987,0.11587244272232056,-0.017908703535795212
1791114822913316600,10.388316650390625,0.020742690190672874,0.08785438537597656,0.02489069104194641
1791114822923386600,10.39838671875,0.032206129282712936,0.09275330603122711,0.055687155574560165
1791114822933457700,10.408457763671874,-0.004410738591104746,0.10691359639167786,0.034250304102897644
1791114822943528700,10.41852880859375,0.0032753548584878445,0.07305494695901871,-0.010275598615407944
1791114822953599700,10.428599853515625,0.02967873215675354,0.09556451439857483,-0.008502199314534664
1791114822963669500,10.43866943359375,0.016278505325317383,0.08854280412197113,0.014167646877467632
1791114822973740500,10.448740478515624,-0.01238643005490303,0.060335926711559296,0.0015527845825999975
1791114822983811600,10.4588115234375,-0.0057852305471897125,0.053191378712654114,0.040648046880960464
1791114822993882600,10.468882568359374,-0.013394148088991642,0.045859433710575104,0.03388042375445366
1791114823003952400,10.478952392578124,-0.01043748389929533,0.015317682176828384,0.042206063866615295
1791114823014023400,10.4890234375,-0.036256566643714905,0.025379637256264687,0.11590451747179031
1791114823024094500,10.499094482421874,-0.06972242146730423,0.02305912971496582,0.01868889294564724
1791114823034165500,10.50916552734375,-0.10418851673603058,0.016908559948205948,-0.012398716993629932
1791114823044235800,10.51923583984375,-0.15379980206489563,0.03035079501569271,-0.080991730093956
1791114823054306600,10.529306640625,-0.15088416635990143,0.027643958106637,-0.06334935873746872
1791114823064377600,10.539377685546874,-0.0851348340511322,0.010190059430897236,0.066923126578331
1791114823074448600,10.54944873046875,-0.05514843761920929,0.010588201694190502,0.06251346319913864
1791114823084518700,10.5595185546875,-0.0533040352165699,-0.0030939094722270966,0.030114121735095978
1791114823094589400,10.56958935546875,-0.059402674436569214,0.014225692488253117,0.0168214850127697
1791114823104660500,10.579660400390624,-0.09072782844305038,0.016048341989517212,0.03242596983909607
1791114823114731500,10.5897314453125,-0.10545990616083145,-0.00040786154568195343,0.055146992206573486
1791114823124801500,10.599801513671874,-0.12284476310014725,0.0053291358053684235,0.05142579972743988
1791114823134872600,10.60987255859375,-0.12193688750267029,-0.0031564938835799694,0.03264492377638817
1791114823144943400,10.619943359375,-0.09558038413524628,-0.021133895963430405,0.030622519552707672
1791114823155014400,10.630014404296874,-0.08175591379404068,-0.0076883952133357525,0.005926493555307388
1791114823165084700,10.640084716796874,-0.05959485098719597,-0.011758649721741676,0.03802277520298958
1791114823175155700,10.65015576171875,-0.06287720054388046,0.0052110133692622185,0.062014926224946976
1791114823185226800,10.660226806640624,-0.0614623986184597,0.03349008783698082,-0.008125880733132362
1791114823195297500,10.670297607421874,-0.04269536957144737,0.03234918788075447,-0.005609193351119757
1791114823205367600,10.680367431640626,-0.0011708049569278955,0.03190142661333084,-0.009441670961678028
1791114823215438600,10.6904384765625,0.005648751277476549,0.05560515820980072,-0.0691382884979248
1791114823225509600,10.700509521484374,-0.032880958169698715,0.050827011466026306,0.017181510105729103
1791114823235580700,10.71058056640625,-0.02563369832932949,0.03371194005012512,0.06934697180986404
1791114823245650400,10.720650390625,-0.028888940811157227,0.05876586586236954,0.015203839167952538
1791114823255721500,10.730721435546876,0.022345485165715218,0.04295867308974266,0.0035455862525850534
1791114823265792500,10.74079248046875,0.05494677275419235,0.04144838824868202,0.03743760660290718
1791114823275863600,10.750863525390624,0.08072111755609512,0.03823928162455559,0.024116741493344307
1791114823285933600,10.76093359375,0.06825295090675354,0.028173748403787613,0.10374609380960464
1791114823296004600,10.771004638671876,0.04486613720655441,0.04745902866125107,0.07046963274478912
1791114823306075600,10.78107568359375,0.05088990926742554,0.05687263235449791,0.06960095465183258
1791114823316146700,10.791146728515624,0.026815198361873627,0.05039343237876892,0.007928001694381237
1791114823326216700,10.801216796875,0.04877139627933502,0.03105342388153076,0.02982819266617298
1791114823336287500,10.81128759765625,0.08671984076499939,0.03749188408255577,0.039235007017850876
1791114823346358500,10.821358642578126,0.08638615906238556,0.06280520558357239,-0.006134293973445892
1791114823356429600,10.8314296875,0.0599907711148262,0.05506579950451851,0.023104285821318626
1791114823366499600,10.84149951171875,0.050330571830272675,0.0668557807803154,0.058113764971494675
1791114823376570600,10.851570556640626,0.048359036445617676,0.06854075938463211,0.05561172589659691
1791114823386641400,10.861641357421876,0.04443414881825447,0.04738081991672516,0.06739601492881775
1791114823396712400,10.87171240234375,0.0747625008225441,0.027305912226438522,0.07226800173521042
1791114823406782700,10.88178271484375,0.04539082944393158,0.019619479775428772,0.022999435663223267
1791114823416853800,10.891853759765626,-0.000537247397005558,0.023562289774417877,-0.003010860178619623
1791114823426924800,10.9019248046875,-0.014325477182865143,0.02744589000940323,0.04133002460002899
1791114823436995600,10.91199560546875,-0.0080263027921319,0.026758793741464615,0.11118820309638977
1791114823447065600,10.922065673828126,0.049807026982307434,-0.028589915484189987,0.0778093934059143
1791114823457136600,10.93213671875,0.05225953087210655,-0.028340376913547516,0.0045642126351594925
1791114823467207700,10.942207763671876,0.030476558953523636,0.01044426765292883,0.0016312175430357456
1791114823477278500,10.952278564453126,0.02958519756793976,0.004889446310698986,0.049504198133945465
1791114823487348500,10.962348388671876,0.006324417889118195,0.009822645224630833,-0.0009935679845511913
1791114823497419500,10.97241943359375,0.009942854754626751,0.01208819542080164,0.0004599853418767452
1791114823507490600,10.982490478515626,0.04194146394729614,0.008160315454006195,-0.03891182690858841
1791114823517561600,10.9925615234375,0.09807770699262619,0.010153425857424736,-0.037862807512283325
1791114823527631600,11.002631591796876,0.08901085704565048,0.03502833843231201,0.028198739513754845
1791114823537702700,11.01270263671875,0.08562251180410385,0.028172029182314873,-0.010914839804172516
1791114823547773700,11.022773681640626,0.054978229105472565,0.036991991102695465,-0.024138465523719788
1791114823557844700,11.0328447265625,0.08971996605396271,0.044454168528318405,-0.017819048836827278
1791114823567914500,11.04291455078125,0.12696534395217896,0.036985866725444794,0.008671147748827934
1791114823577985500,11.052985595703126,0.1081000417470932,0.04894319176673889,-0.011960361152887344
1791114823588056600,11.063056640625,0.09280716627836227,0.05839478224515915,-0.07131393998861313
1791114823598127600,11.073127685546876,0.07380551099777222,0.07775995880365372,-0.06731919944286346
1791114823608197600,11.08319775390625,0.1156945675611496,0.0869140550494194,-0.008741558529436588
1791114823618268400,11.093268310546875,0.12076389044523239,0.08650153130292892,0.028019918128848076
1791114823628339500,11.10333935546875,0.16354256868362427,0.06867145001888275,0.060181599110364914
1791114823638410500,11.113410400390626,0.1943361610174179,0.08437078446149826,-0.02636447362601757
1791114823648480800,11.123480712890625,0.16050052642822266,0.10800546407699585,-0.05368123576045036
1791114823658551800,11.1335517578125,0.09450872987508774,0.13476170599460602,-0.0206841342151165
1791114823668622600,11.14362255859375,0.09056965261697769,0.12134227901697159,0.021980922669172287
1791114823678693600,11.153693603515626,0.11606915295124054,0.13058850169181824,-0.010151448659598827
1791114823688763600,11.163763671875,0.14055873453617096,0.126844584941864,0.025030218064785004
1791114823698834700,11.173834716796875,0.19252632558345795,0.10689671337604523,0.0893642008304596
1791114823708905700,11.18390576171875,0.19058290123939514,0.09944746643304825,0.13203564286231995
1791114823718976500,11.1939765625,0.14146143198013306,0.1266854703426361,0.027304168790578842
1791114823729046500,11.204046630859375,0.09877755492925644,0.12381163239479065,0.035816412419080734
1791114823739117600,11.21411767578125,0.082680344581604,0.14463622868061066,0.034132227301597595
1791114823749188600,11.224188720703125,0.09928015619516373,0.13525205850601196,0.02512064203619957
1791114823759259600,11.234259765625,0.08646529167890549,0.12140176445245743,0.10707835853099823
1791114823769329700,11.24432958984375,0.10067425668239594,0.11013980954885483,0.14511877298355103
1791114823779400700,11.254400634765625,0.0651727169752121,0.10801700502634048,0.06140150874853134
1791114823789472300,11.26447216796875,0.011632190085947514,0.1152842566370964,0.011688635684549809
1791114823799543300,11.274543212890626,-0.01639198698103428,0.09447804093360901,0.042877182364463806
1791114823809613300,11.28461328125,-0.031032122671604156,0.08128902316093445,0.07901442795991898
1791114823819684400,11.294684326171875,-0.02292066626250744,0.06330735981464386,0.08892511576414108
1791114823829755400,11.30475537109375,-0.034689705818891525,0.04044705629348755,0.08760232478380203
1791114823839826400,11.314826416015626,-0.030585508793592453,0.027199696749448776,0.06451883912086487
1791114823849896200,11.324896240234375,-0.0572810061275959,-0.0011412622407078743,0.025037696585059166
1791114823859967200,11.33496728515625,-0.09297987818717957,-0.017858723178505898,-0.0051042260602116585
1791114823870038300,11.345038330078125,-0.10875795036554337,-0.0174042247235775,0.0746544823050499
1791114823880109300,11.355109375,-0.1297692358493805,-0.007650398649275303,0.0866411030292511
1791114823890179300,11.365179443359375,-0.1276470571756363,-0.008599935099482536,0.057656463235616684
1791114823900250000,11.37525,-0.09822259098291397,-0.031118027865886688,0.02122708410024643
1791114823910321200,11.385321044921875,-0.09119132906198502,-0.028852656483650208,0.013221832923591137
1791114823920392200,11.39539208984375,-0.09836828708648682,-0.028224680572748184,-0.00241172150708735
1791114823930462500,11.40546240234375,-0.086859330534935,-0.03285739943385124,0.0054228901863098145
1791114823940533500,11.415533447265625,-0.06912799924612045,-0.032933298498392105,0.002994620008394122
1791114823950604300,11.425604248046875,-0.07888636738061905,-0.03274763375520706,0.01195013802498579
1791114823960675300,11.43567529296875,-0.07148491591215134,-0.01160852424800396,-0.043293677270412445
1791114823970745300,11.445745361328125,-0.07668401300907135,-0.005028902553021908,-0.09694615751504898
1791114823980816400,11.45581640625,-0.03348753601312637,0.003232222981750965,-0.0031605479307472706
1791114823990887400,11.465887451171875,-0.01614154316484928,0.0264195054769516,-0.008628077805042267
1791114824000958200,11.475958251953125,0.0015008330810815096,0.017495784908533096,0.029667379334568977
1791114824011028200,11.4860283203125,0.03269989416003227,0.039722513407468796,0.0436391606926918
1791114824021099300,11.496099365234375,0.02125202864408493,0.046107176691293716,0.1226615458726883
1791114824031170300,11.50617041015625,0.04480148106813431,0.07066610455513,0.05738792568445206
1791114824041241300,11.516241455078125,0.025175584480166435,0.08618807792663574,-0.01248569693416357
1791114824051311400,11.526311279296875,0.062271010130643845,0.0947432592511177,-0.05545569211244583
1791114824061382400,11.53638232421875,0.10074836015701294,0.10468670725822449,-0.0738283097743988
1791114824071453400,11.546453369140625,0.10466443747282028,0.12488613277673721,0.020098602399230003
1791114824081524500,11.5565244140625,0.1214737817645073,0.1355941742658615,0.08783530443906784
1791114824091594200,11.56659423828125,0.09312988072633743,0.14591766893863678,0.11654355376958847
1791114824101665300,11.576665283203125,0.09998006373643875,0.13820064067840576,0.07621077448129654
1791114824111736300,11.586736328125,0.13911007344722748,0.14789137244224548,0.0223015658557415
1791114824121807400,11.596807373046875,0.1627778559923172,0.16861608624458313,0.018548905849456787
1791114824131877000,11.606877197265625,0.14660288393497467,0.1832866370677948,0.06494729965925217
1791114824141948200,11.6169482421875,0.13406126201152802,0.1571093648672104,0.047119829803705215
1791114824152019200,11.627019287109375,0.10470179468393326,0.1816100776195526,0.041803691536188126
1791114824162090200,11.63709033203125,0.08713772147893906,0.20035846531391144,0.026809029281139374
1791114824172160500,11.647160400390625,0.06371898949146271,0.20484013855457306,0.035152070224285126
1791114824182231300,11.657231201171875,0.0733678862452507,0.17743462324142456,0.0759197399020195
1791114824192302300,11.66730224609375,0.08273734152317047,0.1892327219247818,0.13342951238155365
1791114824202373400,11.677373291015625,0.05554593354463577,0.1968299150466919,0.13760961592197418
1791114824212443400,11.687443359375,-0.012749521061778069,0.1674305647611618,0.021975910291075706
1791114824222514400,11.697514404296875,-0.07007406651973724,0.15765197575092316,-0.004576604813337326
1791114824232585200,11.707585205078125,-0.059460658580064774,0.16071072220802307,-0.009930853731930256
1791114824242656300,11.71765625,-0.08011241257190704,0.14963357150554657,0.03123203106224537
1791114824252726300,11.727726318359375,-0.09838772565126419,0.129399836063385,-0.07279188185930252
1791114824262797300,11.73779736328125,-0.1076190397143364,0.10643166303634644,-0.0376831591129303
1791114824272868400,11.747868408203125,-0.12777142226696014,0.07751280069351196,-0.05316682904958725
1791114824282939100,11.757939208984375,-0.16648925840854645,0.059720221906900406,-0.1014145165681839
1791114824293009400,11.768009521484375,-0.20739057660102844,0.033091433346271515,-0.06780987232923508
1791114824303080400,11.77808056640625,-0.24023480713367462,0.011196788400411606,-0.039577968418598175
1791114824313151200,11.788151123046875,-0.290859192609787,-0.0051735383458435535,-0.07175718992948532
1791114824323222300,11.79822216796875,-0.3199627697467804,-0.03195961192250252,-0.12695173919200897
1791114824333292300,11.808292236328125,-0.31407710909843445,-0.06018514186143875,-0.1421307921409607
1791114824343363300,11.81836328125,-0.3092154860496521,-0.07358670234680176,-0.11023277044296265
1791114824353434400,11.828434326171875,-0.2888343334197998,-0.0962669849395752,-0.09041859209537506
1791114824363505400,11.83850537109375,-0.3085680902004242,-0.1074804812669754,-0.05972086638212204
1791114824373575200,11.8485751953125,-0.32547274231910706,-0.0974666178226471,-0.019346844404935837
1791114824383646200,11.858646240234375,-0.3113816976547241,-0.117264024913311,0.02931230328977108
1791114824393717200,11.86871728515625,-0.29625970125198364,-0.13528412580490112,0.057498183101415634
1791114824403788300,11.878788330078125,-0.2856632471084595,-0.16220708191394806,-0.035035211592912674
1791114824413858300,11.8888583984375,-0.3055538237094879,-0.17440906167030334,-0.05992260202765465
1791114824423929000,11.89892919921875,-0.3134879171848297,-0.16590052843093872,-0.013529803603887558
1791114824434000100,11.909000244140625,-0.29784244298934937,-0.17551001906394958,0.033619169145822525
1791114824444071200,11.9190712890625,-0.2621465027332306,-0.16594341397285461,0.06234642118215561
1791114824454141400,11.929141357421875,-0.2119922637939453,-0.15036490559577942,0.0689169317483902
1791114824464212200,11.939212158203125,-0.18115179240703583,-0.1394677758216858,0.045490965247154236
1791114824474283300,11.949283203125,-0.16161824762821198,-0.1301216334104538,0.03451685979962349
1791114824484354300,11.959354248046875,-0.14313670992851257,-0.11813554167747498,0.013339935801923275
1791114824494424300,11.96942431640625,-0.14248605072498322,-0.12745043635368347,0.016637757420539856
1791114824504495400,11.979495361328125,-0.13279400765895844,-0.11960849165916443,0.0402996763586998
1791114824514566100,11.989566162109375,-0.06451313197612762,-0.09298921376466751,0.003329742234200239
1791114824524637200,11.99963720703125,-0.0400402806699276,-0.10197631269693375,0.061695314943790436
1791114824534707200,12.009707275390625,-0.03936722129583359,-0.10970006883144379,0.09080161154270172
1791114824544778200,12.0197783203125,-0.02366522140800953,-0.10289676487445831,0.07408308237791061
1791114824554849300,12.029849365234375,-0.00869166199117899,-0.08475746959447861,0.048378486186265945
1791114824564920000,12.039920166015625,0.04360589757561684,-0.07723377645015717,0.04323645681142807
1791114824574990300,12.049990234375,0.0891713947057724,-0.06925417482852936,0.06249707564711571
1791114824585061400,12.060061279296875,0.10190023481845856,-0.05957091599702835,0.059780385345220566
1791114824595132400,12.07013232421875,0.07221941649913788,-0.04204857349395752,-0.005775982979685068
1791114824605203500,12.080203369140625,0.08546251803636551,-0.047666244208812714,0.002776226494461298
1791114824615273200,12.090273193359375,0.10645151138305664,-0.006461345590651035,0.029298720881342888
1791114824625344300,12.10034423828125,0.1069687008857727,-0.008990815840661526,0.011510668322443962
1791114824635415300,12.110415283203125,0.10022617876529694,0.0041795652359724045,0.033121876418590546
1791114824645486300,12.120486328125,0.10431253910064697,0.03499739617109299,0.030894676223397255
1791114824655556000,12.13055615234375,0.1266365945339203,0.03455295041203499,0.004725816659629345
1791114824665627100,12.140627197265625,0.10258053243160248,0.06461896747350693,-0.07024403661489487
1791114824675698200,12.1506982421875,0.09162203967571259,0.06855589151382446,-0.016036614775657654
1791114824685769200,12.160769287109375,0.10341078042984009,0.04375946521759033,0.028241101652383804
1791114824695839500,12.170839599609375,0.15126913785934448,0.05350681394338608,0.0902688279747963
1791114824705910300,12.18091015625,0.16607365012168884,0.047528814524412155,0.06088403984904289
1791114824715981300,12.190981201171875,0.1121111512184143,0.04181021824479103,0.0383506715297699
1791114824726051300,12.20105126953125,0.0591571182012558,0.022697508335113525,-0.04708646610379219
1791114824736122400,12.211122314453124,0.041299931704998016,0.025873981416225433,-0.0194855947047472
1791114824746193400,12.221193359375,0.07769042998552322,0.01676250621676445,0.02294575236737728
1791114824756264200,12.23126416015625,0.09512122720479965,-0.0007149828597903252,0.06404533982276917
1791114824766334200,12.241334228515624,0.08932831883430481,0.02312164008617401,0.07598988711833954
1791114824776405200,12.2514052734375,0.08605138957500458,0.030477117747068405,-0.009177797473967075
1791114824786476000,12.26147607421875,0.051430560648441315,0.05432945489883423,-0.07914835959672928
1791114824796546800,12.271546875,0.06744194775819778,0.058934345841407776,-0.04724705591797829
1791114824806617000,12.2816171875,0.1147407591342926,0.041833654046058655,0.01378780510276556
1791114824816688000,12.291688232421874,0.09735548496246338,0.061279088258743286,0.04223848879337311
1791114824826759200,12.30175927734375,0.06666095554828644,0.05711975693702698,0.041668571531772614
