time,seconds_elapsed,z,y,x
1789998293454246400,1.555246337890625,-0.0036138619812874045,-0.32549921156738304,0.02783712877894548
1789998293464317400,1.5653173828125,0.16408607465907105,-0.1725808338542449,0.10126259488246472
1789998293474388500,1.575388427734375,0.20206658227345542,-0.1666991307954677,-0.004245238678869082
1789998293484459300,1.585459228515625,0.23232415814802085,-0.18634550695367688,-0.1695389385852151
1789998293494530300,1.5955302734375,0.2705674385680605,-0.1940115437858545,-0.16531129532479738
1789998293504601300,1.605601318359375,0.3226699931390702,-0.1299655316350905,-0.009162787978122389
1789998293514672400,1.61567236328125,0.37101468649512825,-0.038956895712367746,0.047519910867262975
1789998293524743400,1.625743408203125,0.39415631833913223,-0.023175426190250654,-0.04874803695763178
1789998293534814500,1.635814453125,0.2682985600149179,-0.09298547792540264,0.12516656314185823
1789998293544884200,1.64588427734375,0.31301959007982744,-0.04904159333693958,0.2859944484734387
1789998293554955500,1.65595556640625,0.4077360028649886,0.15503260516299613,0.28271981562609894
1789998293565026600,1.666026611328125,0.5276056350672612,0.3774439765739803,-0.24490890610509974
1789998293575097600,1.67609765625,0.5753951516667193,0.40549898596592926,-0.32982431620361635
1789998293585168600,1.686168701171875,0.5924583137534213,0.2756746987619366,-0.1921291815550206
1789998293595239400,1.696239501953125,0.6027428231743652,0.34111093813546584,0.0889775356542043
1789998293605310500,1.706310546875,0.5701037291823216,0.5266801330760311,-0.024969696237943532
1789998293615381500,1.716381591796875,0.6064179141788907,0.5811531414977886,-0.3021386641500967
1789998293625452500,1.72645263671875,0.5752338258095145,0.47406293330489896,-0.32836756893309554
1789998293635523600,1.736523681640625,0.4579476729426918,0.3029802928745337,-0.1917017897824849
1789998293645593300,1.74659326171875,0.2994361992196683,0.27803022306702163,0.01076419670631286
1789998293655664400,1.756664306640625,0.29356905274101014,0.3046385960420624,0.028791781352774163
1789998293665735400,1.7667353515625,0.23173581416058864,0.32238230733824647,-0.21314654567215682
1789998293675806500,1.776806396484375,0.32531054722839464,0.32749463530267225,-0.1823817332370599
1789998293685877500,1.78687744140625,0.47458709956688716,0.3843632090137275,0.0032207240940980595
1789998293695948500,1.796948486328125,0.3734957403048394,0.35644326642471563,-0.04265589600721273
1789998293706019300,1.807019287109375,0.3465417023145482,0.3828844309556138,-0.23711329295936875
1789998293716090400,1.81709033203125,0.4119809450457833,0.41271767965184486,-0.10161652976454855
1789998293726161400,1.827161376953125,0.33033896133378393,0.4621118139348952,0.02364348599385078
1789998293736232400,1.837232421875,0.24341718208295735,0.4021418793764277,0.16085724088984976
1789998293746302500,1.847302490234375,0.09832956125204616,0.2963563391763976,-0.044796635497557837
1789998293756373500,1.85737353515625,0.07495537327526924,0.30444800366215735,-0.10034888954992223
1789998293766444500,1.867444580078125,0.15663419115593777,0.3112180555325356,0.14699444001231904
1789998293776515600,1.877515625,0.17475334459825648,0.2149413185591043,0.24374726473391456
1789998293786586600,1.887586669921875,0.1564800939688001,0.14363190779504015,0.11029391511782402
1789998293796657700,1.89765771484375,0.17409270515155437,0.20245084738338848,0.010340361660735521
1789998293806728400,1.907728515625,0.2519127419109215,0.20868953808415325,0.12319020745647355
1789998293816799500,1.917799560546875,0.2337145708333189,0.15876168106608554,0.09154527235768778
1789998293826870500,1.92787060546875,0.11649727180183196,0.14581801092358945,-0.08656352712357275
1789998293836941600,1.937941650390625,0.06667152422049114,0.07181949662369558,0.0831106855149244
1789998293847012600,1.9480126953125,0.04036549163103999,0.049795544846129865,0.19925256419263468
1789998293857082400,1.958082275390625,0.06232344286152717,0.04549221162527669,0.16538114258769854
1789998293867153400,1.9681533203125,0.057662779377328076,0.05654780517947826,0.04645267906038176
1789998293877224400,1.978224365234375,0.08373607132707235,0.05943638359458657,-0.14090308922194889
1789998293887295500,1.98829541015625,0.06867395153745808,0.05602646232968877,-0.1819061635411064
1789998293897366500,1.998366455078125,0.09993594244920835,0.057803761173273384,-0.11445669917975557
1789998293907437600,2.0084375,0.09447730045847792,0.11397026162304676,-0.15980517376615117
1789998293917508400,2.01850830078125,0.10648498567946019,0.08582286927588886,0.16903199137908387
1789998293927579400,2.028579345703125,0.06537092243723651,0.08319366661753162,0.19553536559611157
1789998293937650400,2.038650390625,-0.08706625535677531,0.06694881945900708,-0.12458383705850375
1789998293947721500,2.048721435546875,-0.18776331152558456,0.03986756982203869,-0.19405620868392073
1789998293957792500,2.05879248046875,-0.1997293563493895,0.04187916591547256,-0.170304200148084
1789998293967862300,2.0688623046875,-0.11035418808766644,0.037287422630720934,-0.07572005331576356
1789998293977933300,2.078933349609375,0.04006566454517027,0.04465407247202117,0.07965530559042758
1789998293988004400,2.08900439453125,0.04322652711928935,0.024068797757536082,0.026870798132024906
1789998293998075400,2.099075439453125,0.04173787091734838,0.028162516925883944,0.0192557270361483
1789998294008146400,2.109146484375,0.08023555294180428,0.08834733463284773,0.12895045862609894
1789998294018217500,2.119217529296875,-0.034082025242804584,0.01779787679564204,0.12364182601419682
1789998294028288300,2.129288330078125,-0.09458413512391964,-0.012981299794511106,-0.0861307142511662
1789998294038359300,2.139359375,-0.02334086696424665,0.0012919611101049602,0.06179004471650096
1789998294048430300,2.149430419921875,0.0627916830313001,-0.005776418794675926,0.09979385217528122
1789998294058501400,2.15950146484375,0.0754885747639181,0.03300450964597769,-0.1305880085901089
1789998294068571600,2.169571533203125,0.09783452531644625,0.03784719869026152,-0.15039642869872222
1789998294078642400,2.179642333984375,0.16062966382778784,0.07209115167040497,-0.014149471794586716
1789998294088713500,2.18971337890625,0.15320305897936404,0.07967043558442537,-0.03791815539810159
1789998294098784500,2.199784423828125,0.1199569995084791,0.08603420230740283,-0.17930318229452566
1789998294108855600,2.20985546875,0.10321425842851699,0.08741436645294415,0.04295895000392748
1789998294118926600,2.219926513671875,0.0775471991784863,0.10280687755420967,0.2137742580876525
1789998294128997600,2.22999755859375,0.024453284798174938,0.1342724915777066,0.0888518192504951
1789998294139068400,2.240068359375,-0.0191230634746247,0.11178615809345621,-0.008760118033430542
1789998294149139500,2.250139404296875,0.09044157830921695,0.1617287526091272,0.03799966222324699
1789998294159209500,2.26020947265625,0.15770906805226126,0.19867023682766843,0.02470736166823872
1789998294169280500,2.270280517578125,0.12047471018106934,0.1701254850596001,0.021816056324654533
1789998294179351600,2.2803515625,0.09058856622986813,0.153352216895888,0.013338109821878509
1789998294189422300,2.29042236328125,0.030185360790047133,0.12791900479731289,-0.14230223414134494
1789998294199493400,2.300493408203125,0.04608414206675406,0.09008975612154427,-0.22559470887437807
1789998294209564400,2.310564453125,0.02953834839541628,0.0967750081029981,-0.04643356390743574
1789998294219635500,2.320635498046875,0.003944394909464677,0.05766936366107708,0.06740683007241453
1789998294229706500,2.33070654296875,-0.017095917519615783,0.06143514519215564,-0.025058445698895097
1789998294239777500,2.340777587890625,-0.09216832280499553,0.015946547405450283,-0.16018233488634048
1789998294249848300,2.350848388671875,-0.05641589107077607,-0.03353962251266522,-0.009765655902725372
1789998294259919400,2.36091943359375,0.004860790209881862,-0.039247238086627306,0.15312122545680906
1789998294269989400,2.3709892578125,0.05825498197058329,-0.028116805514088305,-0.03394944185414199
1789998294280060400,2.381060302734375,0.14298776274419003,-0.012880989840155135,0.02376142996903383
1789998294290131500,2.39113134765625,0.10360653103584261,-0.034894523579735354,-0.08911810874122787
1789998294300202500,2.401202392578125,0.05259886503537497,-0.02176768220890558,-0.06564683601877297
1789998294310273500,2.4112734375,0.019239974626133523,-0.04986244614722225,-0.17600800258193747
1789998294320344600,2.421344482421875,0.009636119741585332,-0.009295204235981451,-0.06935634181742119
1789998294330415400,2.431415283203125,-0.0176661301095111,-0.006334898486688095,0.013874900115602374
1789998294340486400,2.441486328125,0.05777766300396585,-0.031435817925257355,0.0779061220111482
1789998294350557400,2.451557373046875,0.003780790158380216,-0.0721640385422189,0.05076562242362408
1789998294360628500,2.46162841796875,-0.049034759370313645,-0.051775766759876184,-0.23861269538843924
1789998294370698500,2.471698486328125,0.007646167096881478,-0.008208168535643223,-0.13346344145171762
1789998294380769500,2.48176953125,0.14405954610936875,-0.0006199070939905216,-0.028183975725629827
1789998294390840600,2.491840576171875,0.15394117646815025,-0.00464015842239731,0.09928922424793914
1789998294400911600,2.50191162109375,0.1219212809996357,0.05072176111881546,-0.03711748573765523
1789998294410982400,2.511982421875,0.17934773871574408,0.15719172871993337,0.06251909991830655
1789998294421053400,2.522053466796875,0.1596214388521662,0.1869597434533284,0.15150955160595703
1789998294431124500,2.53212451171875,0.10828216794925184,0.16649848698131103,0.16362315823736048
1789998294441195500,2.542195556640625,0.07928285709537443,0.19300745713399206,-0.013127885037024695
1789998294451266600,2.5522666015625,0.12632850419915467,0.2616294408332931,-0.10736564706962494
1789998294461337600,2.562337646484375,0.20904991663260686,0.2759395250870312,-0.026790635925664944
1789998294471407400,2.572407470703125,0.19986650958259222,0.2923395682785457,-0.06447564216689905
1789998294481478400,2.582478515625,0.15176822510273802,0.278564684673544,0.023292450518232893
1789998294491549400,2.592549560546875,0.14942537896930183,0.2954724944524516,0.08597894632446389
1789998294501620500,2.602620361328125,0.11704771099492929,0.2951985401120211,-0.0559130829804164
1789998294511691500,2.61269140625,0.04343785857610548,0.26529813595614343,0.0020749459206720086
1789998294521762300,2.62276220703125,0.050965475577519015,0.2672593678021608,0.06594309876251217
1789998294531833300,2.632833251953125,0.13112793414950993,0.31152203515884946,-0.07849736142945637
1789998294541904400,2.642904296875,0.1500278878161185,0.3086004612036677,-0.1718879814293875
1789998294551975400,2.652975341796875,0.17114425711754797,0.3227310900393759,0.026287554803881313
1789998294562045700,2.663045654296875,0.23497455052997726,0.34381847842134317,0.31273117931627764
1789998294572116000,2.673115966796875,0.17730108476540188,0.2937871572469824,-0.013081850133201933
1789998294582187000,2.68318701171875,0.03284102756260351,0.20065715254254157,-0.01640355747341239
1789998294592258000,2.693258056640625,-0.05131547702724538,0.20886788129664985,-0.06611443370765545
1789998294602328800,2.703328857421875,0.033092309958626234,0.22103923956309743,-0.13343278460248592
1789998294612399900,2.71339990234375,-0.011413605960981926,0.16741955848339735,-0.09692681707149632
1789998294622471000,2.723470947265625,-0.05672678828278216,0.1878950772925108,0.13766987380619244
1789998294632542000,2.7335419921875,-0.015142492764401492,0.17413224280963988,0.15350853062705525
1789998294642613000,2.743613037109375,-0.04810709030044828,0.14230961181418367,0.06531926892049006
1789998294652684000,2.75368408203125,-0.15002898456998293,0.08521677366285946,0.07798700504205881
1789998294662753800,2.76375390625,-0.13241857586655603,0.08382315963867323,-0.015310115468291087
1789998294672824800,2.773824951171875,-0.03538502264572035,0.06322307559583222,-0.12353972948785329
1789998294682896000,2.783895751953125,-0.026650963295552905,0.03255038212183635,-0.04750357010862434
1789998294692967000,2.793966796875,-0.05946349750353154,0.03679156066057002,-0.025568468624377904
1789998294703037700,2.80403759765625,-0.08055653978987505,0.028417328290611325,0.15383234810518642
1789998294713108700,2.814108642578125,-0.03810021646550191,0.059325585517004384,0.12031905556986273
1789998294723179800,2.8241796875,-0.026748885861278784,0.06330566561352954,0.25763506364337346
1789998294733250800,2.834250732421875,-0.0714097241441392,-0.01343793034075124,0.15349520733276073
1789998294743321900,2.84432177734375,-0.03317100808205745,0.03125619443617885,0.04782351606470926
1789998294753393000,2.854392822265625,-0.08907679508069273,0.024046084974899126,0.05758545039613652
1789998294763462700,2.864462646484375,-0.12013245586199402,-0.013132468680410245,-0.019050507747554322
1789998294773533700,2.87453369140625,-0.0753195487825873,0.033740767020453324,0.09939875233585622
1789998294783604700,2.884604736328125,-0.11506599994485259,0.08654832543210268,0.04282347351811608
1789998294793675800,2.89467578125,-0.14155569318738997,0.06281706131617701,-0.06409588976811988
1789998294803746800,2.904746826171875,-0.1936941594091586,0.010548411067225184,-0.0022443063305170275
1789998294813817900,2.91481787109375,-0.13001105355116993,0.007212924681013153,-0.01016840078267367
1789998294823889000,2.924888916015625,-0.07416014117561172,0.0040596769300245365,0.07771844901736895
1789998294833960000,2.9349599609375,-0.05139730916957055,-0.020962667753137192,0.1698198533904988
1789998294844031000,2.945031005859375,0.009061257072818608,-0.0034477549596427983,-0.06592547505653658
1789998294854102000,2.95510205078125,0.013530205647558767,0.012345398071389206,-0.09912686259431554
1789998294864171800,2.965171875,0.09901595646693816,0.047191063114413526,-0.04475294845695085
1789998294874242800,2.975242919921875,0.05767716582844223,0.07081836559236877,-0.04676691433770932
1789998294884313900,2.98531396484375,0.0436255351686853,0.07160461228710943,-0.25059707161034805
1789998294894385000,2.995385009765625,0.09865970780601871,0.13955565290958846,-0.07521127752923723
1789998294904456000,3.0054560546875,0.016964197486394755,0.14929000024628114,0.26345277995964506
1789998294914527000,3.01552685546875,-0.029168718527749823,0.1130585700985929,-0.0012005050764715495
1789998294924597800,3.02559765625,-0.06567205486591036,0.1680430277188847,-0.12095820996855115
1789998294934668800,3.035668701171875,0.006366128990148336,0.2791783792691702,-0.12834982945148063
1789998294944739800,3.04573974609375,0.032161996863430804,0.2928609017952657,-0.004412606426756182
1789998294954809900,3.055809814453125,0.12463898734093569,0.26176014000176434,0.005690191993581925
1789998294964881000,3.065880859375,0.16950277625440655,0.29760232749101706,0.12865510431030017
1789998294974951700,3.07595166015625,0.10228844707864512,0.28771793582729316,-0.027791544012780316
1789998294985022700,3.086022705078125,0.021995102060297932,0.2593536076077034,-0.12185256897929535
1789998294995093800,3.09609375,-0.10268202707167956,0.22374672272082388,-0.151019227038986
1789998295005164800,3.106164794921875,-0.056584853558793384,0.22481069636602868,-0.13607866635792357
1789998295015235800,3.11623583984375,-0.02429968315217383,0.24732735048072882,0.1622690860666394
1789998295025307000,3.126306884765625,0.020298548180637286,0.24743379539636814,0.1837154536716284
1789998295035377700,3.136377685546875,0.016427124824078418,0.2040828498117368,0.1254321493094407
1789998295045448700,3.14644873046875,-0.053915826931710556,0.19529814477208127,-0.03161171907535317
1789998295055519000,3.15651904296875,-0.09709631722101464,0.20974937929012327,-0.15903909654435738
1789998295065590000,3.166590087890625,-0.12809182578562414,0.17516808538292714,-0.07137643489542266
1789998295075661000,3.1766611328125,-0.07596299950480372,0.18634656466920146,0.09117041076393807
1789998295085731800,3.18673193359375,-0.1150967617291476,0.1546004785619461,0.04342939798861543
1789998295095803000,3.196802978515625,-0.11415542636338087,0.09563433333822968,-0.011602806980701154
1789998295105874000,3.2068740234375,-0.11959233814668982,0.05193007457544573,-0.04451682199844753
1789998295115945000,3.216945068359375,-0.19295751564486185,0.030606952308357777,-0.013544852810998608
1789998295126016000,3.22701611328125,-0.23826832772914822,-0.04135292052097879,0.13784894839193912
1789998295136087000,3.237087158203125,-0.18997130105925214,-0.062188677858467704,0.17105886889618774
1789998295146156800,3.24715673828125,-0.1773957761022387,-0.09709716298723665,0.19444095438988204
1789998295156227800,3.257227783203125,-0.23866833815266592,-0.1823355196884011,-0.05706067274539995
1789998295166299000,3.267298828125,-0.281496865791922,-0.27439364934623556,-0.05466102406502478
1789998295176370000,3.277369873046875,-0.30134074168512476,-0.33002332994654454,-0.03225480908676423
1789998295186441000,3.28744091796875,-0.29701589545873736,-0.2958651083919138,-0.09478743999993462
1789998295196511700,3.29751171875,-0.33904783636382907,-0.35552047091972205,-0.06055563485130735
1789998295206582800,3.307582763671875,-0.37583674764394087,-0.4177930457760931,-0.00030473290493093536
1789998295216653800,3.31765380859375,-0.36103044541222645,-0.4594573208222353,0.11138048050498467
1789998295226724900,3.327724853515625,-0.3737844467360325,-0.48620979243035095,-0.04532424261115343
1789998295236796000,3.3377958984375,-0.32565704935598205,-0.5072241634461272,-0.049793361875891645
1789998295246865700,3.34786572265625,-0.27997749854914195,-0.5133559377266518,0.06770367185435383
1789998295256936700,3.357936767578125,-0.22227979354764477,-0.47546768095150366,0.05630507548400963
1789998295267007700,3.3680078125,-0.26354839708772254,-0.519343211269975,-0.039591065655991325
1789998295277078800,3.378078857421875,-0.3070506169135905,-0.566323667054487,-0.10699374344401877
1789998295287149800,3.38814990234375,-0.2875228982657163,-0.5481188130009662,-0.003862990172201989
1789998295297220900,3.398220947265625,-0.29656197506027676,-0.4848496697165202,-0.024452183108620285
1789998295307291600,3.408291748046875,-0.312654453960215,-0.44161104627638464,-0.060479741612974015
1789998295317362700,3.41836279296875,-0.2958925125871921,-0.3833807896910013,-0.0693555968879113
1789998295327433700,3.428433837890625,-0.17283950056826022,-0.3027009533810776,-0.12885569304745298
1789998295337504000,3.43850390625,-0.15989327941456252,-0.22863643507063153,-0.09777730261944621
1789998295347575000,3.448574951171875,-0.11275294076090484,-0.2052654251184447,0.009110269018762898
1789998295357645800,3.458645751953125,-0.09674099107730356,-0.19526792836945744,0.09486473436491355
1789998295367716900,3.468716796875,-0.07555287365548963,-0.1266540567696882,-0.051628886052554175
1789998295377788000,3.478787841796875,0.026590112111912707,-0.05382151400217924,0.10503941664021933
1789998295387859000,3.48885888671875,0.024446111874711594,-0.036136687763381435,0.17080102630866908
1789998295397930000,3.498929931640625,0.020066429030201983,-0.004793854290187433,-0.0692976845678253
1789998295408001000,3.5090009765625,0.03704118855484372,0.06655684369237044,-0.1800369543494855
1789998295418071800,3.51907177734375,0.14534702615762035,0.14152799899883678,0.021134530727729545
1789998295428141800,3.529141845703125,0.1729943418886766,0.1345061048793408,0.06792278688788224
1789998295438212900,3.539212890625,0.23887593624595416,0.15079017048986246,-0.06640594694792358
1789998295448284000,3.549283935546875,0.2927022335954427,0.20415515765676917,-0.03231696183179711
1789998295458355000,3.55935498046875,0.31124328092056597,0.2258022310799363,0.04848578208827432
1789998295468425700,3.56942578125,0.25902301730239075,0.24502196563204698,-0.13570297379614268
1789998295478496800,3.579496826171875,0.18042947419858124,0.24512780540735105,-0.13312317144252003
1789998295488567800,3.58956787109375,0.21895543694197042,0.23014646898342928,-0.01998020042945656
1789998295498638800,3.599638916015625,0.22645385362664025,0.23657828250924443,0.008358378255632876
1789998295508710000,3.6097099609375,0.23661549860568762,0.23328405714721295,0.012905045210175145
1789998295518779600,3.619779541015625,0.25199638055195006,0.21431609233279308,0.04020303938140575
1789998295528850700,3.6298505859375,0.2080312513180743,0.2213834633540939,0.004554683089612736
1789998295538921700,3.639921630859375,0.22484585102075114,0.2551644316489861,-0.14247331301009544
1789998295548992800,3.64999267578125,0.2703957480471966,0.28908130558171286,0.02240350027211249
1789998295559063800,3.660063720703125,0.32179515313740353,0.2831521354105767,0.08024372750826289
1789998295569134800,3.670134765625,0.2987683012872403,0.26735145151001055,-0.0333037545247638
1789998295579205600,3.68020556640625,0.19494767845711783,0.24356348005861211,0.07318437316557337
1789998295589276700,3.690276611328125,0.1003377711245055,0.2231132214169307,0.17165453307027553
1789998295599347700,3.70034765625,0.03033214034750518,0.2142540536174543,0.10385403056374977
1789998295609418800,3.710418701171875,-0.07636416213131107,0.16843274337746447,0.004823128458720803
1789998295619489000,3.720489013671875,-0.2002865611275009,0.11359979461869711,-0.07427811918966999
1789998295629559800,3.730559814453125,-0.12405774134340677,0.14810989360589208,-0.033274309109903984
1789998295639630800,3.740630859375,-0.03224487155495522,0.1989386225406256,0.02151358818045211
1789998295649702000,3.750701904296875,0.020647801335686982,0.15683027375134653,0.06766095823261085
1789998295659773000,3.76077294921875,-0.06855574863701865,0.1259486052799941,-0.04697273041587424
1789998295669844000,3.770843994140625,-0.09047837527116806,0.11058140900486566,-0.19496779853781046
1789998295679915000,3.7809150390625,-0.17461385410009297,0.05890283535220805,-0.040370114295488264
1789998295689985800,3.79098583984375,-0.2671407614757449,-0.0038603964371781104,0.24851641034393807
1789998295700056800,3.801056884765625,-0.27112176144457706,-0.0985182399415583,0.30170901023980196
1789998295710126800,3.811126953125,-0.35064007075330256,-0.23131426175722136,0.17819548623541767
1789998295720198000,3.821197998046875,-0.3777295894494847,-0.3242163338866134,-0.08913070892485299
1789998295730269000,3.83126904296875,-0.3157416978215605,-0.3292046946142183,0.06559895724533667
1789998295740339700,3.841339599609375,-0.19719596096132452,-0.23265224919487665,-0.03347986132428213
1789998295750410800,3.85141064453125,-0.18257170622642796,-0.2886851286872129,0.09679563971267206
1789998295760481800,3.861481689453125,-0.25048719932836294,-0.41969215141109834,0.21945671995622876
1789998295770552800,3.871552734375,-0.22559106571713827,-0.4696467684394426,0.12821412869736243
1789998295780624000,3.881623779296875,-0.3513140290437218,-0.495958360360097,0.19718365488323353
1789998295790695000,3.89169482421875,-0.43294810874135803,-0.5620866324615781,0.07958997445834069
1789998295800764700,3.9017646484375,-0.38313003651580513,-0.5355536617911504,0.0892403858128922
1789998295810835700,3.911835693359375,-0.29884711426886096,-0.5126067026595124,-0.13771708872995245
1789998295820906800,3.92190673828125,-0.16259379728515894,-0.4710738814090526,0.12444840621962568
1789998295830977800,3.931977783203125,-0.10757113252377404,-0.4731415359420548,0.11144958956455361
1789998295841048800,3.942048828125,-0.16544454237148695,-0.4369614977734799,-0.040348853338779384
1789998295851119900,3.952119873046875,-0.20769166096448727,-0.40405611494584054,-0.14653151742409495
1789998295861191000,3.96219091796875,-0.22624724256378329,-0.310536385509845,-0.07271213432521301
1789998295871262000,3.972261962890625,-0.15079833892780536,-0.21129653505340823,0.19212733739793067
1789998295881333000,3.9823330078125,-0.021773130518755936,-0.19255298295608872,0.16551321381777317
1789998295891403000,3.992403076171875,-0.03921832377412812,-0.1741894081185049,0.01365044911011446
1789998295901473800,4.002473876953125,-0.006401910464676284,-0.12481405887480664,-0.004703019042757894
1789998295911544800,4.012544921875,0.05151519945575411,-0.07901565288314549,-0.08463066435959755
1789998295921616000,4.022615966796875,0.10759418483850944,-0.06548847264828628,0.06827326329700917
1789998295931687000,4.03268701171875,0.1508314089550134,-0.05021340224449525,0.14664241597128666
1789998295941758000,4.042758056640625,0.16601830050135422,-0.016926412479758308,-0.049192233554533456
1789998295951829000,4.0528291015625,0.12800870206728732,0.006895844885144495,-0.19049593498776754
1789998295961899800,4.062899658203125,0.17665669134360232,0.008739298538175453,-0.056257356508371124
1789998295971970800,4.072970703125,0.15969418032903035,-0.025528134256417003,0.20751020896545125
1789998295982040800,4.083040771484375,0.0919643778893481,-0.008135961114113093,0.06963744107365456
1789998295992111900,4.09311181640625,0.127497931082522,0.07451867427771611,-0.012340644722078634
1789998296002183000,4.103182861328125,0.17551838138796025,0.1315819876973246,0.04395559027976648
1789998296012253700,4.113253662109375,0.2503458535332354,0.15237275451871754,-0.0005748329106459558
1789998296022324700,4.12332470703125,0.1763248870079475,0.2203447766099447,-0.16695490713732597
1789998296032395800,4.133395751953125,0.19334299882433237,0.2799436683830645,-0.23677654744890334
1789998296042466800,4.143466796875,0.18745513091593852,0.2357187784768927,-0.002454424629078085
1789998296052537900,4.153537841796875,0.1516660937450038,0.21262313821282997,0.1929810229257927
1789998296062608000,4.16360791015625,0.2246193319252777,0.25591737358779443,0.15665116962127068
1789998296072679000,4.173678955078125,0.20326096831795898,0.28302860775748234,0.04380300150342795
1789998296082750000,4.18375,0.13850399038182779,0.2660992185119288,-0.3334949169727454
1789998296092821000,4.193821044921875,0.08723076253876302,0.23490316707834646,-0.35188691067109706
1789998296102892000,4.20389208984375,0.0947929302008305,0.1397577277028191,0.023740130176301957
1789998296112963000,4.213963134765625,0.10181391144887585,0.1624140798348102,0.07647496692505011
1789998296123033900,4.224033935546875,0.11882829187102247,0.18489708497446464,0.08525852638839036
1789998296133105000,4.23410498046875,0.14202369897391523,0.14387945282861897,0.04968926281844598
1789998296143176000,4.244176025390625,0.0994024667969711,0.12504617770720503,0.09165888592329956
1789998296153246000,4.254245849609375,0.017529692527472947,0.06916682227925547,-0.0733444697802023
1789998296163317000,4.26431689453125,0.03816162546313768,0.03224828011274488,-0.00919581289177102
1789998296173387800,4.2743876953125,0.12683605652158897,0.04115844699800871,-0.0017678831693257735
1789998296183458800,4.284458740234375,0.197252044707635,0.02471539807009711,-0.09618354746147827
1789998296193529900,4.29452978515625,0.18173776809836187,0.0122644753138375,-0.06639969666853122
1789998296203601000,4.304600830078125,0.04097917262679249,0.009280315640705127,-0.062442369779371974
1789998296213672000,4.314671875,-0.03980674718007897,-0.015299765009537544,-0.2463681494536305
1789998296223743000,4.324742919921875,-0.08536379162941947,-0.013313535649475228,-0.1557692523693707
1789998296233813800,4.334813720703125,-0.008817381014148185,-0.030738449173832966,0.008988075274580478
1789998296243883800,4.3448837890625,0.049968912599438885,-0.041961021951577575,0.12529295621731368
1789998296253954800,4.354954833984375,0.025465694840463855,-0.04726768881171291,-0.040675943084574936
1789998296264025900,4.36502587890625,0.010206981372398906,-0.02380615628800234,-0.1257715833887008
1789998296274097000,4.375096923828125,-0.0019291642368124272,-0.016829420018183657,0.09767380780378308
1789998296284167700,4.385167724609375,-0.011723866549095305,0.01720126630175298,0.17337320404780587
1789998296294238700,4.39523876953125,-0.04684669172227426,-0.0010764437765208765,0.05082132644942801
1789998296304309800,4.405309814453125,-0.1420054054614507,-0.08672806171409098,0.08329756564639722
1789998296314380800,4.415380859375,-0.16411928598542908,-0.15387894198750576,-0.039006535731638065
1789998296324451800,4.425451904296875,-0.18457806632117013,-0.1778095028871906,-0.0058389059758522655
1789998296334521900,4.43552197265625,-0.1933010733288044,-0.13266447826895542,0.011732224230628918
1789998296344593000,4.445593017578125,-0.0750560314639134,-0.14288529594150307,-0.019156450227599285
1789998296354664000,4.455663818359375,-0.010345493656899402,-0.1532469893844406,-0.11576086687705116
1789998296364735000,4.46573486328125,-0.011855513045680558,-0.1508823179839622,-0.12353167784409387
1789998296374806000,4.475805908203125,-0.07426543969443672,-0.17475759263638213,-0.03072560363086864
1789998296384877000,4.485876953125,-0.15987938764672055,-0.16978094682079414,-0.2674309918690213
1789998296394947800,4.49594775390625,-0.1961025795226323,-0.17797753926882542,-0.21267534744435124
1789998296405019000,4.506018798828125,-0.16204389139982595,-0.1508951229966396,-0.024870882819317732
1789998296415089000,4.5160888671875,-0.07531319771843151,-0.13866386136542966,0.04612841298642216
1789998296425160000,4.526159912109375,-0.0735132780548017,-0.1674051343701497,0.014966230164107936
1789998296435231000,4.53623095703125,-0.07923594107183946,-0.16987903702463833,-0.16068032249889705
1789998296445301800,4.5463017578125,-0.00855507921312805,-0.10252881611268305,0.034499411398806
1789998296455372800,4.556372802734375,0.03108672949527648,-0.07396638675810499,0.09898374950716722
1789998296465443800,4.56644384765625,0.08892568648265556,-0.057727154406589945,0.16207530373410403
1789998296475515000,4.576514892578125,0.10944826331729027,-0.05521711000553236,0.17045593771858591
1789998296485586000,4.5865859375,0.1078863177269618,-0.009197765175606292,0.01870126137319433
1789998296495657000,4.596656982421875,0.05300430470252269,0.02664038657269585,-0.1763954722129204
1789998296505726700,4.606726806640625,0.020244295566275376,0.0019690568752817037,-0.06331794767416102
1789998296515797800,4.6167978515625,0.08514516687804335,0.018945271084995097,0.1944949331854451
1789998296525868800,4.626868896484375,0.16099733281870263,0.0476909529146856,0.13198331971258442
1789998296535939800,4.63693994140625,0.12992087107069153,0.0416732941413278,0.02548786789078239
1789998296546011000,4.647010986328125,0.09824668551884158,0.023090792783590382,-0.11937596318310618
1789998296556082200,4.657082275390625,0.07376761714213839,0.0445287104708571,0.0016840892990245867
1789998296566153200,4.6671533203125,0.0943513401853188,0.03906503886930684,-0.020422595844362866
1789998296576224300,4.677224365234375,0.054231684262868056,0.010570308324843984,-0.11415830105870885
1789998296586294300,4.687294189453125,0.0820020136650613,-0.0033039659325426606,-0.04225661192729166
1789998296596365300,4.697365234375,0.12387715269146937,0.014971434777698658,0.0637145815667349
1789998296606436400,4.707436279296875,0.1187415297904623,0.03551019017725768,-0.028452492440328454
1789998296616507400,4.71750732421875,0.03177460478009175,-0.02112913467140912,0.05421337990337929
1789998296626578400,4.727578369140625,0.05320577370995024,-0.014698302377640731,-0.04094191229057826
1789998296636649200,4.737649169921875,0.10369201102258321,0.025429868196433156,-0.09233106359608445
1789998296646720300,4.74772021484375,0.045921152685582084,5.3404240762416994e-05,-0.20399098627209591
1789998296656791300,4.757791259765625,0.0753550580643632,0.02614650004788774,-0.019057763493885296
1789998296666862300,4.7678623046875,0.05369405043511957,0.037484134972386694,0.08152124972031334
1789998296676932400,4.777932373046875,0.029328563431047523,0.00033645171809435165,-0.09287016330718043
1789998296687003100,4.788003173828125,-0.09084703076832355,-0.049155133860477714,0.12330888435847483
1789998296697074200,4.79807421875,-0.07076685316589773,-0.05214527925769922,0.28603960878452495
1789998296707145200,4.808145263671875,-0.006781004278135553,-0.024663973413802588,0.13598291513642724
1789998296717216300,4.81821630859375,-0.0023805032812925777,-0.00017097128629606957,-0.05105110174071012
1789998296727287300,4.828287353515625,0.06253231116323796,-0.06556513196647815,-0.05691353698576768
1789998296737358300,4.8383583984375,0.1547494364133221,-0.061303915778349316,0.04719363019350692
1789998296747429000,4.84842919921875,0.20663484542044386,0.008705912701925287,0.1602418347689348
1789998296757499100,4.8584990234375,0.2294228204467714,-0.018319305686668362,0.17368771570349667
1789998296767570200,4.868570068359375,0.15301701480386534,-0.03221765049887667,0.12997496650385837
1789998296777641200,4.87864111328125,0.055061105542923226,0.011359986055367557,-0.07463893318488522
1789998296787712300,4.888712158203125,-0.05905758468072275,-0.053636024933020096,-0.1439427988790156
1789998296797783000,4.898782958984375,-0.11870514028840418,-0.05615021071953895,-0.08929379626052665
1789998296807854000,4.90885400390625,0.015414981028535935,0.01287047381197997,-0.2036546196635852
1789998296817925000,4.918925048828125,0.0779535708121918,0.029100751886528293,-0.06843416122169758
1789998296827996200,4.92899609375,0.13429140481171212,0.01815999771831495,0.11864302157571964
1789998296838066400,4.93906640625,0.19417981633584408,0.06762633382091669,0.00983003836134999
1789998296848137200,4.94913720703125,0.14680912180283345,0.1463494820187043,-0.06019572399456894
1789998296858208300,4.959208251953125,0.033893009532277654,0.089588565402831,-0.19105419045364622
1789998296868279300,4.969279296875,0.015152182850271725,0.005823367709664983,-0.020182136775744968
1789998296878350300,4.979350341796875,0.1191693544908452,0.09930887063579535,0.1550421215889843
1789998296888421400,4.98942138671875,0.2241268801338489,0.11798954675645917,0.3095666869743388
1789998296898492400,4.999492431640625,0.16904657340441764,0.055940714196579276,0.15996842179317347
1789998296908563200,5.009563232421875,0.14505357439759622,0.1480014142279134,-0.15609464740240556
1789998296918634200,5.01963427734375,0.14936282568080514,0.268922041614941,-0.073962749420208
1789998296928704300,5.029704345703125,0.1479947512382585,0.17047378732459484,-0.09749215799288188
1789998296938775300,5.039775390625,0.07643440831701774,0.12041022149022354,-0.06176789904450556
1789998296948846300,5.049846435546875,0.11292190950816137,0.1632975520588306,-0.12112886215810166
1789998296958917000,5.059917236328125,0.20893593342405073,0.16587372800528224,-0.13292406270839738
1789998296968988200,5.06998828125,0.22620158342274965,0.11607866680288872,0.009572292657316328
1789998296979059200,5.08005908203125,0.080196796959422,0.09688242622990924,0.05193707975443085
1789998296989130200,5.090130126953125,-0.02054108932817441,0.0640873924579876,-0.08714242837590097
1789998296999201300,5.100201171875,0.0181331202695317,0.012195550469274183,-0.2147702950627061
1789998297009271000,5.11027099609375,0.07203368111669022,0.09009472140171083,-0.24798263217406546
1789998297019342000,5.120342041015625,0.1150125892353928,0.1315852340523462,0.013027570208498216
1789998297029413000,5.1304130859375,0.15361541437153123,0.021282905831626307,0.06416246583300067
1789998297039484200,5.140484130859375,0.11286679225808695,-0.000496031509587014,0.12571440956099306
1789998297049555200,5.15055517578125,-0.031214238469641137,0.023485429040843175,-0.017726948734951585
1789998297059626200,5.160626220703125,-0.06255313182177405,0.024700517250288132,-0.11969331694314092
1789998297069697000,5.170697021484375,-0.03507538806809317,-0.021589135448617063,0.013928435813183449
1789998297079768000,5.18076806640625,-0.0349437281221506,-0.014055158064728616,-0.042284120722359375
1789998297089839000,5.190839111328125,0.03160195184693517,0.0036546251754220336,0.09092682778456701
1789998297099909400,5.200909423828125,0.09491590522507896,-0.025219358450107903,0.05267245732321918
1789998297109980400,5.21098046875,0.08769647258642385,-0.04533570991827519,0.24855357789284777
1789998297120051200,5.22105126953125,0.05856582185139405,-0.05625444210762271,0.07619577583414504
1789998297130122200,5.231122314453125,0.08528795214699532,-0.01210229153030833,-0.40982777536276954
1789998297140193300,5.241193359375,0.061003156573133925,-0.01297993556713087,-0.36568019374630945
1789998297150264300,5.251264404296875,0.04467974373115205,-0.014212572963194075,-0.12479881327653339
1789998297160335400,5.26133544921875,0.12526197050216703,-0.018405172394785965,0.1143593575700031
1789998297170406400,5.271406494140625,0.18453703258867968,-0.1157413907710364,0.2579715414571155
1789998297180476200,5.28147607421875,0.17293138730038007,-0.1493936959185326,0.2661142516596431
1789998297190547200,5.291547119140625,0.1062981241862245,-0.08206942794805266,0.09776945586985128
1789998297200618200,5.3016181640625,0.11399955598375658,0.005783198740456249,-0.09271329620826904
1789998297210689300,5.311689208984375,0.17328501727852655,-0.013138410292707872,0.11999808586931794
1789998297220760300,5.32176025390625,0.20060019812391688,-0.03705067620492683,-0.0666441643024642
1789998297230831000,5.3318310546875,0.23920530629675718,0.023359329992548177,0.016702840938711615
1789998297240902100,5.341902099609375,0.15854262091145835,0.06984818716303734,0.1613379662464521
1789998297250973200,5.35197314453125,0.12325007327285827,0.05839938374864117,0.08330722878660372
1789998297261043200,5.362043212890625,0.03244957249022838,0.046645090257855536,0.03421488594736617
1789998297271114200,5.3721142578125,-0.018239763582742822,0.02729797989074008,0.02997182920214625
1789998297281185000,5.38218505859375,0.06493744640291982,0.10250310770469238,0.04916912436723164
1789998297291256000,5.392256103515625,0.1200637979479014,0.14891520202404904,-0.018123952123295956
1789998297301327000,5.4023271484375,0.2081731213002146,0.12866781201230099,-0.1326595879219716
1789998297311398100,5.412398193359375,0.22662236878725597,0.12269832206852842,-0.11311326466503578
1789998297321469200,5.42246923828125,0.27696996097068316,0.20522872791172947,-0.16181355418342613
1789998297331540200,5.432540283203125,0.18195355509240066,0.2393596922715412,-0.19380390838297928
1789998297341610200,5.4426103515625,0.12946288761800956,0.17643602540412823,0.0378608726163783
1789998297351681300,5.452681396484375,0.1642510190870354,0.17582742865467554,0.10836118983041211
1789998297361752300,5.46275244140625,0.10383275436965442,0.16414281079052495,0.11621138315509351
1789998297371823400,5.4728232421875,0.21695333677213896,0.13053378515088945,0.001016096943626203
1789998297381894400,5.482894287109375,0.34785172522984176,0.2522562012309295,0.09624931337485239
1789998297391965200,5.492965087890625,0.32087793283664173,0.3554347897751688,-0.12458274477096014
1789998297402036200,5.5030361328125,0.341974195394008,0.3691872318118171,-0.22540341675461523
1789998297412107300,5.513107177734375,0.3433727332915934,0.34100343233928293,0.17054928766045127
1789998297422177300,5.52317724609375,0.2566475896514643,0.3970503806316492,0.1404788563407868
1789998297432248000,5.533248046875,0.1983094124001683,0.4227669503569904,-0.12156949338123557
1789998297442319000,5.543319091796875,0.22169995619703892,0.40324299463035773,-0.08981859405435257
1789998297452390100,5.55339013671875,0.27358660320794365,0.4887628132985946,-0.010379883422289113
1789998297462461200,5.563461181640625,0.22791845360029733,0.4825620215921676,-0.15099637408801178
1789998297472532200,5.5735322265625,0.3058663983298843,0.4452132377579457,-0.0784354300423288
1789998297482603300,5.583603271484375,0.3889159910617479,0.47009676876684187,-0.03648182697757179
1789998297492674300,5.59367431640625,0.3760962347913398,0.4936346021008873,-0.1697995426784385
1789998297502744300,5.603744384765625,0.49815154586606386,0.5089060248212863,-0.019115824145584798
1789998297512815400,5.6138154296875,0.49646860521923614,0.5667109645183239,0.051168964314974155
1789998297522886400,5.623886474609375,0.42740933974719697,0.6008355586547701,-0.13886093338781924
1789998297532957400,5.63395751953125,0.45038693259891777,0.6378300146091214,-0.09112704698119296
1789998297543028200,5.6440283203125,0.3690991723832846,0.6297415744761251,0.13394219388010029
1789998297553099300,5.654099365234375,0.34916850270982835,0.6241539718622826,0.04599303342070696
1789998297563170300,5.66417041015625,0.3562288932024214,0.7106731411792601,0.06594599903948536
1789998297573241000,5.674240966796875,0.37700932509054413,0.7207974307561409,0.10972281923957654
1789998297583311000,5.68431103515625,0.3474211382140654,0.70520302447428,0.07725070292905212
1789998297593382100,5.694382080078125,0.23998084519906068,0.7450377838312168,-0.2333361041514604
1789998297603453200,5.704453125,0.2724199687768514,0.7399810584290967,-0.06809319673400646
1789998297613524200,5.714524169921875,0.3260889953881035,0.7294790989934038,0.12093529939479243
1789998297623595000,5.724594970703125,0.401264706820555,0.7718283680342176,0.10712504022670609
1789998297633666000,5.734666015625,0.4536287616524548,0.763038459064691,0.33018186675759326
1789998297643737000,5.744737060546875,0.3438020766419336,0.6853062800699359,0.14074157590258388
1789998297653808000,5.75480810546875,0.16910330764515505,0.7737781847173099,-0.15652822161788485
1789998297663878100,5.764878173828125,0.05494249970448754,0.7767644892841987,0.007052100296629708
1789998297673949000,5.774948974609375,0.0062228191108678116,0.661841665381893,0.17179274542346912
1789998297684020000,5.78502001953125,-0.035651002995253214,0.6061470352293055,0.02522327176691982
1789998297694091000,5.795091064453125,-0.05053277779306045,0.592241808983757,0.018922640823302743
1789998297704162000,5.805162109375,0.009327874911974668,0.6010946771662019,0.15151414397146262
1789998297714233000,5.815233154296875,0.08245171075493356,0.6555434386801134,0.0001802225947727794
1789998297724304100,5.82530419921875,-0.0698774665863551,0.624964829112802,-0.0476958345913799
1789998297734375000,5.835375,-0.12594954455054952,0.5385630967405955,0.17611318997592657
1789998297744445200,5.845445068359375,0.03634473154449835,0.5120367610375856,0.2833394970703602
1789998297754516200,5.85551611328125,-0.00025832152358935595,0.5268512841646324,0.09900143178589527
1789998297764587300,5.865587158203125,-0.112070688061724,0.4606278254737397,0.23596141870673362
1789998297774658300,5.875658203125,-0.13650268115516323,0.4587748378234888,0.36632185858836963
1789998297784729000,5.88572900390625,-0.1760461108942924,0.4691938435021752,0.27215318678323475
1789998297794800000,5.895800048828125,-0.17604378405969043,0.36719478743132183,0.2097562996441113
1789998297804871200,5.90587109375,-0.1069757304846051,0.3457680482887514,0.25559490097272825
1789998297814941200,5.915941162109375,-0.1544023874067858,0.4024337155485496,0.25086159961190974
1789998297825012200,5.92601220703125,-0.18066165835116774,0.325306233170202,0.35891041352352543
1789998297835083000,5.9360830078125,-0.11419015807247095,0.2874243136731605,0.3512161954002256
1789998297845154000,5.946154052734375,-0.24591966994057146,0.23497047507167632,0.12540238959933048
1789998297855225000,5.95622509765625,-0.379247065180412,0.08751030334842419,0.09944553912242364
1789998297865296100,5.966296142578125,-0.4763638481272235,-0.0014554315260886165,-0.1658784258711251
1789998297875367200,5.9763671875,-0.5131085573789075,0.05870566704775158,-0.01957630850298302
1789998297885438200,5.986438232421875,-0.3681378986234012,0.09189601967446645,0.15073715820573605
1789998297895508000,5.996508056640625,-0.3933157977019508,-0.0048266472999605224,0.09034164256117266
1789998297905579000,6.0065791015625,-0.5926377884912509,-0.1988377369680323,0.14515801066509235
1789998297915650000,6.016650146484375,-0.5081641338381276,-0.19326108371328912,0.10026360123894329
1789998297925721000,6.02672119140625,-0.5340119004922279,-0.22122723403401015,0.010611971773186332
1789998297935792000,6.036792236328125,-0.5395726915392742,-0.2807619826728197,-0.00695533253479747
1789998297945863000,6.04686279296875,-0.5077639512252692,-0.3751466826469182,0.05690715315220521
1789998297955934000,6.056933837890625,-0.5256263304882565,-0.40743874540564246,-0.00982595076315053
1789998297966005000,6.0670048828125,-0.5070469188194147,-0.4253680078774094,0.1625185503307393
1789998297976075300,6.0770751953125,-0.5433685196268797,-0.4162137785183116,-0.04787391366304478
1789998297986146300,6.087146240234375,-0.5462694704161619,-0.37037208619003453,-0.10634172915520325
1789998297996217000,6.097217041015625,-0.41823831863287125,-0.3271515977055159,-0.031370851852788394
1789998298006288100,6.1072880859375,-0.45598915507021304,-0.39923611531093894,-0.15580436309066517
1789998298016359200,6.117359130859375,-0.6143157386742077,-0.39813950740611553,-0.2282514991930505
1789998298026430200,6.12743017578125,-0.5080288807411955,-0.30992506292472444,-0.1131296315838974
1789998298036501200,6.137501220703125,-0.32604510841087453,-0.35895283701013203,0.10074567759152782
1789998298046572300,6.147572265625,-0.3841675864274149,-0.40130084261332666,0.17221657565023424
1789998298056642000,6.15764208984375,-0.3406321198231131,-0.350438504839111,-0.015551857181335673
1789998298066713000,6.167713134765625,-0.24999094670571334,-0.18985251808445294,-0.11804267646307107
1789998298076784000,6.1777841796875,-0.18364429610954408,-0.18681021793383906,-0.032179069829231306
1789998298086855200,6.187855224609375,-0.1238084920306257,-0.16216046746555574,0.031102948708328398
1789998298096926200,6.19792626953125,-0.13203055880340436,-0.12501385726699632,-0.14731591098405855
1789998298106997000,6.2079970703125,-0.1836512886877612,-0.17236219903400257,-0.27892045649252656
1789998298117068000,6.218068115234375,-0.1540130769427537,-0.125041359838144,-0.11033514433163637
1789998298127139000,6.22813916015625,-0.11013553803558042,-0.014587485703033748,-0.003425205381704372
1789998298137209000,6.238208984375,-0.08123996022327744,0.03461698259326103,-0.020758663481123645
1789998298147280100,6.248280029296875,-0.1462496432688474,0.05532245791125638,-0.010951613768571221
1789998298157351000,6.258350830078125,-0.07816653475342701,0.09465963479627319,-0.021653445404861152
1789998298167422000,6.268421875,-0.060225703717311965,0.12684535000253586,0.0599221493694834
1789998298177493000,6.278492919921875,-0.0004263555212237904,0.13868114621173752,0.028877195608921474
1789998298187564000,6.28856396484375,0.044732178620509475,0.1838558518584168,0.06309449159736875
1789998298197635000,6.298635009765625,-0.013542865139210119,0.2289520990365776,-0.005755579800974287
1789998298207705000,6.308705078125,-0.005017257865020318,0.21698500326687412,-0.10657297962259472
1789998298217776000,6.318776123046875,0.046246585914092996,0.23175236173575917,0.19537563118879983
1789998298227847200,6.32884716796875,0.04206390800536002,0.25640836770756925,0.2265523489941513
1789998298237918200,6.338918212890625,-0.06142561298712044,0.2250579035959088,0.10022217954222948
1789998298247989200,6.3489892578125,0.02391313295627547,0.2280879830258553,0.11621689852912505
1789998298258060300,6.359060302734375,0.09796603974881485,0.2686007029023805,0.26568650440523306
1789998298268131000,6.369131103515625,0.08739384480098644,0.22738272439676083,0.1404329146338325
1789998298278202000,6.3792021484375,-0.007198148654127111,0.2184197480347703,0.07278111932685924
1789998298288272100,6.389272216796875,-0.14704753917021637,0.1771880106802516,0.003994680496460478
1789998298298343200,6.39934326171875,-0.1486875596359336,0.0834431312774114,-0.0956127255756957
1789998298308414200,6.409414306640625,-0.13497232471255427,0.07332988679530833,-0.011713291411515506
1789998298318485000,6.419485107421875,-0.1295194764603409,0.07630176922115363,0.01896557168895765
1789998298328556000,6.42955615234375,-0.09573277629083408,0.032696651660741975,-0.04205780887376015
1789998298338627000,6.439626953125,-0.027086151546372273,0.043925803903624036,0.042291986022154254
1789998298348698000,6.449697998046875,-0.030510785703096784,0.06960186851378208,0.1592587358846716
1789998298358768000,6.45976806640625,-0.0621606861206503,0.02843738884889854,0.12091475686528463
1789998298368839000,6.4698388671875,-0.15430124419743155,0.021044377382862498,0.1644488009226234
1789998298378910000,6.479909912109375,-0.20924233172753076,0.0175554772828554,0.10688546834652038
1789998298388981000,6.48998095703125,-0.1575420234038667,0.008800839357959025,0.08681250693435175
1789998298399052000,6.500052001953125,-0.188498350336678,-0.01065182708521033,0.08908859717196446
1789998298409123000,6.510123046875,-0.30310532275937946,-0.07979545606304977,-0.10393192633578248
1789998298419194000,6.520194091796875,-0.33955688035804493,-0.03615313947691,-0.1307908592604217
1789998298429265000,6.530264892578125,-0.20046164203422717,0.043624185103960204,0.02544033275210487
1789998298439335200,6.540335205078125,-0.11893944728231459,0.017813512647513626,0.10561957659993569
1789998298449406200,6.55040625,-0.14699114849361233,-0.07499078411438324,0.014045011197145142
1789998298459477200,6.560477294921875,-0.3705638107192943,-0.10813926569918268,-0.13591236035571283
1789998298469548300,6.57054833984375,-0.418864429147763,-0.11732574648082117,0.027147374677598878
1789998298479619000,6.580619140625,-0.33696281660167227,-0.1088865675299585,0.17879019247082037
1789998298489690000,6.590690185546875,-0.34876824159971453,-0.16841224625637716,0.03100213552356232
1789998298499761200,6.60076123046875,-0.4092677582564099,-0.33872778358458394,-0.09126248604095138
1789998298509832200,6.610832275390625,-0.4283082799644857,-0.3531357784028043,-0.12479089644405807
1789998298519902000,6.62090185546875,-0.30389025515156737,-0.23504143080021073,0.02991884597502651
1789998298529973000,6.630972900390625,-0.2546577564453298,-0.26678670904481755,0.08395126652321368
1789998298540044000,6.6410439453125,-0.2897809131337543,-0.3315033619721568,0.16515709894339553
1789998298550115000,6.651114990234375,-0.42618105153951863,-0.3612473524967075,-0.043974637881773096
1789998298560188200,6.661188232421875,-0.49314677135025115,-0.39191794160251187,-0.0333475864642928
1789998298570259200,6.67125927734375,-0.4357892291110398,-0.3736300707956571,0.028201180119540394
1789998298580330200,6.681330322265625,-0.3574219299718511,-0.31558269320564303,-0.048921438877661046
1789998298590400000,6.69139990234375,-0.4429867180292364,-0.38240451813548015,-0.09854700113276667
1789998298600471000,6.701470947265625,-0.4661399043904284,-0.41808895650707134,-0.1265323784957984
1789998298610542000,6.7115419921875,-0.3927516482049316,-0.325824190443951,-0.06266551195649898
1789998298620613000,6.721613037109375,-0.36057863191651945,-0.3009723396342083,-0.021801945405100363
1789998298630684200,6.73168408203125,-0.3158694695869293,-0.328274789167015,0.125942113624184
1789998298640755000,6.7417548828125,-0.30349822795045533,-0.35842232063406826,0.17389842347658555
1789998298650826000,6.751825927734375,-0.27000095720735634,-0.4039163510682776,0.08950190877654428
1789998298660897000,6.76189697265625,-0.2161574602279173,-0.3970389794995285,0.14359947175434992
1789998298670967000,6.771967041015625,-0.20748627342627532,-0.3697131679596735,0.06712319395955885
1789998298681038000,6.7820380859375,-0.21176797606103784,-0.38670007761119696,0.04695243969574671
1789998298691108900,6.79210888671875,-0.1863711239953831,-0.3859824957281785,-0.007110806120275352
1789998298701180000,6.802179931640625,-0.20627021660285894,-0.3574132477134198,0.000756637785696045
1789998298711251000,6.8122509765625,-0.2612732674573953,-0.3192899789629467,-0.055825828926989014
1789998298721322000,6.822322021484375,-0.26084189162757465,-0.3223559376111145,0.1543063003652063
1789998298731393000,6.83239306640625,-0.22336512796327465,-0.2943265878355338,0.10845591630992515
1789998298741463000,6.842463134765625,-0.17749389768359017,-0.2803482436320937,0.09338586860135867
1789998298751534000,6.8525341796875,-0.12072844556167288,-0.25040465048141625,-0.0971445655385646
1789998298761605000,6.862605224609375,-0.1125786658138462,-0.19925483237023844,-0.059175591601701175
1789998298771676200,6.87267626953125,-0.14338310212740374,-0.19856644641562393,0.02632997695177361
1789998298781747200,6.882747314453125,-0.09802588753939084,-0.21963399142852918,0.07307486803013556
1789998298791818200,6.892818359375,-0.1728310415529182,-0.30043297674033054,-0.010176582462422305
1789998298801889000,6.902888916015625,-0.16984799662604602,-0.36918595055638587,0.16914587159196343
1789998298811960000,6.9129599609375,-0.15700624097658242,-0.42625572461170913,0.3360102430051878
1789998298822030000,6.923030029296875,-0.10995548814594384,-0.45300289898146534,0.22648188061751034
1789998298832101000,6.93310107421875,-0.08941255712269632,-0.4845260909722244,0.2000195007725137
1789998298842172000,6.943171875,-0.1576227914364323,-0.5242865550069704,0.002035365252588933
1789998298852243000,6.953242919921875,-0.16345016553181868,-0.5185757111463459,-0.011950442965004977
1789998298862314000,6.96331396484375,-0.13707775723689283,-0.48447701329950293,0.025762017633940933
1789998298872385000,6.973385009765625,-0.12295474530668818,-0.4704220822142524,0.001523749890321376
1789998298882456000,6.9834560546875,-0.16458904160298377,-0.49614843859345154,-0.02461998789940955
1789998298892525800,6.99352587890625,-0.17028555959402406,-0.44794391053161337,-0.023073729311778885
1789998298902596900,7.003596923828125,-0.17211951332252323,-0.38635421438236806,0.047057507845581874
1789998298912668000,7.01366796875,-0.23227369958328162,-0.3461243411326129,-0.004335554846914547
1789998298922739000,7.023739013671875,-0.23138841150847075,-0.3038488568456424,-0.0721745269008564
1789998298932810000,7.03381005859375,-0.18540852149281067,-0.2776693196914535,-0.2200476114345934
1789998298942881000,7.043881103515625,-0.1651132588647742,-0.3001464063002482,-0.060230731146390035
1789998298952951800,7.053951904296875,-0.1069157742201227,-0.32330783982946015,0.04382507435886369
1789998298963022000,7.06402197265625,-0.06585405565404137,-0.3258953892221827,0.005047608860180192
1789998298973093000,7.074093017578125,0.024186948943027708,-0.3001037314063664,-0.040246346202062716
1789998298983164200,7.0841640625,0.07385580224870915,-0.25125531560908976,0.2539842100761999
1789998298993235200,7.094235107421875,0.04017381434418844,-0.25946761277699776,0.1800272641355896
1789998299003306000,7.104305908203125,-0.003192315234163222,-0.25761484561649095,0.018994110511640114
1789998299013377000,7.114376953125,-0.005710809887451756,-0.2381890107929446,-0.10569242500400573
1789998299023448000,7.124447998046875,0.0480811865344099,-0.2194669434548678,-0.021990707816275063
1789998299033519000,7.13451904296875,0.08879837550751661,-0.23012510422299187,-0.0672512386360432
1789998299043589000,7.144589111328125,0.17958849423902837,-0.17720345581236524,-0.061899430387985156
1789998299053660000,7.154659912109375,0.19200480253392438,-0.11046443422947495,0.12700633827010813
1789998299063731000,7.16473095703125,0.2176446679451547,-0.09311719120089934,0.05937793006916148
1789998299073802000,7.174802001953125,0.22220168424372141,-0.04462842240026157,0.003543356315013288
1789998299083873000,7.184873046875,0.22689247742744215,-0.00712133569717264,-0.09139424629669897
1789998299093944000,7.194944091796875,0.22006924764168403,-0.025083075593014603,0.02655383274933096
1789998299104015000,7.20501513671875,0.20991468981460773,-0.006280938765013521,0.13483822960643166
1789998299114084900,7.2150849609375,0.20901795430187617,0.013284780008629789,0.02939253735152257
1789998299124156000,7.225156005859375,0.2711686428460406,0.054048068866079976,-0.02378492987807765
1789998299134227000,7.23522705078125,0.2963497570638663,0.06559320666507477,0.10444655435675189
1789998299144298000,7.245298095703125,0.24548512824380725,0.06992579483578454,0.05170308524542761
1789998299154369000,7.255369140625,0.1881756013212994,0.09619319898397505,0.06504954009767537
1789998299164439800,7.265439697265625,0.2038327430203167,0.09497487734548826,0.05185563891452134
1789998299174510800,7.2755107421875,0.21382925672319975,0.05477844881776939,0.04963860764997693
1789998299184581000,7.2855810546875,0.2734265163311534,0.05921882356216465,-0.032351989807903776
1789998299194652200,7.295652099609375,0.2395664539189132,0.0848535519727178,0.15483488799031248
1789998299204723200,7.30572314453125,0.21704221543585803,0.09652669275495604,0.03111150891681773
1789998299214794000,7.3157939453125,0.1533836580862947,0.0794017159295839,-0.027612372279136592
1789998299224865000,7.325864990234375,0.13496667690307285,0.07052849669772912,-0.10023608780290841
1789998299234936000,7.33593603515625,0.08125283991175043,0.09042069144109655,-0.04144367972618756
1789998299245007000,7.346007080078125,-0.056659670650240225,0.05971625684604211,-0.14050120065796612
1789998299255078100,7.356078125,-0.02012304399025248,0.07167039631428206,-0.2011255098738063
1789998299265148000,7.36614794921875,0.043455593450173295,0.10009411291373842,0.030941346863204107
1789998299275219000,7.376218994140625,0.1181786716900565,0.16467488700652907,0.11867831691023664
1789998299285290000,7.3862900390625,0.0669177032397202,0.12785045557313846,0.15050826410243834
1789998299295361000,7.396361083984375,-0.010276160029634772,0.03312301423591633,-0.013116355204379152
1789998299305432000,7.40643212890625,-0.03702639651013194,-0.015358083036202034,0.1760661418669636
1789998299315503000,7.416503173828125,-0.01703174740027037,-0.002775032816028503,0.14020308536204776
1789998299325574000,7.426573974609375,0.03416908463923339,-0.046771412288186764,0.20865044573233044
1789998299335644000,7.436643798828125,0.01981021379575043,-0.08664758642913321,0.1144386620606952
1789998299345715000,7.44671484375,0.016946786024787264,-0.10079586940580461,0.05784230184827869
1789998299355786000,7.456785888671875,0.007081510371431044,-0.1468551178241996,0.027672870599931336
1789998299365857000,7.46685693359375,0.020051756384696907,-0.17440092127847315,0.02595872453497465
1789998299375927800,7.476927734375,-0.0881791794091859,-0.19389399826052392,-0.061616769643827764
1789998299385998800,7.486998779296875,-0.08153845248647258,-0.17776796070533815,-0.16378092142050446
1789998299396070000,7.49706982421875,-0.04201093222843881,-0.20129057806107728,-0.0813568486642071
1789998299406140200,7.50714013671875,-0.06037404771028379,-0.20989218120650055,0.039006379169081826
1789998299416211200,7.517211181640625,-0.08784221688465275,-0.19904948917624637,0.017226132026535685
1789998299426282000,7.527281982421875,-0.16054956582813726,-0.23532797669609273,-0.02429344275320373
1789998299436353000,7.53735302734375,-0.1893863075661101,-0.2685162765948201,0.08455531774081247
1789998299446424000,7.547424072265625,-0.21857800368711958,-0.2678135500469603,0.10535869345311913
1789998299456495000,7.5574951171875,-0.20717511940925978,-0.312194967699063,-0.048530767918972165
1789998299466566100,7.567566162109375,-0.25296043778608845,-0.4162577923649197,-0.1808981276536355
1789998299476636000,7.577635986328125,-0.3004854441207186,-0.3805116798946573,-0.06306229914662907
1789998299486707000,7.58770703125,-0.18606658379256763,-0.3547759600648321,-0.02367979409041527
1789998299496778000,7.597778076171875,-0.10891763749435752,-0.36178280363462273,0.0370757607462344
1789998299506849000,7.60784912109375,-0.1977171237776643,-0.3730651281496019,0.1597746206986766
1789998299516920000,7.617920166015625,-0.24006318617662092,-0.46582171726178373,0.013847543563568952
1789998299526991000,7.6279912109375,-0.20646095473259418,-0.4656925207985804,0.07831399124778055
1789998299537062000,7.638061767578125,-0.23133285571688744,-0.47546501313906325,-0.014128520717525472
1789998299547132000,7.6481318359375,-0.19584206745920624,-0.4813569593581353,-0.03853056307311686
1789998299557203000,7.658202880859375,-0.18171991754775868,-0.5043883779779008,0.008500113645146102
1789998299567271700,7.668271728515625,-0.12169724316949326,-0.5347267003144112,0.029027464463576184
1789998299577342700,7.6783427734375,-0.09939262491015993,-0.5134753084969275,0.1334690633982308
1789998299587413800,7.688413818359375,-0.16868871516023579,-0.5099290608487109,0.00543014983153506
1789998299597484800,7.69848486328125,-0.22256320827478482,-0.5513314600089209,-0.18919264529088747
1789998299607555600,7.7085556640625,-0.24390944383340382,-0.5354669792798197,-0.15331705161794026
1789998299617625600,7.71862548828125,-0.22724719032530394,-0.4932520290991413,-0.04296247829777872
1789998299627696600,7.728696533203125,-0.1576805187749477,-0.49871517448958985,0.06287198928876254
1789998299637767700,7.738767578125,-0.15587685148974,-0.5064404337223779,0.2840997444259061
1789998299647838700,7.748838623046875,-0.2023140802070193,-0.4790188664257666,0.030245612768761213
1789998299657909500,7.758909423828125,-0.13031069003307194,-0.44021672828398506,-0.14924833316785646
1789998299667980500,7.76898046875,-0.08451664031842232,-0.4095251272149436,-0.061210483279066696
1789998299678051600,7.779051513671875,-0.0453245213517636,-0.38452397975466646,0.11722983429627044
1789998299688121900,7.789121826171875,0.041125425426015154,-0.3585321391262159,0.04711924648023055
1789998299698193000,7.79919287109375,0.006672426464727467,-0.34786285256220306,0.01360184085142468
1789998299708263700,7.809263671875,-0.04503119781290031,-0.37962263371408467,0.047147821185236354
1789998299718334700,7.819334716796875,-0.035997409405011206,-0.351851764261768,0.025803637073281385
1789998299728405800,7.82940576171875,0.014702342229254282,-0.30129701063429154,-0.004695727947052448
1789998299738476800,7.839476806640625,0.024381829102301893,-0.24817025938108173,-0.011491760126217809
1789998299748547800,7.8495478515625,0.041765315498169454,-0.256948000614757,0.09823553061886806
1789998299758619000,7.859618896484375,0.006729575819481488,-0.27379973181969797,-0.06529132520203536
1789998299768688600,7.869688720703125,0.030718841688891003,-0.27078395698730356,0.007222367379097565
1789998299778759700,7.879759765625,0.10993626378034849,-0.29087496715496025,0.04342414852085884
1789998299788830700,7.889830810546875,0.1574626031921866,-0.25142614235220107,0.0411289438331829
1789998299798901800,7.89990185546875,0.1660929789061783,-0.23968261692876267,-0.09378644638286057
1789998299808972800,7.909972900390625,0.1985827635513525,-0.25561940854297877,-0.2231371531052876
1789998299819043600,7.920043701171875,0.2032821900805609,-0.2424902692916222,-0.10105507778930098
1789998299829114600,7.930114501953125,0.2131634875532366,-0.21171419398788255,0.023398440617113055
1789998299839184600,7.9401845703125,0.18689183952136654,-0.2261683376008956,0.24387908517396728
1789998299849255700,7.950255615234375,0.15814236755286082,-0.23793871094971625,0.12961110390233138
1789998299859326700,7.96032666015625,0.17284574409550638,-0.19148580108664043,0.09914518722021426
1789998299869397800,7.970397705078125,0.17209469300336463,-0.1568087466851887,0.06899985164495658
1789998299879468800,7.98046875,0.22989381009102972,-0.1503772315900335,-0.00538535073548153
1789998299889539800,7.990539794921875,0.2773786170884241,-0.16629753865932287,0.050118350536725864
1789998299899611000,8.00061083984375,0.3417558965905643,-0.14783195197888419,0.05708463712136704
1789998299909681000,8.010680908203126,0.31669767996911036,-0.13208498905794347,0.03654238861428231
1789998299919751700,8.020751708984376,0.3029710825163501,-0.11116512633776111,-0.04153331129867549
1789998299929822700,8.03082275390625,0.3623987195451081,-0.07773676963439882,0.10558679529380179
1789998299939893800,8.040893798828124,0.31173125226624065,-0.01784021601231589,-0.10883941777249305
1789998299949964800,8.05096484375,0.28807485145960043,0.0021479763971944733,0.032215468185235976
1789998299960035800,8.061035888671874,0.3044699216382736,-0.02259710287702798,0.17063541125017356
1789998299970107000,8.07110693359375,0.32195920551641183,0.04304273486996769,0.1558904902589923
1789998299980176600,8.0811767578125,0.3685507730403289,0.09198510469074024,0.09689039400781872
1789998299990247700,8.09124755859375,0.41038977733518817,0.17043666763950707,-0.052794427104651494
1789998300000318700,8.101318603515624,0.4093851753246826,0.23360130763208575,-0.07890580796266095
1789998300010389800,8.1113896484375,0.44881236856722695,0.2705760949579311,0.009765147537036329
1789998300020460800,8.121460693359374,0.4984089711141552,0.27215283184318345,0.15103873276416566
1789998300030531600,8.131531494140624,0.4991555813524784,0.2871512357242943,0.0915772828374686
1789998300040602600,8.1416025390625,0.5117361690945471,0.3388775126866427,0.040378560948692785
1789998300050673000,8.1516728515625,0.5001014757866996,0.4333285273110283,-0.10824522773095763
1789998300060744000,8.161743896484374,0.44445499570494346,0.3685244884029088,0.023991852043391167
1789998300070814700,8.171814697265624,0.3709352621184112,0.28801935037057524,0.2089331052377224
1789998300080885800,8.1818857421875,0.29887131860781796,0.34559805052435644,0.1923201545328789
1789998300090956800,8.191956787109374,0.33298707705304337,0.41375713674384146,-0.06825322477259232
1789998300101027800,8.20202783203125,0.3841556253150573,0.3909082826495007,-0.19749358136398185
1789998300111099000,8.212098876953124,0.36117781018017614,0.22624841550750877,-0.16530959967940673
1789998300121168600,8.222168701171874,0.3334119099215389,0.219692551559329,0.01096192094741228
1789998300131239700,8.23223974609375,0.3110659492825476,0.21469949535716448,0.0035351542185018273
1789998300141310700,8.242310791015624,0.24664615288090455,0.16495133585416605,-0.06834791611394112
1789998300151381800,8.2523818359375,0.1344764813425281,0.12272459410264346,-0.11726399948349281
1789998300161452800,8.262452880859374,0.08011131027441196,0.08247941117876324,-0.2240258910550565
1789998300171523800,8.27252392578125,0.14552370135845297,0.0784078782040053,0.0561212906630709
1789998300181595000,8.282594970703125,0.1689761883648917,0.047984785420028896,0.1059818302209995
1789998300191664600,8.29266455078125,0.12080983314744985,-0.018400632783710142,-0.06063460773206212
1789998300201735700,8.302735595703124,0.07968831226098823,-0.03464273586415851,-0.15851262837068675
1789998300211806700,8.312806640625,0.013770273440647459,-0.0379159202084572,-0.06326680876865304
1789998300221877800,8.322877685546874,0.06578654031223133,-0.08480916436127928,-0.06275995261224109
1789998300231948500,8.332948486328124,0.1577038913064623,-0.10340268005612396,0.010207957047673813
1789998300242019600,8.34301953125,0.0846855133368677,-0.1133123731478568,0.029647787987086106
1789998300252090600,8.353090576171875,0.05154985273699406,-0.10837872931818571,-0.05946704172427507
1789998300262161000,8.363160888671874,-0.012768921827608306,-0.13005865633253727,-0.03779285264750325
1789998300272232000,8.37323193359375,-0.06845684696532074,-0.11063448411585788,0.10032519822528538
1789998300282302700,8.383302734375,-0.035406702818344855,-0.13065925474950946,0.18434849725426533
1789998300292373800,8.393373779296875,0.0009237335498114157,-0.1275909577119602,-0.038989005686808506
1789998300302444800,8.40344482421875,-0.00860262491515203,-0.07844584960479699,-0.0949634740556703
1789998300312515800,8.413515869140625,-0.016341918254259756,-0.07638530915013289,-0.13826384755544188
1789998300322587000,8.4235869140625,0.04438233564888993,-0.026041393923953913,-0.1103565694114628
1789998300332656600,8.43365673828125,0.019003674986625925,-0.00379773322584511,-0.063476821827573
1789998300342727700,8.443727783203125,0.07924495047654445,0.032534953487417216,0.027620501894148015
1789998300352798700,8.453798828125,0.14460039869052058,0.05533968994246753,0.0024574168330297637
1789998300362869800,8.463869873046875,0.15717115390604566,0.12591670228875446,-0.004583959616431988
1789998300372940800,8.47394091796875,0.15331087896104123,0.1318089266396546,0.00878050742777117
1789998300383011800,8.48401171875,0.21222137112028736,0.11148287387114221,0.033417501265556496
1789998300393081600,8.49408154296875,0.29284596122393614,0.11790211739553141,0.055498472456490484
1789998300403152600,8.504152587890625,0.31790506146372954,0.14412786856639145,0.018703436877106686
1789998300413223700,8.5142236328125,0.3691718715291782,0.18257912927831405,0.09798358385886624
1789998300423294700,8.524294677734375,0.2908337716451399,0.23578780870879504,-0.057355583605869453
1789998300433365800,8.53436572265625,0.21654405536737908,0.2408947004087507,-0.17827511438862498
1789998300443436500,8.5444365234375,0.13247175483197532,0.17217817593026924,-0.15284905728608675
1789998300453507600,8.554507568359375,0.13907576330437244,0.21799120511042888,-0.16796647019589606
1789998300463577900,8.564577880859375,0.20399464061916264,0.24295974408182286,-0.0036213116193819896
1789998300473649000,8.57464892578125,0.2864315568172516,0.2838106551198564,0.07044728444936914
1789998300483720000,8.584719970703125,0.233953198646503,0.29004997316709186,-0.051015372681493185
1789998300493790700,8.594790771484375,0.21261069024009652,0.26529385613423745,-0.02521509726974511
1789998300503861800,8.60486181640625,0.2660069641659509,0.24344917716714598,0.16163830190629616
1789998300513932800,8.614932861328125,0.22723257260082716,0.2749167537561422,-0.017822165545422604
1789998300524003800,8.62500390625,0.21757310067382502,0.2603915405332424,-0.1187394618805283
1789998300534073900,8.635073974609375,0.24987630927099638,0.2910875225355102,-0.17701908145325682
1789998300544144600,8.64514453125,0.17960902374465446,0.3271165525427636,-0.17092965103494445
1789998300554215700,8.655215576171875,0.10990787082185745,0.23009606285387568,-0.176296013462002
1789998300564287200,8.665287353515625,0.17858914149350388,0.22762042861484014,-0.06139091884104515
1789998300574358300,8.675358154296875,0.18398091423515367,0.2629991771740003,0.12945321657833855
1789998300584429000,8.685428955078125,0.20817130943110396,0.2506608493056624,-0.059725967305714896
1789998300594500000,8.6955,0.10159044869858604,0.2160454567993464,-0.04381904526536798
1789998300604570000,8.705570068359375,-0.007972161523437028,0.23579911490187497,-0.053278021264109694
1789998300614641200,8.71564111328125,-0.03176707667300254,0.20183493072465206,0.019610845064070355
1789998300624712000,8.7257119140625,0.004168099208718672,0.18653303207644448,-0.015748084216046728
1789998300634783000,8.735782958984375,0.01935060084027048,0.18921195211328706,0.10495683960947924
1789998300644854000,8.74585400390625,0.019001398996661686,0.17912468807137083,-0.047275449905847006
1789998300654925000,8.755925048828125,0.01964923580404123,0.17783545729447722,-0.0710436117528634
1789998300664996000,8.76599609375,-0.04826004616752537,0.1529655251985205,-0.063588756356455
1789998300675066000,8.776066162109375,-0.03483153945212886,0.1982001955365339,-0.15984170582305718
1789998300685137200,8.78613720703125,-0.10082083277351725,0.17253087946366147,-0.11543727636846571
1789998300695208200,8.796208251953125,-0.06940041002711818,0.17813625287407367,-0.01685465956369652
1789998300705279200,8.806279296875,-0.14983659322424295,0.1305646262856281,0.026938905221903644
1789998300715350300,8.816350341796875,-0.20864792723740927,0.06928688663827778,-0.012807740810764922
1789998300725421300,8.82642138671875,-0.19226578360262206,0.043138896781335506,0.0075606436908148686
1789998300735492000,8.8364921875,-0.17407444528578486,0.05782735822659348,-0.024243025791295763
1789998300745562000,8.84656201171875,-0.08162941252034277,0.06994847371866975,0.12235558262371471
1789998300755633200,8.856633056640625,-0.035479384403803826,0.020316622884264057,0.23592656659000322
1789998300765704200,8.8667041015625,-0.035374926609785126,-0.0017627926219369572,-0.09770123301483434
1789998300775775200,8.876775146484375,-0.03464417800530267,0.029494274686877483,-0.06445143861530034
1789998300785846000,8.886845947265625,0.00639012823921202,0.05293531720585896,0.1738189803313822
1789998300795917000,8.8969169921875,-0.04687420130910234,0.013600821086043723,0.22738669181488572
1789998300805987000,8.906987060546875,-0.1388232405255647,-0.10474985313275903,-0.00891146599478181
1789998300816058000,8.91705810546875,-0.12861257733031567,-0.1569704348921906,0.12824816284239382
1789998300826129200,8.927129150390625,-0.14759634301993224,-0.13422285528219877,0.1505178807647107
1789998300836200000,8.937199951171875,-0.09622684735632141,-0.1859825249688232,-0.05291685222682325
1789998300846271000,8.94727099609375,-0.04433243166920602,-0.1964850959948313,-0.008010044253272142
1789998300856342000,8.957342041015625,-0.003896854129293654,-0.15703407558768576,0.09242512442459773
1789998300866413000,8.9674130859375,-0.015734113504222765,-0.16550910838868377,0.004703796380536943
1789998300876483300,8.9774833984375,-0.049207912591217526,-0.18885969196181643,0.0004738190598186591
1789998300886554000,8.98755419921875,-0.009553397407533824,-0.12980569478069728,0.044799580308836774
1789998300896625200,8.997625244140625,-0.02969669771313028,-0.11798378366552374,0.03775358159966183
1789998300906696200,9.0076962890625,-0.09321936482207631,-0.15437827858520908,0.06244286365513216
1789998300916767200,9.017767333984375,-0.10935379752321482,-0.11040782248343743,0.06276196142662845
1789998300926838300,9.02783837890625,-0.09173389338000176,-0.037050900601188756,-0.030972362714727437
1789998300936909300,9.037909423828124,-0.04772724854832862,-6.262914640122834e-05,-0.08829587830580776
1789998300946979000,9.04797900390625,0.08317084106728405,0.026463127271080772,0.304395978752724
1789998300957050000,9.058050048828123,0.05905458099067293,0.03942613901342974,0.2787716092159833
1789998300967121200,9.06812109375,-3.1068305098172104e-05,0.022602395413565384,-0.03144290955119447
1789998300977192200,9.078192138671875,-0.07042236407555436,-0.008950989017828365,-0.1343688923284726
1789998300987263200,9.08826318359375,-0.04891601621478271,0.10707770540690464,-0.06102496718735594
1789998300997334000,9.098333984375,0.10632024007079763,0.12392808379058372,-0.010258612361653985
1789998301007405000,9.108405029296875,0.09404587248956361,0.08426485419126686,-0.037967446217629194
1789998301017475000,9.11847509765625,-0.058486370142487906,0.08102201398784885,-0.05948869773152993
1789998301027546000,9.128546142578124,-0.05315836206501829,0.1025199880038085,-0.1190338320037488
1789998301037617200,9.1386171875,0.019337625740321978,0.22456553691468678,0.08746378346100024
1789998301047688000,9.14868798828125,0.04144945323231027,0.24215502616038617,0.4438561474672535
1789998301057759000,9.158759033203124,0.03495896138556192,0.08118871944187274,0.47113795583241525
1789998301067830000,9.168830078125,0.016095037694992223,0.03774678450832075,0.15665658014135533
1789998301077900300,9.178900390625,0.05391041618887107,0.17718965035368442,-0.20081145212636595
1789998301087971300,9.188971435546875,0.1302130586162263,0.1357044287644174,0.16486320699073287
1789998301098042000,9.1990419921875,0.11012471931671285,0.025919707503115185,0.24228266232540416
1789998301108113200,9.209113037109375,0.04035317242104178,0.04382511923413441,0.20584654980285666
1789998301118184200,9.21918408203125,-0.023585652476168062,0.006326895417312518,-0.15573081134637454
1789998301128255200,9.229255126953126,-0.10099966076227004,-0.008278746586782458,-0.13717596798148493
1789998301138326300,9.239326171875,-0.10941132323043323,0.09596009909561176,-0.1849122143671137
1789998301148396000,9.24939599609375,-0.0548845194672881,0.11813238879311312,-0.16735686479453182
1789998301158467000,9.259467041015624,0.033684761967869396,0.09854144934368599,0.04408283332394494
1789998301168538000,9.2695380859375,0.08001439597212752,0.07772870257353443,0.017176041464895625
1789998301178609200,9.279609130859376,0.05651482519872649,0.11768983188134573,-0.2829768945534875
1789998301188680200,9.28968017578125,-0.0029867267906966127,0.08777751462602482,-0.28946116355316237
1789998301198751200,9.299751220703126,-0.004199469965875062,0.10986443898497578,-0.20856322302984145
1789998301208822000,9.309822021484376,0.013399043722395223,0.13308847024041529,-0.007901407701988175
1789998301218892000,9.31989208984375,0.0077216248920739805,0.0616018368503718,0.22260473543277656
1789998301228963000,9.329963134765626,0.03007436998457065,0.040566895880264055,0.03713009688373502
1789998301239034000,9.3400341796875,-0.06468673126989302,0.10997615222549091,-0.267423474541522
1789998301249105200,9.350105224609376,-0.016111294779253924,0.1184943865428054,0.07639685170503395
1789998301259176000,9.360176025390626,0.12256278170280828,0.11507828309931516,0.41600807487877084
1789998301269247000,9.3702470703125,0.07870594619624342,0.12515861510846277,0.11256889213085758
1789998301279318000,9.380318115234376,0.07575650020372822,0.08975499522882643,-0.037848126893413304
1789998301289388300,9.39038818359375,-0.009328804328804079,0.016387877784892285,-0.21166832494250076
1789998301299459300,9.400459228515626,-0.026076514577404057,0.06353717947757413,-0.4735546837343828
1789998301309530000,9.410530029296876,0.02621303165266053,0.08238787071142738,-0.22423091320429633
1789998301319601200,9.42060107421875,0.030729012482319622,0.11129135537285047,-0.13858078701590185
1789998301329672200,9.430672119140626,-0.020632671958302592,0.12248589934102654,-0.23482098822038638
1789998301339743200,9.4407431640625,-0.1069947256082629,0.1295438199619176,-0.21468149956902574
1789998301349813200,9.450813232421876,-0.1558991083893186,0.12027631953303664,-0.005704303100783358
1789998301359884000,9.460884033203126,-0.18446631834461436,0.09081396068292193,-0.027455445157561622
1789998301369955000,9.470955078125,-0.20168468323852518,0.07247060197811114,-0.01446900322468715
1789998301380026000,9.481026123046876,-0.15643586633660422,0.007259544100664035,0.2072435145196351
1789998301390097200,9.49109716796875,-0.1297216314967064,-0.04908075081216101,0.35022237698192216
1789998301400168200,9.501168212890626,-0.17150547234025956,-0.023283990376662796,0.1268395156390958
1789998301410239200,9.5112392578125,-0.13344485848531182,-0.03028542098978458,0.06326448485894551
1789998301420309000,9.52130908203125,-0.1316988845260764,-0.12324530697503143,0.240342405129501
1789998301430380000,9.531380126953126,-0.1284739899060629,-0.10726120952398466,0.4087331832263984
1789998301440451000,9.541451171875,-0.11382759288147776,-0.10706614366309261,0.38297135490067497
1789998301450522000,9.551522216796876,-0.12783530289410164,-0.10944316924883697,0.11284750815756323
1789998301460593200,9.56159326171875,-0.15571092426048755,-0.1334954017957918,-0.0523675157207362
1789998301470664000,9.571663818359376,-0.25188301933397317,-0.17047374467808094,-0.0018060051051693724
1789998301480734200,9.581734130859376,-0.2758493473363658,-0.17370389267169697,0.08222079411582288
1789998301490805200,9.59180517578125,-0.20814734609936775,-0.17481549140733543,0.038347445448392053
1789998301500876300,9.601876220703126,-0.2124346014355357,-0.2093389160846476,-0.16560621054197114
1789998301510947000,9.611947021484376,-0.189638254467075,-0.22893352866247235,-0.2469042076253758
1789998301521018000,9.62201806640625,-0.14167789007302936,-0.22673550296731187,0.04197053410250632
1789998301531089200,9.632089111328124,-0.07272948879183055,-0.22603805122865606,-0.004297504487498854
1789998301541160200,9.64216015625,-0.03199393406781893,-0.24665284072151158,0.12432798092984879
1789998301551230200,9.652230224609376,0.009519498484104149,-0.2629543041115861,0.23352866335293013
1789998301561300700,9.66230078125,0.014079036831074207,-0.23403628261884024,0.14259527247655465
1789998301571371800,9.672371826171876,-0.024515222746743948,-0.2095921805936661,0.1491420935886965
1789998301581442800,9.68244287109375,0.0023056319022552894,-0.24700148678878586,0.07251590676808879
1789998301591513900,9.692513916015624,0.020669557044472733,-0.24645317826281907,0.02185594530797759
1789998301601585000,9.7025849609375,0.008970194942807588,-0.20849387255258478,-0.03521150431608255
1789998301611654700,9.712654541015626,0.09679473637303516,-0.18298393162498877,0.096969056100021
1789998301621725700,9.7227255859375,0.11885196492738409,-0.14022562903999883,0.009438136663492448
1789998301631796700,9.732796630859376,0.1264113844724878,-0.08204171376265623,0.010718665707884286
1789998301641867800,9.74286767578125,0.21184849654562088,-0.03985495910549076,0.05443600465038909
1789998301651938800,9.752938720703124,0.16820108856341676,0.007781280316325195,-0.04806219415696523
1789998301662009900,9.763009765625,0.13996973959534734,0.04307864288323091,-0.32715040711149806
1789998301672080600,9.77308056640625,0.18077780880465183,0.10642997712520848,-0.34077279244482234
1789998301682151000,9.78315087890625,0.19820623489529043,0.17420185232305857,-0.11833432328169921
1789998301692222000,9.793221923828124,0.1735383258410917,0.21287501815161175,-0.1586120462289992
1789998301702293000,9.80329296875,0.21232933714335783,0.22958736187583415,-0.11719198001501066
1789998301712364000,9.813364013671874,0.18128726497629988,0.27823369727109765,-0.11038742461769979
1789998301722434800,9.823434814453124,0.2273558819773224,0.34705949713064954,-0.2991033519178122
1789998301732505900,9.833505859375,0.3093098054434107,0.4080362022660302,-0.09650397210681261
1789998301742577000,9.843576904296874,0.3707851510037787,0.4752593741698648,0.11619523924479563
1789998301752647000,9.85364697265625,0.3344111504282499,0.5050312073446527,0.16038148458539941
1789998301762718000,9.863718017578124,0.28061532801977823,0.4424054583182922,0.17062359751021963
1789998301772788700,9.873788818359374,0.2101308402256329,0.4311524684433808,0.14272565545818586
1789998301782859800,9.88385986328125,0.16038634756351727,0.49350628156936543,0.12899067182067453
1789998301792930800,9.893930908203124,0.13301134261173478,0.5228601969185175,0.12203633075005856
1789998301803001900,9.904001953125,0.077518855792377,0.4542579641022758,0.08452916576065903
1789998301813072000,9.91407177734375,0.0033936871901787537,0.42633249772506354,-0.0020123796188766373
1789998301823142700,9.924142578125,0.023621424535145385,0.46312305896735756,-0.07376510929614005
1789998301833213700,9.934213623046874,0.04796439186045786,0.45156022596088824,-0.04269267513095335
1789998301843284700,9.94428466796875,0.06620874144272045,0.46650264110057654,-0.00434290737705624
1789998301853355800,9.954355712890624,-0.011860583835312948,0.3968933550811986,0.02670840186797191
1789998301863426800,9.9644267578125,-0.056686501921006674,0.3108542850520409,-0.11207892682245678
1789998301873496800,9.974496826171874,-0.10043981834661361,0.2980846056419091,-0.12575216402282025
1789998301883567900,9.98456787109375,-0.16680851140494155,0.24646793666691652,0.052251826061997825
1789998301893639000,9.994638916015624,-0.14113536174212615,0.1448789715101526,0.1080421681440022
1789998301903710000,10.0047099609375,-0.1613395089116666,0.04336765451788435,0.128040020606587
1789998301913781000,10.014781005859374,-0.28178641942166077,-0.028393480163449756,-0.012700648055585942
1789998301923852000,10.02485205078125,-0.36242382569310205,-0.16218288554591295,-0.1421106533895305
1789998301933922800,10.0349228515625,-0.37971887230949647,-0.2996731560761201,-0.048749147062250746
1789998301943992800,10.044992919921874,-0.22951225998244537,-0.20303166122674035,0.16925607882377183
1789998301954064000,10.05506396484375,-0.2060984326683266,-0.3341311574690595,0.28707699767788036
1789998301964135000,10.065135009765624,-0.2874794780883276,-0.5088297256090494,0.2337472073804954
1789998301974206000,10.0752060546875,-0.2991247777206636,-0.5260383758988805,0.19666069547373266
1789998301984276700,10.08527685546875,-0.3741250721689962,-0.5837739321979837,0.01386573981708014
1789998301994347800,10.09534765625,-0.4040130051445396,-0.6163022338586851,-0.03354275491248335
1789998302004417800,10.105417724609374,-0.35451947677114415,-0.5516676357590959,-0.0873945919104527
1789998302014488800,10.11548876953125,-0.30906338608587464,-0.5349902729677958,-0.15721343325027035
1789998302024559900,10.125559814453124,-0.39944215464629873,-0.5832175833365739,-0.05085900560429263
1789998302034630700,10.135630615234374,-0.4628574707325317,-0.5750076069110222,0.012218175209404035
1789998302044701700,10.14570166015625,-0.39620603890966327,-0.5527432419745196,-0.1153513413284711
1789998302054772700,10.155772705078125,-0.3416897007641697,-0.5192053894576839,-0.08619782039247076
1789998302064843800,10.16584375,-0.2799519846493373,-0.4941597792136472,0.0920290359317441
1789998302074913800,10.175913818359374,-0.1995626133181352,-0.48677715516360887,0.350302652945411
1789998302084984800,10.18598486328125,-0.18320818669781797,-0.5468323770116771,0.3180899861476393
1789998302095056000,10.196055908203125,-0.19930495779473273,-0.4936946035888769,0.10707860589731849
1789998302105127000,10.206126953125,-0.16796157985369475,-0.4128872020452799,-0.0405629086455652
1789998302115198000,10.216197998046876,-0.11426247161992721,-0.41233568773436785,0.056443432511319246
1789998302125269000,10.22626904296875,-0.10004540792111784,-0.36231782843996446,-0.09278426489995595
1789998302135338800,10.2363388671875,-0.01906668991736509,-0.30323437926602587,0.047002158794923865
1789998302145409800,10.246409912109376,0.0871841225599733,-0.2194288057043178,-0.038023329048642536
1789998302155480800,10.256480712890625,0.05365044416909667,-0.13018272544179552,-0.021592703262477156
1789998302165551900,10.2665517578125,0.042781486047380364,-0.10171199586163894,-0.0035925186750501315
1789998302175623000,10.276622802734376,0.11963025103181464,-0.03650830839629427,-0.029851220434141217
1789998302185693700,10.286693603515625,0.1458764608798768,0.0337668425935514,-0.007355673771380849
1789998302195763700,10.296763671875,0.23833307536489035,0.05220853345010348,-0.029608120138447103
1789998302205834800,10.306834716796876,0.27801227190024586,0.13580953269017074,-0.1301762134850652
1789998302215905800,10.31690576171875,0.23495982587701555,0.17508402199576648,-0.09136676945922173
1789998302225976800,10.326976806640625,0.27387955991669133,0.12575842336239218,-0.13933888362123895
1789998302236048000,10.3370478515625,0.2880350207713972,0.15986942499502488,-0.19850976761750394
1789998302246118700,10.34711865234375,0.26247612413133903,0.191641826609584,0.05283260414405722
1789998302256189700,10.357189697265625,0.3236830682156068,0.16783752652638526,0.20458005267864526
1789998302266260000,10.367260009765625,0.30482740763708077,0.18821962547995527,-0.050636244622610745
1789998302276331000,10.3773310546875,0.2504279377517531,0.1922273278001468,-0.0843558431848174
1789998302286401800,10.38740185546875,0.3456646301078114,0.16425414640323027,0.13019304414870286
1789998302296472800,10.397472900390625,0.28910819533034343,0.16611494515436856,0.024074254061939523
1789998302306543900,10.4075439453125,0.20022703583218035,0.1471876998347636,-0.09677890462108522
1789998302316615000,10.417614990234377,0.20073337290737236,0.09927011809830466,-0.05037303554660167
1789998302326685000,10.427684814453125,0.21418314432665259,0.1117168307578966,-0.2402847813809039
1789998302336755700,10.437755615234376,0.213957660077617,0.11535905256565573,-0.2597929067259983
1789998302346826800,10.44782666015625,0.25041136955485127,0.11138246875359503,-0.21605599063088182
1789998302356897800,10.457897705078125,0.23963646626981386,0.14200237947458375,-0.27423753955838576
1789998302366968800,10.46796875,0.20130692546531828,0.15196678153783005,-0.02375505392880464
1789998302377040000,10.478039794921877,0.24720040976300983,0.18094245868102177,0.23784846075545737
1789998302387109600,10.488109619140625,0.1833292801699617,0.18040084359217232,0.2752256409515707
1789998302397180700,10.4981806640625,0.06128187601464114,0.1748656312045813,-0.024524517924056206
1789998302407251700,10.508251708984377,0.05046608873018354,0.1573615540932338,-0.0014366191937779833
1789998302417322800,10.51832275390625,0.010574832946331087,0.12567334247088263,-0.02219733772106192
1789998302427393800,10.528393798828125,-0.027154006609026483,0.09076953716346314,-0.13477879724808367
1789998302437464800,10.53846484375,0.022180695138566665,0.06552043601117803,0.03573993492127889
1789998302447535900,10.548535888671877,0.12733679856987737,0.1022515893827703,0.1363601977025233
1789998302457606000,10.55860595703125,0.17172996036867286,0.13521547397176395,0.07209226526716224
1789998302467677000,10.568677001953125,0.15420085187493823,0.15854120504814326,-0.02227352527508548
1789998302477748000,10.578748046875,0.14389526802968491,0.2202191490975846,-0.027624757444156083
1789998302487819000,10.588819091796877,0.11120461235203072,0.2098710194926445,0.055215416361683436
1789998302497889800,10.598889892578123,0.16330621407874896,0.17166621628005835,0.048343200831103814
1789998302507960800,10.6089609375,0.20992405308142165,0.2421993611297139,0.023934882480935775
1789998302518030800,10.61903076171875,0.18383288124588276,0.24645451943536875,-0.027541044762981887
1789998302528102000,10.629101806640625,0.20090818995232246,0.21412266336749322,-0.0293127859463522
1789998302538173000,10.6391728515625,0.059700488100021765,0.19290366965501776,-0.09704853256238452
1789998302548243700,10.64924365234375,-0.00863149785888548,0.16457586631065552,-0.21072334570546689
1789998302558314800,10.659314697265623,0.047964599219576486,0.21130464558459794,-0.07770985618512899
1789998302568385800,10.6693857421875,-0.003538682066627321,0.2658725219629978,0.016124088887329933
1789998302578455800,10.679455810546877,0.07750857475259432,0.28670075977618253,0.1654604314301713
1789998302588526800,10.68952685546875,0.15707144990947952,0.3220536404762886,0.28463915272566437
1789998302598598000,10.699597900390623,0.16923082793823466,0.317409168812881,0.2444749592410357
1789998302608669000,10.7096689453125,0.11550447001704818,0.2685864794444094,0.06477821022730028
1789998302618740000,10.719739990234377,-0.01868217924749144,0.15663371675136897,-0.025566797543282754
1789998302628811000,10.72981103515625,-0.021926196548017637,0.09371557247758003,0.07465941782129402
1789998302638881000,10.739881103515623,0.026203491133391318,0.12417712819511083,0.044000445461893675
1789998302648951800,10.749951904296877,0.035313125001677784,0.09042216199460679,0.01164460399739176
1789998302659022800,10.76002294921875,-0.013268319077943513,0.009758926076051609,-0.03810332905812832
1789998302669094000,10.770093994140623,-0.039340810258217215,-0.020923452780825573,-0.08875459082101932
1789998302679165000,10.7801650390625,-0.05846561922791295,-0.037946998599762145,-0.09463845918290872
1789998302689236000,10.790236083984375,-0.04537814218288434,-0.025209084292126663,-0.021110203795245332
1789998302699307000,10.80030712890625,-0.019928826870186368,-0.005230608265704379,0.15500975256552313
1789998302709376800,10.810376708984377,-0.038595132496746495,-0.002792611651718732,0.21379971812979884
1789998302719447800,10.82044775390625,-0.048376849303699954,-0.05571418685801276,0.17561449949915783
1789998302729518800,10.830518798828123,-0.054144295674312684,-0.09088387800825733,0.0537763798676899
1789998302739590000,10.84058984375,-0.11103141967175038,-0.040714352951067324,0.018204204812623
1789998302749661000,10.850660888671875,-0.12881999536469182,-0.02902148195789928,0.0521389629501793
1789998302759731700,10.860731689453123,-0.061454587108149134,-0.013464926037898948,0.12018720889506661
1789998302769801700,10.8708017578125,-0.06754636930622819,-0.006029639108123616,0.14930026597257495
1789998302779872800,10.880872802734377,-0.0947723025497547,-0.044670053879697136,0.2294360370049255
1789998302789943800,10.89094384765625,-0.18350363858763172,-0.06769006740302815,-0.008871038038570497
1789998302800014800,10.901014892578123,-0.17839321089180538,-0.07545589484985452,-0.07114649009477256
1789998302810086000,10.9110859375,-0.1396706331469707,-0.05532527166362547,-0.16770575470859883
1789998302820157000,10.921156982421875,-0.12328909915033674,-0.039358041772960636,-0.26886776411494273
1789998302830227000,10.93122705078125,-0.09606708050367735,-0.012606663073201432,-0.033729927460597824
1789998302840298000,10.941298095703123,-0.09707551034694736,0.003412010682435816,-0.031340129656210754
1789998302850369000,10.951369140625,-0.04463104446043854,-0.04030556617596751,0.013317101333605561
1789998302860439800,10.961439697265623,-0.0065377721898278555,0.006711279018042318,-0.07143626121106006
1789998302870510800,10.9715107421875,-0.018889539552862968,0.06810057700839718,0.023401054946667776
1789998302880582000,10.981581787109375,-0.07014429763343995,0.008365136085739683,-0.02327237828949067
1789998302890653000,10.99165283203125,-0.04490273354205684,-0.015617628350687512,0.2041490109412104
1789998302900722700,11.00172265625,-0.016893882315924917,0.03168627070824589,0.36746290343491245
1789998302910793700,11.011793701171875,0.02989899946318497,0.008445234650202487,0.2709362962739216
1789998302920864800,11.02186474609375,0.0326875999991608,-0.011749785737019272,-0.014273233729779733
1789998302930935800,11.031935791015623,0.022356798521341713,0.023851553684237983,-0.1396937887253602
1789998302941006800,11.0420068359375,0.0023426801326150394,0.04633703332313314,-0.11677375507708218
1789998302951078000,11.052077880859375,-0.060281357851085675,0.09332776126377969,-0.1843472845182114
1789998302961148000,11.06214794921875,0.040487494222406786,0.16788271406815,0.05942084439003986
1789998302971219000,11.072218994140623,0.06226904009072097,0.17908861879277183,0.005361070080353881
1789998302981290000,11.0822900390625,0.0723862109532363,0.11811873023437108,-0.07411380908093472
1789998302991361000,11.092361083984375,0.0326744001580386,0.1267712604434151,-0.14532740756252105
1789998303001432000,11.10243212890625,-0.030971984498215695,0.15427393770501302,-0.2196970664052768
1789998303011502800,11.1125029296875,-0.0033074642314045543,0.1666483620719172,-0.18277816019869297
1789998303021572900,11.12257275390625,0.05037178594834932,0.15740104935878285,0.10332293222304854
1789998303031644000,11.132643798828123,0.1190749736892828,0.1345211117387966,0.16799859735106434
1789998303041715000,11.14271484375,0.07017614738730424,0.06552265278021994,-0.07340477743406372
1789998303051786000,11.152785888671875,0.05747963196756097,0.09289322816569666,-0.02464999738301194
1789998303061856800,11.162856689453124,0.02986277012134229,0.1189870058749377,0.02750572183527063
1789998303071927800,11.172927734375,-0.03326504733811944,0.04775245427852547,-0.14979719704299674
1789998303081997800,11.182997802734375,-0.04983274261947354,-0.013906484879438685,-0.12869854102246392
1789998303092068900,11.19306884765625,-0.0746443402499327,0.025245685259661227,-0.019493762941307845
1789998303102140000,11.203139892578124,-0.05217731125898813,0.03947588970261657,0.006081292999914245
1789998303112210700,11.213210693359375,-0.007874447108262916,0.0521812111154697,0.14532528248693066
1789998303122281700,11.22328173828125,-0.02508925509295383,0.08718913785444626,0.05035074761050466
1789998303132352800,11.233352783203124,-0.052476757396286454,0.0725708289156159,-0.04126048587764814
1789998303142423000,11.243423095703124,-0.1408403204767265,0.0032458159399035196,-0.0833227479539834
1789998303152494000,11.253494140625,-0.1676561806607396,0.04795065177201332,-0.08337667369980885
1789998303162564900,11.26356494140625,-0.16428680095072556,0.12938165403376495,-0.08539150548623295
1789998303172636000,11.273635986328124,-0.20790441446046773,0.02203822851860719,-0.03612763114689469
1789998303182707000,11.28370703125,-0.2038856202673829,-0.10080651128481032,-0.09340246605116345
1789998303192778000,11.293778076171876,-0.1774788671324236,-0.10212394721272036,0.005903994704237556
1789998303202848000,11.303847900390624,-0.16099987327527004,-0.0409244139017667,0.004824410309305186
1789998303212918800,11.313918701171875,-0.10084544648110143,-0.05631160066067136,0.0355739879558232
1789998303222989800,11.32398974609375,-0.0756292344910896,-0.05141191030652332,0.10025564108144067
1789998303233060900,11.334060791015624,-0.08593662575134284,-0.09690251138487053,0.2633813444684704
1789998303243132000,11.3441318359375,-0.10768772238668486,-0.16571882243992936,0.15556865247269572
1789998303253203000,11.354202880859376,-0.15591285935279173,-0.15977172308457924,0.012753704236044749
1789998303263272700,11.364272705078124,-0.16927317310870826,-0.17771327717619717,-0.03344531640664457
1789998303273343700,11.37434375,-0.10828450041464241,-0.1691428810068502,0.06655715030147477
1789998303283414800,11.384414794921875,-0.03194662156046998,-0.1857546380706444,0.0708125546650301
1789998303293485800,11.39448583984375,-0.025096526825065853,-0.14690697537317945,-0.02593266480023894
1789998303303556900,11.404556884765626,-0.0430364318112555,-0.09102230018605209,-0.059676553369779645
1789998303313628000,11.4146279296875,-0.016776095365897227,-0.06543273779844525,-0.01893962354155718
1789998303323698000,11.424697998046875,0.015683381075863832,-0.05988435483091205,0.004195370829499718
1789998303333769000,11.43476904296875,0.004061588831833599,-0.018222046070526913,0.075575812770369
1789998303343840000,11.444840087890626,-0.005974287874237571,0.015578775602085534,0.23666801055162745
1789998303353911000,11.4549111328125,-0.041029121402456285,-0.004742811934698623,-0.07035055367623586
1789998303363982000,11.464982177734376,-0.1634310881705831,-0.06641229998340942,-0.16559340128393135
1789998303374052900,11.475052978515626,-0.0825060685461688,-0.07158534952374933,-0.08383137931729191
1789998303384123000,11.485122802734375,-0.019141147731223777,-0.011439548053148002,-0.13715629802854376
1789998303394194000,11.49519384765625,0.023751882844655552,-0.03567519592483549,-0.18237903766597668
1789998303404265000,11.505264892578126,0.08903896184082628,-0.007490667433412503,0.10147478265895231
1789998303414336000,11.5153359375,0.0561934067768927,0.026183150296587212,0.08474387967460155
1789998303424406800,11.52540673828125,0.06442784280205718,0.0339411455317272,-0.08283252505862841
1789998303434477800,11.535477783203126,0.03747944671515605,0.06422014203365904,0.0392128390919177
1789998303444547800,11.5455478515625,0.052178312098656456,0.058229487515278025,0.12442972108261564
1789998303454619000,11.555618896484376,0.05435442181972303,0.04231935185611335,0.18352751024737313
1789998303464690000,11.56568994140625,0.05826378288488549,0.06872697480412837,0.10551826801806138
1789998303474760700,11.5757607421875,0.061422665389980445,0.08555815991925833,0.2221205998594023
1789998303484831700,11.585831787109376,-0.013951766718589751,0.032597107528686504,0.04492772517200555
1789998303494902800,11.59590283203125,-0.13987206690501147,0.03192594404071008,-0.13282762742048448
1789998303504973000,11.60597314453125,-0.0962317460669035,0.036282783721832586,-0.07857334988603178
1789998303515044000,11.616044189453126,-0.05701367018525418,0.056259019725959154,0.06294400132696384
1789998303525115000,11.626114990234376,0.02244535695650415,0.06996304143342437,0.03414985726516563
1789998303535186000,11.63618603515625,0.04587385177399138,0.06533832146896282,-0.07854136355843581
1789998303545257000,11.646257080078126,-0.017337310185483824,0.05928893080076871,-0.029789404581724768
1789998303555328000,11.656327880859376,-0.05370906889747011,0.06334374726311262,-0.07276273160256136
1789998303565399000,11.66639892578125,-0.08685468167070107,0.07274196273417098,0.15809760996575123
1789998303575469000,11.676468994140626,-0.1110773550513624,0.03416493061746459,0.12207040945333131
1789998303585539800,11.686539794921876,-0.08250241263619645,-0.0010568097776210471,0.06679372183260933
1789998303595611000,11.69661083984375,-0.169588493142987,0.005365926536345078,-0.14170967327589057
1789998303605682000,11.706681884765626,-0.20199402013892534,-0.02657254615616001,-0.06833594252381721
1789998303615753000,11.7167529296875,-0.1601956221960055,-0.07641226529329845,0.013941563171605609
1789998303625824000,11.726823974609376,-0.03854937521999675,-0.06601872485819545,-0.07584283448939606
1789998303635893800,11.736893798828126,0.04247305582033114,-0.08393771242890706,-0.0012529874750264569
1789998303645964800,11.74696484375,0.02311095866189641,-0.1285143407706387,0.15788486656939363
1789998303656035800,11.757035888671876,-0.04493310856781094,-0.15211888313174599,0.1769356087380357
1789998303666107000,11.76710693359375,-0.12502924260990045,-0.18969451102499663,0.11884335645228775
1789998303676178000,11.777177978515626,-0.12652729671379842,-0.23478253764833454,0.1034130580130459
1789998303686249000,11.7872490234375,-0.173791316924606,-0.2483273151057443,-0.03816921034913603
1789998303696319000,11.797319091796876,-0.23712581107948175,-0.24521368393491372,-0.14678805884865687
1789998303706390000,11.80739013671875,-0.24696973619417156,-0.2668500521624424,-0.10745134419074437
1789998303716461000,11.8174609375,-0.13579076217305394,-0.22795420378762918,-0.029709949765102543
1789998303726532000,11.827531982421876,-0.030800834021875483,-0.19209540303180664,0.12721458057045593
1789998303736603000,11.837602783203126,-0.03416857532797393,-0.19973491117887957,0.03736637776453658
1789998303746674000,11.847673828125,-0.05499119729131661,-0.22443851732518078,-0.031522790984775284
1789998303756744000,11.857743896484376,-0.06764599956575172,-0.21344692351048783,0.030464004438303247
1789998303766815000,11.86781494140625,-0.09383118023722647,-0.19065412829675119,0.015339667701455837
1789998303776886000,11.877885986328126,-0.04269712440897781,-0.1649302674996103,0.03484750475033193
1789998303786956800,11.887956787109376,-0.052094695850570305,-0.17699682484610735,0.028395174359683653
1789998303797027800,11.89802783203125,-0.12837933297542156,-0.20336062913463163,0.035999520499101864
1789998303807099000,11.908098876953124,-0.19063849940237848,-0.2155801196921949,-0.10021061309907488
1789998303817169000,11.9181689453125,-0.2186543669794128,-0.20073677724157984,-0.22204496373956847
1789998303827240000,11.928239990234376,-0.18530624453123584,-0.1720623659735453,-0.16962212647532063
1789998303837310700,11.938310791015626,-0.10665004804001776,-0.15470520927427048,-0.02693009654057202
1789998303847381800,11.9483818359375,-0.008794065077171734,-0.17358552466193672,-0.03952095715169243
1789998303857452800,11.958452880859374,0.031327966400114635,-0.1925729188372165,0.01073393586196191
1789998303867523000,11.968523193359376,0.006631830912050618,-0.1715080721374819,0.02309684429615099
1789998303877594000,11.978593994140626,-0.05702896079079011,-0.1391582356955565,-0.07784045523771609
1789998303887665000,11.988664794921876,-0.11612372314666485,-0.13662901338529998,-0.15791868885944152
1789998303897736000,11.99873583984375,-0.07473308093794323,-0.1448713328936613,-0.037029525697153474
1789998303907807000,12.008806884765624,-0.016484811722804325,-0.11189559807850757,0.053331605512491186
1789998303917878000,12.0188779296875,-0.03262304516725446,-0.06950399731419986,0.05284688410584768
1789998303927948000,12.028947998046876,0.009801382883723451,-0.11686394870104302,0.08213341172222847
1789998303938018800,12.039018798828126,0.02014503354453848,-0.08097124100346838,0.0562783151299298
1789998303948089900,12.04908984375,0.040258851561622684,-0.05090338234722317,0.026091118893152573
1789998303958161000,12.059160888671874,0.13665344397188542,-0.06821235172709741,0.028287583892852252
1789998303968232000,12.06923193359375,0.15947232809875592,-0.05746970963916053,0.112511326239526
1789998303978303000,12.079302978515624,0.1144681782045718,-0.08146293680510301,0.08042568957384877
1789998303988372700,12.089372802734376,0.12169641441148851,-0.09334491522430051,0.0077007575647317925
1789998303998443800,12.09944384765625,0.15687377914088055,-0.05219632199880696,0.032654286551695375
1789998304008514800,12.109514892578124,0.09559987058539769,-0.032781546252846454,-0.06641370135948528
1789998304018585900,12.1195859375,0.025435231145092215,-0.09293429828462982,0.0002942961517357924
1789998304028657000,12.129656982421874,0.07676365187201484,-0.05674410174851122,0.09622520887172921
1789998304038728000,12.13972802734375,0.02081781826213362,-0.03165601519224686,-0.00017786068830136036
1789998304048798000,12.1497978515625,0.08132367165169661,-0.058451277432778254,-0.02296085444988098
1789998304058869000,12.159868896484374,0.14061603568874473,-0.037873448295406426,0.21766077289319816
1789998304068940000,12.16993994140625,0.13493547564894828,0.017327878451905074,0.015033471388104798
1789998304079011000,12.180010986328124,0.07214853626413,-0.046342652150160944,-0.05897876189303204
1789998304089082000,12.19008203125,0.05439030070869048,-0.08530513446386309,-0.006026214319183614
1789998304099153000,12.20015283203125,0.09851002979310387,-0.01063813396626638,0.01069624314784754
1789998304109223000,12.210222900390624,0.07154329728863516,-0.04959451682331353,0.001495824820939002
1789998304119294000,12.2202939453125,0.09805519491365008,-0.07790608372651327,0.17681838265782018
1789998304129365000,12.230364990234374,0.14212074057349974,-0.027700774195160142,0.22096575275152358
1789998304139436000,12.24043603515625,0.16646252447503668,0.040088118976327934,0.11096792056217354
1789998304149506800,12.2505068359375,0.23260100101708653,0.03996684944621327,0.11633284167702787
1789998304159577900,12.260577880859374,0.2510562604213792,0.03236146890241942,0.029908877660541087
1789998304169647900,12.27064794921875,0.21032004940441623,0.09321439545056642,-0.09673860159757194
1789998304179719000,12.280718994140624,0.22732719015358777,0.09039150144983221,-0.049052323576505574
1789998304189790000,12.2907900390625,0.21661197397983561,0.08585723203315401,0.11517809852011192
1789998304199860700,12.30086083984375,0.1508604284185778,0.06638447446924768,0.015200709810299775
1789998304209931800,12.310931884765624,0.13273889225148694,0.09091048708048177,-0.01002042057556258
1789998304220002800,12.3210029296875,0.15775219986096703,0.10479030380652188,0.04273589936487532
1789998304230073000,12.331072998046874,0.21383751161405196,0.1485345127157163,-0.07309745143865441
1789998304240144100,12.34114404296875,0.2479003382997422,0.18961928874987533,-0.1109976172234274
1789998304250215000,12.35121484375,0.2589614328060958,0.20368977806082403,-0.1488791658270751
1789998304260286000,12.361285888671874,0.31538218107336796,0.20475740223581076,-0.05990326351997336
1789998304270357000,12.37135693359375,0.36138187758981566,0.264074421957562,0.0013904972600650434
1789998304280428000,12.381427978515624,0.29486472553035264,0.3074900430708536,-0.20273924072904698
1789998304290497800,12.391497802734374,0.17721790805204282,0.290393416295772,-0.1596130853997124
1789998304300568800,12.40156884765625,0.17103519330146405,0.306361646790457,-0.10713503699994831
1789998304310639900,12.411639892578124,0.15483803658430303,0.3062708892895307,-0.22382277353526045
1789998304320711000,12.4217109375,0.07556489357638493,0.3127339647630067,-0.13427414344671731
1789998304330782000,12.431781982421874,0.13175275441270043,0.3155586621928408,-0.06586547297999928
1789998304340853000,12.44185302734375,0.10952684466944934,0.2927445978435289,-0.10145627498215523
1789998304350922800,12.4519228515625,0.1317278816530594,0.2778146405943899,-0.21077539707804577
1789998304360993800,12.461993896484374,0.08981035553310295,0.2400931474676164,0.013353543275865042
1789998304371064800,12.47206494140625,0.15138113118160815,0.2916595438633998,0.04521293860101095
1789998304381136000,12.482135986328124,0.20197362805217572,0.24505590263163282,0.04052192824206504
1789998304391207000,12.49220703125,0.14785791342932444,0.12141284194776789,0.008466834275790217
1789998304401277700,12.502277587890624,0.1396891460720257,0.11368278890933273,-0.029356011538831987
1789998304411348000,12.512347900390624,0.07672328685247991,0.13012514540240847,-0.09818387761458268
1789998304421419000,12.5224189453125,-0.009527896643492923,0.07868176767522851,-0.058682942880709986
1789998304431490000,12.532489990234374,-0.038998413452798475,0.05008438301456713,0.03995169094139663
1789998304441561000,12.54256103515625,-0.028140393386920856,0.04960038285375123,-0.028437349716770824
1789998304451631900,12.5526318359375,-0.06782233308972829,0.00015654568528534284,-0.1316221708354452
1789998304461703000,12.562702880859376,-0.07160186741838166,-0.021692952835280707,-0.15324961144967633
1789998304471773000,12.57277294921875,0.039163091745611354,0.03617428142050215,-0.12244688760183656
1789998304481844000,12.582843994140624,0.09996622759437031,0.033342580615735716,0.03712604019847912
1789998304491915000,12.5929150390625,0.07403619530084768,-0.001205132277827671,0.10850677729134221
1789998304501985800,12.60298583984375,0.03799569010900828,0.008339002669353128,0.1287812527694113
1789998304512056800,12.613056884765625,-0.05175495075837658,0.04895534816672332,-0.11731080190774044
1789998304522126800,12.623126953125,-0.08012114617020255,0.011915542691644626,-0.16387772066064563
1789998304532198000,12.633197998046874,-0.033718880666805326,0.02045021324127118,0.21728821739467513
1789998304542269000,12.64326904296875,0.003911969264007792,0.05017802625483184,0.17499627450569508
1789998304552339700,12.653339599609374,0.011136346793971566,0.04948560423172189,0.19228263162717793
1789998304562410800,12.66341064453125,-0.015748214794475503,0.025321947932580715,0.07533055781497645
1789998304572481500,12.6734814453125,0.00950234778134913,0.0628619088617569,0.09237062969104091
1789998304582551800,12.6835517578125,-0.07325278364962562,0.06505983517052029,0.1381830545975569
1789998304592622800,12.693622802734374,-0.018896975772365182,0.019912084252704923,0.008781772990431997
1789998304602694000,12.70369384765625,0.05841459136482244,0.05036077258050407,0.05660426544969609
1789998304612765000,12.713764892578125,0.04145550069743209,0.09423323168872037,-0.05469254967930675
1789998304622835700,12.723835693359376,0.023360598724318345,0.05394951321023313,-0.06901050530723898
1789998304632906800,12.73390673828125,0.014025555409122658,0.03008610255196258,0.12163802666087886
1789998304642976800,12.743976806640624,0.058762971227096256,0.06961017611138937,0.06970137162531226
1789998304653047800,12.7540478515625,0.11199292891586549,0.047357056604244004,0.10832317664127548
1789998304663118800,12.764118896484376,0.037834556518067414,-0.012420039024425284,0.067214343248887
1789998304673189600,12.774189697265625,-0.018819741354358495,-0.008296152811303295,-0.17057616143746573
1789998304683260700,12.7842607421875,-0.08699363802943497,0.0054624769995370945,-0.10788179270417893
1789998304693331700,12.794331787109376,-0.06846820258069272,0.03897099021624935,0.15369335966214723
1789998304703401700,12.804401611328124,-0.04740666619117464,0.03253950894556367,0.11340993366899269
1789998304713472800,12.81447265625,-0.09312193501377879,-0.03261702586848751,-0.09931446663866922
1789998304723543600,12.82454345703125,-0.0505875585997426,-0.04202112075908363,-0.020288700634448917
1789998304733614600,12.834614501953125,0.015752667292838897,-0.005574021241211401,0.10080877462261618
1789998304743685600,12.844685546875,0.050252624620776024,-0.015435853698922064,0.01243578700305626
1789998304753756000,12.854755859375,0.10850785091498932,-0.03237756601393748,0.0027550167384146756
1789998304763827000,12.864826904296876,0.10097052703356524,-0.07534138816219901,0.021690589744484855
1789998304773897700,12.874897705078125,0.11560146860112538,-0.026435900306274997,-0.16354246892675758
1789998304783968800,12.88496875,0.09675380239340217,-0.01568638986675027,-0.09196967791872344
1789998304794039800,12.895039794921876,0.12757487198139658,-0.02437507466758415,0.09942691020895819
1789998304804110800,12.90511083984375,0.10294142182112465,-0.008496969474549506,0.007088751862739529
1789998304814180900,12.915180908203125,0.02894381954935328,-0.0076963031426831585,-0.10949043001530652
1789998304824251600,12.925251708984376,0.02347163337571606,-0.009949253075771939,0.09384491379908523
1789998304834322700,12.93532275390625,0.016023419217862142,-0.024308260048021706,0.11661929349477339
1789998304844393700,12.945393798828125,-0.008681082401135545,-0.029850193163812842,-0.18806257963967116
1789998304854464800,12.95546484375,0.026409711909784674,-0.022937163670664694,-0.19978876140164195
1789998304864535800,12.965535888671877,0.056287046124365046,0.059457705672008095,-0.07747800485718444
1789998304874605600,12.97560546875,0.12042937934859999,0.13905571746954726,-0.11914951567616759
1789998304884676600,12.985676513671876,0.16964729497085496,0.13144407857951237,0.15449783571553846
1789998304894747600,12.99574755859375,0.12204381111462172,0.09980895424838626,0.14678219365064318
1789998304904818700,13.005818603515625,0.08474580258543613,0.17404178147769103,-0.16126155600810269
1789998304914889700,13.0158896484375,0.08067614291368438,0.2070006227788215,-0.15010147101390742
1789998304924960500,13.02596044921875,0.08624935788016104,0.22160514982621687,-0.009118337654234282
1789998304935030800,13.03603076171875,0.09374949496846581,0.2592281111088401,-0.06170740907035368
1789998304945101800,13.046101806640625,0.16122879009294794,0.26277161693866086,-0.1350058679484721
1789998304955172900,13.0561728515625,0.13255760600913918,0.29458251962878734,-0.10729111433671697
1789998304965244000,13.066243896484377,0.11123232790765925,0.34001651574043296,-0.13121622702097088
1789998304975314700,13.076314697265625,0.16659192480648086,0.4044262638788667,-0.012259708277191136
1789998304985384700,13.086384765625,0.19462791125999215,0.40617934877030387,0.05875477225282934
1789998304995455700,13.096455810546876,0.23366901834737722,0.41135792970153523,-0.05019365768375275
1789998305005526800,13.10652685546875,0.19219031586299162,0.44369339926372153,-0.2937799108791825
1789998305015597800,13.116597900390625,0.18417608856016107,0.4504189054245211,-0.06441826432613666
1789998305025668600,13.126668701171877,0.17336618951820826,0.47736689428223344,0.09460087967287761
1789998305035739600,13.13673974609375,0.21418227873018894,0.4404589906683922,0.17336875020838552
1789998305045809700,13.1468095703125,0.1803063746807334,0.3601913480921245,0.10008589224358888
1789998305055880700,13.156880615234376,0.08945312602213899,0.365661108691568,-0.02769871455985192
1789998305065951700,13.16695166015625,0.04412811173724263,0.39403292208289437,-0.10709968978366373
1789998305076022500,13.1770224609375,0.050674664091574534,0.3633257876367795,0.043018221999932445
1789998305086093600,13.187093505859377,0.13093154788764508,0.38206402833557224,0.020480245169895366
1789998305096164600,13.19716455078125,0.23141756163822322,0.3924162065991628,0.1784592172636635
1789998305106235000,13.20723486328125,0.23012992027031579,0.4007139891012443,0.30419654629559895
1789998305116306000,13.217305908203125,0.07132161728810661,0.34700404247325956,0.10113679915263965
1789998305126376700,13.227376708984377,-0.15504088376077887,0.2154956369257921,0.09646744330359158
1789998305136447700,13.23744775390625,-0.20871230501435523,0.24932875505709304,0.06923967734363877
1789998305146518800,13.247518798828125,-0.09401363343164612,0.29433655972229633,0.03663382595890168
1789998305156589800,13.25758984375,-0.009002377263227284,0.30162948475822676,-0.000928254131141111
1789998305166659800,13.267659912109377,-0.019046050695305853,0.23654434166543103,0.1894106579490385
1789998305176730600,13.277730712890625,-0.10181644083119716,0.15997340283265515,0.09765456158514349
1789998305186801700,13.2878017578125,-0.1505697772548005,0.12110352946464284,-0.1433314077289496
1789998305196872700,13.297872802734377,-0.1978517522648985,0.014896833683055692,-0.3741388862093428
1789998305206943700,13.30794384765625,-0.28999286846742023,0.0125358767465157,-0.5096927974733806
1789998305217013800,13.318013671875,-0.3805547442195411,-0.03654629988425775,-0.678487897995379
1789998305227084500,13.32808447265625,-0.5477034927336749,-0.01230224672610536,-1.0892208002043753
1789998305237155600,13.338155517578125,-0.2199028257043149,0.054208027322313605,-0.03675490229067617
1789998305247226600,13.3482265625,0.03029019983778798,-0.03980063832346859,0.6181322197444601
1789998305257297700,13.358297607421877,-0.15601303621237286,-0.23849659889573582,0.43045875930468513
1789998305267368700,13.36836865234375,-0.0622947280670431,0.19872040523107457,0.3843602268934391
1789998305277438700,13.378438720703125,-0.03688657562493736,0.38889139453194277,-0.21440002873508768
1789998305287509800,13.388509765625,-0.2407790443102969,0.051350852244623525,-0.098251129101008
1789998305297580800,13.398580810546877,-0.2781806825811438,-0.17990031064289375,0.3303057693941722
1789998305307651800,13.40865185546875,-0.06635111018475512,0.1319187814237136,0.20316256889634698
1789998305317723000,13.418722900390623,0.10261592626135974,0.24133486620021682,0.4469319083191028
1789998305327794000,13.4287939453125,0.22768769384217383,0.10827422972737483,0.7041046301832824
1789998305337863700,13.43886376953125,0.22048081391523566,0.05681655844072829,1.256824430677039
1789998305347934700,13.448934814453125,0.051849452841735935,0.1537979958878533,0.8866911983359784
1789998305358005800,13.459005859375,-0.046734807108428575,0.08425251788312496,0.3388741175448318
1789998305368076800,13.469076904296877,-0.3807356118044692,-0.17389225130356387,-0.4470687563887683
1789998305378147800,13.47914794921875,-0.3949714305045845,-0.03199775688415667,-1.0162290891215062
1789998305388218600,13.489218505859377,-0.3325198802440607,0.08630873657598317,-0.9941172520040944
1789998305398288600,13.49928857421875,-0.325279989962521,-0.023434227929681837,-0.5497382956158121
1789998305408359700,13.509359619140625,-0.267139983170701,-0.0022230413455892584,-0.09459552826309937
1789998305418430700,13.5194306640625,-0.21798326676785426,0.07442887594112191,-0.13621269419782736
1789998305428501800,13.529501708984377,-0.3048658848315478,0.08710923299368084,0.06671081808747244
1789998305438572500,13.539572509765623,-0.4312527710626608,-0.006769943735622475,0.26186392965380334
1789998305448642800,13.549642822265625,-0.4565673862749703,-0.09361820288533462,0.21167156643085464
1789998305458713900,13.5597138671875,-0.1611914556867895,-0.004817417917393723,0.030478417209189482
1789998305468785000,13.569784912109377,0.18880016188492596,-0.04397453528994298,0.5397574252319753
1789998305478856000,13.57985595703125,0.21661659343621872,0.08739703749935823,1.0450161271127973
1789998305488926700,13.5899267578125,0.012049027039133433,0.21888779342916964,0.4697200746087404
1789998305498997800,13.599997802734377,-0.19998367549891602,0.24083790762007246,-0.9360396340315451
1789998305509067800,13.61006787109375,-0.1578548976478425,0.07789777735378779,-0.5009553961348348
1789998305519138800,13.620138916015623,-0.12803658343116606,-0.31160278658114754,0.4697306676868256
1789998305529209600,13.630209716796877,-0.4381281172540413,0.015308584221442193,-0.17951878307346025
1789998305539280600,13.64028076171875,-0.42797519621049623,-0.013768019352564245,-0.1734198741615334
1789998305549351700,13.6503515625,-0.2859567134904504,-0.005605094144046113,0.07004725507740486
1789998305559422700,13.660422607421877,-0.10927322156104297,0.06309088022915824,-0.12820625687578158
1789998305569492700,13.67049267578125,-0.1317461081093217,0.003364086816629957,-0.6172077285893879
1789998305579563800,13.680563720703123,-0.12878144160386878,-0.011961109823201518,-0.5600850184749648
1789998305589634800,13.690634765625,-0.0834186311807907,-0.02903733333588437,-0.037858323002036176
1789998305599705900,13.700705810546877,-0.10207364639411899,-0.15248886445497312,-0.05518027175309584
1789998305609777000,13.71077685546875,-0.2959865844895145,-0.20630788416462684,-0.400960330234441
1789998305619847000,13.720846923828123,-0.4661463455743873,-0.18866243507907132,-0.08741081514768868
1789998305629918000,13.73091796875,-0.551976631255324,-0.3091279346152558,0.22782010827507984
1789998305639989000,13.740989013671877,-0.4554887113486399,-0.3820739914631255,0.23546530474207655
1789998305650060000,13.75106005859375,-0.28645626018207154,-0.4084329248694584,-0.06647081017111774
1789998305660130800,13.761130859375,-0.23113744696833585,-0.4424527155614286,-0.06858083631150816
1789998305670201900,13.771201904296875,-0.23656215203115125,-0.35966342476687135,0.09449966319598686
1789998305680272000,13.78127197265625,-0.1640909828006545,-0.2180224326693444,0.06637836649822142
1789998305690343000,13.791343017578123,-0.2755973415536257,-0.38571761967925366,-0.15391195868752952
1789998305700414000,13.8014140625,-0.3360160736181089,-0.42378666240832846,-0.2623914103183565
