time,seconds_elapsed,z,y,x,vertical,horizontal
1789141053635243000,1.540242919921875,-5.728074864953756,-7.959848997882008,-0.018367248676531,9.788719895779302,0.592737619353258
1789141053645214700,1.550214599609375,-5.733081879460811,-7.956253603738546,-0.0136515418413153,9.788410155543257,0.5978396399175543
1789141053655188000,1.56018798828125,-5.739339186289906,-7.951747524490952,-0.0096304330990707,9.788129050578377,0.6024329199140536
1789141053665160000,1.570159912109375,-5.742298620617389,-7.949614604115486,-0.0045305212815728,9.78779576619981,0.6078160635379107
1789141053675132000,1.5801318359375,-5.743223918768763,-7.948947080117463,7.82657649949e-05,9.787503553798237,0.6124988605197461
1789141053685105000,1.59010498046875,-5.742952116090059,-7.9491428949505085,0.0037658173798685,9.787275602610755,0.6161349137698827
1789141053695076900,1.600076904296875,-5.74145690909624,-7.95022250688076,0.004553998626105,9.787236313418672,0.6167588119554446
1789141053705048800,1.610048828125,-5.738280032625794,-7.952516755297779,0.0012968468647712,9.787459907350817,0.6131971297518791
1789141053715021800,1.620021728515625,-5.735048795619607,-7.95484665955007,-0.0009597401333259,9.78761870052512,0.6106481469101923
1789141053724994000,1.629994140625,-5.735508229824901,-7.954515820160507,-0.0036053481402515,9.78778099092919,0.6080566254168436
1789141053734965800,1.6399658203125,-5.738733621612191,-7.952185331386327,-0.008160772680107,9.788042036086022,0.6038334394199867
1789141053744938800,1.649938720703125,-5.741884194597602,-7.949907449582219,-0.0113536390208406,9.788217668031457,0.6009878113975597
1789141053754911000,1.659910888671875,-5.7454527007341385,-7.947322109264135,-0.0154051006605091,9.788439360812752,0.5973672585518324
1789141053764883700,1.6698837890625,-5.747949193724989,-7.9455059997528785,-0.0197237481692689,9.788680741508443,0.5933834281611574
1789141053774856000,1.67985595703125,-5.7483969374924895,-7.945179252016544,-0.021402369455574,9.788779429180089,0.5917736441632393
1789141053784828000,1.689827880859375,-5.745256885901093,-7.947444274339079,-0.02327621191988,9.788914600592857,0.5895251504899706
1789141053794800600,1.699800537109375,-5.74173806412518,-7.949975254121422,-0.0269615767685812,9.789158795116094,0.5854567010377408
1789141053804772900,1.70977294921875,-5.735947205764055,-7.954143479716778,-0.0300298440486891,9.789376739733948,0.5818020989330671
1789141053814744800,1.719744873046875,-5.729611573001742,-7.958701581412553,-0.0318278562142513,9.789516397659941,0.579449179680585
1789141053824717800,1.7297177734375,-5.724780499583482,-7.962164289087057,-0.0348054860688396,9.789712296960033,0.5761219484054513
1789141053834689800,1.739689697265625,-5.720530440923572,-7.965194450563191,-0.0400099159942707,9.790032339052715,0.5706651859854015
1789141053844662000,1.749662109375,-5.716845030409098,-7.967796157494186,-0.0479832968930946,9.790504076626123,0.5625166943658735
1789141053854634800,1.759634765625,-5.715958310702443,-7.968369573467969,-0.0574776585478102,9.791046103831988,0.5530035650219415
1789141053864607000,1.76960693359375,-5.716232451468706,-7.968100108876824,-0.0666625067287823,9.791557517349771,0.543854813844021
1789141053874579000,1.779578857421875,-5.717609585040807,-7.967031602862477,-0.0757687367155915,9.792054725406835,0.534843046193062
1789141053884551700,1.7895517578125,-5.720705797490477,-7.964723910441994,-0.0841454879506491,9.792497050348468,0.5266723583657625
1789141053894524000,1.79952392578125,-5.722690249305964,-7.963189540481567,-0.0938024836880154,9.793002345721899,0.5171801521404237
1789141053904497000,1.809496826171875,-5.723141500204801,-7.962752318108081,-0.1029550735672004,9.793478210409571,0.5080919211207899
1789141053914468900,1.81946875,-5.721062940365076,-7.964117761242389,-0.1125484203506726,9.793978483145612,0.498382886102027
1789141053924440800,1.82944091796875,-5.718311011308432,-7.965915166053175,-0.1244532132811378,9.794582851188828,0.4863338650566673
1789141053934413800,1.839413818359375,-5.714606311571598,-7.968345023548602,-0.1383764424950815,9.79527389302741,0.47223416964356496
1789141053944385800,1.8493857421875,-5.710325857773423,-7.971200412979721,-0.1500658299760427,9.795837707796556,0.460370265852757
1789141053954357800,1.859357666015625,-5.707286343947053,-7.973170836269855,-0.1606593485116958,9.79633425803112,0.4496855872036533
1789141053964331000,1.8693310546875,-5.706242972373962,-7.973653066828846,-0.1732768562887795,9.796905622893334,0.43705511661870605
1789141053974302700,1.879302734375,-5.706897052368522,-7.97286337775588,-0.1875054159916937,9.797528553239143,0.42286751611270323
1789141053984275000,1.88927490234375,-5.708368878486752,-7.971485659661889,-0.2008157100722193,9.79809101203593,0.4096319620631824
1789141053994248000,1.899248046875,-5.707082345807552,-7.972056737548113,-0.2142869668681174,9.798646618538603,0.39613239918745435
1789141054004219600,1.9092197265625,-5.707784356597066,-7.971155404794215,-0.2286254166862927,9.7992134995758,0.3818443657834816
1789141054014193000,1.91919287109375,-5.7064960703521965,-7.971611916390061,-0.2443118287810124,9.799812813382816,0.36612981142946555
1789141054024164900,1.929164794921875,-5.703329715275764,-7.973413412854075,-0.2590357525191269,9.800355495811,0.3513160546275206
1789141054034136800,1.93913671875,-5.698976780763268,-7.97601570430696,-0.2742611777722835,9.80089163285182,0.3360137761436483
1789141054044109800,1.94910986328125,-5.695965323987603,-7.977647689422964,-0.2889823798303492,9.80138629692525,0.3212804116703936
1789141054054081800,1.959081787109375,-5.691763780644536,-7.9801126182317725,-0.3033584765114821,9.801845836044201,0.30694772521268426
1789141054064053800,1.9690537109375,-5.69028260217607,-7.980656223589182,-0.3165195896459743,9.802246947082867,0.293818465680183
1789141054074026800,1.97902685546875,-5.6904012601196765,-7.980058257696032,-0.3292253419620916,9.802620355552419,0.2811045856859052
1789141054083999000,1.9889990234375,-5.688922419738769,-7.980539903733134,-0.3428273489981889,9.802999919199824,0.2675418252771744
1789141054093970700,1.998970703125,-5.687469298321008,-7.980878341907262,-0.3586928805194795,9.803418867847494,0.2517244758373084
1789141054103944000,2.00894384765625,-5.688080123695731,-7.979675980380177,-0.375381528459303,9.803834532289777,0.23499787409619718
1789141054113916000,2.018916015625,-5.687831117370725,-7.979134713110327,-0.3903643588619306,9.804182390778756,0.22001266033200034
1789141054123887900,2.028887939453125,-5.687297448885441,-7.978859403300285,-0.4035109502807259,9.80446696417042,0.20687746426210124
1789141054133860900,2.03886083984375,-5.687321998804808,-7.978094848668575,-0.418054841276817,9.804764810802288,0.192316893717893
1789141054143832800,2.048832763671875,-5.687053703257441,-7.977593913409113,-0.4310376935012638,9.80500984438197,0.17933185937763066
1789141054153805800,2.058805908203125,-5.684230462530255,-7.978936560189723,-0.4432520090386271,9.805222725918213,0.1672848509067615
1789141054163777800,2.06877783203125,-5.680440422597528,-7.981002845069765,-0.4544969680871814,9.805402371859406,0.15640213433973635
1789141054173750000,2.07875,-5.6754474366158245,-7.983772309783101,-0.4680518845785409,9.805599176670775,0.14360102151248957
1789141054183722800,2.08872265625,-5.669920197626948,-7.98681416169703,-0.4829018823817372,9.805787928444502,0.13004934187504466
1789141054193694700,2.09869482421875,-5.667236073109507,-7.9878283071756355,-0.4974045645846053,9.805957002357811,0.11655188565370789
1789141054203667000,2.1086669921875,-5.667064808195829,-7.987154937958717,-0.510019971736148,9.806095396199622,0.10431201010551175
1789141054213639700,2.1186396484375,-5.667103386640548,-7.986340114444494,-0.5222076184622944,9.806213990852003,0.09250503152013476
1789141054223612000,2.12861181640625,-5.666814632827043,-7.985662653574347,-0.5355249633381143,9.80632458053698,0.07988308349872142
1789141054233583900,2.138583984375,-5.668641848254204,-7.983432118043303,-0.5492602048324421,9.806426882982198,0.06608591771936798
1789141054243556900,2.148556884765625,-5.668980870950222,-7.982114605703949,-0.5647079128004611,9.806514190640074,0.05169283650682059
1789141054253528800,2.15852880859375,-5.667960295730829,-7.981939249137043,-0.5772818919630721,9.806561940895206,0.04153761030250162
1789141054263501800,2.168501708984375,-5.665858355015516,-7.982472917622327,-0.590386069012247,9.806591411684744,0.03384338085609032
1789141054273473800,2.178473876953125,-5.6657630779474975,-7.981586782437563,-0.603144062972255,9.80660992527214,0.027988484555781856
1789141054283445800,2.18844580078125,-5.66510490629971,-7.981153067195415,-0.6149540720250457,9.80661048946514,0.027876513345985086
1789141054293419000,2.1984189453125,-5.665871799018979,-7.979864780950546,-0.624535847101733,9.806604833118083,0.029863632625717413
1789141054303390700,2.208390625,-5.66708175933063,-7.978168498426675,-0.6351488649222999,9.806588891253178,0.034880578944645795
1789141054313363000,2.218363037109375,-5.669765299326181,-7.975553347492218,-0.6439598017569631,9.806569147169972,0.039693024456126526
1789141054323336000,2.2283359375,-5.672866772472858,-7.972659964138269,-0.6524183449573815,9.806543880151663,0.04550983955960324
1789141054333307600,2.2383076171875,-5.671307268071175,-7.973027628406882,-0.6614313071701675,9.806498642329549,0.05451095587062216
1789141054343279900,2.24827978515625,-5.668397518104315,-7.974263307681679,-0.6713989397592842,9.806434723239045,0.06496367177840791
1789141054353252900,2.2582529296875,-5.666953164514899,-7.974611682727932,-0.6794104698445648,9.806378313922231,0.07302472099510979
1789141054363224800,2.268224853515625,-5.661423587438464,-7.978011846560239,-0.6855563521884381,9.806315359368405,0.08097311221222937
1789141054373196800,2.27819677734375,-5.654813229387998,-7.982178903111815,-0.691596363005042,9.806241904514437,0.08954295065352892
1789141054383169800,2.288169677734375,-5.654768805724382,-7.981807147189975,-0.6962314023945481,9.806202475966916,0.09373765063773187
1789141054393141800,2.298141845703125,-5.655663708737492,-7.980904645392298,-0.699288159616664,9.806178565624851,0.09610834737151197
1789141054403114800,2.30811474609375,-5.657240748795867,-7.979680072033405,-0.7005224506519735,9.806175318191222,0.09656228356954491
1789141054413087000,2.3180869140625,-5.659589357748628,-7.977868638697266,-0.7021749670993537,9.806168896031718,0.09716471361537023
1789141054423058700,2.32805859375,-5.663094735521078,-7.975256994894146,-0.7035741663727909,9.806167641503674,0.09725694015338714
1789141054433031700,2.33803173828125,-5.667639393213391,-7.971777920606732,-0.7063941922295838,9.806152944770309,0.09867464499813398
1789141054443004000,2.34800390625,-5.672072991746664,-7.968564803779125,-0.7070612047709525,9.806155945438041,0.09837772497724832
1789141054452975900,2.357975830078125,-5.675709302422404,-7.966077663138508,-0.7059186106070876,9.806173659170387,0.09668852958210569
1789141054462948900,2.367948974609375,-5.677722980332375,-7.96482386368513,-0.7038613858163356,9.806195182039648,0.09441569312433415
1789141054472920800,2.3779208984375,-5.678598594123125,-7.9644252197563645,-0.7013102400287985,9.806220537185354,0.09179271823926968
1789141054482892800,2.387892822265625,-5.67732141379416,-7.965732795223594,-0.6967859675373882,9.806260480178853,0.08742699735113038
1789141054492865800,2.39786572265625,-5.676732215729356,-7.966618345886468,-0.6914432913351803,9.806305740747273,0.08220743417622335
1789141054502838000,2.407838134765625,-5.674416924524307,-7.968737822258472,-0.6860001504331826,9.806345921289171,0.07723853720883316
1789141054512811000,2.41781103515625,-5.673614960491657,-7.969940183785558,-0.6786250185552984,9.806398696242283,0.07021238623876754
1789141054522782700,2.42778271484375,-5.675911546996235,-7.968875184902548,-0.6718876000590622,9.806446548348463,0.06310818788739866
1789141054532755000,2.4377548828125,-5.676484962970018,-7.968912009781598,-0.6666027184586971,9.806480310798124,0.057820866919775046
1789141054542728000,2.44772802734375,-5.676317205187678,-7.969469643664359,-0.6613257279038429,9.806507730400721,0.05273772061626048
1789141054552700000,2.457699951171875,-5.677653422227501,-7.968981567886471,-0.6557215512212365,9.806537686412943,0.04695710749851666
1789141054562671900,2.467671875,-5.678257233339548,-7.968999688065051,-0.6502421699620783,9.806561786576241,0.04149749406108395
1789141054572644900,2.477644775390625,-5.679122325736284,-7.968898565778136,-0.6438944814357906,9.806586560257694,0.03514088407732722
1789141054582616800,2.487616943359375,-5.682033244746923,-7.967423817050457,-0.6364327672529966,9.806612838665695,0.027117792361568183
1789141054592588800,2.4975888671875,-5.685858940514922,-7.965270438408851,-0.6291811886895448,9.806631515892754,0.019295805843705143
1789141054602562000,2.50756201171875,-5.688879749640822,-7.96366826390922,-0.6221133691951632,9.806642525785666,0.01234662106904054
1789141054612533800,2.51753369140625,-5.692434811773896,-7.961613084945082,-0.6158704562176018,9.806646743444823,0.008548028355032168
1789141054622506000,2.527506103515625,-5.6982648331016295,-7.957864546066522,-0.6103697764420881,9.806641110453263,0.013101010158679488
1789141054632479000,2.53747900390625,-5.703302827268838,-7.954636231669783,-0.6053853390930221,9.806630785212475,0.019615530532587886
1789141054642450700,2.54745068359375,-5.705909210374951,-7.953313458633422,-0.5981478621201589,9.806617830377263,0.024949593320631666
1789141054652424000,2.557423828125,-5.709215850704908,-7.951440650498866,-0.5914720010854303,9.806599171719931,0.03171532178491985
1789141054662396000,2.56739599609375,-5.711197379910946,-7.9504761893808835,-0.5852791377946734,9.806579831297155,0.03729385669992754
1789141054672367900,2.577367919921875,-5.71066663403511,-7.951292181938886,-0.579340504993312,9.806565425683711,0.040874688440378434
1789141054682340900,2.5873408203125,-5.707220877495407,-7.954126528581976,-0.5743527431759983,9.806558944124557,0.04221049887684356
1789141054692312800,2.597312744140625,-5.704259689602256,-7.956551125380396,-0.5701818872321397,9.806551490715352,0.044041590449997454
1789141054702284800,2.607284912109375,-5.698821882462501,-7.960840347006917,-0.5646578265810385,9.806538038569093,0.046904560367938726
1789141054712257800,2.6172578125,-5.692196326842904,-7.965949068322777,-0.5594265383314341,9.806519573175096,0.05074933654330861
1789141054722230000,2.62722998046875,-5.686466843280196,-7.9704194917351,-0.5539893887788057,9.806489543423552,0.05620597441427126
1789141054732201700,2.63720166015625,-5.680150499740242,-7.975245304456353,-0.5493091585407033,9.806454895342158,0.061889443598343745
1789141054742175000,2.647175048828125,-5.673629573538899,-7.980159379982948,-0.5453081427384168,9.80641553276509,0.06776161852701472
1789141054752147000,2.65714697265625,-5.667182881617546,-7.985029031845927,-0.5410564035780727,9.806367546137313,0.07448513300596708
1789141054762119000,2.667118896484375,-5.663733617946505,-7.987870392751693,-0.5351995673086494,9.80631067196334,0.08161794068559458
1789141054772092000,2.677091796875,-5.66131837349832,-7.9899957143425935,-0.5289926389599219,9.806250122631093,0.08859450205347665
1789141054782063600,2.687063720703125,-5.659364316821098,-7.99186735343337,-0.521563950263895,9.80617500371906,0.09648324223606902
1789141054792036900,2.697036865234375,-5.659466608151793,-7.992330294770002,-0.5133032677231356,9.806096547059015,0.10419493219928073
1789141054802008800,2.7070087890625,-5.659169086509943,-7.993014185380935,-0.5058745424944907,9.806017422671422,0.11136371230849373
1789141054811980800,2.716980712890625,-5.658229759833216,-7.994066324782371,-0.4997290254767983,9.805944993152336,0.11761084242708615
1789141054821953800,2.726953857421875,-5.657170021647215,-7.995073455998301,-0.4956059907300397,9.8058919668806,0.12198464061752137
1789141054831925800,2.73692578125,-5.652809488350153,-7.99828365021646,-0.4935482179500162,9.805842463948787,0.12585657138927653
1789141054841897700,2.746897705078125,-5.646486715069413,-8.002948719418049,-0.4902945864489301,9.80576225564414,0.13196892200889476
1789141054851870700,2.75687060546875,-5.637329595145583,-8.009633311748503,-0.4864915409041568,9.80564438733432,0.14043831915041322
1789141054861843000,2.766843017578125,-5.6262219256758685,-8.017600345104933,-0.4838477849297225,9.80550902233884,0.1496326922686803
1789141054871814700,2.776814697265625,-5.612737590202689,-8.02718942670524,-0.4814648718485608,9.805328987911803,0.16101307500733084
1789141054881788000,2.786787841796875,-5.596236537256837,-8.038778742212056,-0.4801757818860933,9.805092063302036,0.17482979966294018
1789141054891759900,2.796759765625,-5.582174694156646,-8.048653070494533,-0.4784321896217763,9.804848546423436,0.18797049510072594
1789141054901731800,2.80673193359375,-5.569377171903849,-8.057532542520761,-0.4781148307682946,9.804618939880255,0.1995845481162015
1789141054911704800,2.816704833984375,-5.559035810631514,-8.06478938178122,-0.4761033813480287,9.804390486033345,0.2104959464800487
1789141054921676800,2.8266767578125,-5.550578363409638,-8.070765533581376,-0.4735174199754371,9.804178679017898,0.22017184948883323
1789141054931650000,2.836650146484375,-5.551150025817751,-8.070461582198739,-0.4719909045279026,9.804168395394582,0.22062240952652043
1789141054941621800,2.846621826171875,-5.55712150144279,-8.066458776298164,-0.4701352301912382,9.804264990141473,0.21626767966713856
1789141054951594000,2.856593994140625,-5.565962395024299,-8.060455151969194,-0.4685309367997571,9.804416240936046,0.20932762106151756
1789141054961567000,2.86656689453125,-5.578748226839304,-8.051603152471781,-0.4686404981214553,9.804648457113686,0.19808496221047003
1789141054971538700,2.87653857421875,-5.592060712876916,-8.042235604667663,-0.4708294960657134,9.804896703436269,0.1854119381156817
1789141054981511000,2.886510986328125,-5.597632375529408,-8.038051012459396,-0.4760562908032908,9.805054284659555,0.17689645945356666
1789141054991484000,2.89648388671875,-5.602941587853431,-8.034034762555361,-0.4813628362461924,9.805201348176723,0.16853992013122276
1789141055001455900,2.906455810546875,-5.603821877819299,-8.033032307514548,-0.4878140582121908,9.805298908832453,0.16279912695476384
1789141055011427800,2.916427734375,-5.600345141619443,-8.035299667924642,-0.490390192310512,9.805284392307659,0.16366730062092893
1789141055021400800,2.92640087890625,-5.594285403189063,-8.039359172448515,-0.4930188237810507,9.805230738434357,0.1668616271968088
1789141055031372800,2.936372802734375,-5.588517925703525,-8.043484727945923,-0.4911336310889571,9.805119482044837,0.1732725050904719
1789141055041345800,2.946345703125,-5.5893041076451535,-8.043077900710701,-0.4888315646916628,9.805101814472472,0.17423326636253297
1789141055051318000,2.956318115234375,-5.592936911189556,-8.04065622652173,-0.4871304598622024,9.805135930568275,0.17234069065017232
1789141055061289700,2.966289794921875,-5.598832398968935,-8.036623025482893,-0.4859623293982818,9.805206530369492,0.1682800281069397
1789141055071262700,2.9762626953125,-5.606977126979827,-8.030852625387906,-0.4874324384834617,9.805334685061048,0.16058794848761546
1789141055081235000,2.98623486328125,-5.615669552001357,-8.024521084278822,-0.4916496543196961,9.805495570010974,0.15052959309816172
1789141055091207700,2.996207763671875,-5.620297796323895,-8.020890034300088,-0.4979474392896518,9.805622223153684,0.14194622498472004
1789141055101180700,3.0061806640625,-5.621581406393647,-8.019506470987201,-0.505697870753333,9.805724952977146,0.1347220470530095
1789141055111153000,3.01615283203125,-5.61909543479681,-8.020765531137585,-0.5133036330493167,9.805778899689168,0.1307440283585772
1789141055121124900,3.026124755859375,-5.616266933372616,-8.022354846155643,-0.5193714817209168,9.805806780974695,0.12857548268327526
1789141055131097900,3.036097900390625,-5.614020031228661,-8.023713859549165,-0.5226545585121959,9.80581170135586,0.12817829786694948
1789141055141069800,3.04606982421875,-5.6148822010159485,-8.023183113673328,-0.5215600412737578,9.80581256027083,0.12819639740200528
1789141055151041800,3.056041748046875,-5.621411895045638,-8.018920780053735,-0.5167500837087631,9.805838351199407,0.12620241557942244
1789141055161014800,3.066014892578125,-5.6343362585484975,-8.010121972048282,-0.5124222836375236,9.80591811624853,0.11977301733746071
1789141055170987000,3.075987060546875,-5.652004017186164,-7.997662303447723,-0.5124866906432435,9.806048579542667,0.10865355039288979
1789141055180960000,3.0859599609375,-5.670212458571792,-7.984449186131358,-0.5173521777877583,9.806179258037375,0.09612370340235815
1789141055190931700,3.095931640625,-5.683543064787983,-7.974435157117247,-0.525452810928598,9.806280606283792,0.08508332211608495
1789141055200904000,3.105904052734375,-5.69283813187778,-7.967209882038831,-0.5343660756265745,9.806357161091412,0.07579994795906767
1789141055210877000,3.115876953125,-5.703821298184991,-7.958833098837733,-0.5420310207638889,9.806399810839189,0.07015749587308115
1789141055220849000,3.125848876953125,-5.710679493516683,-7.953681707423925,-0.5454270564103498,9.806404391162035,0.06954546386583514
1789141055230820900,3.13582080078125,-5.713374139428138,-7.951945677411556,-0.5424970673730597,9.806374879871932,0.07347718772279088
1789141055240793900,3.1457939453125,-5.71643001986742,-7.94990511149466,-0.5402103081427514,9.80634752383713,0.07706408091567848
1789141055250765800,3.155765869140625,-5.719422771942615,-7.947845840877294,-0.5388235664920881,9.806324342415452,0.07990044883250194
1789141055260737800,3.16573779296875,-5.723725437572599,-7.944711634504794,-0.5393603402499109,9.806307399705108,0.08197926124829343
1789141055270711000,3.1757109375,-5.727144890627264,-7.942063165822625,-0.5420615985652432,9.806307386978494,0.08198863875316648
1789141055280682800,3.185682861328125,-5.731885363152623,-7.938121734720468,-0.5496367830598726,9.806326474715817,0.07967531703612812
1789141055290655000,3.195655029296875,-5.73686899678409,-7.9337728918612,-0.5603230122471228,9.806349173116187,0.07678514746532952
1789141055300628000,3.2056279296875,-5.743450713261962,-7.928202398252487,-0.5716342414649203,9.806345304761923,0.07730998069307006
1789141055310599700,3.215599609375,-5.747684405308962,-7.924554981660842,-0.5796095677256584,9.806334175053347,0.07877168639425355
1789141055320573000,3.225572998046875,-5.74977524010837,-7.922615538030862,-0.5853416451042518,9.806328019244399,0.0794222619098284
1789141055330545000,3.235544921875,-5.748026935136318,-7.92351628626287,-0.5903162551790475,9.80635509850016,0.07613769745704961
1789141055340516900,3.245516845703125,-5.742717138290405,-7.927052059173583,-0.5945132319448515,9.806408539699207,0.0689348586306534
1789141055350489900,3.25548974609375,-5.7355123214781285,-7.932030432108045,-0.597636368934065,9.806467880672509,0.0597101375535434
1789141055360461800,3.2654619140625,-5.727632966405153,-7.937564685359597,-0.5997191665574908,9.806522813351815,0.049859021908517785
1789141055370433800,3.275433837890625,-5.722535935527086,-7.940934454053639,-0.6037554728688672,9.806554822451734,0.04313608979415114
1789141055380406800,3.28540673828125,-5.719679961574077,-7.942467654970287,-0.6106120972979814,9.806570252746248,0.039475617794423955
1789141055390379000,3.29537890625,-5.721862566310167,-7.940353439295292,-0.6176206608857959,9.806554758575505,0.043162674653803315
1789141055400350700,3.305350830078125,-5.731522959581017,-7.932921243467926,-0.6235356570832431,9.806488631008982,0.056323501443453564
1789141055410324000,3.315323974609375,-5.744749520900845,-7.922858699136972,-0.6297203370675444,9.806371057650178,0.0739689595591054
1789141055420296000,3.3252958984375,-5.757962053695321,-7.912774527496099,-0.6358039678301661,9.806221495978296,0.091620915233047
1789141055430268700,3.3352685546875,-5.772978421041369,-7.901428373095393,-0.6407187740091234,9.80602036398625,0.11106463623014873
1789141055440241000,3.345240966796875,-5.785334629267454,-7.892069593119621,-0.6446019721180201,9.805826491537434,0.12703446605381213
1789141055450212900,3.355212890625,-5.794100704047083,-7.885285047546029,-0.6489027380518615,9.805667333200514,0.13887463320343865
1789141055460185900,3.365185791015625,-5.797281672170758,-7.882575204065442,-0.6533845596410334,9.805589902811093,0.14416891100631865
1789141055470157800,3.37515771484375,-5.796404304814338,-7.88291364223957,-0.6570831949632614,9.805586001395884,0.14447093205586928
1789141055480130000,3.385130126953125,-5.792685576552152,-7.88528270945847,-0.661435983345285,9.805624253886238,0.14184550941752805
1789141055490102800,3.395102783203125,-5.784844215402007,-7.890846188804507,-0.663712257714197,9.805736995339018,0.13383613533148112
1789141055500074800,3.40507470703125,-5.774988007298112,-7.89779615407288,-0.6668684567227959,9.805862083774402,0.12430972726524062
1789141055510047000,3.415046875,-5.767143139016628,-7.90339178212285,-0.6684694621786474,9.805956902783876,0.1166288568246392
1789141055520019700,3.425019775390625,-5.761577321583032,-7.907500386485457,-0.6678743458297103,9.806029077868358,0.11038777407508196
1789141055529992000,3.434991943359375,-5.760813935995102,-7.908292413645983,-0.6650779200442135,9.80605572411757,0.10800870389623983
1789141055539964000,3.4449638671875,-5.7650698398739095,-7.905369219675659,-0.6629390083193779,9.806016630488537,0.1114393528014887
1789141055549937000,3.45493701171875,-5.770277345389127,-7.901725894737243,-0.6610823476020247,9.805962069339317,0.11623477647263783
1789141055559908900,3.464908935546875,-5.777804818284511,-7.896380442056059,-0.6591841858305036,9.80586789170048,0.12381956728943101
1789141055569881900,3.4748818359375,-5.787217958796024,-7.889484837323427,-0.6591910539627075,9.805726730006947,0.1346062517834904
1789141055579853800,3.484853759765625,-5.795998646622896,-7.882893183973431,-0.6608907705526799,9.805570940815993,0.1454661363199919
1789141055589825800,3.49482568359375,-5.802188733434677,-7.878110625872015,-0.6635984220761806,9.805444803472273,0.1537407028552644
1789141055599799000,3.504799072265625,-5.8124055915445085,-7.870667324128746,-0.662508288751915,9.805256676628614,0.16529254617428085
1789141055609770800,3.514770751953125,-5.817306807589531,-7.86724787107408,-0.6601069266986102,9.805172435723318,0.17024164870634687
1789141055619743000,3.524742919921875,-5.818048565867543,-7.867178897491097,-0.6543618802405894,9.80518927544032,0.16925029697077057
1789141055629716000,3.534716064453125,-5.818060256305337,-7.867469404870271,-0.6507607139434665,9.805208031250592,0.16818131073512518
1789141055639687700,3.544687744140625,-5.812444169989228,-7.872035689872503,-0.6457014577925205,9.80534513806823,0.15996945903925247
1789141055649660000,3.554659912109375,-5.806385016080736,-7.876862671637535,-0.6413358099289238,9.805480170361514,0.1514686520307091
1789141055659633000,3.5646328125,-5.7980707767218345,-7.883259094676375,-0.6379462405558675,9.805642804062689,0.14051082038936058
1789141055669604900,3.57460498046875,-5.791314288198947,-7.888543757081031,-0.6339845703832805,9.805770279210904,0.13133719544579295
1789141055679576800,3.584576904296875,-5.7843912109375,-7.893874012193083,-0.6308373583987354,9.805888828528417,0.12218288276750595
1789141055689549800,3.5945498046875,-5.781697149547934,-7.896067722845077,-0.6280791457317769,9.805936629389903,0.11831165005643225
1789141055699521800,3.604521728515625,-5.781976551011204,-7.895995826652646,-0.6264012025821953,9.805935910553536,0.11833138075929611
1789141055709494800,3.614494873046875,-5.781714685204625,-7.896126759555935,-0.6271587429512292,9.805937504006817,0.1181535461120092
1789141055719467000,3.624467041015625,-5.7827615639090535,-7.895096831986308,-0.6304781696975231,9.80591457166951,0.12011422500612846
1789141055729438700,3.634438720703125,-5.786844449308514,-7.891831692710518,-0.6338754839856178,9.805841734623467,0.12586560800128446
1789141055739411700,3.64441162109375,-5.790841409990192,-7.888473614454269,-0.639157004585117,9.805760769638725,0.13205153055819396
1789141055749384000,3.654384033203125,-5.791371571344137,-7.887621966060996,-0.6448402378533035,9.805729988904533,0.13432525419293473
1789141055759356000,3.66435595703125,-5.793747652825713,-7.885738636532426,-0.6465319172672928,9.80568353803332,0.1376937918404417
1789141055769329000,3.674328857421875,-5.796695981237292,-7.883547263967991,-0.6468330921709537,9.805632278883683,0.1413167454747322
1789141055779300900,3.68430078125,-5.803402200877666,-7.878632603919506,-0.6465709341034293,9.805513465575757,0.14929320793341697
1789141055789272800,3.69427294921875,-5.80699408788979,-7.876319066280126,-0.6424904598567635,9.80546369009496,0.1525063404291401
1789141055799245800,3.704245849609375,-5.809422191819548,-7.874980511152744,-0.6369285879459232,9.80543874009546,0.15412136198109838
1789141055809218000,3.714218017578125,-5.812127359125018,-7.873212916958332,-0.6340910994976758,9.805395446283038,0.15683666319809123
1789141055819189800,3.724189697265625,-5.812140218606591,-7.873343849861621,-0.6323593072690069,9.805401538920254,0.1565127883852148
1789141055829162800,3.734162841796875,-5.807182303938269,-7.876939828526973,-0.6331308030981571,9.805494903037578,0.15057122482102753
1789141055839135000,3.744135009765625,-5.80026214928627,-7.881806557780504,-0.6359755250047892,9.805611340996368,0.14271199123843262
1789141055849107700,3.754107666015625,-5.789841293036937,-7.889314156931638,-0.6378375194843858,9.80578138890948,0.13049183689427915
1789141055859080000,3.764079833984375,-5.777475147938728,-7.898419254407286,-0.6372882150385528,9.80597080956711,0.11540604137616585
1789141055869052000,3.774052001953125,-5.764074983617663,-7.90827780059874,-0.6363614555824547,9.80614903834935,0.09907132804676014
1789141055879024600,3.784024658203125,-5.751628759020567,-7.917579881951212,-0.6333040407732129,9.806296012908673,0.08328915861121647
1789141055888996900,3.793996826171875,-5.739017699250579,-7.926922295314073,-0.6308508754674345,9.806417730776973,0.06756733559760815
1789141055898968800,3.80396875,-5.7285144254148,-7.934597652247548,-0.6298192673973739,9.806496260118644,0.05496212424688354
1789141055908941800,3.81394189453125,-5.718917745029926,-7.941461692798137,-0.6305222280349582,9.806549485752319,0.044491079280299876
1789141055918913800,3.823913818359375,-5.711470351633429,-7.9467031005829565,-0.631986090042442,9.806578583432694,0.037505351202057
1789141055928886000,3.833885986328125,-5.706807620519399,-7.949876469922065,-0.6341931716326624,9.806589173130359,0.03462474587198677
1789141055938858800,3.843858642578125,-5.70520193888843,-7.950839761996269,-0.6365572704154998,9.80658739984129,0.03508293360096869
1789141055948830700,3.853830810546875,-5.702606077176332,-7.952554749220609,-0.6383846319731324,9.80658852874864,0.034633465820676654
1789141055958803000,3.863802978515625,-5.699640797629952,-7.9547700871825215,-0.6372727252084761,9.80659899559745,0.03170217316384599
1789141055968775700,3.873775634765625,-5.695203107443452,-7.957976774269342,-0.6369105408325791,9.806607359413425,0.02898120366567391
1789141055978748000,3.883747802734375,-5.690448606392741,-7.96154118875265,-0.6348609878916293,9.80661759289045,0.025363417756509857
1789141055988721000,3.893720947265625,-5.685975260370969,-7.965017340430617,-0.6313293796993792,9.806627014807866,0.021430656156431145
1789141055998692900,3.90369287109375,-5.6808735533177845,-7.968996180933713,-0.6270232069380581,9.806632136122452,0.018673760489130796
1789141056008664800,3.913664794921875,-5.676113207048178,-7.972719585371017,-0.6227841811288147,9.806631935958091,0.018679804508213264
1789141056018637800,3.923637939453125,-5.67681755592525,-7.972409788769483,-0.6203383223466575,9.806636676947022,0.016496177069691118
1789141056028609800,3.93360986328125,-5.676335325366258,-7.972905463331937,-0.61837761673294,9.806637653937965,0.015907685924962882
1789141056038581800,3.943581787109375,-5.67431697128117,-7.974539786535501,-0.6158090814191848,9.806634781737895,0.01711665779447079
1789141056048555000,3.953554931640625,-5.67446777792871,-7.974316499173641,-0.6173081608705222,9.806634121645029,0.017457417016562508
1789141056058526700,3.963526611328125,-5.673793239668012,-7.974614020815491,-0.6196581580627709,9.806630737181724,0.0191917926687945
1789141056068499000,3.9734990234375,-5.672870864126086,-7.975160548782348,-0.6210824917774647,9.80662829381676,0.02084678416694823
1789141056078472000,3.983471923828125,-5.672948605537414,-7.975090990677476,-0.621254852669686,9.806627603838994,0.020852391772197675
1789141056088443400,3.993443359375,-5.673274184229969,-7.97489634488821,-0.6207821936566382,9.8066289307085,0.020278770025391624
1789141056098415600,4.00341552734375,-5.673035114777088,-7.975131322687864,-0.6199618171844631,9.806630110991982,0.020138236343264355
1789141056108388600,4.013388671875,-5.674891556298732,-7.973883952975273,-0.6190026898287236,9.80663396405323,0.01772276389340752
1789141056118360600,4.023360595703125,-5.676590761432052,-7.97280609461069,-0.617294570736587,9.80663772329071,0.015127664378006878
1789141056128333600,4.03333349609375,-5.676169321149588,-7.973387693890928,-0.6136554105166345,9.806639351099466,0.014390266670251346
1789141056138305800,4.043305908203125,-5.677950359347462,-7.972309251004457,-0.6111897875880822,9.806642980516013,0.011894789329279763
1789141056148277500,4.053277587890625,-5.679384776064754,-7.97146403235197,-0.6088768710032105,9.806644513405013,0.010231589477266533
1789141056158250500,4.06325048828125,-5.679188961231708,-7.971730574333668,-0.6072143446184695,9.806644037283867,0.01084405170975537
1789141056168222700,4.07322265625,-5.677444163390994,-7.973053931891918,-0.6061588076835498,9.80664134550111,0.01323820683196918
1789141056178194400,4.0831943359375,-5.676330649191141,-7.973953511080145,-0.6047454702869057,9.806638312332742,0.015044292414263916
1789141056188167700,4.093167724609375,-5.673948722490668,-7.975832748955487,-0.602316453041695,9.806632187658183,0.01877206316639095
1789141056198139600,4.1031396484375,-5.671747413054108,-7.977534292176365,-0.6005034488029778,9.80662479903524,0.022057726698487545
1789141056208111600,4.113111572265625,-5.670200768133998,-7.978889798438549,-0.5971028831118718,9.806617284819534,0.02546465537508437
1789141056218084600,4.123084716796875,-5.667689662095904,-7.981081755524873,-0.5916235749179497,9.806600520584718,0.03125345208112518
1789141056228056600,4.133056640625,-5.668462984555959,-7.980932117921114,-0.5862046551417559,9.80659043191793,0.034206380565388605
1789141056238028500,4.143028564453125,-5.671363966694474,-7.979121269106864,-0.582788197761774,9.806589560807307,0.034478096664110836
1789141056248001500,4.15300146484375,-5.673668151983619,-7.977718416571617,-0.5795690895847976,9.80658623355447,0.03561188567389049
1789141056257973800,4.162973876953125,-5.67568007632792,-7.976441820764541,-0.5774133363230154,9.806582094527583,0.03636252359098984
1789141056267946500,4.172946533203125,-5.679406987896561,-7.974102564162015,-0.5730684755191207,9.806573295079874,0.03877014061865712
1789141056277918500,4.18291845703125,-5.68278552441895,-7.971978996136784,-0.5691125775001943,9.806561833665622,0.04164804621158004
1789141056287890700,4.192890625,-5.682249517846107,-7.97249045279026,-0.5672879193563014,9.806552902984997,0.04358150178976219
1789141056297863400,4.202863525390625,-5.682348886567354,-7.972573454898595,-0.5651238731902093,9.806543350977934,0.04570404650492538
1789141056307835600,4.212835693359375,-5.682037336400151,-7.9727546566843985,-0.5657099294498562,9.806546293608005,0.045195392788799624
1789141056317807600,4.2228076171875,-5.681974792557955,-7.97267691527307,-0.5674265606420115,9.806553647257322,0.04351096158732071
1789141056327780600,4.232780517578125,-5.681324804216623,-7.97308783416152,-0.5681713145947084,9.806556763459295,0.042944499537267644
1789141056337752600,4.242752685546875,-5.680473740345239,-7.97377640094757,-0.5670066912621259,9.806550019311747,0.04433185911954388
1789141056347724800,4.252724853515625,-5.683302241769432,-7.971979580658674,-0.5639090905729681,9.80653833852662,0.04671277318550984
1789141056357697500,4.262697509765625,-5.688535466247797,-7.968446145835518,-0.5610728442337364,9.806527022919573,0.04899199041329069
1789141056367669500,4.27266943359375,-5.692822934308648,-7.965547501784562,-0.5587633251823485,9.80651556489761,0.0514674029511238
1789141056377641700,4.282641845703125,-5.698484613332152,-7.961608408769965,-0.5571819742750376,9.806501298739363,0.05403122486202255
1789141056387614500,4.292614501953125,-5.704371917805076,-7.957398682120442,-0.5570762488782406,9.806489849569225,0.05606728293125872
1789141056397586700,4.302586669921875,-5.708744141539931,-7.954492439284921,-0.5537980309251695,9.806461123189061,0.06100933244628954
1789141056407559700,4.3125595703125,-5.713019334641099,-7.951615422543883,-0.5509934583658352,9.806429320827,0.06569256279972596
1789141056417531400,4.322531494140625,-5.716230697903037,-7.949553813838958,-0.5474315646331757,9.806395736446994,0.07059184741511781
1789141056427503600,4.332503662109375,-5.715876477637886,-7.950107940590381,-0.5430713601296767,9.80636918705142,0.07422967124988401
1789141056437476600,4.3424765625,-5.714890973731875,-7.950990568643808,-0.5405092180240899,9.806355173220563,0.07601510194767253
1789141056447448600,4.352448486328125,-5.714702757683396,-7.951319654467701,-0.5376570069307461,9.806335908067153,0.07850459510789891
1789141056457420500,4.362420654296875,-5.71389377938807,-7.952351920124888,-0.5309435538319871,9.806287609711987,0.08430632602919644
1789141056467393500,4.3723935546875,-5.71285040781498,-7.953470110499858,-0.5253865772919729,9.806245093707144,0.08907748553681259
1789141056477365500,4.382365478515625,-5.713936449486017,-7.953052761870622,-0.5198826461134478,9.80619363755836,0.09466937362538677
1789141056487337500,4.39233740234375,-5.713658217066526,-7.953639037325978,-0.5139384968867525,9.806138751833474,0.10019838271929066
1789141056497310700,4.402310791015625,-5.716285058438777,-7.95217890164554,-0.507271659408696,9.806061582252884,0.1074473573904566
1789141056507282400,4.412282470703125,-5.718942879471182,-7.950609460371732,-0.5018810158789158,9.805992974653638,0.11351116751125793
1789141056517254700,4.422254638671875,-5.719572409546375,-7.950698892220855,-0.4932172324299812,9.805891846496959,0.12194160888054324
1789141056527227600,4.4322275390625,-5.722558731880784,-7.948868754184246,-0.4880394279332831,9.805815248155929,0.1279168218871881
1789141056537199600,4.44219970703125,-5.724702758172154,-7.947562932282686,-0.4841544762587174,9.80575643097619,0.13238053205843572
1789141056547172600,4.452172607421875,-5.722967312681675,-7.949211868533491,-0.4775685950623825,9.805679632060642,0.13799604790555817
1789141056557144600,4.46214453125,-5.721425928458571,-7.950683110129833,-0.4714942435847595,9.805602867603788,0.14330316505825527
1789141056567116500,4.472116455078125,-5.720440424552559,-7.951691410389542,-0.4664256716161966,9.805535033168008,0.14788697500243006
1789141056577089500,4.482089599609375,-5.719164997789264,-7.953022366732358,-0.4593213925689459,9.805434509499438,0.15441262665983782
1789141056587061800,4.492061767578125,-5.71689705285728,-7.955010325679183,-0.4530798678308725,9.805345665055636,0.15993420534371444
1789141056597033500,4.502033447265625,-5.713766353616118,-7.957585729125141,-0.4473100157251581,9.805262935857922,0.1649290421685615
1789141056607006500,4.51200634765625,-5.715028920897841,-7.956926388433575,-0.4428775131704285,9.805183943389046,0.1695330222315821
1789141056616978700,4.521978759765625,-5.715370866203307,-7.956951522874831,-0.4379949652932584,9.80509898757417,0.17439928073204355
1789141056626950400,4.531950439453125,-5.715689430633187,-7.957102914044261,-0.4310239207042381,9.804973120776134,0.18131787893186166
1789141056636923600,4.541923583984375,-5.717474560484289,-7.956106304222345,-0.4257254855025559,9.804869393285657,0.18687226516549968
1789141056646895600,4.5518955078125,-5.7190673826336855,-7.955337657937407,-0.4186535012897103,9.80472898264571,0.19413734805774216
1789141056656867600,4.56186767578125,-5.718597427034378,-7.955999921238422,-0.4124148260958492,9.804606304131525,0.20018114046531504
1789141056666840600,4.571840576171875,-5.716861397022009,-7.957554749464988,-0.4064624570300802,9.804492130573639,0.2057367589609037
1789141056676812500,4.5818125,-5.715841990846395,-7.958518041539191,-0.4019176897399127,9.804400655835732,0.21005877987226904
1789141056686785800,4.591785888671875,-5.715634485575556,-7.958813809615373,-0.3989870796481147,9.804338264501048,0.21292419728999862
1789141056696757500,4.601757568359375,-5.714655995932221,-7.9596397390455005,-0.3965163786856457,9.804287952618427,0.21522292615686142
1789141056706729700,4.611729736328125,-5.711624080890417,-7.961899500671029,-0.394851185419783,9.804261441684124,0.2164678773541266
1789141056716702700,4.62170263671875,-5.709208251920342,-7.9636396223366255,-0.3946745867438614,9.804262755774173,0.2163671495536833
1789141056726674400,4.63167431640625,-5.707199250185489,-7.96502903086841,-0.3956964040722697,9.804289692395152,0.21515114613747824
1789141056736646700,4.641646728515625,-5.705123612955212,-7.9665213152527805,-0.3955958297746256,9.804291731310618,0.21507443680108435
1789141056746619600,4.65161962890625,-5.703349589020013,-7.967796157494186,-0.3955043520988896,9.804292646194439,0.2150384669324564
1789141056756591600,4.661591552734375,-5.7015334795087576,-7.969160431584715,-0.3941770855505019,9.804264928547616,0.21625630145502744
1789141056766563600,4.6715634765625,-5.701073460781574,-7.969568427863717,-0.3925958442410454,9.804231173209152,0.21781214571131718
1789141056776536600,4.68153662109375,-5.701279797008633,-7.969530433940887,-0.3903468962704762,9.804180099365047,0.2200680347782802
1789141056786508500,4.691508544921875,-5.701511852198839,-7.969405930778383,-0.3895024082703515,9.804161030948746,0.22092282716799286
1789141056796480800,4.701480712890625,-5.702741101732849,-7.968435039919615,-0.3913625761190429,9.804201057232014,0.21913318819630168
1789141056806453800,4.711453857421875,-5.706608883076906,-7.965617644411325,-0.3923461072636768,9.804217011105195,0.2184345861116008
1789141056816425500,4.721425537109375,-5.708702640485763,-7.964068076881766,-0.3933424978898838,9.804234672202698,0.2176395729665033
1789141056826397700,4.731397705078125,-5.708358357092738,-7.964200763350725,-0.3956546838223934,9.804286587786915,0.21530458731512034
1789141056836370700,4.74137060546875,-5.705331702747941,-7.966222624567151,-0.3985983725914731,9.804356561924013,0.2120985898971182
1789141056846342700,4.7513427734375,-5.702298034140467,-7.968176096722483,-0.4029423566125333,9.804454016148217,0.20755039515582643
1789141056856315600,4.761315673828125,-5.700360344076156,-7.969366767811775,-0.4067872320050373,9.80453647895544,0.20360505193412826
1789141056866287600,4.77128759765625,-5.696185688740015,-7.972307497438788,-0.4076259478515013,9.804556066829104,0.20262645457022624
1789141056876259600,4.781259521484375,-5.691952581214904,-7.975298495948314,-0.4082470754245296,9.804569051091711,0.20199426536830323
1789141056886232600,4.791232666015625,-5.689284238788485,-7.977181240954994,-0.4086473998537286,9.804575644107256,0.2016552433171449
1789141056896204800,4.801204833984375,-5.685917392703891,-7.979561414089798,-0.4090443998146802,9.804580953100189,0.20141155132746408
1789141056906176500,4.811176513671875,-5.682502031302452,-7.98185215537548,-0.4118185407031327,9.80463333966702,0.1988787348749158
1789141056916149500,4.8211494140625,-5.679668269181251,-7.98355019146502,-0.4179624502856284,9.804751210062305,0.19300680354853153
1789141056926121500,4.83112158203125,-5.6775435321122405,-7.984759567254781,-0.4236728272890672,9.804856416098756,0.18755060694770537
1789141056936093700,4.84109375,-5.674475376713276,-7.986711285844445,-0.4279572996752336,9.804928742858454,0.1837056400161383
1789141056946066700,4.851066650390625,-5.6735500785619015,-7.987237355545163,-0.4304243473758921,9.804972843327732,0.1813938482569995
1789141056956038400,4.861038330078125,-5.672790784627199,-7.987729522976279,-0.4312913394687697,9.804986162528579,0.18065655399670366
1789141056966010600,4.8710107421875,-5.670442760196328,-7.989484257689118,-0.4296775475965813,9.804949278596844,0.1826807038988873
1789141056975983600,4.880983642578125,-5.670500043341517,-7.989378459227084,-0.4308678168270736,9.804970600201509,0.1814869445972572
1789141056985955600,4.89095556640625,-5.671222512397169,-7.988648975908756,-0.4348558635499328,9.805045143013597,0.17738830552683882
1789141056995928600,4.900928466796875,-5.670730929487943,-7.988744837498665,-0.4395002552896738,9.805126778988551,0.17286606281745748
1789141057005900500,4.910900634765625,-5.672191065168381,-7.987463565516471,-0.4439241726791486,9.805208068929687,0.16819359772032405
1789141057015872500,4.92087255859375,-5.673849938291311,-7.986042008280753,-0.4482795914096757,9.805286413947123,0.16356348251235014
1789141057025845500,4.930845458984375,-5.674213510906696,-7.985560946765542,-0.4522374256573617,9.8053527079,0.15956053618110907
1789141057035817700,4.940817626953125,-5.677108063304424,-7.983391201511025,-0.4541964142380282,9.805390941871128,0.15714292404710706
1789141057045789400,4.95078955078125,-5.67957766828835,-7.98149735058844,-0.4565975570956245,9.805434314605897,0.1544075084472536
1789141057055762400,4.960762451171875,-5.681381502839923,-7.980011495944857,-0.4601163788715377,9.805492472113073,0.15067752872732554
1789141057065734700,4.970734619140625,-5.683761675974727,-7.97817901982069,-0.4624812083067372,9.805531569787084,0.14807688385349949
1789141057075706400,4.980706298828125,-5.683473506683111,-7.978257930275797,-0.4646619133466854,9.805564172359421,0.1459200419192977
1789141057085679000,4.99067919921875,-5.681182765397429,-7.979696438646316,-0.4679516756070777,9.80560865309761,0.14286560045801722
1789141057095651000,5.000651123046875,-5.6820081103056665,-7.978856480690837,-0.472235052014701,9.805671497245646,0.13848948515031062
1789141057105623000,5.010623046875,-5.680399506065249,-7.979760151532292,-0.476326339916326,9.805727031430852,0.13459120199084149
1789141057115596000,5.020595947265625,-5.677783770608902,-7.981587366959452,-0.4768888326372951,9.805729117848188,0.13440561102471288
1789141057125568300,5.030568359375,-5.676918678212165,-7.982219819644093,-0.4765951103877276,9.805722828065191,0.1348393360996536
1789141057135541200,5.040541259765625,-5.675282601442933,-7.983446731090545,-0.4755189325235783,9.805703569259457,0.13619868355409648
1789141057145513000,5.050512939453125,-5.675683583459258,-7.98325150077939,-0.4740293880855664,9.805684903823058,0.13760847339690363
1789141057155485200,5.060485107421875,-5.676373903810978,-7.982806679621338,-0.4732451058400794,9.805675183314795,0.1382689755486712
1789141057165458200,5.070458251953125,-5.676814048793911,-7.982546567380428,-0.4723622220583259,9.805664264747968,0.13907494689395045
1789141057175430100,5.08043017578125,-5.681732800495624,-7.979030668213963,-0.4726126531554386,9.805676795275835,0.1381424157833451
1789141057185402000,5.090402099609375,-5.686604205924272,-7.975525290441513,-0.4731903434455394,9.805690767462629,0.13714491363547002
1789141057195375000,5.100375,-5.69048776935935,-7.972739459115266,-0.4734606848195195,9.805697152753813,0.13672565489851018
1789141057205347000,5.11034716796875,-5.695028919920325,-7.969632140749693,-0.4711719893604517,9.805664623084546,0.13905107243548329
1789141057215319000,5.120319091796875,-5.698821297940611,-7.966978995892405,-0.4701797634527087,9.805647367271575,0.14023988566985374
1789141057225292300,5.130292236328125,-5.698746479138731,-7.967146169152856,-0.468242877105996,9.805619288234462,0.1421663824814512
1789141057235264000,5.140263916015625,-5.696373320266604,-7.969079183042049,-0.4642149732967838,9.80556247871209,0.14605494495504465
1789141057245236200,5.150236328125,-5.694149214476346,-7.970918088907003,-0.4599111020904034,9.805498511753331,0.1502917649628819
1789141057255209200,5.160209228515625,-5.693999576872587,-7.971329592317343,-0.4545880804367363,9.805414882304596,0.15561477929175627
1789141057265181200,5.17018115234375,-5.694388283929229,-7.971404995641111,-0.4483805675661191,9.805315466307276,0.16183099903524928
1789141057275154200,5.180154296875,-5.696458660462499,-7.970275699350237,-0.4420993684047832,9.80520827260387,0.16816235136211208
1789141057285126100,5.190126220703125,-5.700401260608435,-7.967649442499876,-0.4385962556546554,9.805143806312419,0.17185395986787982
1789141057295098000,5.20009814453125,-5.7046992500633,-7.964687085562944,-0.4365326741883531,9.805101996512006,0.17426852336613882
1789141057305071000,5.210071044921875,-5.706577903416752,-7.963413412365317,-0.4352105222065001,9.805074786852868,0.17578727731432972
1789141057315043000,5.22004296875,-5.70537028119266,-7.964222390660643,-0.4362258367288857,9.805094642946907,0.1746435137656536
1789141057325015000,5.23001513671875,-5.70345012678504,-7.965538149434328,-0.4373072022248059,9.80511699040867,0.17337748508627523
1789141057334988000,5.239988037109375,-5.704332170316577,-7.964940768063068,-0.4366835173685103,9.805104536112204,0.17408181500359207
1789141057344960000,5.2499599609375,-5.705287279084325,-7.964327020078897,-0.4354084924640133,9.805080651101967,0.17544742898035148
1789141057354932000,5.259931884765625,-5.705407106071711,-7.964359168782829,-0.4332425466017797,9.805041540313034,0.17761394176821102
1789141057364905200,5.2699052734375,-5.705617533951997,-7.964257461974024,-0.4323483377084136,9.805025352406723,0.17852531509568756
1789141057374877000,5.279876953125,-5.707252441677451,-7.963012430348992,-0.4336977430233731,9.805046209577137,0.17736955569191684
1789141057384849200,5.28984912109375,-5.707839886176586,-7.962366533660888,-0.437808722006157,9.805117981288518,0.1733632967744406
1789141057394822100,5.299822265625,-5.706188611838221,-7.963286571115255,-0.442570273852162,9.805203751712142,0.1684319514951314
1789141057404793900,5.3097939453125,-5.703548326462507,-7.964911541968584,-0.4473116962255909,9.805287252584103,0.1634289802009913
1789141057414766000,5.31976611328125,-5.701441125050187,-7.966191644906997,-0.4513720775322988,9.805357448595286,0.15919259861037133
1789141057424739000,5.329739013671875,-5.69811578001976,-7.968413997131585,-0.4541270753288641,9.80540530249788,0.1562156409773889
1789141057434711000,5.3397109375,-5.695066329321265,-7.970488465318083,-0.4559699997818097,9.805436318655655,0.15425340393985332
1789141057444684000,5.34968408203125,-5.691901143288612,-7.972514418187737,-0.4600542003555223,9.805500210299313,0.15013416089099849
1789141057454656000,5.359656005859375,-5.689197145026922,-7.974174460354447,-0.4647035239987075,9.805569517553263,0.14552759462965542
1789141057464628000,5.3696279296875,-5.68649606937468,-7.975750915890932,-0.4706915123671293,9.805655890361159,0.13965414060702305
1789141057474601000,5.37960107421875,-5.685831467986106,-7.975849115568399,-0.4770126416800543,9.805743370902244,0.13336641625059542
1789141057484573200,5.3895732421875,-5.687915873044729,-7.97394532777369,-0.4839416372256353,9.805836895250517,0.12630661559228074
1789141057494545000,5.399544921875,-5.68976062412858,-7.972175980013608,-0.4913519865473732,9.805930565432957,0.11882060756323391
1789141057504518100,5.40951806640625,-5.69052400971651,-7.971213856983184,-0.4980783356603234,9.806010196916128,0.1120709835410079
1789141057514490000,5.419489990234375,-5.690602335649729,-7.970691878935694,-0.5054893791018054,9.806092607430436,0.10464825997810094
1789141057524462000,5.429462158203125,-5.689871098765731,-7.970532888981699,-0.51609954737816,9.806199313108458,0.09402887483972121
1789141057534435000,5.43943505859375,-5.689207666420936,-7.9701587949723,-0.5290305963501334,9.806314981909917,0.08108598017344551
1789141057544407000,5.449406982421875,-5.685744374224544,-7.971825851401686,-0.5410062077607959,9.806405304702153,0.06927633685081874
1789141057554379000,5.45937890625,-5.682288096290827,-7.973477125740051,-0.552865572380647,9.806479646034985,0.05790316894239657
1789141057564352000,5.46935205078125,-5.68194673550725,-7.972739459115266,-0.5668354263484477,9.806551408166449,0.044102920848025834
1789141057574324200,5.47932421875,-5.681010915961862,-7.972406281638145,-0.5807320689495653,9.806602392794513,0.030760239344222815
1789141057584296000,5.4892958984375,-5.6815229571372265,-7.97103557780683,-0.594372325636819,9.806634419631123,0.01763848997599459
1789141057594269000,5.49926904296875,-5.683360109436512,-7.968537915772199,-0.6100837625749409,9.806648428582541,0.005238718403581941
1789141057604241200,5.5092412109375,-5.684474792680144,-7.966358818167447,-0.6278994052506983,9.806633058355715,0.018226636804417922
1789141057614214100,5.519214111328125,-5.688092983177304,-7.962260150676966,-0.6468502625014633,9.80658109301616,0.03702729433039798
1789141057624186000,5.52918603515625,-5.690653189054131,-7.958839528578519,-0.6661215108130126,9.806486195320643,0.0566279781498547
1789141057634158000,5.539157958984375,-5.689671776801347,-7.958076142990588,-0.6834077958524227,9.806372132319348,0.07384201560147415
1789141057644131000,5.549131103515625,-5.688863967549801,-7.957165457886457,-0.7005185781944543,9.806228194045978,0.09094091577046742
1789141057654103000,5.55910302734375,-5.687659852457046,-7.956634127488732,-0.7161539542216807,9.806070771029722,0.10655400355673153
1789141057664075300,5.5690751953125,-5.684607479149103,-7.957331462103128,-0.73246474529244,9.805881401347225,0.12280364645684314
1789141057674048300,5.57904833984375,-5.682827609995007,-7.957050307074189,-0.7491432006318122,9.805658139599256,0.1395106397186915
1789141057684020000,5.58902001953125,-5.680127703386545,-7.957261319476365,-0.7671538544230163,9.80538390513901,0.15757519605247008
1789141057693992200,5.5989921875,-5.678877995586395,-7.956480982753634,-0.7843048957102,9.80509205626673,0.174782308159668
1789141057703965200,5.608965087890625,-5.679365486842394,-7.954593561571836,-0.7997680569756775,9.804803522032328,0.19028374139097437
1789141057713937200,5.618937255859375,-5.681397869452834,-7.951572167924046,-0.8152263959355652,9.80448961376881,0.205813466170498
1789141057723909000,5.6289091796875,-5.684995017161965,-7.947513832443952,-0.8296038077909499,9.804173738311153,0.22037297691742846
1789141057733882000,5.638882080078125,-5.689631444790959,-7.943080233910679,-0.8402103958707302,9.80392126849147,0.23132412422063886
1789141057743854000,5.64885400390625,-5.695125366032123,-7.938292999634146,-0.8481926267962903,9.803715648961587,0.23987265229754293
1789141057753827000,5.6588271484375,-5.698814283677935,-7.934654935392737,-0.8574079797133803,9.803473288283364,0.24958588340427457
1789141057763799300,5.66879931640625,-5.700111337751149,-7.9323630250632755,-0.8699038156058638,9.803141167235168,0.26231341524016094
1789141057773771000,5.67877099609375,-5.698625483107566,-7.93187085763216,-0.8840128588486462,9.802757215167857,0.27629226185605893
1789141057783744000,5.688743896484375,-5.696578487449884,-7.931841631537675,-0.8973706453327089,9.802377113167047,0.289473898365217
1789141057793716200,5.69871630859375,-5.696236542144417,-7.930847359803319,-0.9082550274405627,9.802048192901417,0.3003814366264469
1789141057803688000,5.70868798828125,-5.69764933155179,-7.928691058552265,-0.9181637694492936,9.801732429054248,0.3105091046247153
1789141057813661200,5.7186611328125,-5.696302593117952,-7.928683459767699,-0.9265538505233823,9.801467038334565,0.31879550172004645
1789141057823633200,5.728633056640625,-5.698211057087779,-7.926419606488943,-0.9341555576987564,9.80120789821386,0.3266609422925495
1789141057833605000,5.738605224609375,-5.703968013179302,-7.921496178612113,-0.940760728117451,9.800958556424225,0.3340582673153814
1789141057843578000,5.748578125,-5.710549729657173,-7.915959002751111,-0.9474129525482654,9.80069196316099,0.34177989117525875
1789141057853550000,5.758550048828125,-5.715434579089283,-7.911502607864141,-0.9551495381496846,9.800386543216632,0.3504285745433749
1789141057863522000,5.76852197265625,-5.722791956114769,-7.905175158408284,-0.9634471186347304,9.800030251360667,0.36024919279391837
1789141057873495000,5.7784951171875,-5.72931638944745,-7.899429892754554,-0.971765376581624,9.799665039542536,0.3700702376928161
1789141057883467300,5.78846728515625,-5.732556978803872,-7.896330757695436,-0.97781788155362,9.799403679602582,0.37691415977292675
1789141057893439000,5.79843896484375,-5.731938554644584,-7.896318482735753,-0.9815355138372628,9.799266272248982,0.38047032144785176
1789141057903412200,5.808412109375,-5.733349005964398,-7.894621615689992,-0.9869315276619046,9.799041641048072,0.3862098346903571
1789141057913384200,5.81838427734375,-5.734877530705928,-7.892695616063476,-0.9934445628177374,9.798768853644624,0.3930972300327841
1789141057923357000,5.82835693359375,-5.734712111011147,-7.892190589150786,-0.9983970706585794,9.798570746541081,0.3979991550080545
1789141057933329200,5.8383291015625,-5.734143955734372,-7.892252548471093,-1.001165293262899,9.798463738400445,0.4006213993526083
1789141057943301000,5.848301025390625,-5.7390118540316815,-7.888763537311553,-1.0007665762688964,9.798428238426242,0.401478523610711
1789141057953274000,5.858274169921875,-5.746449310556054,-7.883521545004844,-0.9993986489165574,9.798398869891994,0.4022050165043119
1789141057963246000,5.86824609375,-5.754354384592175,-7.877941699045896,-0.9979122828163206,9.798358918397991,0.40317642228623535
1789141057973218300,5.87821826171875,-5.763143255725503,-7.871435970413684,-0.9985299763232468,9.798210366910729,0.4067679211982972
1789141057983191000,5.88819091796875,-5.770464392393827,-7.865924513515829,-0.9996841147944332,9.798051532634057,0.41058768787436867
1789141057993163000,5.8981630859375,-5.774020623570681,-7.863170830893516,-1.000810050084442,9.79794740327139,0.41305824808566777
1789141058003135200,5.90813525390625,-5.774855905351043,-7.862525518727302,-1.0010655592154711,9.797923581580578,0.4136351091969959
1789141058013108000,5.91810791015625,-5.77346065160036,-7.863677611371874,-1.0000615698046982,9.797987712618276,0.4121084783772539
1789141058023080200,5.928080078125,-5.770781787779927,-7.866051354765892,-0.9968456034328788,9.798162088211939,0.40793039626450445
1789141058033052200,5.93805224609375,-5.7699827463567255,-7.867288203084469,-0.991695600258559,9.79838297200923,0.4025864640770785
1789141058043025000,5.94802490234375,-5.770604677647352,-7.867779785993695,-0.9841480344232172,9.798673514083347,0.39545141880775064
1789141058052997000,5.9579970703125,-5.7736628961741925,-7.866492668792605,-0.9764650056399404,9.798923861790664,0.3891853091976995
1789141058062969000,5.967968994140625,-5.777617186757922,-7.864505294367671,-0.9690622551027684,9.799142555966352,0.3836544069494415
1789141058072942000,5.977942138671875,-5.781759108868241,-7.862419135743379,-0.961259034005925,9.799364925028868,0.37794054513440345
1789141058082914000,5.9879140625,-5.786320717695356,-7.859985771116614,-0.9536831188589334,9.799562821018958,0.3727784573786632
1789141058092887000,5.997886962890625,-5.790559085917472,-7.857741791582107,-0.9464175848353652,9.799746379556133,0.36790995085675904
1789141058102859300,6.007859375,-5.792107484403252,-7.857424396196007,-0.9395609238736332,9.799960128061993,0.36219258810989446
1789141058112831200,6.017831298828125,-5.793022261160612,-7.857458298465609,-0.9336066185791044,9.80014786010748,0.35704491134025607
1789141058122804200,6.02780419921875,-5.791281554973125,-7.859539780914783,-0.9268602130588144,9.800409363450562,0.34979105205234434
1789141058132776200,6.037776123046875,-5.786204982361197,-7.864385467380285,-0.9174213535841554,9.80081391205344,0.33828313401006377
1789141058142748400,6.04774853515625,-5.783531379237771,-7.86765820544064,-0.9061485566806048,9.801220421512946,0.3262886880621373
1789141058152721200,6.05772119140625,-5.783014077365398,-7.869510555309056,-0.8932786998439579,9.801624481478525,0.3139308184978439
1789141058162693400,6.067693359375,-5.781861400198936,-7.871838705995678,-0.8801235963251441,9.802028768103263,0.3010239831083933
1789141058172665300,6.077665283203125,-5.780988709017634,-7.873900899222493,-0.8673214709624648,9.802401369782197,0.2886515966536977
1789141058182638000,6.08763818359375,-5.781061189731955,-7.875293230363726,-0.8540922062288969,9.802751482324663,0.2764937904552746
1789141058192610300,6.0976103515625,-5.78084667019844,-7.876744013693928,-0.8420753860250115,9.803058032879072,0.2653839508368825
1789141058202582300,6.107582275390625,-5.778537808734178,-7.879633305394649,-0.8308266275841742,9.803366122881801,0.2537829393228091
1789141058212555300,6.11755517578125,-5.776354034954309,-7.882516167354583,-0.8185730760149658,9.803679040670533,0.24138395562509474
1789141058222527200,6.12752734375,-5.773537808489799,-7.885708825916051,-0.8076174553018063,9.803957515122935,0.22979449289352566
1789141058232500200,6.137500244140625,-5.7723003756493325,-7.888038730168343,-0.7935890030145645,9.804259747990635,0.21652005679259556
1789141058242472200,6.14747216796875,-5.771193875712156,-7.890249391955137,-0.7795308131761849,9.804539213918757,0.20345345837904583
1789141058252444200,6.157444091796875,-5.76958293338418,-7.892790893131494,-0.7656086708076297,9.80480330311987,0.19032638241439817
1789141058262417400,6.16741748046875,-5.766398458129167,-7.896364075443148,-0.7526368149012327,9.805051875578883,0.1770216998428276
1789141058272389000,6.17738916015625,-5.767237247040868,-7.89684689052403,-0.7410593359626829,9.805210410008348,0.1680298512643489
1789141058282361300,6.187361328125,-5.766041899776458,-7.89859811810553,-0.7316344319481403,9.805353356498554,0.15945506430504347
1789141058292334300,6.197334228515625,-5.762348890477418,-7.902388742560148,-0.7196988602869212,9.805548065884228,0.14699031008899657
1789141058302306000,6.20730615234375,-5.758643021696805,-7.905935036864876,-0.7103581274244933,9.805698256140118,0.1366332214126418
1789141058312278300,6.2172783203125,-5.755381389552355,-7.909215373709797,-0.7001942416109145,9.805838868306747,0.1260905695232943
1789141058322251300,6.227251220703125,-5.747988941213488,-7.915562696909904,-0.6891122911043465,9.806017775956756,0.11135889903973237
1789141058332223200,6.23722314453125,-5.742244260081648,-7.9207544203341,-0.677254533919692,9.806165453487804,0.09753221119144642
1789141058342195200,6.2471953125,-5.737085854405164,-7.925456314414739,-0.6658659286167472,9.806284471658072,0.08470058041520061
1789141058352168400,6.25716845703125,-5.732742856764793,-7.929463211968541,-0.6554834316164255,9.806374472291928,0.07352367003243168
1789141058362140200,6.26714013671875,-5.732753378158807,-7.930129566922783,-0.6472866080921142,9.80641198696005,0.06841153408425805
1789141058372112400,6.2771123046875,-5.731265769949555,-7.931824095880985,-0.6396361664041876,9.806449745729086,0.06259891097961916
1789141058382085400,6.28708544921875,-5.730494201055169,-7.933166742661595,-0.629841479229182,9.806483601616833,0.05725395511769767
1789141058392057000,6.29705712890625,-5.73334549883306,-7.931915281295776,-0.6195537478402257,9.806480890759598,0.057532810399502345
1789141058402030300,6.3070302734375,-5.734974561339617,-7.931519559976458,-0.6094615755559876,9.806476554926437,0.058281551617479985
1789141058412002300,6.317002197265625,-5.731879517933726,-7.934605251032114,-0.5983103226728737,9.806494268963114,0.05521496921195187
1789141058421974300,6.326974365234375,-5.72996988492012,-7.936558138665556,-0.5906476060252637,9.806496352876806,0.05480735376971947
1789141058431947300,6.336947265625,-5.729209421941638,-7.937588066235184,-0.5841552483312785,9.806488045154056,0.05634256035717433
1789141058441919200,6.346919189453125,-5.723782720717788,-7.941917035350203,-0.5784996702549978,9.806505138971671,0.05341964227312427
1789141058451891200,6.35689111328125,-5.71902178992629,-7.945855543842911,-0.571458081180416,9.806505001342515,0.05342803067161518
1789141058461864200,6.3668642578125,-5.714895065385103,-7.949341632393002,-0.5642093886937946,9.806492326378995,0.05566402626216293
1789141058471836400,6.37683642578125,-5.714612156790494,-7.950182174870371,-0.5551596746671944,9.806448093924669,0.06298223322591814
1789141058481808100,6.38680810546875,-5.712954452711344,-7.951939832192659,-0.5469821038326248,9.806405690274543,0.06922812456515826
1789141058491781000,6.396781005859375,-5.711750922140479,-7.953263189750909,-0.5402811083566397,9.806365776570502,0.07475221851753772
1789141058501753300,6.40675341796875,-5.713946970880032,-7.95191820488274,-0.5368311505658552,9.80633237724353,0.07890573120963905
1789141058511725300,6.416725341796875,-5.714212928339839,-7.951917035838961,-0.534003087533079,9.806309772891975,0.08162028455126209
1789141058521698300,6.4266982421875,-5.713809023714065,-7.952336722555756,-0.5320937833130359,9.806297652713074,0.08320486175422352
1789141058531670300,6.436670166015625,-5.714647812625765,-7.951848646777868,-0.5303745948376134,9.806280756080401,0.08515554819157109
1789141058541642200,6.446642333984375,-5.715446269527077,-7.951506116950512,-0.5268931093974039,9.806249074409136,0.08871880935176445
1789141058551615200,6.456615234375,-5.715069252908229,-7.951989516553282,-0.5236720649916679,9.806222710276984,0.09155558426906397
1789141058561587500,6.46658740234375,-5.715734438818693,-7.951666860470175,-0.5212960931079462,9.806198639406666,0.09404199161056315
1789141058571560200,6.476560302734375,-5.715688261589408,-7.951783764848113,-0.5200302013579756,9.806188076133148,0.09520594730075566
1789141058581532200,6.4865322265625,-5.717877296066284,-7.950213154530525,-0.5199855219660326,9.806179149632484,0.09615302235425041
1789141058591504400,6.49650439453125,-5.719843043181299,-7.948696320226788,-0.5215366969307884,9.806183662750968,0.09560401904655115
1789141058601477000,6.50647705078125,-5.72161531355083,-7.947240276199579,-0.5242889547809958,9.806200047760866,0.0939645428246636
1789141058611449300,6.516449462890625,-5.723705563828349,-7.945445209476351,-0.5286660008214413,9.806226541652977,0.09117956128166069
1789141058621421300,6.52642138671875,-5.7256561133742325,-7.943764124521612,-0.5327800485441461,9.806248236318506,0.08874966187659998
1789141058631394000,6.53639404296875,-5.729161491146684,-7.940921010050177,-0.5374636397831142,9.806263255849451,0.0870976495678652
1789141058641366300,6.5463662109375,-5.731719943457842,-7.938866415607928,-0.5405338775413111,9.806269210528452,0.08645529776350962
1789141058651338200,6.556338134765625,-5.7322880987346165,-7.9382602664083235,-0.5434103462930768,9.806285294215979,0.0846548110474335
1789141058661311200,6.566311279296875,-5.734500514087081,-7.936224376666545,-0.5497554410034791,9.806309442762174,0.08172919042556684
1789141058671283200,6.576283203125,-5.73778494258523,-7.933364311060309,-0.556734668898955,9.80632533551718,0.07988895362374109
1789141058681255400,6.58625537109375,-5.739800958582759,-7.931548786070943,-0.5617869107872248,9.806334154725805,0.07871574785878378
1789141058691228200,6.596228271484375,-5.741391442644596,-7.93007871351838,-0.566275089051947,9.806341686440211,0.07780941803944663
1789141058701200100,6.6062001953125,-5.745043535411358,-7.927063749611377,-0.571428964683786,9.806331463072372,0.07911518318912465
1789141058711172400,6.61617236328125,-5.747597311547398,-7.924870038959384,-0.5761544953683391,9.806324666095346,0.07994082665408361
1789141058721145000,6.62614501953125,-5.746435866552591,-7.9252318580090995,-0.5827186761895194,9.806353232813757,0.07630531087430836
1789141058731117300,6.636117431640625,-5.7452732525140044,-7.925428841885924,-0.5914327650535851,9.806380956346956,0.0726108010201141
1789141058741090300,6.64609033203125,-5.746701824012399,-7.923584090802073,-0.6021688977971673,9.806378867187295,0.07285322762806394
1789141058751062300,6.656062255859375,-5.74835835904777,-7.921714789798855,-0.6108978189041838,9.80636420333893,0.07487517323527622
1789141058761034200,6.6660341796875,-5.75013121393919,-7.9199723300457,-0.6167819450393319,9.806343085127667,0.07762699725327847
1789141058771007200,6.67600732421875,-5.7534688339293,-7.916929893609881,-0.6246699218101799,9.80629821972297,0.08312821664118673
1789141058780979200,6.685979248046875,-5.756470353832841,-7.91417153481245,-0.6319186508294194,9.806249406801266,0.08863278100069487
1789141058790951200,6.695951171875,-5.759797452428937,-7.911211515963077,-0.6386339305590838,9.806192442258098,0.09474927954969073
1789141058800924400,6.70592431640625,-5.760860697746277,-7.909760732632875,-0.6469566454853862,9.806148361579767,0.09918688503428963
1789141058810896100,6.715896240234375,-5.759497592699527,-7.910011492523551,-0.6559736993514002,9.806122329109261,0.10178748917130795
1789141058820868400,6.725868408203125,-5.759153309306502,-7.909436322984098,-0.665843643719703,9.806069373263208,0.10668173258565186
1789141058830841300,6.73584130859375,-5.758938789772987,-7.9087243753224605,-0.6760803025085479,9.806003388117519,0.11260265023245679
1789141058840813000,6.74581298828125,-5.755811597663164,-7.910075789931416,-0.6868145355559885,9.805955046395164,0.11673039270510735
1789141058850785300,6.755785400390625,-5.752554057171941,-7.911473381769657,-0.6979184056334197,9.805891604562053,0.1219392948826098
1789141058860758300,6.76575830078125,-5.750349240604042,-7.912132722461223,-0.7085339076720177,9.805808693500275,0.12843975845704356
1789141058870730200,6.775730224609375,-5.749290671461821,-7.912092974972724,-0.7175066109396517,9.80572056004528,0.13497594088571763
1789141058880703200,6.785703125,-5.749650152423977,-7.911004010692238,-0.7265856971912086,9.805609247737749,0.14288242894250341
1789141058890675200,6.79567529296875,-5.751126654717326,-7.909074503934383,-0.7358459852285683,9.805474317396085,0.15185530036112221
1789141058900647200,6.805647216796875,-5.752292191365361,-7.907385235673189,-0.7448401696756481,9.805337617710805,0.16046121417045484
1789141058910620200,6.8156201171875,-5.755976432836055,-7.9038535544157025,-0.7538125806823373,9.805163844235663,0.17076621300032702
1789141058920592400,6.82559228515625,-5.758810194957256,-7.900785399016738,-0.7642542605239897,9.804964701557262,0.18181462758774414
1789141058930564000,6.835564208984375,-5.759603975683451,-7.899333446642756,-0.7732268176611512,9.804803807969654,0.19028624945508904
1789141058940537000,6.845537109375,-5.759890391409397,-7.89818719921708,-0.7827423956338315,9.804630740540969,0.19899762432871554
1789141058950509300,6.85550927734375,-5.76188010392189,-7.895785983294248,-0.7922663761086761,9.804426713459012,0.2088096192241411
1789141058960481300,6.865481201171875,-5.76107813988924,-7.895574386370182,-0.8001666278392076,9.804281113513401,0.21553353364735012
1789141058970454300,6.875454345703125,-5.757884896805882,-7.897076023104787,-0.8082944047152996,9.804154362385152,0.221235808087339
1789141058980426200,6.88542626953125,-5.756785411131382,-7.897038613703846,-0.8164561569262295,9.803993956732523,0.22825487657344748
1789141058990398200,6.895398193359375,-5.757195160976052,-7.89609928702712,-0.8226252009499817,9.803852340155517,0.23424684805020274
1789141059000371200,6.90537109375,-5.7565112703651184,-7.896011024221777,-0.8282368302866816,9.803733047803398,0.23917916908311618
1789141059010343400,6.915343505859375,-5.757568085941672,-7.894598234814405,-0.834342526750639,9.803578201509774,0.24546578624270726
1789141059020315100,6.925315185546875,-5.760335797089338,-7.891970808920264,-0.8400614889193325,9.803404985280082,0.25224143955625017
1789141059030288100,6.9352880859375,-5.762018635609746,-7.890287385877967,-0.8443291563011706,9.803279069744118,0.25710891419022863
1789141059040260400,6.94526025390625,-5.762133201900125,-7.88962862970829,-0.8496825730931014,9.803143416894049,0.26221856146631484
1789141059050232000,6.955232177734375,-5.762417279538512,-7.888890378561616,-0.8545932145535945,9.80301396608807,0.267003841787628
1789141059060205300,6.965205322265625,-5.762485084077715,-7.88847069184482,-0.8580055802803486,9.802924645640672,0.27027054592715616
1789141059070177300,6.97517724609375,-5.762250106278062,-7.88841691583097,-0.8600760298788547,9.80287346494638,0.27212190777673495
1789141059080150300,6.985150390625,-5.762682652476429,-7.888058019390701,-0.8604781078737228,9.80285782517534,0.2727117598403417
1789141059090122200,6.995122314453125,-5.761006243696809,-7.88940300425887,-0.8593628401082009,9.802908649117944,0.2708490567270225
1789141059100094000,7.005093994140625,-5.761428853023052,-7.88921771081984,-0.8582328862302004,9.80293296461671,0.2699768423365102
1789141059110067200,7.015067138671875,-5.76242020214796,-7.888474198976159,-0.8584219790615141,9.802915764089352,0.2706336829366023
1789141059120039200,7.0250390625,-5.763700305086374,-7.887795569062233,-0.8560572226915508,9.802959886745896,0.26901965270920747
1789141059130011100,7.03501123046875,-5.762426047366858,-7.888961105710267,-0.8538986564181744,9.80303329859461,0.26635003446486805
1789141059139984100,7.044984130859375,-5.765266823750734,-7.88723968874514,-0.8506142279200255,9.80307836315177,0.2646707906116657
1789141059149956400,7.054956298828125,-5.766594857484102,-7.886750443923473,-0.8461345252227037,9.803172565111447,0.26115150489566025
1789141059159928000,7.064927978515625,-5.768012323066592,-7.886162999424338,-0.8419300592701882,9.803255991828976,0.25797518467764274
1789141059169901000,7.074901123046875,-5.76794218043983,-7.886753366532921,-0.8368674421183765,9.803379947570813,0.25322792235367175
1789141059179873300,7.084873291015625,-5.767002269241213,-7.888254418745636,-0.8291577445238828,9.803574519635397,0.245564964017405
1789141059189845000,7.094844970703125,-5.767955624443292,-7.888357879120111,-0.821505841531232,9.803735535601522,0.23904708799143254
1789141059199818200,7.104818359375,-5.767253613653779,-7.890047147381305,-0.8101388635382055,9.803993483047126,0.228243279609406
1789141059209790200,7.114790283203125,-5.76486408816874,-7.892808428788185,-0.8001828483216464,9.804231220674744,0.21777422001268482
1789141059219762200,7.12476220703125,-5.763019337084889,-7.895094493898749,-0.7908744102936237,9.804439196774808,0.2082386054690837
1789141059229735200,7.134735107421875,-5.760417630153894,-7.897965080899,-0.7811017157547175,9.804654060594862,0.19784421978769146
1789141059239707100,7.14470703125,-5.753772785311937,-7.903746002388,-0.7715436868797987,9.804901285149624,0.1851825707130071
1789141059249679000,7.15467919921875,-5.7499657942444085,-7.907516753098368,-0.7612174501113593,9.805113844930828,0.17355785724620656
1789141059259652000,7.164652099609375,-5.744978653481603,-7.912156103336811,-0.7505985140066593,9.805329264170998,0.16096609254763425
1789141059269624300,7.174624267578125,-5.741109703093767,-7.91629744092524,-0.7364063225250691,9.805566439920607,0.14583161630617134
1789141059279597000,7.18459716796875,-5.737135538765788,-7.920524703231454,-0.7217786622356623,9.805785300927786,0.13028750529643462
1789141059289569000,7.194569091796875,-5.737590881317853,-7.921753952765465,-0.7044432042922825,9.80596959765363,0.1154785153319961
1789141059299541200,7.204541259765625,-5.732920551419258,-7.92644357188642,-0.6895561624143273,9.806144117215023,0.09955400904825074
1789141059309514000,7.214513916015625,-5.730496539142727,-7.929562580689788,-0.6736656425822526,9.806283296440512,0.0847739001697077
1789141059319486200,7.224486328125,-5.72215599629879,-7.936679134696721,-0.6606310236379503,9.806415688255784,0.06774682008932503
1789141059329458200,7.234458251953125,-5.718327962443232,-7.94114020575881,-0.6398440370012074,9.806526107317142,0.04928033860006736
1789141059339431200,7.24443115234375,-5.711547508522868,-7.94772250675857,-0.6183274939808994,9.806601793676037,0.030953782210046788
1789141059349403100,7.254403076171875,-5.706362799361348,-7.953251499313116,-0.5946367852592841,9.80661218764166,0.02713147329123933
1789141059359375400,7.264375244140625,-5.699632614323496,-7.95954680006504,-0.5746181891791522,9.806577082796938,0.03780453918658628
1789141059369348000,7.27434814453125,-5.698062588527798,-7.962133893948793,-0.5539764927646145,9.80648398313987,0.05705480615372991
1789141059379320000,7.284320068359375,-5.693026347926259,-7.966815914285182,-0.5382125584542751,9.806385568696136,0.07196976056851763
1789141059389292300,7.294292236328125,-5.690004954278469,-7.970105018958449,-0.5212026426708325,9.80624681615534,0.08891551220382499
1789141059399265000,7.30426513671875,-5.693614961469173,-7.96862910118699,-0.5040674565399065,9.806075915397717,0.1061142023916477
1789141059409237200,7.3142373046875,-5.7070092805713415,-7.9605591919779775,-0.4795097922580316,9.805762009548015,0.13197965937475362
1789141059419209200,7.324209228515625,-5.725648514589667,-7.948927206373214,-0.449310724555701,9.80524582484988,0.16591891485868493
1789141059429182000,7.334181884765625,-5.743600350865721,-7.937313340947031,-0.4248526116581633,9.804702767837725,0.19542630024793117
1789141059439154200,7.344154296875,-5.754368997639418,-7.9305229501545424,-0.4054899952687323,9.804228457824575,0.21790664736842397
1789141059449127200,7.354127197265625,-5.751825742897391,-7.932949885040522,-0.3939257046053185,9.804005427600252,0.22770219927596402
1789141059459099100,7.36409912109375,-5.757264134559035,-7.929480163103341,-0.3842398480996489,9.80373881346215,0.23893829833777605
1789141059469071000,7.374071044921875,-5.751666168421506,-7.934245770069956,-0.3694231680441647,9.803441423685374,0.2508572946815997
1789141059479044000,7.384044189453125,-5.741465092402696,-7.942739457648992,-0.3447628836380317,9.802890223854623,0.27154411126510597
1789141059489016000,7.39401611328125,-5.733954570642114,-7.949204269748925,-0.3198482956772669,9.80223570054251,0.29421377200878707
1789141059498988000,7.403988037109375,-5.727605493876338,-7.954879392775893,-0.2912549461385235,9.801384542317056,0.3213430322434338
1789141059508961300,7.413961181640625,-5.724067382878065,-7.95839061576724,-0.2635295750733464,9.800460027379826,0.34836717056742944
1789141059518933000,7.42393310546875,-5.726043066865206,-7.957696203762293,-0.2405915296162478,9.799615104933242,0.3713841060885997
1789141059528905200,7.4339052734375,-5.731168739315868,-7.9545204963356255,-0.2229192044013179,9.79890918199368,0.3895680426649876
1789141059538878200,7.443878173828125,-5.736284474894404,-7.951309133073687,-0.2051814127347432,9.798164462290622,0.40785915295914105
1789141059548850200,7.45385009765625,-5.741431774654984,-7.947969174996018,-0.1901037436555139,9.79749905537437,0.4235617109642116
1789141059558822100,7.463822265625,-5.748218073794245,-7.943479462361335,-0.171810692726355,9.796650340839273,0.44276179410604116
1789141059568795100,7.473795166015625,-5.755569605600834,-7.938616240239143,-0.1489128879480995,9.795539649996122,0.466676877781261
1789141059578767000,7.48376708984375,-5.758571710026264,-7.936842216303944,-0.1256040912161581,9.794390046568687,0.4902167983920653
1789141059588739000,7.493739013671875,-5.755359177720546,-7.939512896817922,-0.101815073219221,9.793216463631893,0.5131295244809871
1789141059598712300,7.50371240234375,-5.752192822644115,-7.942062581300735,-0.0794038281152024,9.792057079445154,0.5347928898023128
1789141059608684000,7.51368408203125,-5.754722633382678,-7.94043118070662,-0.0557656304655363,9.790728914717372,0.558584860843154
1789141059618657000,7.523656982421875,-5.756123732352257,-7.939541538390516,-0.0332098760240245,9.789415947864724,0.5811355758638848
1789141059628629200,7.533629150390625,-5.761060604232549,-7.936023301136493,-0.009428491631805,9.787942323438287,0.6054412368856509
1789141059638601000,7.54360107421875,-5.774778748461604,-7.926047850567102,0.0093843408211803,9.78662576811508,0.626377093995064
1789141059648574200,7.55357421875,-5.786584337067604,-7.917397511121631,0.0254701143681188,9.785445925049412,0.6445451215941831
1789141059658546200,7.563546142578125,-5.79261426488161,-7.912924749621748,0.0403643645882839,9.784383704935287,0.6604717339990689
1789141059668518100,7.57351806640625,-5.788499230778217,-7.915839175763725,0.0561841344388201,9.78338035835371,0.6751730311684582
1789141059678491100,7.5834912109375,-5.779716204863786,-7.922125124165415,0.0721998241536784,9.782396035801906,0.689294207891607
1789141059688463000,7.593463134765625,-5.765586557224393,-7.932226831462978,0.0904538582467008,9.781270943652004,0.7050755150822952
1789141059698435000,7.60343505859375,-5.753949310922622,-7.940465082976222,0.1071037816113326,9.780177559254856,0.7200809233097689
1789141059708408000,7.613407958984375,-5.744671779489517,-7.946932817685604,0.1240905265817418,9.77899369284864,0.7359863292789637
1789141059718380300,7.62338037109375,-5.741555108773708,-7.948935389679669,0.1391459016307722,9.777876260402785,0.7506838979088551
1789141059728352000,7.63335205078125,-5.744354968625307,-7.946677381619811,0.1519870620958972,9.776867322233617,0.7637151586835929
1789141059738325000,7.643324951171875,-5.749542600396275,-7.942662300759554,0.1650989383943379,9.775799206190056,0.7772593372815644
1789141059748297200,7.653297119140625,-5.753016413986683,-7.939873546823859,0.1777136148935184,9.77476413154616,0.7901633379945007
1789141059758269200,7.663269287109375,-5.753268927443028,-7.939501206380128,0.1859955776843242,9.774093014690125,0.7984252330035504
1789141059768242200,7.6732421875,-5.750193173259496,-7.941563984128832,0.1929380902986042,9.773552830688132,0.8050156621137035
1789141059778214100,7.683214111328125,-5.745708136799931,-7.944652013272046,0.1993447972694411,9.77306138842093,0.8109667389177329
1789141059788187100,7.693187255859375,-5.741276876354217,-7.9476658081352705,0.2067254273063503,9.772480260355541,0.8179345524052308
1789141059798159000,7.7031591796875,-5.738103507015109,-7.949695852658152,0.2165172101382166,9.771679651146933,0.8274373116051063
1789141059808131300,7.71313134765625,-5.736923941841721,-7.95018392843604,0.229467365669459,9.77058648075376,0.8402475257080919
1789141059818104000,7.72310400390625,-5.735384895706177,-7.9508608047842975,0.2440471682291477,9.769336810931417,0.8546605957049677
1789141059828076000,7.733075927734375,-5.734639630296826,-7.951050774398445,0.2551258125337772,9.768369792909521,0.8656447745044371
1789141059838048300,7.74304833984375,-5.735288449594378,-7.950348179087042,0.2623134042166173,9.767728342220494,0.8728465634792314
1789141059848021000,7.75302099609375,-5.735449193114042,-7.950154702341556,0.2646636388708837,9.767518233981676,0.8751980510329734
1789141059857993200,7.7629931640625,-5.732807738694548,-7.952004129600525,0.2663526514037512,9.767383403343258,0.8767094347754945
1789141059867965200,7.772965087890625,-5.730802244091033,-7.953444976058602,0.2664823787306435,9.767382529321246,0.876717019427979
1789141059877938000,7.78293798828125,-5.729330417972803,-7.954433987095951,0.2685612308313138,9.767202930466425,0.878703102970108
1789141059887910100,7.79291015625,-5.7278796346426,-7.955372144728899,0.2717097945227287,9.766927694552674,0.8817599967686808
1789141059897882000,7.802882080078125,-5.726625250667333,-7.956165340933203,0.2749276240580715,9.766644311713526,0.8848998704890295
1789141059907855000,7.812855224609375,-5.726302594584226,-7.956371677160263,0.2756906808524392,9.766577314694027,0.8856435950612009
1789141059917827000,7.8228271484375,-5.727260625961423,-7.955671419936418,0.2760008245138451,9.766544872215528,0.8860021071160425
1789141059927799300,7.83279931640625,-5.73155569280684,-7.9526435965478415,0.2741048546994105,9.766694473723822,0.8843547714363332
1789141059937772000,7.84277197265625,-5.733993733608722,-7.950990568643808,0.2710208076115697,9.766957625949713,0.8814341556735997
1789141059947744300,7.852744140625,-5.735180313044786,-7.950286219766736,0.2665310219116509,9.767352965380239,0.8770399276364035
1789141059957716200,7.86271630859375,-5.73683217190504,-7.949304807513951,0.2602035176568664,9.76790741488762,0.8708506738549301
1789141059967689000,7.87268896484375,-5.737426630666851,-7.949093795111775,0.2534305711895227,9.768502064538858,0.8641475425430616
1789141059977661200,7.8826611328125,-5.732654593959451,-7.952725429612397,0.2474079864317551,9.769058809873009,0.8578293148644653
1789141059987634200,7.89263427734375,-5.729125835311413,-7.955405462476611,0.2429493630550801,9.769466406606455,0.8531760852439432
1789141059997606100,7.902606201171875,-5.724183118212223,-7.959063400462269,0.2396311053525656,9.769777318857683,0.8496097868964814
1789141060007578000,7.912578125,-5.717621275478601,-7.96389213579297,0.235835932586994,9.770129826086531,0.8455487974470537
1789141060017551000,7.922551025390625,-5.712032077169418,-7.968052178081869,0.2306964690729975,9.770586909100007,0.8402489368121087
1789141060027523000,7.932523193359375,-5.709015944218635,-7.9703657157212495,0.2253479111192747,9.771049482545935,0.8348451259796065
1789141060037495000,7.9424951171875,-5.706137173911928,-7.972544813326,0.2211689266678877,9.771409776707316,0.8306256183040691
1789141060047468300,7.95246826171875,-5.707521906268596,-7.971661016228794,0.2172590049488469,9.771738215256214,0.826752318370184
1789141060057440000,7.96243994140625,-5.7087458951056,-7.970915750819445,0.2123771511914208,9.772146403009536,0.821910173949974
1789141060067412200,7.972412109375,-5.708797333031892,-7.971025056412816,0.206803661908023,9.772611687660355,0.8163553125788788
1789141060077385200,7.98238525390625,-5.706894129759073,-7.972557672807574,0.2001795675931498,9.773164764641622,0.8097152567234434
1789141060087357200,7.992357177734375,-5.703385244855284,-7.975220170015096,0.1940260499320924,9.773675065705364,0.8035308516230643
1789141060097329200,8.0023291015625,-5.698642434242368,-7.978819071289896,0.1852088842860423,9.774395995085651,0.7947104049898928
1789141060107302100,8.01230224609375,-5.693952815121412,-7.982304575318097,0.1791932407257147,9.77488141373037,0.7887259086676385
1789141060117274400,8.0222744140625,-5.690497121709585,-7.984903359639644,0.1730381156294606,9.775370913479437,0.7826268896034305
1789141060127246000,8.03224609375,-5.690753726819158,-7.984818019443749,0.1684979879817925,9.775732813760222,0.7780978787179
1789141060137219000,8.042218994140624,-5.6931812462270255,-7.983183696240186,0.163814926465787,9.776104514590617,0.7734018879212505
1789141060147191300,8.05219140625,-5.691959010955691,-7.98420251789391,0.1565478763385675,9.776675196160781,0.7661700695692947
1789141060157163300,8.062163330078125,-5.694830182477832,-7.982332047846913,0.1472388903212733,9.777400123203936,0.7568631652677159
1789141060167136300,8.07213623046875,-5.695495368388295,-7.982060245168209,0.1357829919357784,9.778277692651741,0.7454365399654201
1789141060177108200,8.082108154296876,-5.697545871177315,-7.980793586233258,0.1236116844230797,9.779195134440803,0.7332922959412471
1789141060187081200,8.092081298828125,-5.696959595721959,-7.98138687595129,0.1118215399813838,9.780070351204499,0.7215352251903665
1789141060197053200,8.10205322265625,-5.696973624247312,-7.981527745726704,0.100420632319292,9.780902039519734,0.7101642259990739
1789141060207025400,8.112025390625,-5.697218538919091,-7.981475138756632,0.0902916260228492,9.78163137238963,0.7000605282447976
1789141060216998100,8.121998046875,-5.696043065398931,-7.982407451170682,0.0815370224853046,9.782251432076615,0.691332427313542
1789141060226970000,8.13197021484375,-5.697112155935168,-7.981765646135806,0.0687507203128421,9.783145470804996,0.6785728448362691
1789141060236942300,8.1419423828125,-5.698286460411548,-7.981038500905036,0.0542227895042859,9.78413954144727,0.6640765635284095
1789141060246915000,8.1519150390625,-5.697101050019264,-7.981961460968852,0.0414131521220086,9.78499846226098,0.6512981508046349
1789141060256887300,8.16188720703125,-5.696092749759554,-7.982741213169693,0.0274447069432935,9.785915858668778,0.6373648164869128
1789141060266859300,8.171859375,-5.696977131378651,-7.982147923451661,0.0121338638624292,9.786899202353503,0.622081297693151
1789141060276832000,8.18183203125,-5.696533479264378,-7.982474086666107,-0.0025338772756163,9.787819147311364,0.6074446351190375
1789141060286804200,8.19180419921875,-5.695814517340064,-7.98297151479423,-0.0161585037105425,9.788653648686063,0.5938502043992998
1789141060296776200,8.201776123046875,-5.699876359951496,-7.980030200645327,-0.0300281247323495,9.789483007389268,0.5799971191800023
1789141060306749200,8.211749267578124,-5.702772081393003,-7.977888512441515,-0.0454448644566582,9.79038177324718,0.5646277526270158
1789141060316721200,8.22172119140625,-5.704494667401909,-7.976563401317596,-0.0596110812467755,9.791185635095637,0.550509260376612
1789141060326693400,8.231693359375,-5.705438670253753,-7.975760852763056,-0.0748177013347623,9.79202710353088,0.5353452088552096
1789141060336666000,8.241666015625,-5.706493147742748,-7.974851336702704,-0.0898075140340253,9.792832274473119,0.5204030374223756
1789141060346638000,8.25163818359375,-5.707769159027934,-7.973753604593872,-0.1048803973402827,9.793618217331575,0.505388395614252
1789141060356610300,8.2616103515625,-5.707359409183264,-7.973861741143464,-0.1181917873993515,9.79429636728231,0.4920878589371939
1789141060366583000,8.2715830078125,-5.704180194625258,-7.975924518892168,-0.1317170850705821,9.79496926471857,0.47850822097257845
1789141060376555300,8.28155517578125,-5.702896000033617,-7.976604902371764,-0.1453812797558493,9.79562701191007,0.4648394516194781
1789141060386527200,8.29152734375,-5.702542948812246,-7.97661308567822,-0.1581869122498668,9.796225400373533,0.4520435885452168
1789141060396500200,8.301500244140625,-5.6995203861206765,-7.978507521122694,-0.171068678720016,9.796812388060005,0.4391428268907303
1789141060406472200,8.31147216796875,-5.697468714287877,-7.979674811336397,-0.1844530792163685,9.797403105850421,0.42576421276406806
1789141060416445200,8.321445068359376,-5.698440189668536,-7.978669433686137,-0.1974820356048643,9.797960309309573,0.4127462402589573
1789141060426417200,8.331417236328125,-5.698146759679913,-7.978518627038597,-0.2115472214396111,9.798542479784398,0.3986896984021198
1789141060436389000,8.34138916015625,-5.697328429034352,-7.978739576312899,-0.2248581548409536,9.799075266736645,0.3853849523961235
1789141060446362400,8.3513623046875,-5.697281667283177,-7.978444977280497,-0.2362016058279201,9.799514412576364,0.37404695982880365
1789141060456334000,8.361333984375,-5.698680428165197,-7.977108175718784,-0.2473181161912158,9.799931277821518,0.3629416895926781
1789141060466306300,8.371306396484375,-5.699131094542145,-7.976355311524868,-0.2608413041037507,9.800422270503713,0.34942924063320974
1789141060476279300,8.381279296875,-5.696947905284166,-7.977467072159051,-0.274188916253671,9.800889318865208,0.33607208163392865
1789141060486251000,8.3912509765625,-5.694787512379884,-7.978507521122694,-0.2884593240706249,9.801369062669782,0.32180794699977494
1789141060496223200,8.40122314453125,-5.691853212493657,-7.980102681359648,-0.3019221052991226,9.801800291685698,0.308382550083869
1789141060506196200,8.4111962890625,-5.688235606518387,-7.982261905220151,-0.3128183970404788,9.802133748544426,0.2975882456781301
1789141060516168200,8.421168212890626,-5.686128989627957,-7.983360221850871,-0.322920652327314,9.802432427795855,0.28757532007108105
1789141060526140200,8.43114013671875,-5.686302008107305,-7.982835905715823,-0.3327047815756872,9.802715463221467,0.2777798477085485
1789141060536113200,8.441113037109375,-5.686126067018509,-7.982636583751439,-0.3403997930577024,9.802930146512486,0.2700907995186309
1789141060546085000,8.451085205078124,-5.68714839580357,-7.981451757881045,-0.3509234886270016,9.80321526023961,0.25951280420994033
1789141060556057000,8.46105712890625,-5.68843551300466,-7.980012080466746,-0.3626360286546871,9.80352088602686,0.2477388070556336
1789141060566030300,8.4710302734375,-5.686639277237654,-7.980673759245872,-0.3759947284542024,9.803847466719558,0.23445000759106832
1789141060576002000,8.481001953125,-5.685362681430578,-7.98095725236237,-0.3890413666298613,9.804148833142344,0.22146405121788668
1789141060585975300,8.490975341796876,-5.682447086244821,-7.982567025646567,-0.3985005017075687,9.804353755479937,0.21220578262561848
1789141060595947300,8.500947265625,-5.679723798760771,-7.984085028994083,-0.4068316556686535,9.804525511408768,0.204126609254258
1789141060605919200,8.510919189453125,-5.679813815131783,-7.9837138575941315,-0.4128120817851275,9.804648211998494,0.19813931544477964
1789141060615892200,8.520892333984374,-5.678031023368239,-7.984722742375731,-0.4177927928071469,9.804743503662452,0.1933629231649626
1789141060625864200,8.5308642578125,-5.677498523926735,-7.984774764823913,-0.423999575025402,9.804862980228604,0.18723010634887538
1789141060635836200,8.540836181640625,-5.678523775321245,-7.983602213913202,-0.4322465578343719,9.8050181491745,0.17886519506803905
1789141060645809200,8.55080908203125,-5.6791047900795935,-7.982756995260715,-0.4401733687782659,9.805161634056972,0.17087535424290962
1789141060655781400,8.560781494140626,-5.678945800125598,-7.982568779212236,-0.4456040155248716,9.805254327261581,0.16546973133481346
1789141060665753000,8.570753173828125,-5.67746871331036,-7.983301769661903,-0.4512392084002494,9.805343532458235,0.16004115027707475
1789141060675726000,8.58072607421875,-5.677750452861189,-7.982777453526854,-0.4569537501221522,9.805436497557048,0.15429808692585084
1789141060685698300,8.5906982421875,-5.676281549352408,-7.983491154754161,-0.46267764419429,9.80552029827402,0.14881373636140097
1789141060695670000,8.600669921875,-5.675135301926732,-7.984044112461805,-0.4671819698762148,9.805584810773203,0.14452195896223907
1789141060705643300,8.610643310546875,-5.674451411315799,-7.984215961897373,-0.4725262169810011,9.80566016489715,0.13933090785681437
1789141060715615200,8.620615234375,-5.673472921672463,-7.98465026166141,-0.4769114097952842,9.805718182468777,0.13516735106689295
1789141060725587200,8.630587158203125,-5.671428848624229,-7.985837425619363,-0.4813219927791505,9.805771283635528,0.13124392249467084
1789141060735560200,8.640560302734375,-5.670844911256432,-7.985922765815258,-0.4867766779884696,9.805841209916887,0.12599257604551178
1789141060745532200,8.6505322265625,-5.670490106469392,-7.985874835020303,-0.4916723045429214,9.805901004564658,0.12125210064221853
1789141060755504000,8.660504150390626,-5.66941341714859,-7.986400904721021,-0.4955228059586137,9.805943351722938,0.11775287469531172
1789141060765477000,8.67047705078125,-5.666714095062017,-7.987987297129631,-0.5007999791765585,9.805994600539277,0.11340285541661763
1789141060775449300,8.680449462890625,-5.664281314957141,-7.989521667090058,-0.5038292273372411,9.806018362324055,0.11129713364138033
1789141060785422300,8.69042236328125,-5.659890386521816,-7.99246473480463,-0.5064755040623248,9.80602684523057,0.11048380591876826
1789141060795394300,8.700394287109376,-5.658799084153771,-7.9932772202312945,-0.5058708892326802,9.806016254130899,0.11152746111047014
1789141060805366300,8.7103662109375,-5.6596811276853085,-7.992715494695306,-0.5048759233785793,9.806009668004222,0.11209609821380521
1789141060815339300,8.72033935546875,-5.661317204454541,-7.991782597759365,-0.5012765837123617,9.805976927095934,0.1148751406654754
1789141060825311200,8.730311279296876,-5.664678789842128,-7.989543878921866,-0.4989874863944947,9.805965776629744,0.11584854099043033
1789141060835283200,8.740283203125,-5.670439837586879,-7.985634596523642,-0.4961237309938296,9.805953591008503,0.11687937512790154
1789141060845256400,8.75025634765625,-5.670892257529497,-7.985347596275806,-0.4955576946089044,9.80594765943606,0.1173164904961314
1789141060855228200,8.760228271484374,-5.668771027591824,-7.986879043626785,-0.4951583930930122,9.805936485306283,0.11829328458825536
1789141060865200400,8.770200439453125,-5.664626767393946,-7.989796392378211,-0.495519444957748,9.805924999988314,0.11923598647746979
1789141060875173400,8.78017333984375,-5.6613774102091785,-7.992206960651278,-0.4937738433994352,9.805889869818259,0.12207682880296643
1789141060885145000,8.79014501953125,-5.656997587689757,-7.9955451651632785,-0.489925424342975,9.805821779435007,0.1274768475814588
1789141060895117300,8.800117431640626,-5.653740047198534,-7.998044580763578,-0.4867169106252491,9.805763077538844,0.1318994141101865
1789141060905090300,8.81009033203125,-5.654789263990521,-7.997373549634218,-0.4855581690441817,9.805754477209678,0.13255633043850126
1789141060915062300,8.820062255859375,-5.658064340138435,-7.995152366453409,-0.4839748453754931,9.805751295550214,0.13276528433003526
1789141060925034200,8.8300341796875,-5.66200810932815,-7.992619633105397,-0.4796740794416517,9.805713858650073,0.1355262866224823
1789141060935007200,8.84000732421875,-5.665743204203248,-7.990178085172176,-0.476225473357737,9.805682465200912,0.13774607750191756
1789141060944979200,8.849979248046875,-5.66736232983768,-7.989278505983949,-0.4720309442773461,9.805629935102383,0.1414270554726999
1789141060954951200,8.859951171875,-5.670618116763234,-7.987275349467993,-0.4667978659294545,9.805565646774863,0.14580784892248008
1789141060964924400,8.86992431640625,-5.671702989390492,-7.987019913402199,-0.4579217914367094,9.80543528153938,0.15438006205361007
1789141060974896000,8.879896240234375,-5.670394244879484,-7.988534994140267,-0.4475756443914025,9.80526334801156,0.16491476149668588
1789141060984868400,8.889868408203125,-5.670292538070679,-7.989186151525378,-0.4371123007072136,9.80508245239291,0.17532283431167492
1789141060994841000,8.899841064453126,-5.669549610748887,-7.990267517021298,-0.4268648282634094,9.804892529680314,0.18564440561473755
1789141061004813300,8.909813232421875,-5.6675242424011225,-7.992298730587959,-0.4155794641392305,9.80466578385629,0.1972439987788793
1789141061014786300,8.919786376953125,-5.667139042475819,-7.993045165041089,-0.4063904512397944,9.804477120789446,0.20644012186499472
1789141061024758000,8.929758056640624,-5.66700694052875,-7.993603383445739,-0.3971349489754066,9.804278233581758,0.21565528523277566
1789141061034730200,8.939730224609375,-5.666959009733795,-7.99406807834804,-0.3883755961975083,9.804083058943416,0.22436540804371435
1789141061044703200,8.949703125,-5.669724967315792,-7.992543645259738,-0.3792821160944178,9.803883411835564,0.23293796837433095
1789141061054675200,8.95967529296875,-5.671876592391729,-7.9914079192280765,-0.3709367874775082,9.803689730130786,0.2409281769629529
1789141061064647200,8.969647216796876,-5.671550429177284,-7.992021082690358,-0.3626189679220318,9.80348124465698,0.24926543768409273
1789141061074620200,8.9796201171875,-5.671039557045698,-7.992803757500648,-0.3532444789204746,9.80323759455864,0.2586810584744447
1789141061084592000,8.989592041015625,-5.669661254429817,-7.9940756771326065,-0.3465265688423067,9.803053484359713,0.2655705507060651
1789141061094564600,8.999564697265624,-5.668915989020467,-7.994954798054694,-0.3383301471767947,9.802825505601696,0.27384321923899446
1789141061104537600,9.00953759765625,-5.669100113415718,-7.99514944384396,-0.3305579788053408,9.80260697107568,0.28155971533379726
1789141061114509800,9.019509765625,-5.670670723733306,-7.994368522599339,-0.3224116433592513,9.80237688366493,0.2894671492556163
1789141061124481800,9.029481689453124,-5.6742859916210175,-7.992075443226098,-0.3155963373212143,9.802187180910785,0.2958359738824491
1789141061134454800,9.039454833984376,-5.676923354387283,-7.99039377374947,-0.3107088940732181,9.80204684883266,0.3004480342887035
1789141061144426800,9.0494267578125,-5.67912933999896,-7.989048788881301,-0.3048975043807178,9.80187233295209,0.3060586026379552
1789141061154398700,9.059398681640625,-5.681003901699185,-7.987887928408384,-0.3003709486006758,9.801735070867643,0.31043710348516423
1789141061164371700,9.069371826171874,-5.681498991739749,-7.987732445585727,-0.2951047717007808,9.801568366616209,0.31566563992893637
1789141061174344000,9.079343994140626,-5.679228708720207,-7.989567259797453,-0.2890726701959967,9.801366799547193,0.32186269458791383
1789141061184315600,9.089315673828125,-5.677383373114466,-7.991049607309699,-0.2842829699677415,9.801202675804785,0.32680071390967486
1789141061194288600,9.09928857421875,-5.675536283943057,-7.99248168593943,-0.28091586815482,9.801085188682297,0.33033083356693427
1789141061204260900,9.1092607421875,-5.672269975623488,-7.994941938573121,-0.2768455317096784,9.800935986452702,0.33472453659541707
1789141061214232600,9.119232666015623,-5.669754777932167,-7.996852740630507,-0.27315403851429,9.8007996806107,0.33869122591550965
1789141061224205800,9.129205810546877,-5.669447319418191,-7.997088302952051,-0.2726253932639956,9.80077981713373,0.3392547921358027
1789141061234177800,9.139177734375,-5.668624897119402,-7.997738291293382,-0.2706451426995918,9.800707617344372,0.3413282772598914
1789141061244150500,9.149150634765626,-5.6651353014379735,-8.000206142711638,-0.2708065620726905,9.800698298599254,0.3416216670163668
1789141061254122800,9.159122802734377,-5.662824686408043,-8.001804225558041,-0.2718996362727135,9.800724235479603,0.3408638517632206
1789141061264094700,9.1690947265625,-5.661089240917563,-8.002954564636946,-0.2741671245469712,9.800793122955007,0.3388730300512124
1789141061274067700,9.179067626953126,-5.656226018795371,-8.006312058371305,-0.276517523598019,9.80084590280272,0.33735305258941445
1789141061284039700,9.189039794921875,-5.652351807710528,-8.008953512790798,-0.2792237503494136,9.800912811601954,0.33539721273202544
1789141061294012000,9.199011962890625,-5.653531372883916,-8.00802120037675,-0.2820602524169721,9.801016085084434,0.3323585650707055
1789141061303984600,9.208984619140624,-5.655468478426337,-8.006502027985453,-0.2863418204599991,9.801171916517326,0.3277485860007557
1789141061313956900,9.218956787109375,-5.654973972907662,-8.006745773613453,-0.2892775268520228,9.801265697766484,0.3249318803498006
1789141061323928800,9.2289287109375,-5.656131910771131,-8.005643949851393,-0.2970362146873958,9.801524898581855,0.3170227423253167
1789141061333901600,9.238901611328124,-5.658621389499307,-8.003452577286959,-0.3084397435648366,9.801898077385115,0.30525127771171395
1789141061343873800,9.248873779296876,-5.657310891422629,-8.003965202984213,-0.3189765178114175,9.802209783300707,0.29505063272295184
1789141061353845800,9.258845703125,-5.6547670521587134,-8.005265764188765,-0.3312208631608635,9.802552394762612,0.28345048526902594
1789141061363818800,9.26881884765625,-5.651982974398136,-8.006697842818499,-0.343903819123283,9.802889780545023,0.27155786929181663
1789141061373790700,9.278790771484376,-5.649554870468378,-8.007933522093296,-0.354834341927804,9.803165096107223,0.2614020607701903
1789141061383762700,9.2887626953125,-5.6466515502423045,-8.009464384922385,-0.3663109177751466,9.803438525870082,0.2509386800822803
1789141061393735700,9.298735595703125,-5.643662889820337,-8.011053699940442,-0.3774516492642462,9.80368904907883,0.24096259827779803
1789141061403707600,9.308707763671874,-5.641273364335298,-8.012224497285485,-0.3881692599704489,9.803920795547317,0.23134168470337918
1789141061413679600,9.3186796875,-5.641559780061245,-8.011414934468268,-0.4005162985093891,9.804197317132521,0.2193040727597167
1789141061423652600,9.328652587890623,-5.644101865759492,-8.009013718545436,-0.4125494487935677,9.804469722496995,0.20677795641302238
1789141061433624800,9.338624755859374,-5.643598592412472,-8.008659498280286,-0.4261019906647503,9.80473307882215,0.193918001160977
1789141061443596500,9.348596435546876,-5.646405466526747,-8.00593153462112,-0.4399500448837876,9.80500653873655,0.17954733857879945
1789141061453569500,9.358569580078123,-5.651219004288316,-8.00171771631837,-0.4545530821885913,9.805283883111096,0.16367382870081096
1789141061463541800,9.368541748046876,-5.654370746317506,-7.998728471374511,-0.4677750038659199,9.80550618620573,0.14975841248934285
1789141061473514800,9.3785146484375,-5.6548459626138206,-7.997641845181584,-0.4804339944308623,9.805686564798911,0.13742547295259191
1789141061483486700,9.38848681640625,-5.655777690505981,-7.996293937703967,-0.4917920219324528,9.805838563225103,0.1262041496552696
1789141061493458700,9.398458740234377,-5.657517812171578,-7.994327606067061,-0.503581024729833,9.805983899361092,0.11425971338825217
1789141061503431700,9.408431640625,-5.658804344850778,-7.992566441613436,-0.5169026073893532,9.806128138175248,0.101114687958027
1789141061513403600,9.418403564453126,-5.658697961866856,-7.9917440193146465,-0.5306180482046678,9.806251514352583,0.0884411907751734
1789141061523375900,9.4283759765625,-5.65800004273057,-7.991502027252316,-0.5415857612144201,9.806332363735061,0.07892935974348528
1789141061533348900,9.438348876953125,-5.657791952937841,-7.990982971814274,-0.5513429659232497,9.806396963614983,0.07054287086428256
1789141061543320600,9.448320556640626,-5.658399855703115,-7.989713390269875,-0.5633608821056783,9.806465816378832,0.06010541871669934
1789141061553292800,9.458292724609375,-5.660401843175292,-7.987494545176625,-0.5746047086430713,9.8065240135614,0.049754176578118606
1789141061563265800,9.468265869140623,-5.66027383288145,-7.986735835763811,-0.586284734640643,9.806559995890435,0.0419524796685623
1789141061573237800,9.47823779296875,-5.659487066417932,-7.986489752048254,-0.5971422652741893,9.806579139154739,0.037374951444976746
1789141061583209700,9.488209716796876,-5.658281782281398,-7.986479815176128,-0.6085813221227377,9.806583534035674,0.03609960568045009
1789141061593182700,9.4981826171875,-5.657880800265073,-7.986015704795718,-0.6183223794143646,9.806579885981922,0.037087625853248096
1789141061603154700,9.50815478515625,-5.656529385656118,-7.986367586973309,-0.6260822728261352,9.806564576128626,0.04076949368549867
1789141061613126700,9.518126708984376,-5.655822114169597,-7.986545281627774,-0.6302051249098032,9.806555147632308,0.04317358601700739
1789141061623100000,9.528099853515624,-5.656216666445136,-7.985958421650529,-0.6340962871294469,9.806549326760008,0.044579067699036926
1789141061633071600,9.538071533203125,-5.658026930737496,-7.984231159466504,-0.6396591819535941,9.806542269026501,0.045918967765886685
1789141061643043800,9.5480439453125,-5.658991976377368,-7.983100109609961,-0.6452182043202221,9.806529039891899,0.0487059513925239
1789141061653016800,9.558016845703126,-5.660199014079571,-7.981695503509044,-0.6519638061229139,9.806507767593889,0.05270861731102838
1789141061662988500,9.567988525390623,-5.663348418021202,-7.978917855489254,-0.6585946224395185,9.806490622370546,0.055982127623720734
1789141061672961800,9.5779619140625,-5.665241684421897,-7.977072519883513,-0.6646363868217915,9.806465583589238,0.06019646965926303
1789141061682933800,9.587933837890626,-5.666424172204732,-7.975740394496917,-0.6705033791590481,9.806434296739209,0.06495309812929562
1789141061692905700,9.59790576171875,-5.670400090098381,-7.972432000601291,-0.6762111623466014,9.806407997093487,0.06879619627764026
1789141061702878700,9.607878662109377,-5.672036751389503,-7.970944976913929,-0.6800093125205486,9.806385622524175,0.07196125046431986
1789141061712850700,9.6178505859375,-5.6729082735270255,-7.970097420173883,-0.6826712252061814,9.80636822212188,0.07431998921150279
1789141061722822700,9.62782275390625,-5.674456087490916,-7.968829592195153,-0.6846102304447442,9.806356723269449,0.07586792422045911
1789141061732795600,9.637795654296877,-5.674733150866627,-7.968542007425427,-0.6856684342607855,9.806349641016205,0.07685035804268507
1789141061742767900,9.647767822265624,-5.674606309616565,-7.968568310910463,-0.686401936167106,9.806343064595405,0.07759518169386662
1789141061752739600,9.657739501953126,-5.674042830514908,-7.968633192840218,-0.6902913448210806,9.806310879559266,0.08152348572624138
1789141061762712800,9.667712890625,-5.672896583089232,-7.969380211815237,-0.691093820310384,9.806302766360558,0.08254287272817341
1789141061772684800,9.677684814453125,-5.672269391101598,-7.9696882548511025,-0.6926875192426145,9.806288346367092,0.08423652390221029
1789141061782656800,9.68765673828125,-5.671278626498579,-7.970450471395254,-0.6920276670943946,9.806291797933108,0.08381791072547644
1789141061792629800,9.697629638671875,-5.671605958756804,-7.970230691164732,-0.6918771527078003,9.806293763461905,0.08359450291206282
1789141061802601700,9.707601806640625,-5.675742035648226,-7.967410957568884,-0.6904358678583056,9.80631260119186,0.08136262866900205
1789141061812573700,9.71757373046875,-5.676732215729356,-7.966733496698737,-0.6901143077537417,9.806316610568222,0.08089219728367965
1789141061822546700,9.727546630859376,-5.6770075255393975,-7.966751032355427,-0.6876304550487548,9.806336033034137,0.07839455653332247
1789141061832519000,9.737518798828123,-5.678787394693494,-7.965430012884735,-0.6882518748827278,9.806333962647672,0.07878083902200918
1789141061842490600,9.74749072265625,-5.67980037112832,-7.964689423650503,-0.6884617913063615,9.806332974574094,0.07888663352661159
1789141061852463600,9.757463623046876,-5.677278159174323,-7.966367585995793,-0.6898497385334224,9.80631957610328,0.08055336697124538
1789141061862435800,9.767435791015624,-5.674079070872068,-7.968594614395498,-0.6904482889484613,9.80631032441428,0.08167063168052674
1789141061872407600,9.777407470703125,-5.672743438354134,-7.969433403307199,-0.6917411052379757,9.80629741180827,0.08320886357051593
1789141061882380800,9.787380859375,-5.670590059712529,-7.970808783313632,-0.6935492506384849,9.806278127613325,0.08546421715536211
1789141061892352800,9.797352783203126,-5.668396349060535,-7.9721485074847935,-0.6960694898311048,9.80625078198593,0.08847220415954798
1789141061902325500,9.807325439453123,-5.667969648081064,-7.972380562674998,-0.6968799294311553,9.806242202290974,0.08937154881562989
1789141061912297700,9.817297607421876,-5.672182297340036,-7.969177382719517,-0.6992414709307253,9.806230527550497,0.09067329657629618
1789141061922269700,9.827269775390626,-5.679093684163689,-7.964036512699723,-0.701704792304337,9.806216489458816,0.0921435105211526
1789141061932242700,9.83724267578125,-5.681472688254714,-7.9620859631538385,-0.7045780096530914,9.806190624810487,0.09487040424313042
1789141061942214700,9.847214599609377,-5.685016644471883,-7.959190826234221,-0.7086980121925472,9.80615070854432,0.09896469135355605
1789141061952187000,9.857186767578124,-5.689796279963851,-7.955266346266865,-0.7143748157199472,9.806088200327043,0.1049282244119742
1789141061962159600,9.86715966796875,-5.691511267188191,-7.953411658310889,-0.7213445816673338,9.806009888463468,0.11209631547560132
1789141061972131800,9.8771318359375,-5.692712459671497,-7.951800131461024,-0.7295741384174674,9.805909454784032,0.12049343229959895
1789141061982103800,9.887103759765624,-5.694456088468432,-7.950001557606458,-0.735545760172978,9.80583124933324,0.12671221073145025
1789141061992076500,9.89707666015625,-5.69580282690227,-7.948501674437522,-0.7413000859159976,9.805751954105027,0.13267683832704097
1789141062002048800,9.907048828125,-5.695568433624506,-7.948168496960401,-0.7466629281233995,9.80567895208097,0.13801469169511524
1789141062012020700,9.917020751953125,-5.694489406216144,-7.948143362519144,-0.7551143109306693,9.805558396999503,0.1463374670746885
1789141062021993700,9.92699365234375,-5.693742971763014,-7.948026458141207,-0.7619484677996486,9.805455606928037,0.1530993662923828
1789141062031965700,9.936965576171875,-5.693182999792695,-7.9475752072423695,-0.7707731408987194,9.805313195029669,0.16189109305345928
1789141062041938000,9.94693798828125,-5.694036401751637,-7.94619339749515,-0.7786789455872029,9.805177502680333,0.16992673745020057
1789141062051910700,9.95691064453125,-5.693506824919581,-7.945592508992552,-0.7886143564071506,9.805000262590454,0.179840868817267
1789141062061882600,9.966882568359376,-5.695321765387058,-7.943401720950007,-0.7975401517931372,9.804828586163325,0.18901746310800088
1789141062071854800,9.976854736328123,-5.694492913347482,-7.942783296790719,-0.8095308146424591,9.804591365521926,0.20095854032835408
1789141062081827600,9.98682763671875,-5.693170724833012,-7.94259449622035,-0.8206028282769023,9.804359845768229,0.21193690086686168
1789141062091798800,9.996798828125,-5.693261325725913,-7.941329590851068,-0.8321304767243564,9.804101979422757,0.22353008948559794
1789141062101770800,10.006770751953123,-5.691677855926752,-7.941458770188689,-0.8416814182713628,9.8038825936319,0.23297620994106308
1789141062111743700,10.01674365234375,-5.688931187567115,-7.94220345107615,-0.85314922629036,9.803607752158436,0.24427926497867639
1789141062121715700,10.0267158203125,-5.68809941291809,-7.941442988097667,-0.8656769916910677,9.803286872185003,0.25681670512876875
1789141062131689000,10.03668896484375,-5.688742386996746,-7.939635061892867,-0.8779454485684632,9.802954375775359,0.26919988629414016
1789141062141660700,10.04666064453125,-5.688844093805551,-7.938310535290837,-0.8891932571612298,9.802637117072159,0.28052001339654986
1789141062151633000,10.0566328125,-5.690833806318044,-7.935643361908196,-0.9002017040401696,9.802309397641164,0.29175085158823216
1789141062161606000,10.06660595703125,-5.691571472942829,-7.933699826624989,-0.9125864807736128,9.801928906554314,0.3042738344841261
1789141062171577600,10.07657763671875,-5.691581994336843,-7.932612615910172,-0.921913842697814,9.801632072807006,0.3136596165199484
1789141062181549800,10.0865498046875,-5.691575564596056,-7.931367584285139,-0.9326068669520318,9.80128216036901,0.32441908956514603
1789141062191522600,10.0965224609375,-5.691627002522349,-7.930029029157757,-0.9436066921330988,9.800908927722757,0.33549384353360084
1789141062201494800,10.106494873046875,-5.691377411675453,-7.928903239998221,-0.954521688574925,9.800528649375867,0.34645819099369046
1789141062211466800,10.116466796875,-5.691193871802091,-7.928043992820382,-0.9627086482923476,9.800233496819333,0.3546837857165199
1789141062221439500,10.126439453125,-5.6913627986282105,-7.926447663539648,-0.974776321900636,9.799785446171416,0.3668475912245734
1789141062231411700,10.13641162109375,-5.690896350160241,-7.925691876736283,-0.9836095436323432,9.799450446591687,0.37570157352513345
1789141062241383700,10.1463837890625,-5.688954568442702,-7.92579066093564,-0.9939953285682944,9.799050486442404,0.38600253904365306
1789141062251356700,10.156356689453125,-5.687081760308146,-7.925905227226019,-1.0037509989071636,9.798664155676146,0.3956885789012602
1789141062261328600,10.16632861328125,-5.684363733521104,-7.926476305112242,-1.0145840161539614,9.798225432098532,0.40641946076491847
1789141062271300900,10.17630078125,-5.679205912366509,-7.928921944698691,-1.0243043959837406,9.797825101774647,0.415939624043443
1789141062281273600,10.186273681640625,-5.675211289772391,-7.930884769204258,-1.031229299876094,9.797533353392248,0.4227652587967188
1789141062291245800,10.196245849609374,-5.676054754859209,-7.929638568535447,-1.036158061515167,9.79731687669008,0.42775104199913083
1789141062301217800,10.2062177734375,-5.678858121842145,-7.926917034617066,-1.0416031751785426,9.797070867067438,0.4333391765294494
1789141062311190500,10.2161904296875,-5.678268339255451,-7.926884301391244,-1.0450680748101324,9.796917733999019,0.4368023059425104
1789141062321162800,10.226162841796874,-5.678609115517139,-7.926086429011821,-1.049257635454461,9.796727888604899,0.44103495234525475
1789141062331134700,10.236134765625,-5.681145355996489,-7.92347712329626,-1.0552150094889103,9.79644997209088,0.44715650496325116
1789141062341107700,10.246107666015623,-5.680205444797873,-7.923801532945037,-1.0578406087521464,9.796331659742702,0.4497525925010284
1789141062351079700,10.25607958984375,-5.67605124772787,-7.926465199196338,-1.0601813266593962,9.796231490453934,0.4519306935136403
1789141062361052000,10.266052001953126,-5.672707197996973,-7.928708594208955,-1.0612970328163356,9.796183625182177,0.45295110074591016
1789141062371024600,10.276024658203124,-5.670837896993756,-7.930211399987339,-1.0600605498239395,9.79624322747083,0.4516661377551358
1789141062380996600,10.28599658203125,-5.666510681444406,-7.93341808707416,-1.0592135045405475,9.796285505922347,0.45076532907462535
1789141062390969900,10.295969970703124,-5.663607361218333,-7.935727533060311,-1.0574318087555468,9.796366686959194,0.44897838012773866
1789141062400941600,10.305941650390626,-5.664233968684077,-7.935286219033599,-1.057393084180355,9.796369236411367,0.4489362408455426
1789141062410913800,10.315913818359377,-5.667617181381583,-7.933090754815936,-1.0557346494488418,9.79644498991545,0.4472746901458963
1789141062420886800,10.32588671875,-5.669101282459497,-7.932334383490681,-1.0534509224258362,9.796549320841029,0.44499255339992266
1789141062430858500,10.3358583984375,-5.669247997453809,-7.93250447936058,-1.0513755043912678,9.796643483536645,0.4429075292006643
1789141062440830700,10.345830810546875,-5.671007992863655,-7.931355309325456,-1.0505508901353924,9.796679529936592,0.442104126167328
1789141062450803700,10.3558037109375,-5.6729082735270255,-7.930110277700423,-1.0496931773275135,9.796717015724703,0.44128083651937655
1789141062460775700,10.365775634765624,-5.671774301061034,-7.9313149773150675,-1.046713138603419,9.796852504944413,0.4382583512587859
1789141062470747600,10.37574755859375,-5.671933291015028,-7.931734664031863,-1.0426615251250564,9.797033600049918,0.43418628927945335
1789141062480720600,10.385720703125,-5.671043648698926,-7.93297034330666,-1.0380896871648728,9.797236949430898,0.4295729141082117
1789141062490692600,10.395692626953124,-5.671493730553984,-7.933321640962362,-1.0329366883158684,9.797462816128302,0.42439835452920355
1789141062500664800,10.405664794921876,-5.672953866234422,-7.932890848329663,-1.0282119248162955,9.79766586957534,0.41967374284020514
1789141062510637800,10.415637939453124,-5.674715615209937,-7.932246120685338,-1.023453916634247,9.79786801407129,0.4149290673690921
1789141062520609500,10.425609619140625,-5.675528100636601,-7.932367116716503,-1.0179945552498102,9.798097947117512,0.4094591905072698
1789141062530581800,10.435581787109374,-5.677040258765221,-7.931975487050414,-1.0126027061436325,9.798321490346073,0.4040809808954413
1789141062540554800,10.4455546875,-5.679722045195103,-7.930860803806781,-1.0062694845341145,9.798577533836415,0.39780923686464076
1789141062550526700,10.455526611328125,-5.678349587798119,-7.932675744274258,-0.9996910559918732,9.798846560848299,0.39113525720117326
1789141062560498700,10.465498779296874,-5.675505304282903,-7.9358508671790355,-0.9906013022158294,9.799210575291855,0.3819063839340128
1789141062570471700,10.4754716796875,-5.67372134347558,-7.938087832450866,-0.9828685160066932,9.799511931372791,0.37409724104077563
1789141062580443600,10.485443603515623,-5.671567964833974,-7.9407205190420145,-0.9739923319160938,9.799849341724602,0.3651567928945967
1789141062590415600,10.49541552734375,-5.669287744942307,-7.943615071439742,-0.9636069123063236,9.800232015376544,0.35473182038093076
1789141062600388900,10.505388916015624,-5.66863015781641,-7.945096249908208,-0.9552315173447132,9.800532780255168,0.3463333095209761
1789141062610360600,10.515360595703124,-5.670162774211168,-7.945130152177811,-0.9457986492194236,9.800862480229043,0.33685122769403486
1789141062620332800,10.525332763671877,-5.671680193036794,-7.945190357932448,-0.9361510423649102,9.801191374482961,0.3271581433348618
1789141062630305800,10.535305908203124,-5.675197261247039,-7.943882782465219,-0.9258798237193376,9.801530243020109,0.3168532132486049
1789141062640277500,10.545277587890626,-5.677421367037296,-7.943606303611397,-0.914548501561582,9.801890799264312,0.305499929087543
1789141062650250800,10.555250732421875,-5.678125715914368,-7.944391901031136,-0.9032838148992508,9.8022367536207,0.29419483191176965
1789141062660222700,10.56522265625,-5.680139393824339,-7.944158092275261,-0.8926132216725498,9.80255102258161,0.28351920839072975
1789141062670194700,10.575194580078126,-5.680785290512442,-7.944936090910434,-0.8814999992448836,9.802866324872456,0.2723693648412088
