time,seconds_elapsed,z,y,x
1789998445448571100,0.055571044921875,0.6764398813247681,0.48091259598731995,-0.09814804792404175
1789998445458641200,0.06564111328125,0.7801787853240967,0.5238773822784424,-0.08940542489290237
1789998445468711200,0.075711181640625,0.6942065358161926,0.3925090432167053,0.008520814590156078
1789998445478782200,0.0857822265625,0.642257571220398,0.474086731672287,-0.14225298166275024
1789998445488852200,0.095852294921875,0.7466419339179993,0.6242976188659668,-0.1808483600616455
1789998445498922000,0.105921875,0.7758921980857849,0.5413015484809875,-0.06925658881664276
1789998445508992300,0.1159921875,0.7658138275146484,0.48189643025398254,0.032909877598285675
1789998445519062300,0.126062255859375,0.7664799094200134,0.6213893890380859,-0.0025301389396190643
1789998445529132000,0.136132080078125,0.7574424147605896,0.6686640977859497,-0.0696028396487236
1789998445539203000,0.146203125,0.8160812258720398,0.6720090508460999,-0.08662017434835434
1789998445549273300,0.1562734375,0.9478452205657959,0.6827878355979919,-0.07788045704364777
1789998445559343000,0.166343017578125,0.9843634963035583,0.7810757756233215,-0.11671040952205658
1789998445569413000,0.1764130859375,0.935717761516571,0.8061429262161255,-0.11713197827339172
1789998445579483400,0.1864833984375,0.9330013394355774,0.8607957363128662,-0.06460671871900558
1789998445589553200,0.19655322265625,0.9693745970726013,0.8429121971130371,0.04007754474878311
1789998445599624200,0.206624267578125,1.0105334520339966,0.8606919646263123,-0.009164569899439812
1789998445609694200,0.216694091796875,1.0143482685089111,0.9399475455284119,-0.06626743078231812
1789998445619764000,0.226763916015625,0.9375437498092651,0.8901739120483398,-0.030931806191802025
1789998445629834200,0.236834228515625,0.925428032875061,0.8500185608863831,0.03479449450969696
1789998445639904300,0.246904296875,0.9822076559066772,0.8615518808364868,0.02877495437860489
1789998445649974000,0.25697412109375,1.057455062866211,0.9196863174438477,0.012736279517412186
1789998445660045000,0.267045166015625,1.0230661630630493,1.0064609050750732,0.06036372110247612
1789998445670115300,0.277115234375,0.9474340677261353,1.0239535570144653,0.029552649706602097
1789998445680185000,0.28718505859375,0.9127794504165649,1.0973153114318848,0.005514158867299557
1789998445690255000,0.297255126953125,0.9332165122032166,0.9700971841812134,0.173936665058136
1789998445700325400,0.307325439453125,0.8944454193115234,0.9902451038360596,0.1991267055273056
1789998445710395600,0.317395751953125,0.8674947023391724,1.1341577768325806,0.1111304834485054
1789998445720466700,0.327466796875,0.8549717664718628,1.1230614185333252,0.11067162454128265
1789998445730536400,0.337536376953125,0.8539596796035767,0.997574508190155,0.12247129529714584
1789998445740606500,0.3476064453125,0.8120750784873962,1.0757776498794556,0.02303978241980076
1789998445750676700,0.3576767578125,0.7561810612678528,0.9637671709060669,0.13262028992176056
1789998445760746500,0.36774658203125,0.659552812576294,0.7786372303962708,0.3295370638370514
1789998445770816500,0.37781640625,0.6819371581077576,0.8729224801063538,0.15931415557861328
1789998445780887600,0.387887451171875,0.7653157114982605,1.1199193000793457,-0.08630412817001343
1789998445790957600,0.39795751953125,0.7061709761619568,0.9913586974143982,0.10065857321023941
1789998445801027600,0.408027587890625,0.6193574666976929,0.7491274476051331,0.30699920654296875
1789998445811097600,0.41809765625,0.6157751679420471,0.7819222211837769,0.28416043519973755
1789998445821167400,0.42816748046875,0.6300097703933716,0.9092698097229004,0.24194559454917908
1789998445831237600,0.438237548828125,0.5451555848121643,0.8825686573982239,0.3293526768684387
1789998445841308700,0.44830859375,0.6445924639701843,0.9106320142745972,0.14136280119419098
1789998445851378400,0.45837841796875,0.7765305638313293,1.0467697381973267,0.04027586430311203
1789998445861448400,0.468448486328125,0.6817995309829712,0.81159907579422,0.34666213393211365
1789998445871518700,0.478518798828125,0.4847857654094696,0.6958440542221069,0.48014336824417114
1789998445881588500,0.48858837890625,0.5800595879554749,0.8539516925811768,0.3513920307159424
1789998445891658500,0.498658447265625,0.6526011228561401,0.9256178736686707,0.2836042642593384
1789998445901729500,0.5087294921875,0.604339063167572,0.7475664019584656,0.2969592213630676
1789998445911799600,0.518799560546875,0.5674050450325012,0.7564146518707275,0.28639256954193115
1789998445921869600,0.52886962890625,0.39686745405197144,0.782674252986908,0.383796364068985
1789998445931939600,0.538939697265625,-0.06448341906070709,0.7287742495536804,0.49135151505470276
1789998445942009300,0.54900927734375,0.33536651730537415,0.5013841986656189,0.22612521052360535
1789998445952079600,0.55907958984375,0.6593066453933716,0.5223918557167053,0.3421107530593872
1789998445962149600,0.569149658203125,0.7224440574645996,0.5415522456169128,0.29391634464263916
1789998445972220700,0.579220703125,0.584773063659668,0.6070215106010437,0.35169491171836853
1789998445982290400,0.58929052734375,0.6654775142669678,0.7402536273002625,0.23006300628185272
1789998445992360700,0.599360595703125,0.4021502435207367,0.8099077939987183,0.29939207434654236
1789998446002430500,0.609430419921875,0.15493911504745483,0.7633312344551086,0.405927836894989
1789998446012500500,0.61950048828125,0.28550493717193604,0.9555929899215698,0.36258065700531006
1789998446022571500,0.629571533203125,0.5182700157165527,1.0958192348480225,0.3901022970676422
1789998446032641500,0.6396416015625,0.5832528471946716,1.160226583480835,0.3537101447582245
1789998446042711600,0.649711669921875,0.7307491302490234,1.3355430364608765,0.36366158723831177
1789998446052781600,0.659781494140625,0.8643869161605835,1.409351110458374,0.3136875331401825
1789998446062851300,0.669851318359375,0.8677563667297363,1.3064085245132446,0.3538849949836731
1789998446072921600,0.679921630859375,0.9338234066963196,1.2354239225387573,0.3677372634410858
1789998446082991600,0.68999169921875,0.8720217943191528,1.2185373306274414,0.3689849376678467
1789998446093062700,0.700062744140625,0.7289552688598633,1.2727266550064087,0.38271716237068176
1789998446103132400,0.71013232421875,0.6493043899536133,1.208228349685669,0.521268904209137
1789998446113202700,0.72020263671875,0.5255476236343384,1.2313427925109863,0.4751277565956116
1789998446123272700,0.730272705078125,0.39815211296081543,1.1466470956802368,0.5469825267791748
1789998446133342500,0.740342529296875,0.4773915410041809,1.074856162071228,0.5149267911911011
1789998446143412500,0.75041259765625,0.5964939594268799,1.1914474964141846,0.5280148983001709
1789998446153483500,0.7604833984375,0.7102324962615967,1.2144423723220825,0.5354856252670288
1789998446163553500,0.770553466796875,0.7417497038841248,1.341140627861023,0.37300026416778564
1789998446173623600,0.78062353515625,0.6956506371498108,1.3419902324676514,0.43519270420074463
1789998446183693600,0.790693603515625,0.7043823599815369,1.2911877632141113,0.6383274793624878
1789998446193763600,0.800763671875,0.6538882851600647,1.3063760995864868,0.6899490356445312
1789998446203833600,0.81083349609375,0.49942174553871155,1.3886584043502808,0.5482182502746582
1789998446213904600,0.820904541015625,0.42069318890571594,1.397483229637146,0.5848125219345093
1789998446223974400,0.830974365234375,0.40638214349746704,1.3363527059555054,0.6928274035453796
1789998446234044700,0.841044677734375,0.3617531359195709,1.3006194829940796,0.7401681542396545
1789998446244114700,0.85111474609375,0.3129488229751587,1.3444266319274902,0.70577472448349
1789998446254184400,0.861184326171875,0.31255656480789185,1.3165762424468994,0.6521428823471069
1789998446264254500,0.87125439453125,0.3332439959049225,1.2536969184875488,0.6623206734657288
1789998446274325500,0.881325439453125,0.34476104378700256,1.1780248880386353,0.6857964396476746
1789998446284395500,0.8913955078125,0.2640875279903412,1.1044572591781616,0.6418785452842712
1789998446294465500,0.901465576171875,0.14813433587551117,1.0287903547286987,0.5880116820335388
1789998446304535600,0.91153564453125,0.017048757523298264,0.9419568777084351,0.565433919429779
1789998446314605600,0.92160546875,-0.12854300439357758,0.8765351176261902,0.6292333006858826
1789998446324675600,0.931675537109375,-0.24484458565711975,0.7507129907608032,0.6749528646469116
1789998446334746600,0.94174658203125,-0.32298627495765686,0.7011705040931702,0.632454514503479
1789998446344816400,0.95181640625,-0.3936005234718323,0.686164915561676,0.4969955384731293
1789998446354886700,0.96188671875,-0.43562325835227966,0.5163797736167908,0.6028677821159363
1789998446364956700,0.971956787109375,-0.43655428290367126,0.35009944438934326,0.6587584614753723
1789998446375026400,0.9820263671875,-0.5449856519699097,0.2911679148674011,0.5892612934112549
1789998446385096400,0.992096435546875,-0.6515699028968811,0.27713173627853394,0.5403635501861572
1789998446395167500,1.00216748046875,-0.7961822152137756,0.056254856288433075,0.658782958984375
1789998446405237500,1.012237548828125,-0.8641167879104614,-0.040795259177684784,0.5755192041397095
1789998446415307500,1.0223076171875,-0.9696270227432251,0.027968544512987137,0.4424038231372833
1789998446425377500,1.03237744140625,-1.025473713874817,0.034812070429325104,0.39340829849243164
1789998446435447600,1.042447509765625,-1.0929828882217407,-0.08101274073123932,0.46487343311309814
1789998446445517600,1.052517578125,-1.0085316896438599,-0.15060460567474365,0.35315728187561035
1789998446455588600,1.062588623046875,-0.9806017279624939,-0.061658766120672226,0.27795490622520447
1789998446465658400,1.072658447265625,-1.0541574954986572,-0.11614970862865448,0.3715069890022278
1789998446475728400,1.082728271484375,-1.0342463254928589,-0.21057236194610596,0.4927161633968353
1789998446485798700,1.092798583984375,-0.9106248021125793,-0.14198610186576843,0.45649105310440063
1789998446495868400,1.102868408203125,-0.8541403412818909,-0.11440056562423706,0.3296775817871094
1789998446505938400,1.1129384765625,-0.9335195422172546,-0.12621009349822998,0.2958269417285919
1789998446516008700,1.1230087890625,-1.0054433345794678,-0.08450598269701004,0.31454354524612427
1789998446526079700,1.133079833984375,-0.9535704851150513,-0.06068960204720497,0.33653831481933594
1789998446536149500,1.1431494140625,-0.8837745189666748,-0.04781300574541092,0.38037097454071045
1789998446546219500,1.153219482421875,-0.8410153388977051,-0.027457933872938156,0.3305392563343048
1789998446556289500,1.16328955078125,-0.8955864906311035,-0.04223993793129921,0.1950739622116089
1789998446566359600,1.173359619140625,-0.9580472111701965,-0.1214790940284729,0.18142366409301758
1789998446576429600,1.1834296875,-0.8695216178894043,-0.22196470201015472,0.2981340289115906
1789998446586500600,1.19350048828125,-0.7707700133323669,-0.2533002495765686,0.2707820236682892
1789998446596570400,1.2035703125,-0.7954735159873962,-0.2287755310535431,0.07564020156860352
1789998446606640600,1.213640625,-0.8372318744659424,-0.24192701280117035,0.11375376582145691
1789998446616710700,1.223710693359375,-0.8206890225410461,-0.26532214879989624,0.2474881112575531
1789998446626780400,1.233780517578125,-0.8026288151741028,-0.2666904628276825,0.2481328696012497
1789998446636850700,1.2438505859375,-0.8336641788482666,-0.25621384382247925,0.1441497951745987
1789998446646921700,1.253921630859375,-0.8934692144393921,-0.2620485723018646,0.16757787764072418
1789998446656991500,1.263991455078125,-0.9116463661193848,-0.26098543405532837,0.18636882305145264
1789998446667061500,1.2740615234375,-0.859483003616333,-0.25125667452812195,0.10501191020011902
1789998446677131800,1.2841318359375,-0.8525069355964661,-0.23012413084506989,0.06654191017150879
1789998446687201500,1.294201416015625,-0.8743813633918762,-0.23013904690742493,0.1198381558060646
1789998446697271600,1.304271484375,-0.9138670563697815,-0.23571425676345825,0.14047740399837494
1789998446707342300,1.31434228515625,-0.9473981261253357,-0.26652491092681885,0.142080619931221
1789998446717412400,1.324412353515625,-0.9480449557304382,-0.27780160307884216,0.07601968944072723
1789998446727482400,1.334482421875,-0.9803847670555115,-0.3079531192779541,0.04844611510634422
1789998446737552400,1.344552490234375,-1.0015686750411987,-0.3315984904766083,0.1118517816066742
1789998446747622400,1.354622314453125,-0.995822548866272,-0.369759738445282,0.1977403312921524
1789998446757692400,1.3646923828125,-1.0102423429489136,-0.4059344530105591,0.18896397948265076
1789998446767762400,1.374762451171875,-1.0639008283615112,-0.4323735237121582,0.14989326894283295
1789998446777833500,1.38483349609375,-1.0677040815353394,-0.4842326045036316,0.1888527274131775
1789998446787903200,1.3949033203125,-0.9658424854278564,-0.5227762460708618,0.2396879345178604
1789998446797973500,1.404973388671875,-1.0639678239822388,-0.5606330037117004,0.1265104115009308
1789998446808043500,1.41504345703125,-1.125294804573059,-0.5945867300033569,0.016926389187574387
1789998446818113300,1.42511328125,-1.1447525024414062,-0.6226885914802551,0.03064795210957527
1789998446828183300,1.435183349609375,-1.1440893411636353,-0.6829851865768433,0.07684154808521271
1789998446838254300,1.44525439453125,-1.1958764791488647,-0.7573533654212952,0.07329724729061127
1789998446848324600,1.45532470703125,-1.2288941144943237,-0.7800400257110596,0.0774240791797638
1789998446858394400,1.465394287109375,-1.2872239351272583,-0.8030274510383606,0.06941822916269302
1789998446868464400,1.47546435546875,-1.3180031776428223,-0.8618636131286621,0.09620270878076553
1789998446878534400,1.485534423828125,-1.346380591392517,-0.9148898124694824,0.05197233334183693
1789998446888604400,1.4956044921875,-1.419245719909668,-0.9827503561973572,-0.021031836047768593
1789998446898675500,1.505675537109375,-1.4395042657852173,-1.0251423120498657,-0.010666579008102417
1789998446908745500,1.515745361328125,-1.4586387872695923,-1.057240605354309,0.07984600961208344
1789998446918815500,1.5258154296875,-1.4954400062561035,-1.1605143547058105,0.10465645790100098
1789998446928885500,1.535885498046875,-1.5345730781555176,-1.2492252588272095,0.10467509925365448
1789998446938955300,1.545955322265625,-1.5894570350646973,-1.2812262773513794,0.11016503721475601
1789998446949025300,1.556025390625,-1.6301250457763672,-1.3124191761016846,-0.02518000826239586
1789998446959095600,1.566095458984375,-1.6286568641662598,-1.4192451238632202,-0.07798510789871216
1789998446969166600,1.57616650390625,-1.5877981185913086,-1.471250295639038,0.020861579105257988
1789998446979236400,1.586236328125,-1.5930627584457397,-1.5030044317245483,0.10934142023324966
1789998446989306400,1.596306396484375,-1.6682757139205933,-1.5795639753341675,-0.04906313493847847
1789998446999376600,1.606376708984375,-1.7293397188186646,-1.646562099456787,-0.12222108244895935
1789998447009446400,1.6164462890625,-1.7669789791107178,-1.667330026626587,0.061166584491729736
1789998447019516400,1.626516357421875,-1.8353838920593262,-1.7359116077423096,0.051936760544776917
1789998447029587500,1.63658740234375,-1.784063458442688,-1.815064549446106,-0.02565922960639
1789998447039657500,1.646657470703125,-1.786607265472412,-1.8015660047531128,0.09001801162958145
1789998447049727500,1.6567275390625,-1.8705759048461914,-1.8698468208312988,0.1505625694990158
1789998447059797500,1.666797607421875,-1.924630880355835,-1.9317845106124878,0.019674871116876602
1789998447069867300,1.6768671875,-1.7950729131698608,-1.9123159646987915,0.004451975226402283
1789998447079937500,1.6869375,-1.6907414197921753,-1.8600566387176514,0.07494932413101196
1789998447090008600,1.697008544921875,-1.7243598699569702,-1.8860828876495361,0.1717482954263687
1789998447100078300,1.707078369140625,-1.780847191810608,-1.906594157218933,0.14723119139671326
1789998447110148400,1.7171484375,-1.735849380493164,-1.9253859519958496,0.14118555188179016
1789998447120218600,1.727218505859375,-1.6339154243469238,-1.920440435409546,0.16297291219234467
1789998447130288400,1.737288330078125,-1.6144429445266724,-1.855562686920166,0.35378122329711914
1789998447140358400,1.7473583984375,-1.5513056516647339,-1.8398995399475098,0.31185945868492126
1789998447150428400,1.757428466796875,-1.3465101718902588,-1.8481899499893188,0.31802016496658325
1789998447160499500,1.76749951171875,-1.269956111907959,-1.790221929550171,0.304238885641098
1789998447170569500,1.777569580078125,-1.320639729499817,-1.7147072553634644,0.3370162844657898
1789998447180639500,1.787639404296875,-1.2704451084136963,-1.7233134508132935,0.1687828004360199
1789998447190709200,1.797709228515625,-1.1914997100830078,-1.6894721984863281,0.3544303774833679
1789998447200779500,1.807779541015625,-1.181679129600525,-1.6392285823822021,0.4711150825023651
1789998447210849500,1.817849609375,-1.2039004564285278,-1.6152178049087524,0.5099298357963562
1789998447220920300,1.82792041015625,-1.1491649150848389,-1.672670602798462,0.6600754261016846
1789998447230990300,1.837990234375,-1.1345138549804688,-1.6807851791381836,0.7563327550888062
1789998447241060600,1.848060546875,-1.1617718935012817,-1.6229658126831055,0.664711058139801
1789998447251130400,1.85813037109375,-1.1079949140548706,-1.594390630722046,0.6128808259963989
1789998447261200400,1.868200439453125,-0.9207399487495422,-1.6255271434783936,0.5938087701797485
1789998447271270400,1.8782705078125,-0.7863874435424805,-1.6017374992370605,0.7905822992324829
1789998447281341400,1.888341552734375,-0.7580900192260742,-1.576255202293396,0.7994069457054138
1789998447291411500,1.898411376953125,-0.7986606359481812,-1.5164332389831543,0.8536893725395203
1789998447301481500,1.9084814453125,-0.7574430704116821,-1.4817724227905273,0.8790168762207031
1789998447311551200,1.91855126953125,-0.7149259448051453,-1.4292259216308594,0.8048028349876404
1789998447321621500,1.92862158203125,-0.6062854528427124,-1.3872212171554565,0.7753260135650635
1789998447331691500,1.93869140625,-0.4908924996852875,-1.288116455078125,0.8109862804412842
1789998447341761300,1.94876123046875,-0.40195736289024353,-1.2446417808532715,0.7467383742332458
1789998447351832300,1.958832275390625,-0.3843642473220825,-1.2453073263168335,0.7690892219543457
1789998447361902600,1.968902587890625,-0.39152640104293823,-1.2129929065704346,0.7897478938102722
1789998447371972400,1.978972412109375,-0.32352232933044434,-1.1957800388336182,0.7823712229728699
1789998447382042400,1.98904248046875,-0.2908327281475067,-1.2044320106506348,0.7391960024833679
1789998447392112400,1.9991123046875,-0.2238297313451767,-1.1865057945251465,0.8587644696235657
1789998447402182400,2.009182373046875,-0.18318818509578705,-1.1527036428451538,0.8789805173873901
1789998447412253400,2.01925341796875,-0.21027812361717224,-1.1122816801071167,0.9754077196121216
1789998447422323500,2.029323486328125,-0.18094031512737274,-1.108022689819336,0.9833229780197144
1789998447432393200,2.039393310546875,-0.08078122138977051,-1.0838878154754639,0.7510839104652405
1789998447442463500,2.04946337890625,-0.030226659029722214,-1.0305471420288086,0.7074530720710754
1789998447452533500,2.059533447265625,-0.09266474097967148,-0.9549455046653748,0.7980253100395203
1789998447462603300,2.069603271484375,-0.09136191755533218,-0.9210178256034851,0.9036993384361267
1789998447472674300,2.07967431640625,0.00031207280699163675,-0.9093585014343262,0.8948379158973694
1789998447482744600,2.08974462890625,0.14000701904296875,-0.8729791045188904,0.9460405111312866
1789998447492814300,2.099814453125,0.12516656517982483,-0.8235239386558533,0.7530313730239868
1789998447502884400,2.10988427734375,0.02310868911445141,-0.8175269365310669,0.5849814414978027
1789998447512954400,2.119954345703125,0.0027831781189888716,-0.8118653297424316,0.6222731471061707
1789998447523024400,2.1300244140625,0.054652780294418335,-0.7562854290008545,0.7401481866836548
1789998447533094400,2.140094482421875,0.06975290924310684,-0.7722193598747253,0.6713939309120178
1789998447543165400,2.15016552734375,0.045145463198423386,-0.8258715867996216,0.5799849629402161
1789998447553235500,2.1602353515625,0.05823409929871559,-0.8046842813491821,0.5352385640144348
1789998447563305500,2.170305419921875,0.09463482350111008,-0.8097132444381714,0.5282426476478577
1789998447573375500,2.18037548828125,0.0651554986834526,-0.848389208316803,0.4321396052837372
1789998447583445200,2.1904453125,-0.008130982518196106,-0.8770608305931091,0.5039779543876648
1789998447593515500,2.200515625,0.0012398827821016312,-0.9282081723213196,0.5676488280296326
1789998447603586600,2.210586669921875,-0.01979837380349636,-0.9432001113891602,0.6438458561897278
1789998447613656600,2.220656494140625,-0.03148272633552551,-1.0278347730636597,0.5101767182350159
1789998447623726300,2.230726318359375,-0.024245047941803932,-1.076453685760498,0.4588741362094879
1789998447633796400,2.24079638671875,-0.07745420932769775,-1.1203138828277588,0.24555043876171112
1789998447643866600,2.25086669921875,-0.278560072183609,-1.1597943305969238,0.29766789078712463
1789998447653936400,2.260936279296875,-0.3427843153476715,-1.2121765613555908,0.25286418199539185
1789998447664007400,2.27100732421875,-0.21937958896160126,-1.2593339681625366,0.3540288805961609
1789998447674077400,2.281077392578125,-0.1704101711511612,-1.2656961679458618,0.5037568807601929
1789998447684147500,2.2911474609375,-0.24856887757778168,-1.2281665802001953,0.505789041519165
1789998447694217500,2.301217529296875,-0.26258164644241333,-1.2478431463241577,0.2589872479438782
1789998447704287500,2.31128759765625,-0.19796010851860046,-1.2548112869262695,0.26936814188957214
1789998447714357800,2.321357666015625,-0.11015915870666504,-1.2635711431503296,0.44512292742729187
1789998447724428000,2.331427978515625,-0.10345226526260376,-1.2129192352294922,0.4961332678794861
1789998447734499000,2.3414990234375,-0.051504381000995636,-1.171261191368103,0.42363882064819336
1789998447744569000,2.351569091796875,0.04004022479057312,-1.1509699821472168,0.4146081209182739
1789998447754638800,2.361638916015625,0.11093277484178543,-1.1125084161758423,0.38784363865852356
1789998447764709000,2.371709228515625,0.17741136252880096,-1.0238678455352783,0.47732433676719666
1789998447774779000,2.38177880859375,0.33962714672088623,-0.9436594843864441,0.42977333068847656
1789998447784849000,2.391848876953125,0.5086551904678345,-0.866102933883667,0.43994230031967163
1789998447794920000,2.401919921875,0.5386061668395996,-0.7876789569854736,0.5380595922470093
1789998447804990000,2.411989990234375,0.5810701251029968,-0.7011430263519287,0.4673115015029907
1789998447815060000,2.42206005859375,0.677825927734375,-0.590079128742218,0.40725377202033997
1789998447825130000,2.4321298828125,0.7944764494895935,-0.5440326929092407,0.4266488254070282
1789998447835200000,2.442199951171875,0.83448725938797,-0.4888048768043518,0.4354633688926697
1789998447845270000,2.45227001953125,0.8684699535369873,-0.4377848505973816,0.35672861337661743
1789998447855340000,2.462340087890625,0.9436190724372864,-0.41165629029273987,0.3028789460659027
1789998447865411000,2.4724111328125,1.017354965209961,-0.38973310589790344,0.4386966824531555
1789998447875480800,2.482480712890625,0.9607726335525513,-0.31484395265579224,0.44876742362976074
1789998447885550800,2.49255078125,0.9926859140396118,-0.23169322311878204,0.3576269745826721
1789998447895621000,2.50262109375,1.0828243494033813,-0.14031776785850525,0.3173980414867401
1789998447905691000,2.51269091796875,1.1425224542617798,-0.08689358085393906,0.31491443514823914
1789998447915761000,2.522760986328125,1.2224260568618774,-0.04058466851711273,0.2849019467830658
1789998447925832000,2.53283203125,1.2694050073623657,0.023425454273819923,0.27471792697906494
1789998447935902000,2.54290185546875,1.2160898447036743,0.05770673230290413,0.27714991569519043
1789998447945972000,2.552971923828125,1.2409110069274902,0.0689159706234932,0.2636655271053314
1789998447956042000,2.5630419921875,1.2930631637573242,0.19908170402050018,0.2294503152370453
1789998447966112000,2.573112060546875,1.391917109489441,0.2863283157348633,0.20067761838436127
1789998447976182000,2.58318212890625,1.4541915655136108,0.3602912425994873,0.21617987751960754
1789998447986252000,2.593251953125,1.4431160688400269,0.5009537935256958,0.1627640575170517
1789998447996322800,2.60332275390625,1.5395355224609375,0.583880603313446,-0.029988359659910202
1789998448006392800,2.613392822265625,1.6872910261154175,0.6640163064002991,0.04406486824154854
1789998448016463000,2.623463134765625,1.7353708744049072,0.68830406665802,0.1419091373682022
1789998448026532900,2.633532958984375,1.6690266132354736,0.7862972021102905,0.08346638828516006
1789998448036603000,2.643602783203125,1.7308253049850464,0.8715934753417969,-0.00986116100102663
1789998448046673200,2.653673095703125,1.7413471937179565,0.970535933971405,-0.01372117642313242
1789998448056744000,2.663743896484375,1.7700787782669067,0.9920430779457092,0.021246394142508507
1789998448066814000,2.67381396484375,1.7512538433074951,1.038855791091919,-0.056853264570236206
1789998448076884000,2.683884033203125,1.853407859802246,1.0837620496749878,-0.0025641932152211666
1789998448086954000,2.6939541015625,1.9861615896224976,1.1049373149871826,0.07854541391134262
1789998448097024000,2.70402392578125,2.002779960632324,1.2179837226867676,0.012199951335787773
1789998448107094000,2.714093994140625,1.9839558601379395,1.2545685768127441,-0.15017913281917572
1789998448117163800,2.724163818359375,1.9603692293167114,1.3332394361495972,-0.08734077215194702
1789998448127234800,2.73423486328125,2.0139317512512207,1.3152153491973877,0.049554482102394104
1789998448137305000,2.74430517578125,1.9667149782180786,1.398810863494873,-0.05143551528453827
1789998448147374800,2.754374755859375,1.9372191429138184,1.4731643199920654,-0.1411914974451065
1789998448157444900,2.76444482421875,1.882032871246338,1.5334596633911133,-0.12281514704227448
1789998448167515100,2.77451513671875,1.8828099966049194,1.5593122243881226,-0.06711839884519577
1789998448177585000,2.7845849609375,1.8417110443115234,1.627570629119873,-0.14617221057415009
1789998448187656000,2.794656005859375,1.8160830736160278,1.6951866149902344,-0.14164790511131287
1789998448197726000,2.804725830078125,1.8174642324447632,1.7414982318878174,-0.07164483517408371
1789998448207796000,2.8147958984375,1.8618420362472534,1.755881905555725,0.07076679170131683
1789998448217866000,2.824865966796875,1.9271788597106934,1.6770800352096558,0.10175453871488571
1789998448227936000,2.83493603515625,1.8619917631149292,1.676059365272522,0.09120887517929077
1789998448238005800,2.845005859375,1.706976056098938,1.6174267530441284,0.1784396469593048
1789998448248076000,2.855075927734375,1.5313509702682495,1.5998519659042358,0.010977037250995636
1789998448258147000,2.86514697265625,1.3508126735687256,1.6438697576522827,0.009694192558526993
1789998448268216800,2.875216796875,1.2860606908798218,1.5825449228286743,0.044564906507730484
1789998448278286800,2.885286865234375,1.171519160270691,1.4707609415054321,0.03950809687376022
1789998448288357000,2.895357177734375,1.034106969833374,1.4238089323043823,-0.02075944095849991
1789998448298427000,2.905427001953125,1.0787991285324097,1.3734495639801025,0.1270473301410675
1789998448308497000,2.915496826171875,1.2646217346191406,1.33212411403656,0.17142541706562042
1789998448318568000,2.92556787109375,1.097680687904358,1.2554264068603516,0.10918016731739044
1789998448328638000,2.935637939453125,0.8162885308265686,1.2027897834777832,0.13774718344211578
1789998448338708000,2.9457080078125,0.8335540890693665,1.1425118446350098,0.25630924105644226
1789998448348778000,2.955778076171875,0.8280690908432007,1.0598098039627075,0.16431879997253418
1789998448358847700,2.96584765625,0.6955885887145996,0.971510648727417,0.17405158281326294
1789998448368918000,2.97591796875,0.6710498929023743,0.9230956435203552,0.3798365592956543
1789998448378988000,2.985988037109375,0.6263799071311951,0.907132625579834,0.38213008642196655
1789998448389059000,2.99605908203125,0.3572075664997101,0.7618692517280579,0.27196788787841797
1789998448399128800,3.00612890625,0.3051193356513977,0.7600255608558655,0.2649421989917755
1789998448409199000,3.01619921875,0.25737395882606506,0.796955943107605,0.37391048669815063
1789998448419268900,3.026268798828125,0.06356799602508545,0.6774798631668091,0.2134273499250412
1789998448429339000,3.0363388671875,-0.06466536968946457,0.5738620758056641,0.30658867955207825
1789998448439409000,3.046408935546875,0.035785071551799774,0.5630056858062744,0.43999412655830383
1789998448449480000,3.05647998046875,0.0018647722899913788,0.48946699500083923,0.3139668107032776
1789998448459550000,3.066550048828125,-0.047436993569135666,0.4630468189716339,0.30228137969970703
1789998448469620000,3.076619873046875,-0.0532861202955246,0.4469833970069885,0.5964222550392151
1789998448479690000,3.08668994140625,-0.14084792137145996,0.35555708408355713,0.4374059736728668
1789998448489760000,3.096760009765625,-0.25200286507606506,0.2787758409976959,0.32780757546424866
1789998448499830000,3.106830078125,-0.19898439943790436,0.3564770221710205,0.38577234745025635
1789998448509899800,3.116899658203125,-0.1594689041376114,0.35799169540405273,0.36626338958740234
1789998448519970800,3.126970703125,-0.21668292582035065,0.3685916066169739,0.2528420388698578
1789998448530041000,3.137041015625,-0.08255952596664429,0.4038884937763214,0.4148000180721283
1789998448540111000,3.147111083984375,-0.07396470755338669,0.39717546105384827,0.40575724840164185
1789998448550180900,3.157180908203125,-0.2330119013786316,0.3350942134857178,0.22883416712284088
1789998448560251000,3.1672509765625,-0.3304029107093811,0.34667685627937317,0.22473716735839844
1789998448570321000,3.17732080078125,-0.3110412061214447,0.31081730127334595,0.1952221691608429
1789998448580392000,3.187391845703125,-0.3208477795124054,0.24612779915332794,0.07055880129337311
1789998448590462000,3.1974619140625,-0.36376953125,0.21720005571842194,0.169620081782341
1789998448600532000,3.207531982421875,-0.2678845524787903,0.19863489270210266,0.2678622305393219
1789998448610602000,3.21760205078125,-0.2238582819700241,0.14826801419258118,0.2708792984485626
1789998448620672000,3.227672119140625,-0.44922134280204773,0.09953722357749939,0.05613609403371811
1789998448630742000,3.237741943359375,-0.5630990266799927,0.015826450660824776,0.22155483067035675
1789998448640812000,3.24781201171875,-0.5042300820350647,-0.02200348488986492,0.24859122931957245
1789998448650883000,3.257883056640625,-0.48851874470710754,-0.0672912672162056,0.11520486325025558
1789998448660953000,3.267953125,-0.553892970085144,-0.1403135359287262,0.10388322919607162
1789998448671022800,3.27802294921875,-0.5145922899246216,-0.10102875530719757,0.19125548005104065
1789998448681092900,3.2880927734375,-0.5142098665237427,-0.09905588626861572,0.23479363322257996
1789998448691163100,3.2981630859375,-0.6133186221122742,-0.20762744545936584,0.09517446905374527
1789998448701233000,3.30823291015625,-0.5650597810745239,-0.20806951820850372,0.08159874379634857
1789998448711302400,3.318302490234375,-0.480258584022522,-0.05401603877544403,0.020522605627775192
1789998448721373400,3.32837353515625,-0.4495733976364136,0.01627543568611145,0.09518033266067505
1789998448731443500,3.338443359375,-0.43277543783187866,0.022974230349063873,0.16084106266498566
1789998448741513200,3.34851318359375,-0.39585068821907043,0.03705276548862457,0.12033411115407944
1789998448751583200,3.358583251953125,-0.2612222135066986,0.1418781876564026,0.0918978750705719
1789998448761653200,3.3686533203125,-0.12545904517173767,0.2673671245574951,0.07727552205324173
1789998448771723300,3.37872314453125,-0.11006545275449753,0.3225771188735962,0.09629262238740921
1789998448781794300,3.388794189453125,-0.031333889812231064,0.29556840658187866,0.19935323297977448
1789998448791864300,3.3988642578125,0.09166952222585678,0.3357762396335602,0.3051098585128784
1789998448801934300,3.408934326171875,0.22253219783306122,0.4831942021846771,-0.07778558880090714
1789998448812004400,3.41900439453125,0.16430653631687164,0.5481196045875549,-0.20781123638153076
1789998448822074400,3.429074462890625,0.16204631328582764,0.4686434268951416,0.12006490677595139
1789998448832144400,3.439144287109375,0.20406681299209595,0.5143309235572815,0.33005058765411377
1789998448842214400,3.44921435546875,0.27547869086265564,0.5616031289100647,0.16388797760009766
1789998448852285400,3.459285400390625,0.30120840668678284,0.6105666756629944,0.14149613678455353
1789998448862355200,3.469355224609375,0.28288930654525757,0.6962202787399292,0.20491798222064972
1789998448872425200,3.47942529296875,0.21033211052417755,0.7043606638908386,0.07210106402635574
1789998448882495500,3.48949560546875,0.20916004478931427,0.6369249224662781,0.12089869379997253
1789998448892565200,3.499565185546875,0.3500711917877197,0.601466953754425,0.24896249175071716
1789998448902635300,3.50963525390625,0.4336739480495453,0.6578684449195862,0.18104442954063416
1789998448912706300,3.519706298828125,0.30989882349967957,0.6456085443496704,0.20204250514507294
1789998448922776300,3.5297763671875,0.07891328632831573,0.5970860123634338,0.08457978814840317
1789998448932846300,3.539846435546875,-0.030216924846172333,0.5785381197929382,0.054583340883255005
1789998448942916400,3.549916259765625,-0.006572584621608257,0.5097603797912598,0.1805625706911087
1789998448952986400,3.559986328125,0.03508538007736206,0.5081563591957092,0.10600658506155014
1789998448963056400,3.570056396484375,-0.08558191359043121,0.49932265281677246,0.0606931634247303
1789998448973126400,3.58012646484375,-0.11240671575069427,0.43525025248527527,0.22948984801769257
1789998448983197200,3.590197265625,-0.12953351438045502,0.40197592973709106,0.2150334119796753
1789998448993267200,3.60026708984375,-0.2636975049972534,0.2978650629520416,0.05539178475737572
1789998449003337500,3.61033740234375,-0.37881770730018616,0.2106284350156784,0.14605803787708282
1789998449013407200,3.6204072265625,-0.37730544805526733,0.1713763326406479,0.11494117975234985
1789998449023477200,3.630477294921875,-0.42158743739128113,0.12004896253347397,0.08137283474206924
1789998449033547500,3.640547607421875,-0.4982106685638428,0.04341713711619377,0.15619111061096191
1789998449043617300,3.6506171875,-0.5400803089141846,-0.012532416731119156,0.07786381244659424
1789998449053688300,3.660688232421875,-0.6267595291137695,-0.08028919249773026,0.06925598531961441
1789998449063758300,3.67075830078125,-0.6563512086868286,-0.11238907277584076,0.03825359046459198
1789998449073828000,3.680828125,-0.6077934503555298,-0.14104214310646057,0.07214595377445221
1789998449083898400,3.6908984375,-0.6408190131187439,-0.17829790711402893,0.0468994565308094
1789998449093968400,3.700968505859375,-0.6631138920783997,-0.2104039341211319,0.03978092968463898
1789998449104038100,3.7110380859375,-0.744154155254364,-0.2728164494037628,0.1182488426566124
1789998449114109200,3.721109130859375,-0.7075789570808411,-0.3340132534503937,0.14736174046993256
1789998449124179500,3.731179443359375,-0.7623162269592285,-0.37778976559638977,0.1421280950307846
1789998449134249200,3.741249267578125,-0.7975868582725525,-0.44636377692222595,0.17262867093086243
1789998449144319200,3.7513193359375,-0.8110848665237427,-0.444498211145401,0.13727441430091858
1789998449154389500,3.761389404296875,-0.8102930188179016,-0.47824913263320923,0.09866304695606232
1789998449164459300,3.771459228515625,-0.8248205184936523,-0.49406886100769043,-0.025644788518548012
1789998449174529300,3.781529296875,-0.7868121266365051,-0.5214241743087769,0.09529951959848404
1789998449184600300,3.791600341796875,-0.7715396881103516,-0.5412425994873047,0.22723384201526642
1789998449194670000,3.801670166015625,-0.7402854561805725,-0.6370753049850464,0.2450803816318512
1789998449204740400,3.811740234375,-0.6648814678192139,-0.6643196940422058,0.05164194852113724
1789998449214810400,3.821810302734375,-0.6835787892341614,-0.6380897164344788,-0.09966748207807541
1789998449224880000,3.831880126953125,-0.6789757609367371,-0.6511991024017334,-0.07537945359945297
1789998449234950400,3.841950439453125,-0.5941527485847473,-0.6174260377883911,-0.07873284071683884
1789998449245020400,3.8520205078125,-0.568027675151825,-0.6311663389205933,-0.0996708795428276
1789998449255091200,3.86209130859375,-0.5945298075675964,-0.6122050285339355,-0.0509321354329586
1789998449265161200,3.8721611328125,-0.5695698261260986,-0.5876349806785583,-0.10189411789178848
1789998449275231500,3.8822314453125,-0.5300524830818176,-0.5503873825073242,-0.10538145154714584
1789998449285301200,3.89230126953125,-0.4430573880672455,-0.5101494193077087,0.06437988579273224
1789998449295371300,3.902371337890625,-0.3617303669452667,-0.44497767090797424,0.01629502698779106
1789998449305441300,3.912441162109375,-0.2859352231025696,-0.3746342658996582,0.06658935546875
1789998449315511300,3.92251123046875,-0.2322162240743637,-0.320552259683609,0.05563687905669212
1789998449325582300,3.932582275390625,-0.15619389712810516,-0.23774577677249908,-0.10186540335416794
1789998449335652400,3.94265234375,-0.07929227501153946,-0.17398348450660706,-0.12277337908744812
1789998449345722000,3.95272216796875,-0.00866018421947956,-0.10852723568677902,-0.0574316568672657
1789998449355792400,3.96279248046875,0.06761527061462402,-0.011249404400587082,-0.08388297259807587
1789998449365862400,3.9728623046875,0.08744516968727112,0.057638052850961685,-0.07564554363489151
1789998449375932200,3.98293212890625,0.10314472019672394,0.0557156465947628,-0.07689061760902405
1789998449386003200,3.993003173828125,0.15367047488689423,0.06962640583515167,0.015789251774549484
1789998449396073200,4.0030732421875,0.18469464778900146,0.11257375776767731,0.06251407414674759
1789998449406143200,4.013143310546875,0.22235973179340363,0.15737691521644592,0.040569089353084564
1789998449416213200,4.023213134765625,0.24203094840049744,0.18985159695148468,0.03480428084731102
1789998449426283300,4.033283203125,0.2895803451538086,0.1983361542224884,0.06371156871318817
1789998449436353300,4.043353271484375,0.31316837668418884,0.23104563355445862,0.10636156797409058
1789998449446423300,4.05342333984375,0.3430708646774292,0.28306567668914795,0.05498972907662392
1789998449456494300,4.063494384765625,0.385847806930542,0.36108097434043884,-0.16856451332569122
1789998449466564000,4.073564208984375,0.3551471531391144,0.36671462655067444,-0.16615036129951477
1789998449476634400,4.08363427734375,0.3210313618183136,0.3087617754936218,-0.09205276519060135
1789998449486704400,4.093704345703125,0.2580193877220154,0.33791062235832214,-0.021682200953364372
1789998449496774100,4.103774169921875,0.3358307182788849,0.41591039299964905,-0.10563161224126816
1789998449506844200,4.11384423828125,0.45317599177360535,0.4219712018966675,0.13983246684074402
1789998449516914400,4.12391455078125,0.4842454493045807,0.37701132893562317,0.07311106473207474
1789998449526985500,4.1339853515625,0.42604976892471313,0.3716208338737488,0.05568040534853935
1789998449537055200,4.14405517578125,0.3766261041164398,0.3446583151817322,0.06290966272354126
1789998449547125200,4.154125244140625,0.36339178681373596,0.36844754219055176,0.03425697982311249
1789998449557195300,4.1641953125,0.34294286370277405,0.4083535075187683,-0.02040710672736168
1789998449567265300,4.174265380859375,0.40229541063308716,0.3921779990196228,0.004328333772718906
1789998449577335300,4.184335205078125,0.41756120324134827,0.40582162141799927,0.17403514683246613
1789998449587406300,4.19440625,0.36028778553009033,0.4090864062309265,0.1697613000869751
1789998449597476400,4.204476318359375,0.30531543493270874,0.44847312569618225,-0.034667689353227615
1789998449607546400,4.21454638671875,0.2694375813007355,0.5062682628631592,-0.03635320067405701
1789998449617616100,4.2246162109375,0.25274425745010376,0.4647296369075775,0.1544487178325653
1789998449627686100,4.23468603515625,0.23351198434829712,0.395469605922699,0.2639440596103668
1789998449637756400,4.24475634765625,0.2289682924747467,0.3739146590232849,0.23830775916576385
1789998449647826200,4.254826171875,0.27553898096084595,0.3938763737678528,0.02394859865307808
1789998449657897200,4.264897216796875,0.25296640396118164,0.39495810866355896,0.012526481412351131
1789998449667967200,4.27496728515625,0.10762038081884384,0.3337368071079254,0.15543542802333832
1789998449678037500,4.28503759765625,-0.0603737011551857,0.2362419068813324,0.17199714481830597
1789998449688107300,4.295107177734375,-0.13813906908035278,0.2241378277540207,0.036239322274923325
1789998449698177300,4.30517724609375,-0.07843628525733948,0.2406764030456543,0.12423184514045715
1789998449708247300,4.315247314453125,-0.07350970804691315,0.23300383985042572,0.10426745563745499
1789998449718317800,4.32531787109375,-0.18454022705554962,0.1265532523393631,0.09359841048717499
1789998449728388900,4.335388916015625,-0.19490258395671844,0.04195581376552582,0.12945601344108582
1789998449738458600,4.345458740234375,-0.14754903316497803,0.04183867573738098,0.08895011991262436
1789998449748528600,4.355528564453125,-0.14338597655296326,0.0407012403011322,0.04611876606941223
1789998449758598700,4.3655986328125,-0.21603061258792877,-0.005837499164044857,0.055402010679244995
1789998449768668700,4.375668701171875,-0.2770845890045166,-0.04155780375003815,-0.046329066157341
1789998449778738700,4.38573876953125,-0.27913999557495117,-0.09455974400043488,0.0781586617231369
1789998449788808700,4.39580859375,-0.22796949744224548,-0.12042596191167831,0.12135913223028183
1789998449798879700,4.405879638671875,-0.25003141164779663,-0.14414329826831818,0.18572306632995605
1789998449808949800,4.41594970703125,-0.2834194600582123,-0.1786261796951294,0.11866947263479233
1789998449819019500,4.42601953125,-0.2913639545440674,-0.23142896592617035,0.1114162877202034
1789998449829089500,4.436089599609375,-0.2885822653770447,-0.22737136483192444,0.0055580283515155315
1789998449839159800,4.446159912109375,-0.28799256682395935,-0.2573845088481903,-0.02568282000720501
1789998449849229600,4.4562294921875,-0.2749180495738983,-0.2644946277141571,0.01026106532663107
1789998449859300600,4.466300537109375,-0.2959945499897003,-0.2800951302051544,-0.030230820178985596
1789998449869370600,4.47637060546875,-0.253543496131897,-0.3224351108074188,0.012365642003715038
1789998449879441000,4.48644091796875,-0.23211298882961273,-0.28097572922706604,-0.039611272513866425
1789998449889510700,4.4965107421875,-0.24382902681827545,-0.2663850784301758,-0.10259396582841873
1789998449899580700,4.50658056640625,-0.2319866418838501,-0.255418986082077,-0.06470201909542084
1789998449909650700,4.516650634765625,-0.1887425035238266,-0.24245791137218475,0.04282364249229431
1789998449919720700,4.526720703125,-0.20866943895816803,-0.2428285777568817,-0.03654707223176956
1789998449929791700,4.536791748046875,-0.22331549227237701,-0.22161808609962463,-0.046384524554014206
1789998449939861800,4.54686181640625,-0.16471342742443085,-0.1902465671300888,0.06010683998465538
1789998449949931500,4.556931640625,-0.09230446815490723,-0.1379692554473877,-0.07449144870042801
1789998449960001800,4.567001708984375,-0.07329511642456055,-0.08502942323684692,-0.17223437130451202
1789998449970071600,4.577071533203125,-0.04052785411477089,-0.05209730565547943,-0.08744119107723236
1789998449980141600,4.5871416015625,0.012850162573158741,-0.0343097485601902,0.009726795367896557
1789998449990211800,4.5972119140625,0.08213869482278824,0.0030296347104012966,0.05005184933543205
1789998450000283000,4.607282958984375,0.06619523465633392,0.010030221194028854,0.032070111483335495
1789998450010352600,4.6173525390625,0.028066761791706085,0.032835401594638824,-0.019970187917351723
1789998450020422700,4.627422607421875,0.01288809534162283,0.08757353574037552,-0.057281654328107834
1789998450030492700,4.63749267578125,0.05492076650261879,0.09897000342607498,-0.03855164349079132
1789998450040562700,4.647562744140625,0.07400710135698318,0.07640979439020157,-0.02272382192313671
1789998450050632700,4.6576328125,0.05761906877160072,0.09235227108001709,-0.079424649477005
1789998450060702500,4.667702392578125,0.09560523927211761,0.11249331384897232,-0.0274563729763031
1789998450070773500,4.6777734375,0.12568190693855286,0.10187209397554398,0.014506258070468903
1789998450080843800,4.68784375,0.14305365085601807,0.09162837266921997,0.09298758953809738
1789998450090913800,4.697913818359375,0.13762931525707245,0.07197477668523788,0.19957660138607025
1789998450100983600,4.707983642578125,0.09045030176639557,0.0603097639977932,0.19278442859649658
1789998450111053800,4.7180537109375,0.034939371049404144,0.05929776653647423,-0.03971298784017563
1789998450121123600,4.72812353515625,0.014338615350425243,0.03499292954802513,-0.11921186000108719
1789998450131193600,4.738193603515625,0.04449199140071869,-0.0003490825183689594,0.05945935100317001
1789998450141264600,4.7482646484375,0.02616349793970585,-0.012368094176054,0.07844898104667664
1789998450151334700,4.758334716796875,-0.00011311331763863564,-0.011695646680891514,0.0075718797743320465
1789998450161404700,4.76840478515625,-0.02411767840385437,-0.007927323691546917,0.09200179576873779
1789998450171474700,4.778474609375,-0.021136268973350525,0.008467361330986023,0.024401448667049408
1789998450181544700,4.788544677734375,-0.004646969027817249,-0.004601700697094202,0.03503374755382538
1789998450191614700,4.79861474609375,-0.03439953923225403,-0.007346088066697121,-0.06353943049907684
1789998450201684700,4.808684814453125,-0.015194074250757694,-0.04613621532917023,-0.16834019124507904
1789998450211755800,4.818755859375,-0.029082193970680237,-0.07030519843101501,-0.01666570082306862
1789998450221825500,4.828825439453125,-0.04269067570567131,-0.08313389122486115,0.03364787995815277
1789998450231895800,4.838895751953125,-0.05867256969213486,-0.1310979574918747,-0.0950552374124527
1789998450241965800,4.8489658203125,-0.0567365363240242,-0.13577117025852203,-0.053427405655384064
1789998450252035600,4.85903564453125,-0.0061881402507424355,-0.11332205682992935,0.09906892478466034
1789998450262105600,4.869105712890625,0.058733392506837845,-0.13927315175533295,0.07603327929973602
1789998450272175900,4.87917578125,0.03785846754908562,-0.12828361988067627,-0.08292760699987411
1789998450282246700,4.88924658203125,0.04723236337304115,-0.12609322369098663,-0.12658531963825226
1789998450292316700,4.899316650390625,0.09371650964021683,-0.09754146635532379,-0.04733603820204735
1789998450302386700,4.90938671875,0.12928231060504913,-0.08906101435422897,0.1346912384033203
1789998450312456700,4.919456787109375,0.11747677624225616,-0.07518381625413895,-0.026874219998717308
1789998450322526700,4.929526611328125,0.11498116701841354,-0.025079263374209404,-0.1701936274766922
1789998450332596700,4.9395966796875,0.1573195606470108,0.03904752433300018,-0.10624980181455612
1789998450342666800,4.949666748046875,0.27023935317993164,0.08957042545080185,0.11555404216051102
1789998450352737800,4.95973779296875,0.3330497443675995,0.18149368464946747,0.0060211606323719025
1789998450362807800,4.969807861328125,0.2936234176158905,0.2824414074420929,-0.14844903349876404
1789998450372877600,4.979877685546875,0.34962010383605957,0.32482510805130005,-0.06566812843084335
1789998450382947600,4.989947509765625,0.4577328562736511,0.43392038345336914,0.00095323845744133
1789998450393017900,5.000017822265625,0.5084234476089478,0.47021952271461487,0.0816880315542221
1789998450403087600,5.010087646484375,0.5131362676620483,0.4866178631782532,0.04896934702992439
1789998450413158700,5.02015869140625,0.5118126273155212,0.5634164810180664,-0.13636775314807892
1789998450423228700,5.030228759765625,0.468869149684906,0.6074314713478088,-0.08577512204647064
1789998450433298700,5.040298583984375,0.4784509241580963,0.5893288850784302,0.0017901454120874405
1789998450443368700,5.05036865234375,0.4929835796356201,0.5801077485084534,0.06475396454334259
1789998450453438700,5.060438720703125,0.47155576944351196,0.5296980738639832,0.026579683646559715
1789998450463508500,5.070508544921875,0.4672302007675171,0.49028027057647705,-0.001142743043601513
1789998450473578800,5.080578857421875,0.35912075638771057,0.4546666145324707,0.08383366465568542
1789998450483649800,5.09064990234375,0.21719232201576233,0.41362854838371277,0.13403761386871338
1789998450493719600,5.100719482421875,0.19382734596729279,0.36169344186782837,0.02766617387533188
1789998450503789600,5.11078955078125,0.16846968233585358,0.32851338386535645,0.04881953075528145
1789998450513859800,5.12085986328125,0.11900784820318222,0.3399713933467865,-0.024085303768515587
1789998450523929600,5.1309296875,0.03391968086361885,0.3056873679161072,-0.0223687831312418
1789998450533999600,5.14099951171875,0.02375066839158535,0.2635124623775482,0.08668659627437592
1789998450544070000,5.15106982421875,0.08552908897399902,0.1742585301399231,0.0727325826883316
1789998450554140700,5.161140625,0.0810408666729927,0.15909849107265472,0.04710950702428818
1789998450564210700,5.171210693359375,-0.04050062596797943,0.1650833785533905,0.04586486145853996
1789998450574280700,5.18128076171875,-0.15284182131290436,0.10325755923986435,0.07252363860607147
1789998450584350500,5.1913505859375,-0.14489009976387024,0.030190100893378258,0.11233093589544296
1789998450594420700,5.201420654296875,-0.11876928061246872,-0.01011577621102333,0.02488284558057785
1789998450604490800,5.21149072265625,-0.2014390379190445,-0.03356767073273659,-0.04999455437064171
1789998450614560500,5.221560546875,-0.23250959813594818,0.06552162766456604,-0.09951815754175186
1789998450624631600,5.231631591796875,-0.23126474022865295,-0.09051194787025452,-0.19737569987773895
1789998450634701800,5.241701904296875,-0.19654804468154907,-0.0965980663895607,-0.08904361724853516
1789998450644771600,5.251771484375,-0.24167421460151672,-0.09321214258670807,0.025519751012325287
1789998450654841600,5.261841552734375,-0.363777220249176,-0.1242680624127388,0.04924185946583748
1789998450664912000,5.271911865234375,-0.31616997718811035,-0.14982524514198303,0.07289708405733109
1789998450674981600,5.281981689453125,-0.18569134175777435,-0.16126830875873566,0.0772676020860672
1789998450685051600,5.2920517578125,-0.2216591089963913,-0.15176549553871155,-0.004420460667461157
1789998450695122700,5.302122802734375,-0.2754727900028229,-0.17976410686969757,0.008472701534628868
1789998450705192400,5.3121923828125,-0.23234891891479492,-0.20877869427204132,0.0012230882421135902
1789998450715263000,5.322262939453125,-0.14620284736156464,-0.22479680180549622,-0.05921681970357895
1789998450725332700,5.332332763671875,-0.18921434879302979,-0.16976311802864075,-0.09522432088851929
1789998450735402800,5.34240283203125,-0.22367484867572784,-0.14248968660831451,-0.07946319878101349
1789998450745473000,5.35247314453125,-0.15289326012134552,-0.13621534407138824,0.03420018032193184
1789998450755542800,5.362542724609375,-0.06744653731584549,-0.13645637035369873,0.12589813768863678
1789998450765613800,5.37261376953125,-0.049780987203121185,-0.09493765234947205,0.026123953983187675
1789998450775683800,5.382683837890625,-0.08470674604177475,-0.04823460057377815,0.03338159993290901
1789998450785753600,5.392753662109375,-0.03511195257306099,-0.060401372611522675,0.027704767882823944
1789998450795823900,5.402823974609375,0.007627788931131363,-0.060211487114429474,0.023151293396949768
1789998450805894000,5.412893798828125,-0.00402897410094738,-0.007194050587713718,-0.03857315704226494
1789998450815963600,5.422963623046875,0.00876059103757143,-0.00946040078997612,0.06210418790578842
1789998450826034000,5.433033935546875,0.05755578354001045,-0.006313913967460394,0.14151988923549652
1789998450836105000,5.44310498046875,0.06968408077955246,0.00011788634583353996,0.17703554034233093
1789998450846174700,5.4531748046875,0.04506422579288483,0.022653289139270782,0.05378658324480057
1789998450856244700,5.46324462890625,0.014354514889419079,0.053659409284591675,-0.009169211611151695
1789998450866315000,5.47331494140625,0.04722565412521362,0.07542383670806885,-0.008910547941923141
1789998450876384800,5.483384765625,0.037251316010951996,0.08411213755607605,0.11721330136060715
1789998450886454800,5.493454833984375,0.02214014157652855,0.08365270495414734,0.2208695411682129
1789998450896524800,5.50352490234375,0.02936875820159912,0.12817144393920898,0.14653484523296356
1789998450906595600,5.513595703125,0.06421533972024918,0.15997447073459625,0.055680811405181885
1789998450916665900,5.523665771484375,0.10312998294830322,0.1515418291091919,0.10468989610671997
1789998450926736000,5.53373583984375,0.1091928705573082,0.1472407430410385,0.14824563264846802
1789998450936805600,5.5438056640625,0.09023089706897736,0.16523438692092896,0.04250669479370117
1789998450946876000,5.5538759765625,0.1086273118853569,0.15061329305171967,-0.05826739966869354
1789998450956946000,5.56394580078125,0.1164865642786026,0.12312681972980499,0.04516418278217316
1789998450967015700,5.574015625,0.10932403802871704,0.10779503732919693,0.10823318362236023
1789998450977086700,5.584086669921875,0.08990933001041412,0.13208386301994324,-0.0242026224732399
1789998450987157000,5.594156982421875,0.11792886257171631,0.1485196352005005,-0.016523391008377075
1789998450997226800,5.604226806640625,0.17756423354148865,0.139103502035141,0.18121550977230072
1789998451007296800,5.614296875,0.23869791626930237,0.14884507656097412,0.20255370438098907
1789998451017366800,5.62436669921875,0.2566350996494293,0.240025594830513,0.027991754934191704
1789998451027436800,5.634436767578125,0.32836613059043884,0.3159637153148651,-0.004221639130264521
1789998451037506800,5.6445068359375,0.3274444043636322,0.34623637795448303,0.09604824334383011
1789998451047577900,5.654577880859375,0.3246292769908905,0.3858051002025604,0.08448195457458496
1789998451057647600,5.664647705078125,0.35522446036338806,0.4700091779232025,-0.01035347580909729
1789998451067718000,5.6747177734375,0.3871871531009674,0.5246192812919617,0.005211402662098408
1789998451077788000,5.684787841796875,0.45659738779067993,0.49981462955474854,0.07538516819477081
1789998451087857700,5.694857666015625,0.4499957859516144,0.5508319735527039,-0.0013867367524653673
1789998451097928000,5.704927978515625,0.4829753041267395,0.6049388647079468,-0.029905997216701508
1789998451107998700,5.714998779296875,0.4933801591396332,0.617262065410614,0.020111247897148132
1789998451118068700,5.72506884765625,0.4411499798297882,0.6440590620040894,-0.022521700710058212
1789998451128138800,5.735138671875,0.35012519359588623,0.6798937320709229,-0.09782220423221588
1789998451138208800,5.745208740234375,0.3187433183193207,0.650217592716217,-0.09508713334798813
1789998451148278800,5.75527880859375,0.3072722256183624,0.6015399694442749,0.12695051729679108
1789998451158348800,5.765348876953125,0.3030892014503479,0.5953659415245056,0.09626103937625885
1789998451168418800,5.775418701171875,0.2780945897102356,0.5599194765090942,-0.028421718627214432
1789998451178488800,5.78548876953125,0.258262574672699,0.5176713466644287,-0.010866960510611534
1789998451188560000,5.795559814453125,0.19127462804317474,0.49015018343925476,0.023498957976698875
1789998451198630000,5.8056298828125,0.08899858593940735,0.45908281207084656,-0.10721777379512787
1789998451208699600,5.81569970703125,-0.04591719061136246,0.4344342052936554,-0.16305339336395264
1789998451218769700,5.825769775390625,-0.07341433316469193,0.3823496997356415,-0.17542244493961334
1789998451228840000,5.83583984375,-0.11758393049240112,0.34602150321006775,-0.08355331420898438
1789998451238909700,5.84590966796875,-0.18473446369171143,0.28191256523132324,0.01649046316742897
1789998451248980700,5.855980712890625,-0.2801547348499298,0.1812134087085724,-0.08332260698080063
1789998451259050800,5.86605078125,-0.32797205448150635,0.12508516013622284,-0.030727040022611618
1789998451269120800,5.876120849609375,-0.347744345664978,0.09304533898830414,0.010815832763910294
1789998451279190800,5.886190673828125,-0.3882550299167633,-0.008666904643177986,0.06323962658643723
1789998451289260800,5.8962607421875,-0.4163477122783661,-0.08242707699537277,0.05187971144914627
1789998451299330800,5.906330810546875,-0.4566858112812042,-0.10540749877691269,0.031633831560611725
1789998451309400800,5.91640087890625,-0.5320219397544861,-0.14737528562545776,0.0680837333202362
1789998451319470800,5.926470947265625,-0.525316059589386,-0.20587748289108276,0.15962909162044525
1789998451329541600,5.936541748046875,-0.5499743223190308,-0.2498633712530136,0.023988476023077965
1789998451339611600,5.946611572265625,-0.5893475413322449,-0.27339982986450195,-0.065457783639431
1789998451349682000,5.956681884765625,-0.5461877584457397,-0.2728061079978943,0.09797628223896027
1789998451359751700,5.966751708984375,-0.505075216293335,-0.25254398584365845,0.12445822358131409
1789998451369821700,5.97682177734375,-0.5616704821586609,-0.3243388235569,0.10359539091587067
1789998451379892000,5.98689208984375,-0.6548901796340942,-0.39216020703315735,0.0380115807056427
1789998451389961700,5.996961669921875,-0.6986166834831238,-0.3589383065700531,-0.07161905616521835
1789998451400032800,6.00703271484375,-0.7020643949508667,-0.2755744457244873,-0.10610698908567429
1789998451410102800,6.017102783203125,-0.6237252950668335,-0.27413901686668396,0.14972566068172455
1789998451420172800,6.0271728515625,-0.6087367534637451,-0.3316150903701782,0.2641744911670685
1789998451430242800,6.037242919921875,-0.5866633653640747,-0.3623225688934326,0.12673626840114594
1789998451440312800,6.047312744140625,-0.582453727722168,-0.30255377292633057,-0.14370587468147278
1789998451450382600,6.057382568359375,-0.5648826956748962,-0.28402018547058105,-0.06930666416883469
1789998451460452900,6.067452880859375,-0.5485303401947021,-0.3403167426586151,0.14790953695774078
1789998451470524000,6.07752392578125,-0.5167043209075928,-0.3723280727863312,0.04632328078150749
1789998451480593700,6.08759375,-0.5623037219047546,-0.3786112666130066,0.04663141071796417
1789998451490663700,6.09766357421875,-0.620516300201416,-0.3363301157951355,0.11164296418428421
1789998451500734000,6.10773388671875,-0.6112806797027588,-0.3677535653114319,0.25287118554115295
1789998451510803700,6.1178037109375,-0.5985746383666992,-0.3953559100627899,0.17068970203399658
1789998451520873700,6.127873779296875,-0.5253033638000488,-0.3879866600036621,0.0550488643348217
1789998451530943700,6.13794384765625,-0.4682180881500244,-0.40732118487358093,-0.03157031163573265
1789998451541014800,6.148014892578125,-0.44062134623527527,-0.41711363196372986,-0.024795228615403175
1789998451551084800,6.158084716796875,-0.5098323822021484,-0.4292401075363159,0.1332070380449295
1789998451561154800,6.16815478515625,-0.5539793372154236,-0.44941195845603943,0.07314156740903854
1789998451571224600,6.178224609375,-0.5548802614212036,-0.4767546057701111,0.021528253331780434
1789998451581294800,6.188294921875,-0.48954200744628906,-0.4712375998497009,0.06780147552490234
1789998451591364900,6.19836474609375,-0.42340776324272156,-0.4526969790458679,-0.02862394228577614
1789998451601434600,6.2084345703125,-0.39961400628089905,-0.4713127315044403,-0.039243560284376144
1789998451611505700,6.218505615234375,-0.40698492527008057,-0.525504469871521,0.0056411270052194595
1789998451621576000,6.228575927734375,-0.41863277554512024,-0.5587095618247986,0.012488913722336292
1789998451631645700,6.238645751953125,-0.4255010783672333,-0.5363336801528931,0.10400871187448502
1789998451641715700,6.2487158203125,-0.41578081250190735,-0.5581585764884949,0.15951856970787048
1789998451651785700,6.25878564453125,-0.35465624928474426,-0.5597954988479614,-0.08432900905609131
1789998451661855700,6.268855712890625,-0.3085619807243347,-0.551089882850647,-0.10550913214683533
1789998451671925800,6.27892578125,-0.2852645516395569,-0.5331186056137085,-0.018527258187532425
1789998451681996800,6.288996826171875,-0.24317967891693115,-0.5207782983779907,0.04939506575465202
1789998451692066800,6.29906689453125,-0.2834447920322418,-0.48635852336883545,-0.07930176705121994
1789998451702136800,6.30913671875,-0.33844441175460815,-0.46525856852531433,-0.039870735257864
1789998451712206600,6.31920654296875,-0.3496886193752289,-0.43242406845092773,-0.06733275949954987
1789998451722276600,6.329276611328125,-0.24998252093791962,-0.3915637135505676,0.03763680160045624
1789998451732346600,6.3393466796875,-0.15142332017421722,-0.36302241683006287,0.06687627732753754
1789998451742416600,6.349416748046875,-0.11837536096572876,-0.35079237818717957,0.03736045956611633
1789998451752487700,6.35948779296875,-0.10092069953680038,-0.3621314465999603,-0.08699152618646622
1789998451762557400,6.369557373046875,-0.06818991154432297,-0.36528250575065613,-0.04351009801030159
1789998451772627700,6.379627685546875,-0.07318441569805145,-0.32811278104782104,-0.06590123474597931
1789998451782697700,6.38969775390625,-0.10130366683006287,-0.3154987394809723,-0.09284336864948273
1789998451792767500,6.399767578125,-0.094091035425663,-0.34272798895835876,0.016156718134880066
1789998451802837500,6.40983740234375,-0.059136249125003815,-0.30930665135383606,0.035410311073064804
1789998451812907800,6.41990771484375,-0.01708996668457985,-0.2869908809661865,0.05854691565036774
1789998451822978600,6.429978515625,0.010020214132964611,-0.2642059326171875,0.07325688004493713
1789998451833048600,6.440048583984375,0.06181509420275688,-0.23665295541286469,0.03849058598279953
1789998451843118600,6.45011865234375,0.07667260617017746,-0.21330715715885162,-0.056965094059705734
1789998451853188600,6.460188720703125,0.07399561256170273,-0.21790501475334167,-0.1535666435956955
1789998451863258600,6.470258544921875,0.09722264111042023,-0.22079746425151825,-0.05895279347896576
1789998451873328600,6.48032861328125,0.12249117344617844,-0.198359414935112,0.09235269576311111
1789998451883398700,6.490398681640625,0.15630240738391876,-0.16131511330604553,0.07327114790678024
1789998451893469700,6.5004697265625,0.16077837347984314,-0.14864060282707214,-0.03755238279700279
1789998451903539700,6.510539794921875,0.08361540734767914,-0.16093190014362335,-0.053703922778367996
1789998451913609500,6.520609375,0.09835153818130493,-0.1531662791967392,-0.00788614246994257
1789998451923679500,6.530679443359375,0.21018272638320923,-0.1393151879310608,0.07150215655565262
1789998451933749800,6.540749755859375,0.2972506880760193,-0.11826758831739426,0.20282019674777985
1789998451943819500,6.550819580078125,0.3225643038749695,-0.14911127090454102,0.24956481158733368
1789998451953889500,6.5608896484375,0.2829059660434723,-0.12719769775867462,0.18999840319156647
1789998451963959800,6.570959716796875,0.26751261949539185,-0.09930960088968277,0.02257852628827095
1789998451974030600,6.581030517578125,0.18571220338344574,-0.09891622513532639,-0.07290734350681305
1789998451984100600,6.5911005859375,0.11379806697368622,-0.15034081041812897,-0.05280181020498276
1789998451994170600,6.601170654296875,0.12550202012062073,-0.16679246723651886,0.05921293795108795
1789998452004240600,6.61124072265625,0.15377706289291382,-0.16660046577453613,0.10013294219970703
1789998452014310700,6.621310546875,0.14422881603240967,-0.17652399837970734,0.12322225421667099
1789998452024380700,6.631380615234375,0.11739055067300797,-0.15032754838466644,0.033487580716609955
1789998452034450400,6.641450439453125,0.11487866193056107,-0.13730143010616302,-0.03924279659986496
1789998452044521500,6.651521484375,0.18555763363838196,-0.15729990601539612,-0.056183964014053345
1789998452054591700,6.661591796875,0.2870013117790222,-0.13142505288124084,0.0324922539293766
1789998452064661500,6.67166162109375,0.3003464341163635,-0.0987320989370346,-0.09917948395013809
1789998452074731500,6.6817314453125,0.26904410123825073,-0.10022646188735962,-0.0905652642250061
1789998452084801800,6.6918017578125,0.26173558831214905,-0.10348324477672577,0.017438964918255806
1789998452094871600,6.70187158203125,0.363036572933197,-0.06463781744241714,0.12049467116594315
1789998452104941600,6.711941650390625,0.38474133610725403,0.034520186483860016,0.09023024141788483
1789998452115012600,6.7220126953125,0.3793163001537323,0.08010543882846832,0.012005598284304142
1789998452125082400,6.732082275390625,0.38825279474258423,0.1382313221693039,-0.0755881667137146
1789998452135152600,6.742152587890625,0.45929643511772156,0.2349567413330078,-0.0853969156742096
1789998452145222700,6.75222265625,0.5168183445930481,0.31085363030433655,-0.0890001729130745
1789998452155292400,6.76229248046875,0.5467133522033691,0.3472808599472046,-0.17476105690002441
1789998452165362700,6.77236279296875,0.5284584164619446,0.39797571301460266,-0.13257631659507751
1789998452175432700,6.7824326171875,0.5538527369499207,0.44834259152412415,-0.0961979329586029
1789998452185503500,6.79250341796875,0.5756757259368896,0.47625014185905457,-0.0300293006002903
1789998452195573500,6.802573486328125,0.6069804430007935,0.4959215223789215,0.1660514622926712
1789998452205643800,6.812643798828125,0.6075870990753174,0.5248364806175232,0.08916812390089035
1789998452215713500,6.822713623046875,0.5747179388999939,0.5539217591285706,-0.23420855402946472
1789998452225783600,6.832783447265625,0.6126309633255005,0.5246994495391846,-0.11141099780797958
1789998452235853600,6.842853515625,0.6723646521568298,0.4940250813961029,-0.00617633480578661
1789998452245923600,6.852923583984375,0.5867538452148438,0.4810158312320709,-0.16395798325538635
1789998452255994600,6.86299462890625,0.49324458837509155,0.4103454053401947,-0.05311695486307144
1789998452266064600,6.873064697265625,0.48861920833587646,0.3751123249530792,0.07113707810640335
1789998452276134400,6.883134521484375,0.43737396597862244,0.3273985683917999,0.06326577067375183
1789998452286204700,6.89320458984375,0.35779765248298645,0.29378148913383484,-0.06342053413391113
1789998452296274700,6.903274658203125,0.26663410663604736,0.28188714385032654,-0.07833312451839447
1789998452306344400,6.913344482421875,0.24170668423175812,0.2104281187057495,0.11897142976522446
1789998452316414700,6.923414794921875,0.24344640970230103,0.13695232570171356,0.14691905677318573
1789998452326484700,6.933484619140625,0.20577466487884521,0.11913498491048813,-0.003746082540601492
1789998452336555500,6.943555419921875,0.2146311104297638,0.11302269995212555,0.028797687962651253
1789998452346625500,6.95362548828125,0.15967757999897003,0.11219712346792221,0.043503131717443466
1789998452356695600,6.963695556640625,0.05045902729034424,0.051542460918426514,-0.07042207568883896
1789998452366765600,6.973765625,0.0818510353565216,0.047868095338344574,-0.07294142991304398
1789998452376835600,6.983835693359375,0.09216777235269547,0.1533253788948059,0.037063345313072205
1789998452386905600,6.993905517578125,0.0008674185955896974,0.1500971019268036,0.023956594988703728
1789998452396975600,7.0039755859375,-0.07812310010194778,0.0662267804145813,0.10146751254796982
1789998452407046700,7.014046630859375,0.03293072059750557,0.11230798810720444,-0.0072480496019124985
1789998452417116700,7.02411669921875,0.10825930535793304,0.18497104942798615,-0.04631058871746063
1789998452427186400,7.0341865234375,0.09164997190237045,0.1951451301574707,-0.006983421742916107
1789998452437256400,7.04425634765625,0.1041201651096344,0.15429240465164185,0.04335567355155945
1789998452447326700,7.05432666015625,0.17225714027881622,0.172269806265831,0.07566381245851517
1789998452457396500,7.064396484375,0.17647874355316162,0.21130149066448212,-0.011214946396648884
1789998452467466500,7.074466552734375,0.11977551877498627,0.18629494309425354,-0.054329659789800644
1789998452477537500,7.08453759765625,0.07904782891273499,0.15904907882213593,0.03796596825122833
1789998452487607600,7.094607666015625,0.11183907091617584,0.15765170753002167,0.1187918409705162
1789998452497677600,7.104677490234375,0.10854720324277878,0.20813925564289093,0.1134941577911377
1789998452507747600,7.11474755859375,0.01795179396867752,0.21994131803512573,0.04863553121685982
1789998452517817600,7.124817626953125,0.02195887640118599,0.18848849833011627,0.05645069479942322
1789998452527887600,7.1348876953125,0.08204910904169083,0.19039052724838257,0.0466151088476181
1789998452537957600,7.14495751953125,0.04410252347588539,0.17814983427524567,-0.08008406311273575
1789998452548028400,7.1550283203125,-0.0001040872884914279,0.12109613418579102,-0.1311006397008896
1789998452558098400,7.165098388671875,0.06560808420181274,0.1327275037765503,0.048252418637275696
1789998452568168700,7.175168701171875,0.09954740852117538,0.17391276359558105,0.15135669708251953
1789998452578238500,7.185238525390625,-0.07315672188997269,0.11725108325481415,0.06435894966125488
1789998452588308500,7.19530859375,-0.2181658297777176,0.007328306790441275,-0.021004147827625275
1789998452598378800,7.205378662109375,-0.19427169859409332,-0.006688480731099844,0.10455973446369171
1789998452608448500,7.215448486328125,-0.16032171249389648,0.030651701614260674,-0.025709854438900948
1789998452618519600,7.22551953125,-0.21925677359104156,-0.04623981937766075,-0.143241748213768
1789998452628589600,7.235589599609375,-0.1710498332977295,-0.07967661321163177,-0.036134470254182816
1789998452638659600,7.24565966796875,-0.04334374517202377,-0.0768996924161911,0.18944565951824188
1789998452648729600,7.2557294921875,-0.10224061459302902,-0.08690758794546127,0.17841245234012604
1789998452658799600,7.265799560546875,-0.22851194441318512,-0.09202034771442413,0.049420107156038284
1789998452668869400,7.275869384765625,-0.23027442395687103,-0.10476277768611908,0.07929118722677231
1789998452678939600,7.285939697265625,-0.1809149533510208,-0.08701059222221375,0.08926540613174438
1789998452689009700,7.296009765625,-0.2807547450065613,-0.10245825350284576,-0.0847250297665596
1789998452699080400,7.30608056640625,-0.29714491963386536,-0.1327742040157318,-0.0888315886259079
1789998452709150500,7.316150390625,-0.21314004063606262,-0.10363975167274475,0.1360262781381607
1789998452719220200,7.32622021484375,-0.15577271580696106,-0.07899879664182663,0.1528031826019287
1789998452729290200,7.336290283203125,-0.15436576306819916,-0.14223821461200714,-0.05111824348568916
1789998452739360000,7.346360107421875,-0.13866694271564484,-0.11972565203905106,-0.07036864012479782
1789998452749430300,7.35643017578125,-0.07139203697443008,-0.09570766985416412,0.07602133601903915
1789998452759500300,7.366500244140625,-0.11664677411317825,-0.09654318541288376,-0.1305444985628128
1789998452769571000,7.376571044921875,-0.18808847665786743,-0.11072584986686707,-0.11114044487476349
1789998452779641000,7.38664111328125,-0.18104518949985504,-0.10241619497537613,-0.08381723612546921
1789998452789711400,7.39671142578125,-0.18505990505218506,-0.10499200224876404,0.1449488401412964
1789998452799781000,7.406781005859375,-0.20079615712165833,-0.1444723904132843,0.22546643018722534
1789998452809851100,7.41685107421875,-0.11926215887069702,-0.16179917752742767,0.1429622322320938
1789998452819921200,7.426921142578125,-0.02477063052356243,-0.11910436302423477,0.04832082614302635
1789998452829991200,7.4369912109375,0.02007247507572174,-0.08866682648658752,-0.022466789931058884
1789998452840062200,7.447062255859375,0.036887239664793015,-0.08808151632547379,-0.09969180077314377
1789998452850132200,7.45713232421875,0.038877688348293304,-0.09731229394674301,-0.032691195607185364
1789998452860202000,7.467201904296875,0.0647575780749321,-0.090115986764431,0.10161452740430832
1789998452870272300,7.477272216796875,0.040621086955070496,-0.09855633974075317,0.2285575568675995
1789998452880342300,7.48734228515625,0.06626977026462555,-0.026329271495342255,0.07610267400741577
1789998452890412000,7.497412109375,0.08069717884063721,0.026339266449213028,-0.01783287338912487
1789998452900482300,7.507482421875,0.09927533566951752,0.02901303395628929,0.11363322287797928
1789998452910553300,7.51755322265625,0.1603248417377472,0.05651362985372543,0.03234395757317543
1789998452920623000,7.527623046875,0.1850823611021042,0.11824855953454971,-0.1477939337491989
1789998452930693000,7.537693115234375,0.10940038412809372,0.08629622310400009,-0.16289591789245605
1789998452940763100,7.54776318359375,0.02668510377407074,0.031907785683870316,0.032638005912303925
1789998452950833200,7.557833251953125,0.10091991722583771,0.08534172177314758,0.0625799223780632
1789998452960903200,7.567903076171875,0.14983783662319183,0.10295301675796509,0.02600928395986557
1789998452970973200,7.57797314453125,0.13700805604457855,0.07805193215608597,0.06893784552812576
1789998452981043200,7.588043212890625,0.16796784102916718,0.10742155462503433,-0.006219946779310703
1789998452991114200,7.5981142578125,0.17994648218154907,0.18581435084342957,-0.1837041825056076
1789998453001184300,7.608184326171875,0.1490548700094223,0.18330617249011993,-0.12154208868741989
1789998453011254000,7.61825390625,0.11202334612607956,0.15435335040092468,0.03841455280780792
1789998453021324000,7.628323974609375,0.0229777954518795,0.1470041573047638,0.15139736235141754
1789998453031394300,7.638394287109375,-0.048195984214544296,0.1859249323606491,-0.00532859843224287
1789998453041464000,7.648464111328125,-0.02175488881766796,0.25225019454956055,-0.01984444446861744
1789998453051534000,7.6585341796875,0.03305882588028908,0.2347085028886795,0.07682456821203232
1789998453061605000,7.668605224609375,0.05518827587366104,0.21071936190128326,0.027047930285334587
1789998453071675100,7.678675048828125,0.08699414134025574,0.2444818615913391,-0.03245827183127403
1789998453081745200,7.6887451171875,0.0977504700422287,0.2815987765789032,-0.024645771831274033
1789998453091815200,7.698815185546875,0.09404441714286804,0.2940559685230255,-0.11510030180215836
1789998453101885200,7.70888525390625,0.13258647918701172,0.35436803102493286,-0.09320290386676788
1789998453111955200,7.718955078125,0.14064280688762665,0.25880688428878784,0.051688507199287415
1789998453122025200,7.729025146484375,-0.0009554298594594002,0.19581681489944458,0.18266557157039642
1789998453132095000,7.739094970703125,-0.12791123986244202,0.18852373957633972,0.12402436137199402
1789998453142166000,7.749166015625,-0.10709447413682938,0.28517207503318787,-0.19384241104125977
1789998453152236300,7.759236328125,0.03122185729444027,0.2688215970993042,-0.23058444261550903
1789998453162306000,7.76930615234375,0.033684853464365005,0.1799715906381607,-0.16807912290096283
1789998453172376000,7.7793759765625,-0.09174124151468277,0.09791108220815659,-0.008023152127861977
1789998453182446300,7.7894462890625,-0.04736465960741043,0.06397956609725952,-0.051238857209682465
1789998453192516000,7.79951611328125,0.016536293551325798,0.11510666459798813,-0.06814087927341461
1789998453202586000,7.809586181640625,-0.06994177401065826,0.06367485970258713,0.040788572281599045
1789998453212657200,7.8196572265625,-0.2799355089664459,0.02288002520799637,-0.03275328874588013
1789998453222727200,7.82972705078125,-0.3073137700557709,-0.08848259598016739,-0.05169650912284851
1789998453232797200,7.839797119140625,-0.27902406454086304,-0.18929922580718994,0.11775057762861252
1789998453242867200,7.8498671875,-0.33825838565826416,-0.2129555493593216,0.16223734617233276
1789998453252937000,7.85993701171875,-0.3613961935043335,-0.19556431472301483,0.0366048589348793
1789998453263007200,7.87000732421875,-0.2549602687358856,-0.2438182532787323,-0.13411647081375122
1789998453273077200,7.8800771484375,-0.2485406994819641,-0.35855841636657715,-0.02790055423974991
1789998453283148300,7.890148193359375,-0.3595390021800995,-0.3220266103744507,0.08709833770990372
1789998453293218000,7.900218017578125,-0.3760353922843933,-0.19169257581233978,-0.09916900098323822
1789998453303288300,7.910288330078125,-0.29337751865386963,-0.15553230047225952,-0.17826539278030396
1789998453313358000,7.920358154296875,-0.30174437165260315,-0.28755983710289,-0.06639718264341354
1789998453323428000,7.930427978515625,-0.4216993451118469,-0.2868063449859619,-0.05801979452371597
1789998453333498000,7.940498046875,-0.45784032344818115,-0.25341352820396423,-0.1013539582490921
1789998453343568100,7.950568115234375,-0.4203260838985443,-0.31827419996261597,-0.08429590612649918
1789998453353638100,7.96063818359375,-0.4032150208950043,-0.3649351894855499,-0.01872595027089119
1789998453363709200,7.970709228515625,-0.3748466670513153,-0.36553773283958435,0.014513787813484669
1789998453373779000,7.980779052734375,-0.34851357340812683,-0.4202832579612732,-0.07700280845165253
1789998453383849200,7.99084912109375,-0.31680718064308167,-0.5000028014183044,-0.01631280593574047
1789998453393919200,8.000919189453125,-0.2511693239212036,-0.49748003482818604,0.03869611769914627
1789998453403989000,8.010989013671875,-0.21828870475292206,-0.4079678952693939,-0.07463286817073822
1789998453414059300,8.021059326171875,-0.26319679617881775,-0.4489305019378662,-0.03023211844265461
1789998453424129300,8.03112939453125,-0.29752182960510254,-0.5454545617103577,0.04776536300778389
1789998453434200300,8.041200439453124,-0.32188814878463745,-0.5065116882324219,0.11991998553276062
1789998453444270000,8.05127001953125,-0.23741154372692108,-0.4186863303184509,0.10858507454395294
1789998453454340000,8.061340087890626,-0.15898677706718445,-0.3922794759273529,0.024358872324228287
1789998453464410000,8.07141015625,-0.1091606393456459,-0.43375563621520996,0.038160886615514755
1789998453474480000,8.081480224609376,-0.0775715559720993,-0.3804657757282257,0.059648867696523666
1789998453484550100,8.091550048828125,-0.018992647528648376,-0.26008230447769165,-0.060066260397434235
1789998453494620200,8.1016201171875,0.019843433052301407,-0.2524731159210205,-0.11674312502145767
1789998453504691200,8.111691162109375,0.07353994250297546,-0.3909417688846588,0.017257554456591606
1789998453514761200,8.12176123046875,0.03573345020413399,-0.3035818338394165,0.06574759632349014
1789998453524831000,8.1318310546875,0.047616735100746155,-0.1643776297569275,-0.048622213304042816
1789998453534901200,8.1419013671875,0.10776235908269882,-0.16743414103984833,-0.125074103474617
1789998453544971300,8.15197119140625,0.16012036800384521,-0.20435915887355804,-0.01952495612204075
1789998453555041000,8.162041015625,0.22586289048194885,-0.11538935452699661,-0.04382949322462082
1789998453565111000,8.172111083984374,0.24120022356510162,-0.07831376791000366,0.07674437761306763
1789998453575181300,8.182181396484374,0.21754656732082367,-0.08221183717250824,-0.027013972401618958
1789998453585252400,8.19225244140625,0.18923866748809814,-0.020702626556158066,-0.030857475474476814
1789998453595322000,8.202322021484376,0.2858853042125702,0.0708073154091835,-0.12575602531433105
1789998453605392100,8.21239208984375,0.4136933982372284,0.11367817968130112,-0.1347508430480957
1789998453615462100,8.222462158203125,0.5048219561576843,0.09427465498447418,-0.10695303231477737
1789998453625532200,8.2325322265625,0.5514968633651733,0.05970500409603119,0.045584503561258316
1789998453635602200,8.242602294921875,0.5189402103424072,0.1463717222213745,0.007277860306203365
1789998453645672200,8.252672119140625,0.5900073051452637,0.27155178785324097,-0.13026192784309387
1789998453655743200,8.2627431640625,0.64608234167099,0.37313568592071533,-0.19732140004634857
1789998453665813200,8.272813232421875,0.6705557703971863,0.3376837968826294,-0.04058209806680679
1789998453675883000,8.282883056640625,0.6116918921470642,0.3582268953323364,-0.0235903300344944
1789998453685953000,8.292953125,0.6025559902191162,0.5060446858406067,-0.08856654912233353
1789998453696023300,8.303023193359374,0.7210618853569031,0.5553408861160278,-0.2240029275417328
1789998453706093000,8.313093017578124,0.8157982230186462,0.5794732570648193,-0.17563597857952118
1789998453716163300,8.323163330078126,0.7941206097602844,0.5594958662986755,-0.06300822645425797
1789998453726233300,8.3332333984375,0.6792891621589661,0.6178289651870728,-0.00978714320808649
1789998453736304400,8.343304443359376,0.6567854285240173,0.6744834780693054,-0.11958421021699905
1789998453746374400,8.35337451171875,0.695356547832489,0.6632986664772034,-0.03682537376880646
1789998453756444200,8.363444091796875,0.6753754019737244,0.6521562933921814,-0.021055996417999268
1789998453766514200,8.37351416015625,0.6962084770202637,0.5753920078277588,0.047084927558898926
1789998453776584400,8.38358447265625,0.7456207871437073,0.5663849711418152,0.16971470415592194
1789998453786654200,8.393654296875,0.7239673137664795,0.5771949291229248,0.2806845009326935
1789998453796724200,8.40372412109375,0.6182680130004883,0.6843743920326233,0.023600254207849503
1789998453806795300,8.413795166015625,0.5864001512527466,0.7393819093704224,-0.018434271216392517
1789998453816865300,8.423865234375,0.5425724983215332,0.672980010509491,0.12570080161094666
1789998453826935300,8.433935302734374,0.45641055703163147,0.6917978525161743,0.0552973747253418
1789998453837005300,8.44400537109375,0.4801656901836395,0.8794246912002563,-0.19411486387252808
1789998453847075300,8.454075439453124,0.5797576904296875,0.8681141138076782,-0.16191048920154572
1789998453857145300,8.464145263671876,0.5344713926315308,0.6899846196174622,0.040677510201931
1789998453867215400,8.47421533203125,0.3322431147098541,0.7243859171867371,-0.05026033893227577
1789998453877285000,8.48428515625,0.15372316539287567,0.7561249732971191,0.032228946685791016
1789998453887356200,8.494356201171875,0.22989705204963684,0.6346555948257446,0.08480491489171982
1789998453897426400,8.504426513671875,0.2987442910671234,0.6274637579917908,-0.015121418982744217
1789998453907496200,8.51449609375,0.2482815533876419,0.5772328972816467,-0.04122273623943329
1789998453917566200,8.524566162109375,0.06122910976409912,0.44851964712142944,0.010555505752563477
1789998453927636500,8.534636474609375,-0.027559172362089157,0.415924996137619,0.03653745353221893
1789998453937706200,8.544706298828125,0.0976506769657135,0.5290286540985107,-0.03118513710796833
1789998453947776300,8.5547763671875,0.14041785895824432,0.5012646913528442,0.055912572890520096
1789998453957847300,8.564847412109375,-0.11630794405937195,0.3514847755432129,0.08644518256187439
1789998453967917300,8.574917236328124,-0.2615548074245453,0.24186231195926666,0.19040757417678833
1789998453977987300,8.5849873046875,-0.2252761572599411,0.23389333486557007,0.1977246105670929
1789998453988057300,8.595057373046876,-0.23510314524173737,0.1695115566253662,0.31870660185813904
1789998453998127000,8.605127197265626,-0.3184046745300293,0.07378742843866348,0.2120233029127121
1789998454008197400,8.615197265625,-0.43482261896133423,0.06505480408668518,0.19239936769008636
1789998454018267400,8.625267333984375,-0.402787446975708,0.05876627936959267,-0.04388401284813881
1789998454028337200,8.635337158203125,-0.3614065647125244,-0.007459138985723257,0.04828165844082832
1789998454038408200,8.645408203125,-0.3135615289211273,-0.1320897489786148,0.2556455135345459
1789998454048478500,8.655478515625,-0.4126468300819397,-0.09223994612693787,0.10664111375808716
1789998454058548200,8.66554833984375,-0.5127241611480713,-0.026211664080619812,0.049275822937488556
1789998454068618200,8.6756181640625,-0.32577425241470337,-0.14732341468334198,0.0443054623901844
1789998454078688300,8.685688232421874,-0.31270185112953186,-0.18718001246452332,0.05917815491557121
1789998454088758300,8.69575830078125,-0.49579954147338867,-0.15701715648174286,0.09099522233009338
1789998454098828300,8.705828369140624,-0.6543686985969543,-0.22372828423976898,0.12348925322294235
1789998454108899300,8.7158994140625,-0.5463905334472656,-0.2593965530395508,0.11290095746517181
1789998454118969000,8.725968994140626,-0.38764244318008423,-0.12761135399341583,0.019949711859226227
1789998454129039400,8.736039306640626,-0.43207958340644836,-0.08154889196157455,0.13277509808540344
1789998454139109400,8.746109375,-0.5273957252502441,-0.20752733945846558,0.18288512527942657
1789998454149179100,8.75617919921875,-0.4798737168312073,-0.18562747538089752,0.019871262833476067
1789998454159249400,8.76624951171875,-0.4360833466053009,-0.16581515967845917,0.02578028477728367
1789998454169319400,8.7763193359375,-0.5372561812400818,-0.3592804968357086,0.23007002472877502
1789998454179389200,8.78638916015625,-0.6865801215171814,-0.4027249217033386,0.31384772062301636
1789998454189460200,8.796460205078125,-0.6306717395782471,-0.09574629366397858,0.03678835555911064
1789998454199530200,8.8065302734375,-0.43395599722862244,-0.011869503185153008,-0.2653190493583679
1789998454209600300,8.816600341796875,-0.41999831795692444,-0.27499186992645264,-0.08959624916315079
1789998454219670300,8.826670166015624,-0.43021419644355774,-0.3375846743583679,0.06062760949134827
1789998454229740300,8.836740234375,-0.6412754058837891,-0.3177712559700012,0.37753382325172424
1789998454239810300,8.846810302734376,-0.7035710215568542,-0.3555271625518799,0.26918843388557434
1789998454249880300,8.85688037109375,-0.4627116918563843,-0.19606995582580566,-0.0932624489068985
1789998454259951400,8.866951416015626,-0.24164828658103943,-0.13188165426254272,-0.1437211036682129
1789998454270021000,8.877021240234376,-0.45435142517089844,-0.27844366431236267,0.06183725222945213
1789998454280091400,8.88709130859375,-0.6073888540267944,-0.3963548541069031,0.14193661510944366
1789998454290161400,8.897161376953125,-0.6092647314071655,-0.3511667251586914,0.025889040902256966
1789998454300231200,8.907231201171875,-0.424980103969574,-0.3359962999820709,-0.05856432393193245
1789998454310301200,8.91730126953125,-0.3960880935192108,-0.28533151745796204,-0.011248248629271984
1789998454320371500,8.927371337890625,-0.4334096312522888,-0.3064256012439728,0.06937389075756073
1789998454330441200,8.937441162109375,-0.46787601709365845,-0.39866578578948975,0.07920059561729431
1789998454340512300,8.94751220703125,-0.4890313744544983,-0.4190344512462616,0.20394039154052734
1789998454350582300,8.957582275390624,-0.4671874940395355,-0.31437626481056213,0.08108872920274734
1789998454360652300,8.96765234375,-0.30213063955307007,-0.2790478467941284,-0.09400133043527603
1789998454370722300,8.977722412109374,-0.2741466760635376,-0.37456369400024414,-0.019786393269896507
1789998454380792300,8.987792236328126,-0.32037514448165894,-0.30422428250312805,-0.035904642194509506
1789998454390862300,8.9978623046875,-0.21886307001113892,-0.17657367885112762,-0.06803929060697556
1789998454400932400,9.007932373046875,-0.1699029803276062,-0.17016717791557312,0.03250090032815933
1789998454411003400,9.01800341796875,-0.14603611826896667,-0.16136887669563293,-0.04183496907353401
1789998454421073200,9.0280732421875,-0.2176642268896103,-0.11486288160085678,-0.14261884987354279
1789998454431143200,9.03814306640625,-0.12238253653049469,-0.049589548259973526,-0.11927592009305954
1789998454441213400,9.04821337890625,-0.027297833934426308,-0.0673203393816948,0.05426791310310364
1789998454451283200,9.058283203125,-0.013787072151899338,-0.00554479518905282,-0.07960598915815353
1789998454461353200,9.068353271484375,-0.05295737832784653,0.03334774449467659,-0.13645435869693756
1789998454471423500,9.078423583984375,-0.1167076975107193,-0.060245331376791,-0.01972770504653454
1789998454481493200,9.0884931640625,-0.1543693244457245,-0.14094524085521698,0.020249538123607635
1789998454491564300,9.098564208984374,-0.09348579496145248,-0.11518504470586777,-0.14013934135437012
1789998454501634300,9.10863427734375,-0.04881153255701065,-0.09525234997272491,-0.11663028597831726
1789998454511704300,9.118704345703126,-0.034740034490823746,-0.16995269060134888,-0.026216451078653336
1789998454521774300,9.1287744140625,-0.11028352379798889,-0.23343472182750702,-0.04778698831796646
1789998454531844400,9.13884423828125,-0.2154984176158905,-0.2417110800743103,0.03349184989929199
1789998454541914000,9.1489140625,-0.28988316655158997,-0.28933289647102356,0.042344994843006134
1789998454551984400,9.158984375,-0.27116596698760986,-0.3545668125152588,-0.10927106440067291
1789998454562054400,9.169054443359375,-0.24220407009124756,-0.35577481985092163,0.0003771402407437563
1789998454572125200,9.179125244140625,-0.17989543080329895,-0.39414089918136597,-0.004779978655278683
1789998454582195200,9.1891953125,-0.22608663141727448,-0.5188649892807007,0.02624478191137314
1789998454592265500,9.199265380859375,-0.3317197859287262,-0.5679270029067993,0.09427062422037125
1789998454602335200,9.209335205078125,-0.379548043012619,-0.43751412630081177,0.03025914914906025
1789998454612405200,9.2194052734375,-0.37007638812065125,-0.4533037841320038,-0.02213982865214348
1789998454622475300,9.229475341796874,-0.33060595393180847,-0.5200159549713135,-0.06149522587656975
1789998454632545300,9.239545166015626,-0.3137128949165344,-0.4871581494808197,0.011594109237194061
1789998454642616300,9.2496162109375,-0.3118353486061096,-0.3849817216396332,0.010998092591762543
1789998454652686300,9.259686279296876,-0.2552773058414459,-0.35966718196868896,-0.049009427428245544
1789998454662756000,9.269756103515626,-0.1833684891462326,-0.3902663588523865,0.030006561428308487
1789998454672826400,9.279826416015625,-0.12078239023685455,-0.3436909019947052,0.11669714748859406
1789998454682896400,9.289896484375,-0.08683427423238754,-0.3139961063861847,0.1579415202140808
1789998454692966100,9.299966064453125,-0.12619051337242126,-0.3504599630832672,0.08219660818576813
1789998454703036400,9.310036376953125,-0.1484430879354477,-0.3803432881832123,0.012383165769279003
1789998454713106400,9.3201064453125,-0.10498365014791489,-0.3653774559497833,0.10290244966745377
1789998454723177200,9.33017724609375,-0.04032076895236969,-0.3636738359928131,0.1782403439283371
1789998454733247200,9.340247314453125,-0.052067797631025314,-0.3966146409511566,0.12864577770233154
1789998454743317200,9.350317138671874,-0.06719161570072174,-0.37749847769737244,0.00973404012620449
1789998454753387300,9.36038720703125,0.05670163780450821,-0.2692035734653473,-0.0580235980451107
1789998454763457300,9.370457275390624,0.15964080393314362,-0.18946321308612823,0.012706497684121132
1789998454773527300,9.38052734375,0.26173269748687744,-0.1691540628671646,0.10088759660720825
1789998454783597300,9.390597412109376,0.27667731046676636,-0.15023496747016907,0.2151087075471878
1789998454793668400,9.40066845703125,0.295198529958725,-0.08209493011236191,0.002302437787875533
1789998454803738400,9.41073828125,0.28770360350608826,-0.00291249668225646,-0.1471235305070877
1789998454813808000,9.42080810546875,0.3117072284221649,0.04650259017944336,-0.1399206966161728
1789998454823878400,9.43087841796875,0.363969624042511,0.03031882643699646,0.07027354836463928
1789998454833948400,9.440948486328125,0.3297280967235565,0.07186505198478699,-0.011435856111347675
1789998454844018200,9.45101806640625,0.3777400851249695,0.06792756915092468,-0.2282262146472931
1789998454854088200,9.461088134765625,0.4312528371810913,0.05194004252552986,-0.08515528589487076
1789998454864158500,9.471158447265625,0.43288829922676086,0.06349816173315048,0.08428221195936203
1789998454874229200,9.481229248046875,0.4319626986980438,0.04289058595895767,0.12124853581190109
1789998454884299300,9.49129931640625,0.4121256172657013,0.055658843368291855,0.022882556542754173
1789998454894369300,9.501369384765624,0.4438954293727875,0.08934496343135834,-0.04628421366214752
1789998454904439300,9.511439208984376,0.45730099081993103,0.1129152700304985,-0.1061968207359314
1789998454914509300,9.52150927734375,0.4342735707759857,0.1120942085981369,-0.09667947888374329
1789998454924579300,9.531579345703125,0.4074938893318176,0.09158679842948914,0.01250985823571682
1789998454934649300,9.5416494140625,0.3666825592517853,0.08567682653665543,-0.06061097979545593
1789998454944720400,9.551720458984375,0.3485882580280304,0.11197314411401749,-0.12458250671625137
1789998454954790400,9.561790283203125,0.3459278643131256,0.12643858790397644,0.038412488996982574
1789998454964860200,9.571860107421875,0.3396281599998474,0.1321721076965332,0.09090419858694077
1789998454974930200,9.58193017578125,0.347229540348053,0.09756653010845184,-0.008642224594950676
1789998454985000400,9.59200048828125,0.3318425714969635,0.06529567390680313,-0.09571214020252228
1789998454995070200,9.6020703125,0.3287942409515381,0.08201401680707932,-0.13543358445167542
1789998455005140200,9.61214013671875,0.36031702160835266,0.08506812900304794,-0.15766271948814392
1789998455015210500,9.62221044921875,0.3522689640522003,0.12193603068590164,-0.13242004811763763
1789998455025281300,9.63228125,0.3352667987346649,0.12883973121643066,-0.028820941224694252
1789998455035351300,9.642351318359376,0.2870303690433502,0.11623604595661163,-0.04088877514004707
1789998455045421300,9.65242138671875,0.25713956356048584,0.10450907796621323,-0.020853279158473015
1789998455055491300,9.6624912109375,0.1983073651790619,0.190957173705101,-0.07648885995149612
1789998455065561300,9.672561279296875,0.22429902851581573,0.24051007628440857,-0.0808364674448967
1789998455075631400,9.68263134765625,0.28302568197250366,0.2486262023448944,0.049788039177656174
1789998455085701000,9.692701171875,0.3063264787197113,0.24639126658439636,0.010558342561125755
1789998455095771400,9.702771484375,0.2942100465297699,0.24586841464042664,0.001434054458513856
1789998455105842400,9.712842529296875,0.236561119556427,0.2392139583826065,-0.11097370833158493
1789998455115912200,9.722912109375,0.20708981156349182,0.23463961482048035,0.005767728202044964
1789998455125982200,9.732982177734375,0.1886966973543167,0.23191094398498535,0.0957799106836319
1789998455136052500,9.743052490234374,0.1805727332830429,0.18582282960414886,-0.025188762694597244
1789998455146122200,9.753122314453124,0.15200047194957733,0.16676153242588043,0.062477439641952515
1789998455156192300,9.763192138671876,0.20249906182289124,0.1926412731409073,0.2189968228340149
1789998455166262300,9.77326220703125,0.21980135142803192,0.21673701703548431,0.056650519371032715
1789998455176333300,9.783333251953126,0.23620827496051788,0.1835271120071411,0.015851061791181564
1789998455186403300,9.7934033203125,0.2557907700538635,0.1900971382856369,0.1755022406578064
1789998455196473300,9.803473388671875,0.28542110323905945,0.18045786023139954,0.038543783128261566
1789998455206543000,9.813543212890625,0.19851604104042053,0.16320645809173584,0.09426430612802505
1789998455216613400,9.82361328125,0.10949572920799255,0.10401957482099533,0.11055222898721695
1789998455226683400,9.833683349609375,0.12294123321771622,0.10294578969478607,0.23206934332847595
1789998455236753200,9.843753173828125,0.09800677001476288,0.09673353284597397,-0.004637242294847965
1789998455246823400,9.853823486328125,0.000057566678151488304,0.03121311403810978,-0.03496159240603447
1789998455256894500,9.86389453125,-0.044203221797943115,0.02221904695034027,-0.016577379778027534
1789998455266964200,9.873964111328124,0.09104621410369873,0.11520358175039291,0.042143456637859344
1789998455277034200,9.8840341796875,0.13269086182117462,0.16697359085083008,0.10610043257474899
1789998455287104300,9.894104248046874,0.11604184657335281,0.12645173072814941,0.16555257141590118
1789998455297174300,9.90417431640625,0.0895279049873352,0.13480286300182343,0.19091343879699707
1789998455307244300,9.914244384765626,0.06293650716543198,0.2110893726348877,-0.038080066442489624
1789998455317314300,9.924314208984375,-0.011679894290864468,0.26367539167404175,-0.07457897812128067
1789998455327384300,9.93438427734375,0.02276436612010002,0.28304484486579895,0.011724752373993397
1789998455337455400,9.944455322265625,0.05541780963540077,0.25690561532974243,0.08933622390031815
1789998455347525400,9.954525390625,0.012224532663822174,0.2561069428920746,-0.1127321869134903
1789998455357595100,9.96459521484375,-0.07187453657388687,0.2223995178937912,-0.07463359087705612
1789998455367665400,9.97466552734375,-0.019417189061641693,0.16182246804237366,0.15621480345726013
1789998455377735400,9.9847353515625,0.0037199254147708416,0.15999631583690643,0.0776173323392868
1789998455387805200,9.99480517578125,-0.07078147679567337,0.13999411463737488,-0.02464405447244644
1789998455397875200,10.004875244140624,-0.08342048525810242,0.11443698406219482,0.060795240104198456
1789998455407946200,10.0149462890625,-0.06774165481328964,0.11284440755844116,0.1904645562171936
1789998455418016300,10.025016357421874,-0.07101958990097046,0.1283399611711502,0.01908969320356846
1789998455428086300,10.035086181640626,-0.16660550236701965,0.09806700795888901,0.005088390316814184
1789998455438156300,10.04515625,-0.12173141539096832,0.04639891907572746,0.029454201459884644
1789998455448226300,10.055226318359376,-0.06984451413154602,0.08173586428165436,-0.027876464650034904
1789998455458296300,10.06529638671875,-0.09095929563045502,0.08653166145086288,-0.028523549437522888
1789998455468366300,10.075366455078125,-0.0955367311835289,0.0611748993396759,0.06888529658317566
1789998455478436400,10.085436279296875,-0.0989549532532692,0.04480841010808945,-0.0222009290009737
1789998455488506400,10.09550634765625,-0.14122198522090912,0.07438042014837265,-0.1692604273557663
1789998455498577400,10.105577392578125,-0.23310354351997375,0.06207263469696045,-0.08561304956674576
1789998455508647200,10.115647216796875,-0.24416550993919373,-0.033256277441978455,0.06755919009447098
1789998455518717200,10.12571728515625,-0.17716766893863678,-0.01684682071208954,0.006677796132862568
1789998455528787500,10.135787353515624,-0.21129687130451202,-0.033971745520830154,0.021235965192317963
1789998455538857200,10.145857177734374,-0.24106967449188232,-0.07606323063373566,0.10701895505189896
1789998455548927200,10.15592724609375,-0.2637137174606323,-0.12182140350341797,0.10564956068992615
1789998455558997500,10.16599755859375,-0.2757827341556549,-0.1001671776175499,0.0015708901919424534
1789998455569068300,10.176068359375,-0.36480262875556946,-0.16318608820438385,-0.023165881633758545
1789998455579138300,10.18613818359375,-0.3662949800491333,-0.2501707077026367,0.037331294268369675
1789998455589208300,10.196208251953125,-0.2932839095592499,-0.27296334505081177,0.13644243776798248
1789998455599278300,10.2062783203125,-0.28187739849090576,-0.2810610234737396,0.11064127832651138
1789998455609348400,10.216348388671875,-0.3040087819099426,-0.3239147365093231,0.08683155477046967
1789998455619418400,10.22641845703125,-0.35682594776153564,-0.3392450213432312,-0.0044231778010725975
1789998455629488000,10.236488037109375,-0.40806543827056885,-0.30023130774497986,-0.029758894816040993
1789998455639558400,10.246558349609375,-0.4419785439968109,-0.3403596580028534,0.007835912518203259
1789998455649629400,10.25662939453125,-0.43550705909729004,-0.3624838590621948,0.14578045904636383
1789998455659699200,10.26669921875,-0.3416077494621277,-0.3999250531196594,0.1702791303396225
1789998455669769200,10.276769287109374,-0.3398284912109375,-0.4168132245540619,-0.02015739679336548
1789998455679839500,10.286839599609374,-0.34878334403038025,-0.4299190640449524,-0.03875226899981499
1789998455689909200,10.2969091796875,-0.3073544204235077,-0.46986809372901917,0.008817912079393864
1789998455699979300,10.306979248046876,-0.2825995683670044,-0.47959083318710327,-0.0814342349767685
1789998455710049300,10.31704931640625,-0.28351277112960815,-0.486039400100708,-0.04989468678832054
1789998455720120300,10.327120361328125,-0.26717492938041687,-0.5165613293647766,0.001287492224946618
1789998455730190600,10.337190673828125,-0.20399169623851776,-0.5474252104759216,0.127548485994339
1789998455740260600,10.347260498046875,-0.23831792175769806,-0.5134671330451965,0.04138115420937538
1789998455750330400,10.357330322265625,-0.2663591504096985,-0.46371397376060486,-0.03404596075415611
1789998455760400600,10.367400634765625,-0.2372710406780243,-0.4716864824295044,-0.05843520164489746
1789998455770470700,10.377470703125,-0.191883847117424,-0.4317092299461365,-0.1565641611814499
1789998455780540400,10.38754052734375,-0.12111657857894897,-0.35524454712867737,0.0007021641358733177
1789998455790610400,10.3976103515625,-0.0664362907409668,-0.3566805124282837,0.20241184532642365
1789998455800681500,10.407681396484374,-0.030087679624557495,-0.31910398602485657,0.08793312311172485
1789998455810751500,10.41775146484375,-0.04602909833192825,-0.22604086995124817,-0.02256835624575615
1789998455820821500,10.427821533203126,0.0016668725293129683,-0.17962101101875305,0.005726155824959278
1789998455830891500,10.4378916015625,0.03833993151783943,-0.0963498204946518,-0.009980369359254837
1789998455840961500,10.44796142578125,0.09745005518198013,-0.005218394100666046,-0.12986353039741516
1789998455851031600,10.458031494140625,0.13518251478672028,0.049541790038347244,-0.0199881698936224
1789998455861101600,10.4681015625,0.21918581426143646,0.0654616504907608,-0.15299087762832642
1789998455871171600,10.478171630859375,0.2792225182056427,0.07042472064495087,-0.174503356218338
1789998455881242600,10.48824267578125,0.29824769496917725,0.08630820363759995,-0.1866837441921234
1789998455891312600,10.498312744140625,0.3535620868206024,0.08183275908231735,-0.018790611997246742
1789998455901382400,10.50838232421875,0.2996719479560852,0.10861106961965561,0.062970370054245
1789998455911452400,10.518452392578125,0.2320934236049652,0.1518394947052002,-0.14165174961090088
1789998455921522700,10.528522705078124,0.22636321187019348,0.15423689782619476,-0.1298600137233734
1789998455931592400,10.538592529296874,0.3111601173877716,0.17311285436153412,-0.1052236407995224
1789998455941662500,10.548662353515626,0.36763739585876465,0.16484950482845306,0.03704472631216049
1789998455951732700,10.558732666015626,0.42294299602508545,0.14266110956668854,-0.013988364487886429
1789998455961803500,10.568803466796876,0.48712483048439026,0.20040282607078552,-0.08821137994527817
1789998455971873500,10.57887353515625,0.4473121464252472,0.24928753077983856,-0.16423210501670837
1789998455981943600,10.588943603515625,0.4920646548271179,0.24678966403007507,-0.09707783907651901
1789998455992013600,10.599013671875,0.40170493721961975,0.2296770066022873,0.02815011888742447
1789998456002083600,10.60908349609375,0.32141825556755066,0.2072838544845581,-0.028376054018735886
1789998456012153600,10.619153564453125,0.3046858608722687,0.18883293867111206,0.015810580924153328
1789998456022223400,10.629223388671875,0.24435992538928986,0.19137372076511383,0.10936200618743896
1789998456032293600,10.639293701171875,0.23132136464118958,0.19113802909851074,-0.008344649337232113
1789998456042364700,10.64936474609375,0.21776029467582703,0.20315460860729218,-0.09133611619472504
1789998456052434400,10.659434326171874,0.27051565051078796,0.1486908346414566,-0.13690945506095886
1789998456062504400,10.66950439453125,0.3673692047595978,0.13683070242404938,-0.08083750307559967
1789998456072574700,10.67957470703125,0.3155057430267334,0.1890885829925537,-0.15052255988121033
1789998456082644500,10.68964453125,0.3119404911994934,0.18898744881153107,-0.05537886545062065
1789998456092714500,10.699714599609376,0.24162638187408447,0.166518896818161,0.09239594638347626
1789998456102784500,10.709784423828125,0.15196403861045837,0.1685488224029541,0.024600962176918983
1789998456112854500,10.7198544921875,0.05105527862906456,0.1611553579568863,-0.06336191296577454
1789998456122925600,10.729925537109375,0.04656652733683586,0.12536276876926422,0.02543819695711136
1789998456132995600,10.73999560546875,0.11719861626625061,0.09689944237470627,0.019627179950475693
1789998456143065300,10.7500654296875,0.15790662169456482,0.07073517143726349,0.0080001475289464
1789998456153135600,10.760135498046875,0.1953040510416031,0.05294924974441528,0.010264367796480656
1789998456163205600,10.77020556640625,0.1837778240442276,0.050097934901714325,0.163511261343956
1789998456173275400,10.780275390625,0.11451166868209839,0.03654590621590614,0.11856934428215027
1789998456183345700,10.790345703125,-0.057411182671785355,0.032256968319416046,0.03723762184381485
1789998456193415700,10.800415771484374,-0.12967579066753387,0.050170451402664185,0.04318632185459137
1789998456203486500,10.810486572265624,-0.09077833592891693,0.060970455408096313,-0.02295827493071556
1789998456213556500,10.820556396484376,-0.09625805914402008,0.0736825242638588,-0.049889225512742996
1789998456223626500,10.83062646484375,-0.025835344567894936,0.057134419679641724,0.13804985582828522
1789998456233696500,10.840696533203126,0.026953568682074547,0.04466496407985687,0.2213657796382904
1789998456243766500,10.8507666015625,0.04686133190989494,0.03156276047229767,0.0008872130420058966
1789998456253836500,10.86083642578125,0.018962325528264046,0.00614528451114893,0.01695938967168331
1789998456263906600,10.870906494140625,0.030503224581480026,0.006113247014582157,0.08679265528917313
1789998456273977600,10.8809775390625,0.04526432976126671,-0.010945631191134453,0.12687882781028748
1789998456284047600,10.891047607421875,-0.008719916455447674,-0.01891648769378662,0.0024487352930009365
1789998456294117400,10.901117431640625,0.012332904152572155,-0.0011151214130222797,0.08311481773853302
1789998456304187600,10.911187744140625,-0.026567144319415092,-0.01245084311813116,0.10593117028474808
1789998456314257700,10.921257568359374,-0.0247439444065094,-0.03432444855570793,0.07410480082035065
1789998456324327400,10.931327392578124,-0.08594562858343124,-0.01168306078761816,-0.016650112345814705
1789998456334397400,10.9413974609375,-0.10061218589544296,-0.004182267934083939,-0.11384963244199753
1789998456344467700,10.9514677734375,0.0071560898795723915,-0.05066455155611038,-0.003658146830275655
1789998456354537500,10.961537353515626,0.010928723961114883,-0.02694324031472206,0.004958244040608406
1789998456364608500,10.9716083984375,0.06906064599752426,-0.009856585413217545,0.01696045510470867
1789998456374678500,10.981678466796875,0.12277767062187195,-0.02179873175919056,0.11686867475509644
1789998456384748500,10.99174853515625,0.11409781873226166,-0.0018800245597958565,0.02744806371629238
1789998456394818600,11.001818603515625,0.11715113371610641,0.025117769837379456,0.07222165912389755
1789998456404888600,11.011888671875,0.11469163000583649,0.024714738130569458,0.022678334265947342
1789998456414958600,11.02195849609375,0.04762923717498779,0.047688230872154236,-0.06788405776023865
1789998456425028600,11.032028564453125,-0.030649086460471153,0.021675914525985718,0.13367047905921936
1789998456435099600,11.042099609375,-0.025135276839137077,-0.020001757889986038,0.10674751549959183
1789998456445169400,11.05216943359375,0.030434852465987206,-0.021917790174484253,0.13779765367507935
1789998456455239400,11.062239501953124,0.05157635733485222,-0.01751372218132019,-0.013128219172358513
1789998456465309700,11.072309814453124,0.057693324983119965,0.03079661726951599,-0.032145675271749496
1789998456475379500,11.08237939453125,0.08617636561393738,0.08188563585281372,-0.10076308250427246
1789998456485449500,11.092449462890626,0.13121367990970612,0.14300259947776794,-0.08942209929227829
1789998456495519700,11.102519775390626,0.11033503711223602,0.15054281055927277,-0.012056470848619938
1789998456505589500,11.112589599609375,0.1331375688314438,0.14076536893844604,-0.05995703861117363
1789998456515660500,11.12266064453125,0.14040666818618774,0.14980466663837433,-0.021363306790590286
1789998456525730600,11.13273046875,0.1300259828567505,0.19307813048362732,-0.09567911177873611
1789998456535800600,11.142800537109375,0.10137517750263214,0.24205473065376282,-0.09567831456661224
1789998456545870600,11.15287060546875,0.1293158084154129,0.27149853110313416,-0.14994163811206818
1789998456555940600,11.162940673828125,0.17188484966754913,0.28320711851119995,-0.015415249392390251
1789998456566010400,11.17301025390625,0.18530553579330444,0.26748064160346985,0.08808385580778122
1789998456576080600,11.18308056640625,0.19819523394107819,0.2535083591938019,-0.011702394112944603
1789998456586150700,11.193150634765624,0.20004741847515106,0.20967593789100647,0.027060339227318764
1789998456596221400,11.203221435546874,0.19820423424243927,0.19282318651676178,0.08446504175662994
1789998456606291500,11.21329150390625,0.13994739949703217,0.22121265530586243,0.03623228147625923
1789998456616361700,11.22336181640625,0.08209715783596039,0.2569059133529663,-0.1569315791130066
1789998456626431500,11.233431396484375,0.03752739727497101,0.28021684288978577,0.06624052673578262
1789998456636501500,11.24350146484375,0.07461271435022354,0.22409233450889587,0.14595666527748108
1789998456646571500,11.253571533203125,0.12159398198127747,0.25613853335380554,0.06661787629127502
1789998456656641500,11.2636416015625,0.11982351541519165,0.24066954851150513,0.054768145084381104
1789998456666711600,11.273711669921875,0.08411993086338043,0.21106280386447906,-0.057827726006507874
1789998456676782600,11.283782470703125,-0.03803660720586777,0.14940236508846283,-0.033690694719552994
1789998456686852400,11.293852294921875,-0.07794362306594849,0.0901961699128151,-0.03936048597097397
1789998456696922600,11.303922607421875,-0.054516326636075974,0.041627295315265656,0.10798955708742142
1789998456706992600,11.31399267578125,-0.0583505742251873,-0.06530652940273285,0.21897320449352264
1789998456717062700,11.324062744140624,-0.07009990513324738,-0.12083742767572403,0.14593707025051117
1789998456727132700,11.334132568359376,-0.1074189767241478,-0.15164026618003845,0.16067230701446533
1789998456737202700,11.34420263671875,-0.18470284342765808,-0.15760627388954163,-0.006513209082186222
1789998456747272700,11.354272705078126,-0.24830088019371033,-0.18110410869121552,-0.01997191645205021
1789998456757343700,11.36434375,-0.2520175874233246,-0.16579972207546234,0.013940774835646152
1789998456767413500,11.37441357421875,-0.23859719932079315,-0.1407695859670639,0.10907544940710068
1789998456777483800,11.38448388671875,-0.2851122319698334,-0.1814911812543869,0.10643225908279419
1789998456787553800,11.3945537109375,-0.20556829869747162,-0.22232837975025177,0.005797918885946274
1789998456797623600,11.40462353515625,-0.18663188815116882,-0.2462046891450882,0.104459248483181
1789998456807693800,11.41469384765625,-0.2661970555782318,-0.24808576703071594,-0.03977898508310318
1789998456817763800,11.424763916015625,-0.3421272337436676,-0.2544858753681183,-0.11848950386047363
1789998456827833600,11.43483349609375,-0.3169194757938385,-0.1987256556749344,-0.17206260561943054
1789998456837904600,11.444904541015624,-0.2643369436264038,-0.1773226261138916,-0.0633116215467453
1789998456847974700,11.454974609375,-0.23682071268558502,-0.235488623380661,0.057552725076675415
1789998456858044700,11.465044677734374,-0.1838933229446411,-0.2598794400691986,0.02020135708153248
1789998456868114700,11.47511474609375,-0.15745094418525696,-0.24041786789894104,0.10072813183069229
1789998456878184700,11.485184814453126,-0.15649807453155518,-0.245145782828331,-0.09636709839105606
1789998456888254700,11.495254638671875,-0.14088983833789825,-0.20451131463050842,-0.08555521070957184
1789998456898324700,11.50532470703125,-0.09943079948425293,-0.1692095249891281,-0.09337185323238373
1789998456908394800,11.515394775390625,-0.06516791135072708,-0.14309808611869812,0.024668298661708832
1789998456918465500,11.525465576171875,-0.06993070989847183,-0.16397486627101898,0.14313635230064392
1789998456928535800,11.535535888671875,-0.04655198007822037,-0.2187613993883133,0.1692066639661789
1789998456938605800,11.545605712890625,-0.04669366031885147,-0.1781974583864212,0.2204623967409134
1789998456948675600,11.555675537109375,-0.030130663886666298,-0.12382876127958298,0.033532463014125824
1789998456958745600,11.56574560546875,0.022055042907595634,-0.09864457696676254,-0.03593023493885994
1789998456968815900,11.57581591796875,0.06043653190135956,-0.09495656192302704,-0.06812301278114319
1789998456978885600,11.5858857421875,0.10437363386154175,-0.08635988086462021,0.0030768639408051968
1789998456988955600,11.59595556640625,0.1036132201552391,-0.08056285232305527,0.12495490163564682
1789998456999026700,11.606026611328126,0.13522040843963623,-0.087447389960289,0.10798950493335724
1789998457009096700,11.6160966796875,0.11769795417785645,-0.08669408410787582,0.0023232907988131046
1789998457019166700,11.626166748046876,0.06912562996149063,-0.04207788035273552,-0.08933418989181519
1789998457029236700,11.63623681640625,0.13753627240657806,0.05824926868081093,-0.05988165736198425
1789998457039306800,11.646306640625,0.20822136104106903,0.10747672617435455,0.040660928934812546
1789998457049376800,11.656376708984375,0.2784385681152344,0.08330038189888,-0.11156761646270752
1789998457059446800,11.66644677734375,0.36873969435691833,0.13437847793102264,-0.0807175561785698
1789998457069516500,11.6765166015625,0.4291662573814392,0.20512810349464417,-0.053794797509908676
1789998457079587600,11.686587646484375,0.4291721284389496,0.26003503799438477,-0.055839572101831436
1789998457089657900,11.696657958984375,0.32190462946891785,0.3346262574195862,-0.14162670075893402
1789998457099727600,11.7067275390625,0.3319580554962158,0.39286932349205017,-0.16731928288936615
1789998457109797600,11.716797607421874,0.3637465238571167,0.4394350051879883,0.0416402742266655
1789998457119868000,11.726867919921874,0.5064695477485657,0.44080066680908203,0.08132297545671463
1789998457129937700,11.736937744140626,0.552914559841156,0.4451403021812439,0.07630185037851334
1789998457140007700,11.747007568359376,0.557250440120697,0.42697566747665405,-0.03547448292374611
1789998457150077700,11.75707763671875,0.5094435214996338,0.45300549268722534,0.056104209274053574
1789998457160148700,11.767148681640625,0.3857288062572479,0.4834288954734802,-0.0837935134768486
1789998457170218800,11.77721875,0.3910543918609619,0.48435699939727783,-0.08298962563276291
1789998457180288800,11.787288818359375,0.3936762809753418,0.4820301830768585,0.07615821808576584
1789998457190358500,11.797358642578125,0.45511940121650696,0.4066780209541321,0.1757236272096634
1789998457200428800,11.8074287109375,0.39254364371299744,0.32863861322402954,0.12717580795288086
1789998457210498800,11.817498779296875,0.2719990313053131,0.34870919585227966,0.033243030309677124
1789998457220568600,11.827568603515624,0.2442486435174942,0.3578435778617859,0.06612880527973175
1789998457230638800,11.837638916015624,0.22418685257434845,0.31171083450317383,-0.0011997063411399722
1789998457240710000,11.8477099609375,0.2664456367492676,0.2784048318862915,-0.06858007609844208
1789998457250779600,11.857779541015624,0.3289911448955536,0.22749896347522736,0.125898540019989
1789998457260849700,11.867849609375,0.31636589765548706,0.21287581324577332,0.15137115120887756
1789998457270919700,11.877919677734376,0.2296116203069687,0.2300351858139038,0.05414392054080963
1789998457280989700,11.88798974609375,0.11265916377305984,0.2510296702384949,-0.011198600754141808
1789998457291059700,11.898059814453125,0.036119185388088226,0.24889013171195984,-0.023544738069176674
1789998457301129700,11.908129638671875,-0.037772614508867264,0.2394031584262848,0.04827911779284477
1789998457311199700,11.91819970703125,-0.06948720663785934,0.2687319815158844,-0.040035147219896317
1789998457321270800,11.928270751953125,-0.03905420005321503,0.25586146116256714,-0.026949437335133553
1789998457331340800,11.9383408203125,-0.0356123223900795,0.2389778345823288,-0.09288617223501205
1789998457341410600,11.94841064453125,0.04481594264507294,0.2141321450471878,-0.016809245571494102
1789998457351480800,11.958480712890625,0.022004971280694008,0.19631563127040863,0.06277056038379669
1789998457361550800,11.96855078125,-0.06597468256950378,0.21170684695243835,-0.08736328035593033
1789998457371620600,11.97862060546875,-0.129517063498497,0.2297479808330536,-0.020494719967246056
1789998457381690600,11.988690673828126,-0.17959488928318024,0.222675159573555,-0.06885372847318649
1789998457391761000,11.998760986328126,-0.18454240262508392,0.1744478940963745,-0.07018732279539108
1789998457401831700,12.008831787109376,-0.21593867242336273,0.1208387166261673,-0.00490472000092268
1789998457411901700,12.018901611328126,-0.17274150252342224,0.1402856707572937,0.010925221256911755
1789998457421971700,12.0289716796875,-0.14177586138248444,0.170373797416687,0.017075257375836372
1789998457432041700,12.039041748046875,-0.2125784009695053,0.1332075446844101,-0.12386977672576904
1789998457442111700,12.04911181640625,-0.24213948845863342,0.08146419376134872,-0.01078503206372261
1789998457452181800,12.059181640625,-0.19762466847896576,0.07078316807746887,-0.028557026758790016
1789998457462251800,12.069251708984375,-0.13366833329200745,0.0625566691160202,-0.09669932723045349
1789998457472321800,12.07932177734375,-0.14591185748577118,0.004763370379805565,-0.1882867068052292
1789998457482392800,12.089392822265625,-0.1692267656326294,-0.009715969674289227,-0.09963539242744446
1789998457492462600,12.099462646484374,-0.17020849883556366,0.022460108622908592,-0.002984022255986929
1789998457502532600,12.10953271484375,-0.20018982887268066,0.03411303833127022,-0.023978520184755325
1789998457512603000,12.119602783203124,-0.2996004521846771,-0.01946444809436798,0.09049735963344574
1789998457522672600,12.129672607421876,-0.2878308892250061,-0.07292527705430984,0.1079607754945755
1789998457532742700,12.13974267578125,-0.21980267763137817,-0.027659516781568527,0.012786418199539185
1789998457542813000,12.14981298828125,-0.19186052680015564,-0.01978481560945511,0.04969117417931557
1789998457552882700,12.159882568359375,-0.14424948394298553,-0.06555461883544922,0.25352951884269714
1789998457562953700,12.16995361328125,-0.12542864680290222,-0.05216158553957939,0.08121556043624878
1789998457573023700,12.180023681640625,-0.18313759565353394,0.0028393175452947617,-0.02823750488460064
1789998457583093800,12.19009375,-0.20795905590057373,-0.013144975528120995,-0.15300126373767853
1789998457593163800,12.200163818359375,-0.2216818928718567,-0.02668658271431923,0.048578113317489624
1789998457603233800,12.21023388671875,-0.23890775442123413,-0.00954434834420681,0.11002549529075623
1789998457613303600,12.220303466796874,-0.1805865615606308,-0.0038689421489834785,0.1568310409784317
1789998457623373800,12.230373779296874,-0.23571187257766724,-0.008673285134136677,0.11375708132982254
1789998457633443600,12.240443603515626,-0.21761363744735718,-0.01953592337667942,-0.04141058400273323
1789998457643513600,12.250513671875,-0.22281904518604279,0.012463288381695747,-0.05651949718594551
1789998457653584600,12.260584716796876,-0.2341350018978119,0.04051004350185394,-0.08234448730945587
1789998457663655000,12.270655029296876,-0.24274499714374542,-0.013739081099629402,-0.010977890342473984
1789998457673724700,12.280724609375,-0.2221444845199585,-0.04704993590712547,0.14095506072044373
1789998457683794700,12.290794677734375,-0.2152937799692154,-0.058792877942323685,0.26879745721817017
1789998457693864700,12.30086474609375,-0.23950697481632233,-0.09521347284317017,0.06244561821222305
1789998457703934700,12.310934814453125,-0.26893141865730286,-0.13015547394752502,-0.028876304626464844
1789998457714004700,12.321004638671875,-0.32709190249443054,-0.13684117794036865,-0.04056766629219055
1789998457724074200,12.33107421875,-0.2688605487346649,-0.11515852063894272,0.13773177564144135
1789998457734145300,12.341145263671875,-0.2608736753463745,-0.07641509175300598,0.0334167517721653
1789998457744215300,12.35121533203125,-0.17575107514858246,-0.10965108126401901,0.21871842443943024
1789998457754285000,12.36128515625,-0.20959965884685516,-0.13347023725509644,0.12021949142217636
1789998457764355000,12.37135498046875,-0.16758988797664642,-0.16596719622612,0.004464924335479736
1789998457774425300,12.38142529296875,-0.26177436113357544,-0.14612217247486115,0.0008459133096039295
1789998457784495000,12.3914951171875,-0.30934080481529236,-0.11767402291297913,-0.062256623059511185
1789998457794565000,12.401565185546875,-0.3548937439918518,-0.08847519010305405,-0.0729912593960762
1789998457804635400,12.411635498046875,-0.24060234427452087,-0.1508304476737976,-0.025243176147341728
1789998457814706400,12.42170654296875,-0.17682209610939026,-0.19120052456855774,-0.11484593898057938
1789998457824776200,12.431776123046875,-0.18522489070892334,-0.17813025414943695,-0.1055738776922226
