time,seconds_elapsed,z,y,x
1789147776748080400,0.046080322265625,0.43519917130470276,0.3184831440448761,0.038216158747673035
1789147776758052600,0.056052490234375,0.43737471103668213,0.34604817628860474,0.08497354388237
1789147776768025600,0.066025634765625,0.43766236305236816,0.4663654863834381,0.0007170380558818579
1789147776777997600,0.07599755859375,0.4508519470691681,0.5402668714523315,-0.05332888290286064
1789147776787969500,0.085969482421875,0.48170554637908936,0.5356197953224182,-0.07757657766342163
1789147776797942500,0.095942626953125,0.49995753169059753,0.4634111523628235,0.14784669876098633
1789147776807914500,0.10591455078125,0.589837908744812,0.5774716734886169,-0.04136744514107704
1789147776817887500,0.115887451171875,0.6054407954216003,0.48443520069122314,0.2190748006105423
1789147776827859700,0.125859619140625,0.6873995065689087,0.6257914900779724,0.06807901710271835
1789147776837831400,0.13583154296875,0.6131346225738525,0.6531165838241577,0.22728757560253143
1789147776847804700,0.1458046875,0.6398000121116638,0.6067178845405579,0.18581093847751617
1789147776857776600,0.155776611328125,0.638373613357544,0.5810471177101135,0.26322105526924133
1789147776867748600,0.16574853515625,0.47508466243743896,0.4910343587398529,0.4589982032775879
1789147776877721600,0.1757216796875,0.5495797395706177,0.5611439943313599,0.17362770438194275
1789147776887693600,0.185693603515625,0.48046398162841797,0.5854974985122681,0.1428745537996292
1789147776897666600,0.19566650390625,0.4108082056045532,0.5485013723373413,0.10848488658666611
1789147776907638500,0.205638427734375,0.3120047450065613,0.5163615942001343,0.13853579759597778
1789147776917610800,0.21561083984375,0.41964253783226013,0.4643987715244293,0.029462838545441628
1789147776927583200,0.225583251953125,0.2925037741661072,0.44576752185821533,0.05580366030335426
1789147776937555200,0.23555517578125,0.47760412096977234,0.4475651681423187,-0.06998836249113083
1789147776947527200,0.245527099609375,0.32828816771507263,0.45056381821632385,0.2820197641849518
1789147776957500200,0.255500244140625,0.3640488386154175,0.43654894828796387,0.19423556327819824
1789147776967472000,0.26547216796875,0.43121424317359924,0.48979178071022034,0.13467881083488464
1789147776977444000,0.275444091796875,0.30594155192375183,0.44082024693489075,0.15001356601715088
1789147776987417300,0.285417236328125,0.2502618730068207,0.39244893193244934,0.21229995787143707
1789147776997389000,0.29538916015625,0.3872370421886444,0.44673559069633484,0.10594715923070908
1789147777007362000,0.305362060546875,0.41537100076675415,0.44978898763656616,0.002555498154833913
1789147777017334300,0.315334228515625,0.28662046790122986,0.45301514863967896,0.02942466363310814
1789147777027306000,0.325305908203125,0.3267848491668701,0.46279457211494446,0.08974705636501312
1789147777037279200,0.335279296875,0.40693190693855286,0.5294486880302429,0.09751469641923904
1789147777047251200,0.345251220703125,0.4181548058986664,0.5185542702674866,0.34863516688346863
1789147777057223200,0.35522314453125,0.5200425386428833,0.47406938672065735,0.31380370259284973
1789147777067196200,0.365196044921875,0.4004293382167816,0.5112121105194092,0.2796020209789276
1789147777077168000,0.375168212890625,0.27650126814842224,0.5562520027160645,0.266838014125824
1789147777087141400,0.385141357421875,0.3387494683265686,0.5286613702774048,0.1490968018770218
1789147777097113000,0.395113037109375,0.3180473744869232,0.4817841351032257,0.19179952144622803
1789147777107085300,0.405085205078125,0.16362345218658447,0.4766223430633545,0.11411769688129425
1789147777117058300,0.415058349609375,0.1578047126531601,0.453790545463562,0.1278204619884491
1789147777127030000,0.425030029296875,0.20146118104457855,0.46046730875968933,0.08503897488117218
1789147777137002200,0.435002197265625,0.13312260806560516,0.4516450762748718,0.16731120645999908
1789147777146975200,0.444975341796875,0.108453169465065,0.45118507742881775,0.14568451046943665
1789147777156947200,0.454947265625,0.12591205537319183,0.43850070238113403,0.14082211256027222
1789147777166919200,0.464919189453125,0.004404617939144373,0.39443427324295044,0.3269912898540497
1789147777176892200,0.47489208984375,0.00015474576503038406,0.4612412452697754,0.2110138237476349
1789147777186864000,0.484864013671875,-0.06352847069501877,0.39732417464256287,0.2798539400100708
1789147777196837000,0.494837158203125,-0.08242759853601456,0.39235952496528625,0.3400949239730835
1789147777206809000,0.50480908203125,-0.06312986463308334,0.4519895017147064,0.21718287467956543
1789147777216781000,0.514781005859375,-0.004010614939033985,0.4646490812301636,0.03151606768369675
1789147777226754300,0.52475439453125,-0.14131221175193787,0.4596157968044281,0.2060316503047943
1789147777236726000,0.53472607421875,-0.0055732931941747665,0.4517304301261902,0.2190459817647934
1789147777246698200,0.5446982421875,0.034385062754154205,0.5792934894561768,0.12656833231449127
1789147777256671200,0.554671142578125,0.0671888142824173,0.5196823477745056,0.3331654369831085
1789147777266643000,0.564642822265625,0.038147661834955215,0.6150171160697937,0.2903858423233032
1789147777276615200,0.574615234375,0.15391767024993896,0.5932223200798035,0.22561508417129517
1789147777286588200,0.584588134765625,0.0019910582341253757,0.6339313983917236,0.24037808179855347
1789147777296560000,0.59456005859375,-0.037325721234083176,0.631136417388916,0.17805717885494232
1789147777306533000,0.604533203125,-0.08114942908287048,0.5665240287780762,0.18743681907653809
1789147777316505000,0.614505126953125,-0.0151299387216568,0.5579081773757935,0.05921919643878937
1789147777326477000,0.62447705078125,-0.0874490961432457,0.5675564408302307,0.14269039034843445
1789147777336450000,0.634449951171875,-0.08797986060380936,0.4924137592315674,0.1670583039522171
1789147777346422300,0.64442236328125,-0.1278388351202011,0.44894173741340637,0.2099381685256958
1789147777356394000,0.65439404296875,-0.24237847328186035,0.44521358609199524,0.20351196825504303
1789147777366367000,0.664366943359375,-0.3166196644306183,0.277805358171463,0.3425005376338959
1789147777376339200,0.674339111328125,-0.3735330104827881,0.2600894868373871,0.28539782762527466
1789147777386312200,0.684312255859375,-0.3424423933029175,0.23557539284229279,0.22779002785682678
1789147777396284200,0.6942841796875,-0.4513457119464874,0.23741324245929718,-0.050227999687194824
1789147777406256000,0.704256103515625,-0.3918592929840088,0.22072061896324158,-0.05297967046499252
1789147777416229400,0.7142294921875,-0.41915374994277954,0.16285304725170135,0.10118646174669266
1789147777426201000,0.724201171875,-0.47492727637290955,0.1338113248348236,0.023262307047843933
1789147777436173300,0.73417333984375,-0.6872773766517639,0.06744936108589172,0.2719501554965973
1789147777446146300,0.744146240234375,-0.8033794164657593,0.09470932185649872,0.28334102034568787
1789147777456118000,0.754117919921875,-0.5221033096313477,0.13671696186065674,0.1500498354434967
1789147777466091300,0.76409130859375,-0.5295414328575134,0.19661927223205566,0.05531274527311325
1789147777476063200,0.774063232421875,-0.38557255268096924,0.06115545332431793,-0.02742687426507473
1789147777486035200,0.78403515625,-0.4303671717643738,0.11319489777088165,0.05496260151267052
1789147777496008200,0.79400830078125,-0.6053690314292908,0.0795474573969841,0.24227258563041687
1789147777505980200,0.803980224609375,-0.4654030203819275,0.12226573377847672,-0.10393638908863068
1789147777515952000,0.8139521484375,-0.5268863439559937,0.10311627388000488,0.09507710486650467
1789147777525925000,0.823925048828125,-0.47210511565208435,0.0996856540441513,0.16287674009799957
1789147777535897300,0.8338974609375,-0.533147394657135,0.16821756958961487,0.18283499777317047
1789147777545869000,0.843869140625,-0.3818785846233368,0.07807578146457672,0.09311727434396744
1789147777555842000,0.853842041015625,-0.40205416083335876,0.10632579028606415,-0.06477967649698257
1789147777565814300,0.863814208984375,-0.4531877338886261,0.19853729009628296,-0.13484756648540497
1789147777575787000,0.873787109375,-0.424765944480896,0.15070398151874542,-0.07922345399856567
1789147777585759200,0.88375927734375,-0.41120022535324097,0.18535372614860535,-0.1299474686384201
1789147777595731200,0.893731201171875,-0.4368230402469635,0.19429582357406616,-0.0807516947388649
1789147777605704200,0.9037041015625,-0.39033570885658264,0.09648618847131729,-0.05128141865134239
1789147777615676200,0.91367626953125,-0.4132956266403198,0.084293432533741,-0.03862341493368149
1789147777625648400,0.9236484375,-0.5278007984161377,0.08912622183561325,-0.004354298114776611
1789147777635621000,0.93362109375,-0.511629045009613,0.04470842331647873,0.009445403702557087
1789147777645593000,0.943593017578125,-0.5414158701896667,0.03129495680332184,0.052037596702575684
1789147777655565300,0.9535654296875,-0.5951571464538574,-0.05289901793003082,0.06062149628996849
1789147777665538000,0.9635380859375,-0.5467125773429871,-0.10691387951374054,0.09139306843280792
1789147777675510300,0.97351025390625,-0.48556777834892273,-0.13637135922908783,0.04559921473264694
1789147777685483300,0.983483154296875,-0.5295298099517822,-0.17386594414710999,0.16315631568431854
1789147777695455000,0.993455078125,-0.5268464088439941,-0.16728581488132477,0.07747922092676163
1789147777705427200,1.00342724609375,-0.5225490927696228,-0.20107361674308777,0.009973977692425251
1789147777715400200,1.013400146484375,-0.5345761775970459,-0.20001287758350372,-0.1526665985584259
1789147777725372200,1.0233720703125,-0.5233944058418274,-0.24037031829357147,-0.19657418131828308
1789147777735344000,1.03334423828125,-0.47819948196411133,-0.24955609440803528,-0.24583066999912262
1789147777745317000,1.043317138671875,-0.5054314732551575,-0.23820564150810242,-0.08638512343168259
1789147777755289000,1.0532890625,-0.4375333786010742,-0.2764321267604828,0.07599712908267975
1789147777765261000,1.063260986328125,-0.45209768414497375,-0.34591931104660034,0.14802254736423492
1789147777775234300,1.073234375,-0.3542875051498413,-0.35074281692504883,0.11164483428001404
1789147777785206000,1.0832060546875,-0.3866364657878876,-0.3084411323070526,0.036316730082035065
1789147777795179000,1.093178955078125,-0.36010101437568665,-0.3327704668045044,-0.07564602792263031
1789147777805151200,1.103151123046875,-0.2937428057193756,-0.2852640151977539,-0.09095294028520584
1789147777815123200,1.113123291015625,-0.30445510149002075,-0.3260980248451233,-0.10886988788843155
1789147777825096200,1.12309619140625,-0.23151108622550964,-0.3527849614620209,-0.06607336550951004
1789147777835068200,1.133068115234375,-0.20206478238105774,-0.291655570268631,-0.05109228193759918
1789147777845040000,1.1430400390625,-0.14118844270706177,-0.3141025900840759,-0.08354530483484268
1789147777855013000,1.15301318359375,-0.07425734400749207,-0.34214699268341064,-0.07553478330373764
1789147777864985300,1.1629853515625,-0.02822115272283554,-0.2691579759120941,-0.1216311976313591
1789147777874958300,1.172958251953125,-0.05060209333896637,-0.26469239592552185,-0.09272737801074982
1789147777884930000,1.182929931640625,-0.041087858378887177,-0.2887561321258545,-0.07976247370243073
1789147777894902300,1.19290234375,-0.025684133172035217,-0.26460179686546326,-0.03623710200190544
1789147777904875300,1.202875244140625,0.05482710152864456,-0.23804354667663574,-0.0313892588019371
1789147777914847200,1.21284716796875,0.16824394464492798,-0.19704817235469818,0.038171444088220596
1789147777924818700,1.222818603515625,0.28232428431510925,-0.14428789913654327,0.00995569583028555
1789147777934791700,1.232791748046875,0.38816043734550476,-0.07641323655843735,-0.02418416365981102
1789147777944763600,1.242763671875,0.39525365829467773,-0.06447885185480118,0.0807863175868988
1789147777954735900,1.25273583984375,0.5366070866584778,-0.005659210961312056,-0.009213343262672424
1789147777964708900,1.262708984375,0.5440234541893005,0.07409962266683578,0.06079907342791557
1789147777974680600,1.2726806640625,0.6429710984230042,0.11908414214849472,0.00411369139328599
1789147777984653800,1.28265380859375,0.6442500352859497,0.1803945004940033,-0.01367803942412138
1789147777994625800,1.292625732421875,0.6734148263931274,0.18412691354751587,0.095193050801754
1789147778004597800,1.30259765625,0.656092643737793,0.2091713547706604,0.16759492456912994
1789147778014570800,1.31257080078125,0.7934020757675171,0.1761620044708252,0.11399666965007782
1789147778024542700,1.322542724609375,0.8021091222763062,0.2827484607696533,-0.06458012014627457
1789147778034514700,1.3325146484375,0.7191804051399231,0.19355759024620056,0.1065138652920723
1789147778044487700,1.34248779296875,0.6983349919319153,0.13647742569446564,-0.09141314029693604
1789147778054460000,1.3524599609375,0.6523618698120117,0.11376892030239105,-0.09662042558193207
1789147778064431600,1.362431640625,0.42297422885894775,-0.00766602111980319,0.11979442834854126
1789147778074404600,1.372404541015625,0.475589781999588,-0.1360226720571518,0.13964882493019104
1789147778084376800,1.382376953125,0.37873977422714233,-0.14712773263454437,0.10518765449523926
1789147778094349800,1.392349853515625,0.2244149148464203,-0.16862210631370544,0.17961609363555908
1789147778104321800,1.40232177734375,0.06480997800827026,-0.1810573935508728,0.18997646868228912
1789147778114293800,1.412293701171875,0.138764888048172,-0.18376396596431732,-0.054771773517131805
1789147778124266800,1.422266845703125,0.10804782062768936,-0.22150367498397827,0.059250231832265854
1789147778134238700,1.43223876953125,0.08705306053161621,-0.2716107666492462,0.0395396426320076
1789147778144210700,1.442210693359375,0.17865009605884552,-0.2554289400577545,0.015194682404398918
1789147778154183700,1.45218359375,0.24803049862384796,-0.18637476861476898,0.10669423639774323
1789147778164155600,1.46215576171875,0.3227945566177368,-0.12316977977752686,0.07917658984661102
1789147778174129000,1.47212890625,0.45672571659088135,-0.035078540444374084,0.09312356263399124
1789147778184100600,1.4821005859375,0.5120599865913391,0.06699295341968536,0.08185036480426788
1789147778194072800,1.49207275390625,0.5605170130729675,0.023263320326805115,0.2775263786315918
1789147778204045800,1.5020458984375,0.5779487490653992,0.13493673503398895,0.10363101214170456
1789147778214017500,1.512017578125,0.6144692301750183,0.15252025425434113,0.13241605460643768
1789147778223989800,1.52198974609375,0.6014268398284912,0.20965221524238586,0.01939389295876026
1789147778233962800,1.531962646484375,0.6630390286445618,0.2655748724937439,-0.06890188157558441
1789147778243934700,1.541934814453125,0.667965292930603,0.30653882026672363,-0.07178495079278946
1789147778253906700,1.55190673828125,0.7147886753082275,0.28255757689476013,-0.056347139179706573
1789147778263879700,1.561879638671875,0.7485530376434326,0.3155517280101776,-0.18749208748340607
1789147778273851600,1.5718515625,0.7358393669128418,0.3770451843738556,-0.2704721987247467
1789147778283824600,1.58182470703125,0.7058153748512268,0.308454304933548,0.04449952766299248
1789147778293796900,1.591796875,0.765958309173584,0.33574000000953674,-0.03960390016436577
1789147778303768600,1.6017685546875,0.8306970000267029,0.24464945495128632,0.16735607385635376
1789147778313741600,1.611741455078125,0.7669872641563416,0.2234126180410385,0.15449459850788116
1789147778323713800,1.6217138671875,0.7016297578811646,0.26708751916885376,0.15005505084991455
1789147778333685800,1.631685791015625,0.6939670443534851,0.22101084887981415,0.14474551379680634
1789147778343658800,1.64165869140625,0.6405221819877625,0.260066419839859,-0.018152909353375435
1789147778353630700,1.651630615234375,0.6413666605949402,0.27043625712394714,0.02339773066341877
1789147778363602700,1.661602783203125,0.6246502995491028,0.24267765879631042,0.007769570220261812
1789147778373575700,1.67157568359375,0.6561776399612427,0.2182633876800537,0.0032464577816426754
1789147778383548000,1.6815478515625,0.7503817081451416,0.24835853278636932,0.1078411191701889
1789147778393521000,1.69152099609375,0.7522901296615601,0.2934269607067108,0.061595067381858826
1789147778403492600,1.70149267578125,0.757139265537262,0.3190108835697174,-0.06701693683862686
1789147778413464800,1.71146484375,0.7791057825088501,0.339924156665802,-0.005473413038998842
1789147778423437800,1.721437744140625,0.7636266946792603,0.3914395272731781,0.0023208605125546455
1789147778433409800,1.731409912109375,0.69706791639328,0.40529757738113403,-0.022334685549139977
1789147778443381800,1.7413818359375,0.7024843692779541,0.40085917711257935,0.029682312160730362
1789147778453354800,1.751354736328125,0.7469887137413025,0.44640880823135376,0.06882784515619278
1789147778463326700,1.76132666015625,0.8479309678077698,0.5130265355110168,0.014425263740122318
1789147778473298700,1.771298583984375,0.8644351363182068,0.46693089604377747,0.06742110103368759
1789147778483272000,1.78127197265625,0.7937177419662476,0.569146454334259,-0.08736670017242432
1789147778493243600,1.79124365234375,0.7556009888648987,0.5639570355415344,-0.020153846591711044
1789147778503216600,1.801216552734375,0.7833065986633301,0.5857207775115967,-0.08724691718816757
1789147778513188900,1.81118896484375,0.7743216156959534,0.5643762946128845,-0.0161165501922369
1789147778523160600,1.82116064453125,0.8079745173454285,0.5919148921966553,0.019027769565582275
1789147778533133800,1.8311337890625,0.8701116442680359,0.5759556293487549,0.061444468796253204
1789147778543105800,1.841105712890625,0.819554328918457,0.5650242567062378,0.15054859220981598
1789147778553077800,1.851077880859375,0.7810085415840149,0.648918867111206,-0.011602758429944515
1789147778563050800,1.86105078125,0.7071462869644165,0.5863534212112427,0.13156743347644806
1789147778573022700,1.871022705078125,0.6838116645812988,0.596869170665741,0.12566719949245453
1789147778582994700,1.88099462890625,0.7119578719139099,0.5957083106040955,0.10308176279067993
1789147778592967700,1.8909677734375,0.7765011787414551,0.5644984245300293,0.12460756301879883
1789147778602940000,1.90093994140625,0.76157546043396,0.5611678957939148,0.21133363246917725
1789147778612912600,1.91091259765625,0.7394629120826721,0.5949405431747437,0.25992247462272644
1789147778622884900,1.920884765625,0.711205005645752,0.6038295030593872,0.25255414843559265
1789147778632856800,1.93085693359375,0.7096563577651978,0.6204449534416199,0.2556583285331726
1789147778642829600,1.94082958984375,0.6491360068321228,0.613197386264801,0.27236664295196533
1789147778652801800,1.9508017578125,0.6356934309005737,0.6013804078102112,0.17941300570964813
1789147778662773800,1.960773681640625,0.6026488542556763,0.6006717085838318,0.28538942337036133
1789147778672746800,1.970746826171875,0.5587660670280457,0.6301281452178955,0.24660684168338776
1789147778682718700,1.98071875,0.5493091940879822,0.6041319370269775,0.25391218066215515
1789147778692691000,1.99069091796875,0.5405439138412476,0.5749855041503906,0.3278713524341583
1789147778702663700,2.00066357421875,0.5727358460426331,0.6289184093475342,0.24927419424057007
1789147778712635600,2.0106357421875,0.5040148496627808,0.6440118551254272,0.2774432599544525
1789147778722609000,2.02060888671875,0.4614514112472534,0.6250422596931458,0.26961037516593933
1789147778732580600,2.03058056640625,0.43380460143089294,0.6505340337753296,0.2321908175945282
1789147778742552800,2.040552734375,0.43750107288360596,0.6192439198493958,0.27174490690231323
1789147778752525800,2.05052587890625,0.41816413402557373,0.6086298823356628,0.29332396388053894
1789147778762497500,2.06049755859375,0.35183870792388916,0.5607174634933472,0.45307454466819763
1789147778772469800,2.0704697265625,0.2991510033607483,0.5830667018890381,0.36140188574790955
1789147778782442800,2.08044287109375,0.22806456685066223,0.5591366291046143,0.44066765904426575
1789147778792414700,2.090414794921875,0.21553198993206024,0.5268402099609375,0.4621063470840454
1789147778802387700,2.1003876953125,0.21051551401615143,0.4904468357563019,0.39054256677627563
1789147778812360000,2.11035986328125,0.1722131222486496,0.5152217149734497,0.29223647713661194
1789147778822331600,2.12033154296875,0.07035273313522339,0.5621645450592041,0.23574627935886383
1789147778832304600,2.1303046875,0.011223368346691132,0.48864638805389404,0.37998443841934204
1789147778842276900,2.14027685546875,0.0674484595656395,0.45751333236694336,0.3175845742225647
1789147778852248600,2.15024853515625,0.0889873057603836,0.4701218008995056,0.24547627568244934
1789147778862221800,2.160221923828125,0.06320037692785263,0.45439383387565613,0.39692750573158264
1789147778872193800,2.17019384765625,0.004486734047532082,0.4696311056613922,0.4180263876914978
1789147778882165800,2.180165771484375,-0.05780746787786484,0.45265427231788635,0.2772722840309143
1789147778892138800,2.190138671875,-0.08751929551362991,0.4439036548137665,0.2706966698169708
1789147778902110700,2.20011083984375,-0.04051465913653374,0.45196732878685,0.23096618056297302
1789147778912083700,2.210083740234375,-0.05772880092263222,0.4649007022380829,0.17423473298549652
1789147778922056000,2.220055908203125,-0.08797921985387802,0.43820902705192566,0.1915280818939209
1789147778932028200,2.230028076171875,-0.11076602339744568,0.4486158490180969,0.026749784126877785
1789147778942001200,2.240001220703125,-0.13416598737239838,0.46266302466392517,0.02732173725962639
1789147778951972900,2.249972900390625,-0.09948310256004333,0.3921643793582916,0.034463539719581604
1789147778961945000,2.259945068359375,-0.08652005344629288,0.3524509072303772,-0.03172704949975014
1789147778971918000,2.26991796875,-0.18457044661045074,0.20695416629314423,0.2856873869895935
1789147778981890000,2.27989013671875,-0.29714512825012207,0.1882188469171524,0.20862087607383728
1789147778991862000,2.289862060546875,-0.36769598722457886,0.1804562658071518,0.23110701143741608
1789147779001835000,2.2998349609375,-0.395462304353714,0.2052631378173828,0.1329619139432907
1789147779011807000,2.309806884765625,-0.47391849756240845,0.12988689541816711,0.25799307227134705
1789147779021780000,2.319780029296875,-0.4971725642681122,0.0926414430141449,0.06784214824438095
1789147779031752200,2.329752197265625,-0.42358145117759705,0.04207201674580574,0.018884193152189255
1789147779041724000,2.339723876953125,-0.38656723499298096,0.025258589535951614,-0.028868723660707474
1789147779051697000,2.34969677734375,-0.45103970170021057,-0.005096652545034885,0.012566599994897842
1789147779061669000,2.359669189453125,-0.4825925827026367,-0.002935615601018071,0.0017959645483642817
1789147779071641000,2.36964111328125,-0.43961235880851746,0.041507747024297714,-0.0820360854268074
1789147779081614000,2.379614013671875,-0.434704065322876,0.031018277630209923,-0.03055706061422825
1789147779091585800,2.389585693359375,-0.3795126974582672,-0.005354377441108227,-0.063224196434021
1789147779101558000,2.39955810546875,-0.383800745010376,0.001191337127238512,-0.0795939564704895
1789147779111531000,2.409531005859375,-0.39497536420822144,-0.045462716370821,0.036231718957424164
1789147779121503000,2.4195029296875,-0.30316779017448425,-0.016182247549295425,0.007348815910518169
1789147779131476000,2.42947607421875,-0.31780505180358887,-0.00682283379137516,0.06522676348686218
1789147779141448000,2.439447998046875,-0.26196202635765076,-0.043737057596445084,0.13325801491737366
1789147779151420000,2.449419921875,-0.30257949233055115,-0.07898665964603424,0.43536701798439026
1789147779161393000,2.459392822265625,-0.20049628615379333,-0.011858989484608173,0.27218231558799744
1789147779171365000,2.469365234375,-0.146708682179451,0.04883072152733803,0.22120490670204163
1789147779181336800,2.4793369140625,-0.10845264792442322,0.021869413554668427,0.017801444977521896
1789147779191309800,2.489309814453125,-0.040970269590616226,0.025751236826181412,0.042107049375772476
1789147779201282000,2.499281982421875,-0.1172538474202156,0.028900275006890297,0.1092299073934555
1789147779211253800,2.509253662109375,-0.3162148892879486,-0.06435856223106384,0.16818323731422424
1789147779221227000,2.51922705078125,-0.10307516902685165,0.031540121883153915,-0.27385327219963074
1789147779231199000,2.529198974609375,0.026999205350875854,0.09906429797410965,-0.05780700221657753
1789147779241172000,2.539171875,0.022220253944396973,0.02728167735040188,0.018687063828110695
1789147779251144000,2.54914404296875,0.16410867869853973,0.07598503679037094,-0.232368603348732
1789147779261116000,2.559115966796875,0.12181467562913895,0.0835883766412735,-0.11065901070833206
1789147779271089200,2.569089111328125,0.02596884034574032,0.043064918369054794,0.226616770029068
1789147779281060900,2.579060791015625,0.07502489537000656,0.08620819449424744,-0.05797624588012695
1789147779291033000,2.589033203125,0.24190230667591095,0.10946132242679596,-0.21018628776073456
1789147779301006000,2.599006103515625,0.10475987195968628,0.07006669044494629,0.1638684868812561
1789147779310978000,2.60897802734375,0.026030439883470535,-0.06894312798976898,0.09047097712755203
1789147779320950000,2.618949951171875,0.15293413400650024,0.02670082077383995,-0.3386632800102234
1789147779330923000,2.628923095703125,0.13194337487220764,0.0722760260105133,-0.07644151896238327
1789147779340895000,2.63889501953125,0.11465051770210266,0.06844227015972137,0.09479459375143051
1789147779350868000,2.648867919921875,0.3517237603664398,0.0801178365945816,-0.01648239605128765
1789147779360840200,2.658840087890625,0.4476624131202698,0.07396477460861206,0.012800722382962704
1789147779370812000,2.66881201171875,0.29227790236473083,0.06769276410341263,0.132498636841774
1789147779380785000,2.678784912109375,0.23559097945690155,0.018328005447983742,0.1493397206068039
1789147779390757000,2.688757080078125,0.3397160470485687,0.06059236824512482,-0.029598338529467583
1789147779400728800,2.698728759765625,0.33090487122535706,0.0981784537434578,0.027897367253899574
1789147779410702000,2.7087021484375,0.29946091771125793,0.16867606341838837,-0.03932667523622513
1789147779420674000,2.718674072265625,0.38662129640579224,0.18245716392993927,-0.0666220411658287
1789147779430646000,2.72864599609375,0.4607866108417511,0.1808432787656784,-0.017682995647192
1789147779440619000,2.738618896484375,0.5084693431854248,0.19077858328819275,0.039107173681259155
1789147779450591000,2.748591064453125,0.5747681856155396,0.17542067170143127,0.044106725603342056
1789147779460563000,2.75856298828125,0.6268470883369446,0.2364114671945572,0.0376860573887825
1789147779470536000,2.768535888671875,0.5625956654548645,0.30508214235305786,-0.03409945219755173
1789147779480508200,2.778508056640625,0.5721001625061035,0.3171117901802063,-0.04779210686683655
1789147779490481000,2.78848095703125,0.5641245245933533,0.3479810059070587,-0.030070368200540543
1789147779500453000,2.798453125,0.6978357434272766,0.354006290435791,-0.026680128648877144
1789147779510425000,2.808425048828125,0.7500603199005127,0.40512433648109436,0.005710300523787737
1789147779520397800,2.818397705078125,0.7919691801071167,0.4449692964553833,0.030735818669199944
1789147779530370000,2.8283701171875,0.8329318165779114,0.4443250596523285,0.10188855975866318
1789147779540342000,2.838342041015625,0.8654183149337769,0.5241267681121826,0.12064164131879807
1789147779550315000,2.84831494140625,0.8320385217666626,0.5442512035369873,0.21573993563652039
1789147779560287000,2.858286865234375,0.8779016137123108,0.5562830567359924,0.28777316212654114
1789147779570260000,2.868260009765625,0.9030080437660217,0.6355829238891602,0.29916349053382874
1789147779580232000,2.87823193359375,0.9350012540817261,0.6352717280387878,0.2297474890947342
1789147779590204000,2.888203857421875,0.945097029209137,0.452068567276001,0.37250250577926636
1789147779600177200,2.89817724609375,0.8474940061569214,0.5118995904922485,0.2793389856815338
1789147779610148900,2.90814892578125,0.7239643335342407,0.5331183075904846,0.2631589472293854
1789147779620121000,2.91812109375,0.6298025250434875,0.4976399838924408,0.1679970771074295
1789147779630094000,2.928093994140625,0.5571698546409607,0.5296777486801147,0.0851149708032608
1789147779640065800,2.938065673828125,0.5285446643829346,0.48129117488861084,0.09006023406982422
1789147779650038000,2.9480380859375,0.4749375879764557,0.49383917450904846,-0.06690993905067444
1789147779660011000,2.958010986328125,0.47511330246925354,0.45603832602500916,-0.009796639904379845
1789147779669983000,2.96798291015625,0.49442869424819946,0.5115058422088623,-0.13553299009799957
1789147779679955000,2.977954833984375,0.5120382905006409,0.39981576800346375,0.1551491916179657
1789147779689928000,2.987927978515625,0.43360158801078796,0.39175093173980713,0.20190204679965973
1789147779699900000,2.99789990234375,0.4028225541114807,0.4545953571796417,0.14779669046401978
1789147779709873000,3.007872802734375,0.34654754400253296,0.49880197644233704,0.13188163936138153
1789147779719845000,3.01784521484375,0.3581704795360565,0.543968677520752,0.11659437417984009
1789147779729816800,3.02781689453125,0.2945837676525116,0.51341313123703,0.15085940062999725
1789147779739790000,3.0377900390625,0.35259824991226196,0.47939789295196533,0.17105092108249664
1789147779749762000,3.047761962890625,0.32107895612716675,0.5670798420906067,0.12083355337381363
1789147779759734000,3.057734130859375,0.42649731040000916,0.5933671593666077,0.14213456213474274
1789147779769707000,3.06770703125,0.4814811944961548,0.6350802779197693,0.34780436754226685
1789147779779679000,3.077678955078125,0.6243475079536438,0.6464933156967163,0.30197399854660034
1789147779789651000,3.08765087890625,0.5771741271018982,0.6707000732421875,0.24373066425323486
1789147779799624000,3.0976240234375,0.39522823691368103,0.8068900108337402,-0.08274605125188828
1789147779809596200,3.10759619140625,0.2721060514450073,0.6562879681587219,0.29064857959747314
1789147779819569200,3.117569091796875,0.25357839465141296,0.5582292675971985,0.4248356521129608
1789147779829540900,3.127540771484375,0.4393343925476074,0.5807796120643616,0.23807083070278168
1789147779839513000,3.13751318359375,0.2001870572566986,0.5213102698326111,0.41569939255714417
1789147779849485800,3.14748583984375,0.1914319097995758,0.5809667110443115,0.10495910048484802
1789147779859458000,3.1574580078125,0.02647216059267521,0.6408718228340149,0.15076616406440735
1789147779869430000,3.167429931640625,-0.060880593955516815,0.5421633124351501,0.2671053111553192
1789147779879402800,3.17740283203125,0.04737097769975662,0.5235652923583984,-0.039710357785224915
1789147779889375000,3.187375,0.1922226995229721,0.5192229747772217,0.051575079560279846
1789147779899347000,3.197346923828125,0.2422114759683609,0.5711612105369568,0.2979317605495453
1789147779909320000,3.20731982421875,0.24602565169334412,0.6053860187530518,0.18196626007556915
1789147779919292000,3.2172919921875,0.24265576899051666,0.6909982562065125,0.07718454301357269
1789147779929264600,3.2272646484375,0.21261106431484222,0.7693327069282532,0.2003331035375595
1789147779939236600,3.237236572265625,0.18412110209465027,0.7223251461982727,0.18417252600193024
1789147779949208800,3.247208740234375,0.19071108102798462,0.7035972476005554,0.11746486276388168
1789147779959181600,3.257181640625,0.14693349599838257,0.7217118740081787,0.1898900419473648
1789147779969153500,3.267153564453125,0.2107364535331726,0.6687577962875366,0.15521594882011414
1789147779979125800,3.277125732421875,0.2522297501564026,0.6511781811714172,0.20491817593574524
1789147779989098500,3.287098388671875,0.2723720371723175,0.6774081587791443,0.27267059683799744
1789147779999070700,3.29707080078125,0.15874429047107697,0.6922846436500549,0.3288348317146301
1789147780009042700,3.307042724609375,0.07023067027330399,0.6385226249694824,0.38437479734420776
1789147780019015400,3.317015380859375,0.12758773565292358,0.6357393264770508,0.30182453989982605
1789147780028987600,3.326987548828125,0.08487515896558762,0.645365297794342,0.28770872950553894
1789147780038960600,3.336960693359375,0.053761668503284454,0.5929147005081177,0.24850960075855255
1789147780048932600,3.3469326171875,0.02634841948747635,0.564583420753479,0.2387206256389618
1789147780058904600,3.356904541015625,-0.00791128259152174,0.5839747190475464,0.2072628289461136
1789147780068877800,3.3668779296875,-0.0901893749833107,0.5477885007858276,0.3033480942249298
1789147780078849500,3.376849609375,-0.14699628949165344,0.46049800515174866,0.2535088062286377
1789147780088821800,3.38682177734375,-0.23850330710411072,0.4604564607143402,0.09153163433074951
1789147780098794800,3.396794677734375,-0.2990691065788269,0.40927180647850037,0.17291630804538727
1789147780108766500,3.406766357421875,-0.2853197157382965,0.4214988946914673,0.07662571221590042
1789147780118738700,3.41673876953125,-0.25493404269218445,0.3882693946361542,0.09200794994831085
1789147780128711700,3.426711669921875,-0.2473280429840088,0.34574005007743835,0.1876596361398697
1789147780138683600,3.43668359375,-0.31193944811820984,0.3508230447769165,0.1598677933216095
1789147780148655600,3.446655517578125,-0.4218960404396057,0.29682105779647827,0.3135777413845062
1789147780158628600,3.456628662109375,-0.5455506443977356,0.28449663519859314,0.3046548068523407
1789147780168600600,3.4666005859375,-0.5521174669265747,0.23371200263500214,0.26324692368507385
1789147780178573600,3.476573486328125,-0.5313280820846558,0.2571088671684265,0.15914009511470795
1789147780188545800,3.4865458984375,-0.4914725124835968,0.272161066532135,0.26357755064964294
1789147780198517500,3.496517578125,-0.5467759370803833,0.2434457689523697,0.1820438802242279
1789147780208490500,3.506490478515625,-0.5519546866416931,0.23437798023223877,0.008064105175435543
1789147780218462700,3.516462646484375,-0.46083906292915344,0.23946335911750793,-0.007622293196618557
1789147780228434700,3.5264345703125,-0.5105525255203247,0.1966618299484253,0.2638520896434784
1789147780238407700,3.53640771484375,-0.713729977607727,0.09809422492980957,0.14248429238796234
1789147780248379600,3.546379638671875,-0.754083514213562,0.07723794877529144,0.010858088731765747
1789147780258351600,3.5563515625,-0.7437321543693542,0.18213924765586853,-0.16494439542293549
1789147780268324600,3.56632470703125,-0.7140575647354126,0.08913633227348328,0.09616096317768097
1789147780278296800,3.576296875,-0.7687152624130249,-0.04515569284558296,-0.0091699855402112
1789147780288269800,3.586269775390625,-0.8461288213729858,-0.09135627001523972,0.09545420855283737
1789147780298241500,3.596241455078125,-0.8837748169898987,-0.08342792838811874,0.1541445404291153
1789147780308213800,3.6062138671875,-0.9312747120857239,-0.18499024212360382,0.2287077158689499
1789147780318186800,3.616186767578125,-0.974967360496521,-0.1488848328590393,0.0923977717757225
1789147780328158700,3.62615869140625,-0.9087837934494019,-0.2223356068134308,0.05682726204395294
1789147780338130700,3.636130615234375,-0.9577175378799438,-0.26029258966445923,0.036801353096961975
1789147780348103700,3.646103759765625,-0.9557119011878967,-0.33905449509620667,-0.04066627472639084
1789147780358075600,3.65607568359375,-1.0468891859054565,-0.30530187487602234,0.05753543600440025
1789147780368047600,3.666047607421875,-1.080556035041809,-0.30108341574668884,0.022273853421211243
1789147780378020900,3.676020751953125,-1.0857120752334595,-0.33176353573799133,0.1448662430047989
1789147780387992600,3.68599267578125,-0.9274407029151917,-0.2801107168197632,0.06573732942342758
1789147780397965600,3.695965576171875,-0.8419013619422913,-0.21588680148124695,-0.0913759246468544
1789147780407937800,3.705937744140625,-0.8489922881126404,-0.22827211022377014,-0.1161518394947052
1789147780417909500,3.715909423828125,-0.9243171215057373,-0.1916801929473877,-0.1490597277879715
1789147780427882800,3.7258828125,-0.7453492283821106,-0.22000530362129211,-0.2063741534948349
1789147780437854700,3.735854736328125,-0.6542457938194275,-0.1732560694217682,-0.13095618784427643
1789147780447826700,3.74582666015625,-0.7932561039924622,-0.21885763108730316,0.0603645034134388
1789147780457799700,3.755799560546875,-0.7013514637947083,-0.23430252075195312,-0.11296359449625015
1789147780467771600,3.765771728515625,-0.6517431735992432,-0.21828706562519073,-0.06920812278985977
1789147780477743600,3.77574365234375,-0.6547927856445312,-0.2810859978199005,-0.08636318892240524
1789147780487716600,3.785716552734375,-0.6597236394882202,-0.29681968688964844,-0.18617607653141022
1789147780497688800,3.795688720703125,-0.7470041513442993,-0.3238774538040161,-0.14069506525993347
1789147780507660500,3.80566064453125,-0.6746847033500671,-0.3891885280609131,-0.16764946281909943
1789147780517633800,3.8156337890625,-0.7381747961044312,-0.4283114969730377,0.018636474385857582
1789147780527605800,3.825605712890625,-0.7921913862228394,-0.5316328406333923,0.03362128138542175
1789147780537578500,3.83557861328125,-0.8458799123764038,-0.5821371674537659,0.1900697946548462
1789147780547550700,3.84555078125,-0.7191919684410095,-0.46958670020103455,-0.050939615815877914
1789147780557522700,3.855522705078125,-0.6532561182975769,-0.47110721468925476,-0.025659838691353798
1789147780567495700,3.86549560546875,-0.671551525592804,-0.5026001334190369,-0.07393495738506317
1789147780577467600,3.875467529296875,-0.680138349533081,-0.5450560450553894,-0.0971159115433693
1789147780587439900,3.88543994140625,-0.6134770512580872,-0.5500859022140503,-0.07933717966079712
1789147780597412600,3.89541259765625,-0.5293945670127869,-0.5303584337234497,-0.04392664507031441
1789147780607384600,3.905384521484375,-0.4216659665107727,-0.5310221314430237,0.12698224186897278
1789147780617356800,3.915356689453125,-0.3712044656276703,-0.4518064856529236,0.02981327287852764
1789147780627329500,3.92532958984375,-0.24629847705364227,-0.4421283006668091,0.07639489322900772
1789147780637301800,3.9353017578125,-0.2075122594833374,-0.3636348843574524,0.04219718649983406
1789147780647274800,3.945274658203125,-0.2060813456773758,-0.3733375668525696,0.1056472659111023
1789147780657246500,3.95524658203125,-0.02903905138373375,-0.31832155585289,-0.07230342924594879
1789147780667218700,3.96521875,0.061784327030181885,-0.25543686747550964,-0.06757578253746033
1789147780677191700,3.975191650390625,0.10178463160991669,-0.22631673514842987,-0.1448453813791275
1789147780687163600,3.98516357421875,0.008126048371195793,-0.22311986982822418,0.01865565963089466
1789147780697135600,3.995135498046875,0.023426268249750137,-0.21520288288593292,0.00885958131402731
1789147780707108900,4.00510888671875,0.010525914840400219,-0.1860354095697403,-0.016603434458374977
1789147780717080600,4.01508056640625,0.09608837217092514,-0.22143152356147766,0.07208322733640671
1789147780727052800,4.025052734375,0.2616237998008728,-0.24708417057991028,-0.03684990853071213
1789147780737025800,4.03502587890625,0.08698272705078125,-0.2407928854227066,0.002455870620906353
1789147780746997500,4.04499755859375,-0.013920186087489128,-0.3261463940143585,0.015959428623318672
1789147780756970800,4.054970703125,-0.024791203439235687,-0.2799556255340576,-0.03504515066742897
1789147780766942700,4.064942626953125,0.1034029871225357,-0.28644734621047974,0.018642576411366463
1789147780776914700,4.074914794921875,0.23758217692375183,-0.17032064497470856,-0.09082444757223129
1789147780786887700,4.0848876953125,0.28892606496810913,-0.19293807446956635,-0.019112179055809975
1789147780796859600,4.094859619140625,0.2630959451198578,-0.11968758702278137,-0.030217155814170837
1789147780806831600,4.10483154296875,0.2686789929866791,-0.09950108826160431,0.021262547001242638
1789147780816804600,4.1148046875,0.20763562619686127,-0.14328429102897644,0.05900488793849945
1789147780826776800,4.12477685546875,0.2196504771709442,-0.09330181777477264,0.06870624423027039
1789147780836748500,4.13474853515625,0.2977578341960907,0.021994352340698242,0.10583741962909698
1789147780846721500,4.144721435546875,0.5509565472602844,0.08687375485897064,-0.03187037259340286
1789147780856693800,4.15469384765625,0.6931197643280029,0.2330235093832016,-0.18259181082248688
1789147780866665700,4.164665771484375,0.5772980451583862,0.27218902111053467,-0.1502932608127594
1789147780876638700,4.174638671875,0.36505982279777527,-0.008476568385958672,0.10293636471033096
1789147780886610700,4.184610595703125,0.6575827598571777,0.16256041824817657,-0.2987527549266815
1789147780896583700,4.194583740234375,0.31467926502227783,0.05730549991130829,0.08161009103059769
1789147780906555600,4.2045556640625,-0.015078654512763023,-0.08739069104194641,0.2126554697751999
1789147780916527900,4.21452783203125,0.19779294729232788,0.0751006081700325,0.05040162801742554
1789147780926501000,4.224501220703125,0.4398636221885681,0.09298453480005264,-0.15649189054965973
1789147780936473000,4.23447314453125,0.2370673418045044,0.03799762949347496,-0.06157287582755089
1789147780946445300,4.2444453125,0.08443332463502884,-0.16633687913417816,0.09163052588701248
1789147780956418000,4.25441796875,0.011375581845641136,-0.16137875616550446,-0.026445019990205765
1789147780966390000,4.26439013671875,0.02728344313800335,-0.13125547766685486,-0.08018281310796738
1789147780976362200,4.2743623046875,-0.08303435146808624,-0.1617678552865982,0.08092077821493149
1789147780986335000,4.2843349609375,0.019292019307613373,-0.1314011663198471,0.048995066434144974
1789147780996307200,4.29430712890625,0.19338086247444153,-0.051117099821567535,-0.07735395431518555
1789147781006279200,4.304279052734375,0.1616698056459427,-0.02622559666633606,0.001559241907671094
1789147781016252200,4.314252197265625,0.12031513452529907,-0.10027030110359192,0.20164570212364197
1789147781026224000,4.32422412109375,0.11153203248977661,0.007818879559636116,0.10656552761793137
1789147781036197000,4.334197021484375,0.21822133660316467,0.040637388825416565,0.14585447311401367
1789147781046169000,4.344169189453125,0.25860098004341125,0.057799067348241806,0.14572744071483612
1789147781056141000,4.35414111328125,0.27781376242637634,0.05689574033021927,0.2155301570892334
1789147781066114300,4.3641142578125,0.31023961305618286,0.13993309438228607,0.11164769530296326
1789147781076086000,4.3740859375,0.34636110067367554,0.18029336631298065,0.01858641766011715
1789147781086058200,4.384058349609375,0.388919472694397,0.18133892118930817,-0.12304981052875519
1789147781096031200,4.39403125,0.374613881111145,0.17192842066287994,-0.09850812703371048
1789147781106003000,4.4040029296875,0.32670336961746216,0.11918451637029648,-0.0543755479156971
1789147781115975200,4.41397509765625,0.29000750184059143,0.037299614399671555,0.06367132812738419
1789147781125948200,4.4239482421875,0.23129920661449432,-0.013902852311730385,0.1325441300868988
1789147781135920000,4.433920166015625,0.12901891767978668,-0.028189264237880707,0.10020165145397186
1789147781145893000,4.44389306640625,0.05268712341785431,-0.03073897399008274,0.06380795687437057
1789147781155865000,4.453864990234375,0.09103436022996902,-0.01867534965276718,0.008954157121479511
1789147781165837000,4.463837158203125,0.06281124800443649,-0.04027864709496498,0.10591798275709152
1789147781175810000,4.47381005859375,0.07471183687448502,-0.06095226854085922,-0.017895564436912537
1789147781185782300,4.4837822265625,0.08167041093111038,-0.031604766845703125,-0.026016874238848686
1789147781195754000,4.49375390625,0.14712616801261902,-0.003834560513496399,-0.0038710276130586863
1789147781205727000,4.50372705078125,0.15899214148521423,-0.007246335968375206,0.005661757662892342
1789147781215699200,4.51369921875,0.14940424263477325,0.005839327350258827,-0.06184220314025879
1789147781225671200,4.523671142578125,0.17627820372581482,0.0432860367000103,-0.09427497535943985
1789147781235644200,4.53364404296875,0.19425846636295319,0.07827693969011307,-0.10735650360584259
1789147781245616000,4.5436162109375,0.1889214962720871,0.06969517469406128,-0.058963410556316376
1789147781255588000,4.553588134765625,0.18833662569522858,0.06936204433441162,-0.01847512647509575
1789147781265561000,4.56356103515625,0.14643631875514984,0.07586787641048431,0.045041799545288086
1789147781275533300,4.573533203125,0.11143657565116882,0.07876145839691162,0.1448424905538559
1789147781285506000,4.583506103515625,0.1359453797340393,0.05822955071926117,0.08353997766971588
1789147781295478000,4.59347802734375,0.18047083914279938,0.06983185559511185,0.012904493138194084
1789147781305450200,4.6034501953125,0.24380241334438324,0.09601259231567383,-0.05524633452296257
1789147781315423000,4.613423095703125,0.28928524255752563,0.11403417587280273,-0.02919446863234043
1789147781325395200,4.623395263671875,0.28441163897514343,0.16510242223739624,-0.09880390018224716
1789147781335367200,4.6333671875,0.2562931776046753,0.20059973001480103,-0.09033134579658508
1789147781345340000,4.64333984375,0.2678781747817993,0.21644394099712372,-0.054016485810279846
1789147781355312000,4.65331201171875,0.24251636862754822,0.179790198802948,0.011326026171445847
1789147781365284000,4.6632841796875,0.20374900102615356,0.17477786540985107,-0.048309341073036194
1789147781375257000,4.673257080078125,0.21430407464504242,0.11861809343099594,0.03533381223678589
1789147781385229000,4.68322900390625,0.20317792892456055,0.12113717198371887,0.0021990258246660233
1789147781395202000,4.6932021484375,0.1627826690673828,0.11187583208084106,0.06099214032292366
1789147781405174000,4.703174072265625,0.21170574426651,0.10581500828266144,0.0711933821439743
1789147781415146200,4.713146240234375,0.22303231060504913,0.10765495151281357,0.10617147386074066
1789147781425119200,4.723119140625,0.2906254827976227,0.1087857335805893,0.14817458391189575
1789147781435091000,4.733091064453125,0.3006363809108734,0.09999310970306396,0.13550469279289246
1789147781445063200,4.743063232421875,0.272835910320282,0.09413868188858032,0.10456275939941406
1789147781455036200,4.7530361328125,0.2781938314437866,0.08151096850633621,0.05051087588071823
1789147781465008000,4.763008056640625,0.2699654698371887,0.10208814591169357,-0.007183578331023455
1789147781474980000,4.77297998046875,0.25091317296028137,0.0919266939163208,-0.009763151407241821
1789147781484953000,4.782953125,0.17773348093032837,0.07195192575454712,0.010675543919205666
1789147781494925000,4.792925048828125,0.16729526221752167,0.04361964762210846,-0.0022036712616682053
1789147781504897000,4.80289697265625,0.14406611025333405,-0.026923760771751404,0.033903732895851135
1789147781514870300,4.812870361328125,0.07073026895523071,-0.002623493317514658,-0.17986758053302765
1789147781524842000,4.822842041015625,0.011875472031533718,-0.048502568155527115,-0.07472117990255356
1789147781534815000,4.83281494140625,0.007533180993050337,-0.062156446278095245,-0.07347909361124039
1789147781544787200,4.842787109375,0.09687584638595581,-0.07543735951185226,-0.06645740568637848
1789147781554759000,4.852759033203125,0.13372787833213806,-0.07375949621200562,0.005930248647928238
1789147781564732200,4.862732177734375,0.17611047625541687,-0.07014904916286469,0.010863487608730793
1789147781574704000,4.8727041015625,0.1445850431919098,-0.04784134402871132,0.03777899220585823
1789147781584676000,4.882676025390625,0.10604804754257202,-0.029004540294408798,0.05741128325462341
1789147781594649000,4.892649169921875,0.04883215203881264,-0.0031455904245376587,0.058801982551813126
1789147781604621000,4.90262109375,0.047557562589645386,-0.009680988267064095,0.13886858522891998
1789147781614593000,4.912593017578125,0.10790213197469711,0.035978760570287704,-0.04488791525363922
1789147781624566000,4.92256591796875,0.14456161856651306,0.05617563799023628,-0.015141473151743412
1789147781634538200,4.932538330078125,0.11023430526256561,0.06570767611265182,-0.01889384537935257
1789147781644510000,4.942510009765625,0.15926682949066162,0.03422005474567413,0.0233425572514534
1789147781654483200,4.952483154296875,0.12623903155326843,0.05543907359242439,0.03560527786612511
1789147781664455200,4.962455078125,0.15321418642997742,0.06067351624369621,-0.11441244930028915
1789147781674428200,4.97242822265625,0.09897416830062866,0.0714513435959816,-0.10955265909433365
1789147781684400000,4.982400146484375,0.09247659146785736,0.054590605199337006,-0.12236353009939194
1789147781694372000,4.9923720703125,0.09386546164751053,0.04723557084798813,-0.043751247227191925
1789147781704345300,5.002345458984375,0.11295526474714279,0.045359641313552856,0.03482025861740112
1789147781714317000,5.012317138671875,0.11239784955978394,0.03872733563184738,0.025110619142651558
1789147781724289300,5.022289306640625,0.16649490594863892,0.06514829397201538,0.08970186114311218
1789147781734262300,5.03226220703125,0.18213436007499695,0.11724167317152023,0.054721008986234665
1789147781744234000,5.04223388671875,0.10995016247034073,0.1253536492586136,0.05090869218111038
1789147781754206200,5.052206298828125,0.10688910633325577,0.15814758837223053,-0.007056893780827522
1789147781764179200,5.06217919921875,0.173674538731575,0.18680372834205627,-0.0330277755856514
1789147781774151200,5.072151123046875,0.2518604099750519,0.17625415325164795,-0.03594660013914108
1789147781784123100,5.082123046875,0.2540071904659271,0.17103701829910278,-0.01673348993062973
1789147781794096000,5.09209619140625,0.3255068063735962,0.14286181330680847,0.03244432061910629
1789147781804068000,5.102068115234375,0.27901867032051086,0.11294492334127426,0.035592444241046906
1789147781814041000,5.112041015625,0.23911385238170624,0.16161730885505676,-0.10651995986700058
1789147781824013300,5.122013427734375,0.21527351438999176,0.13827016949653625,-0.02963130734860897
1789147781833985000,5.131985107421875,0.13266028463840485,0.09719404578208923,0.05286639556288719
1789147781843958000,5.1419580078125,0.11576145887374878,0.10361279547214508,0.06000153720378876
1789147781853930200,5.15193017578125,0.19276674091815948,0.09734128415584564,0.0284353569149971
1789147781863902200,5.161902099609375,0.2866671681404114,0.10379625111818314,0.05744463577866554
1789147781873875200,5.171875244140625,0.2737465798854828,0.14246565103530884,0.06139170750975609
1789147781883847200,5.18184716796875,0.28017890453338623,0.18761847913265228,-0.026607656851410866
1789147781893819100,5.191819091796875,0.26885759830474854,0.18810886144638062,0.0439523421227932
1789147781903792000,5.201792236328125,0.2639232873916626,0.1937129646539688,0.16838747262954712
1789147781913764000,5.21176416015625,0.2880004048347473,0.2530127763748169,0.04896814003586769
1789147781923736000,5.221736083984375,0.36182937026023865,0.2208188772201538,0.1033426970243454
1789147781933708800,5.231708740234375,0.32289522886276245,0.22652098536491394,0.14636413753032684
1789147781943681000,5.241680908203125,0.29685351252555847,0.19231081008911133,0.19371114671230316
1789147781953654000,5.251654052734375,0.27659350633621216,0.21031339466571808,0.13124507665634155
1789147781963626000,5.2616259765625,0.3036125898361206,0.22129973769187927,0.1978137195110321
1789147781973598000,5.271597900390625,0.28205475211143494,0.2847527861595154,0.06497225910425186
1789147781983571000,5.281571044921875,0.3052426278591156,0.25750890374183655,0.033651888370513916
1789147781993543000,5.29154296875,0.17482812702655792,0.2703336775302887,0.05300449579954147
1789147782003515000,5.301514892578125,0.16754119098186493,0.252972275018692,0.05558270215988159
1789147782013488000,5.311488037109375,0.17786087095737457,0.2686469256877899,-0.01484677754342556
1789147782023459800,5.3214599609375,0.16329844295978546,0.3052331805229187,0.02294427715241909
1789147782033432000,5.33143212890625,0.18184125423431396,0.21675467491149902,0.1919863522052765
1789147782043405000,5.341405029296875,0.13399863243103027,0.24297963082790375,0.18007616698741913
1789147782053377000,5.351376953125,0.15467795729637146,0.23533394932746887,0.10275138914585114
1789147782063349000,5.361348876953125,0.04425397515296936,0.27767500281333923,0.14620564877986908
1789147782073322000,5.371322021484375,0.14831601083278656,0.29423946142196655,0.030301233753561974
1789147782083294000,5.3812939453125,0.04811004921793938,0.32334595918655396,0.030025329440832138
1789147782093267000,5.391266845703125,0.085277259349823,0.31693145632743835,0.14343300461769104
1789147782103239200,5.4012392578125,0.06539303064346313,0.36908626556396484,0.06401700526475906
1789147782113211000,5.4112109375,0.12632343173027039,0.42486563324928284,-0.1191004291176796
1789147782123183900,5.421183837890625,0.1545737087726593,0.43291929364204407,-0.051593028008937836
1789147782133156000,5.431156005859375,0.1155378669500351,0.3846725821495056,-0.07580118626356125
1789147782143127800,5.4411279296875,0.037350382655858994,0.4227600395679474,-0.19311928749084473
1789147782153101000,5.45110107421875,-0.01834942027926445,0.44072505831718445,-0.15958936512470245
1789147782163073000,5.461072998046875,-0.06328707188367844,0.41560614109039307,-0.11939188092947006
1789147782173045000,5.471044921875,-0.09281746298074722,0.40377047657966614,-0.08969675749540329
1789147782183018000,5.48101806640625,0.01401551254093647,0.3852745592594147,-0.07780014723539352
1789147782192990000,5.490989990234375,0.016551610082387924,0.39406803250312805,-0.1400260031223297
1789147782202962000,5.5009619140625,-0.08276566118001938,0.35158872604370117,-0.03272431343793869
1789147782212935000,5.510934814453125,-0.15250252187252045,0.3493664264678955,-0.08156975358724594
1789147782222907100,5.5209072265625,-0.2079617828130722,0.32554924488067627,-0.008396740071475506
1789147782232879900,5.5308798828125,-0.22927774488925934,0.3219884932041168,-0.027962196618318558
1789147782242852000,5.54085205078125,-0.2356663942337036,0.23406074941158295,0.05799958482384682
1789147782252824000,5.550823974609375,-0.2598663568496704,0.23774278163909912,-0.10827843844890594
1789147782262796800,5.560796875,-0.32236409187316895,0.23582397401332855,-0.17653605341911316
1789147782272769000,5.57076904296875,-0.33317241072654724,0.1785297840833664,-0.16607128083705902
1789147782282741000,5.580740966796875,-0.36845824122428894,0.15851959586143494,-0.06078055500984192
1789147782292714000,5.5907138671875,-0.31359320878982544,0.15125709772109985,-0.13930583000183105
1789147782302686000,5.60068603515625,-0.4020698070526123,0.07547710835933685,-0.05416296795010567
1789147782312658200,5.610658203125,-0.5141881108283997,0.060905393213033676,-0.052931010723114014
1789147782322631000,5.620630859375,-0.5549722909927368,0.06758646667003632,-0.08975054323673248
1789147782332603000,5.630602783203125,-0.580278217792511,-0.013769078999757767,-0.05523945763707161
1789147782342575000,5.6405751953125,-0.5640936493873596,-0.032626923173666,-0.09681086987257004
1789147782352547800,5.6505478515625,-0.5247071385383606,-0.048001162707805634,-0.13731063902378082
1789147782362520000,5.66052001953125,-0.5660462975502014,-0.053604453802108765,-0.07043732702732086
1789147782372492000,5.670491943359375,-0.5484726428985596,-0.08889240771532059,-0.0445876382291317
1789147782382464800,5.68046484375,-0.5773530006408691,-0.08578849583864212,-0.05446663498878479
1789147782392437000,5.69043701171875,-0.5686909556388855,-0.11195511370897293,-0.05502310022711754
1789147782402410000,5.700409912109375,-0.5784319639205933,-0.11358257383108139,-0.004961795173585415
1789147782412382000,5.7103818359375,-0.6513335108757019,-0.10398675501346588,-0.028725335374474525
1789147782422354000,5.72035400390625,-0.6228336691856384,-0.16253715753555298,0.06875914335250854
1789147782432327000,5.730326904296875,-0.5711374878883362,-0.16586065292358398,0.04048890247941017
1789147782442299000,5.740298828125,-0.5249396562576294,-0.17667469382286072,0.06860043108463287
1789147782452271000,5.75027099609375,-0.5590168833732605,-0.2018427699804306,0.1650225967168808
1789147782462244000,5.760244140625,-0.6019158959388733,-0.19383572041988373,0.18061140179634094
1789147782472215800,5.7702158203125,-0.5823143720626831,-0.1835564821958542,0.25386497378349304
1789147782482188000,5.78018798828125,-0.5424151420593262,-0.24178384244441986,0.22420482337474823
1789147782492161000,5.7901611328125,-0.4612060487270355,-0.20592190325260162,-0.09815885126590729
1789147782502133000,5.800133056640625,-0.47834935784339905,-0.1871066689491272,-0.14661826193332672
1789147782512105000,5.81010498046875,-0.47457659244537354,-0.18739494681358337,-0.10076704621315002
1789147782522078000,5.820077880859375,-0.39647966623306274,-0.18073011934757233,-0.05097499117255211
1789147782532050000,5.8300498046875,-0.3935067653656006,-0.12976109981536865,-0.11071234196424484
1789147782542023000,5.84002294921875,-0.4813980162143707,-0.17578397691249847,0.06212174892425537
1789147782551995100,5.8499951171875,-0.45079535245895386,-0.21432459354400635,-0.03484846279025078
1789147782561966800,5.859966796875,-0.46971526741981506,-0.22095240652561188,-0.1196027621626854
1789147782571939800,5.86993994140625,-0.459769070148468,-0.2591858208179474,-0.1778002232313156
1789147782581912000,5.879912109375,-0.39490216970443726,-0.2307398021221161,-0.0642118752002716
1789147782591883800,5.8898837890625,-0.3905104100704193,-0.21194988489151,0.19775018095970154
1789147782601857000,5.89985693359375,-0.36500826478004456,-0.296352356672287,0.25618261098861694
1789147782611829000,5.9098291015625,-0.4197596609592438,-0.27078378200531006,0.17450237274169922
1789147782621801000,5.919801025390625,-0.526238203048706,-0.26480206847190857,0.3479633927345276
1789147782631774000,5.92977392578125,-0.4135381281375885,-0.27457544207572937,0.2253614068031311
1789147782641746000,5.939745849609375,-0.4117412865161896,-0.3113129436969757,0.1250172257423401
1789147782651718000,5.9497177734375,-0.39134466648101807,-0.33391278982162476,0.12572242319583893
1789147782661691000,5.95969091796875,-0.18174484372138977,-0.33742016553878784,0.30735456943511963
1789147782671663000,5.9696630859375,-0.12149035185575485,-0.2539792060852051,0.18929627537727356
1789147782681634800,5.979634765625,-0.17729930579662323,-0.203255295753479,0.22669264674186707
1789147782691608000,5.989608154296875,-0.23873630166053772,-0.2492544800043106,0.24557605385780334
1789147782701580000,5.999580078125,-0.3158518373966217,-0.3016708195209503,0.3790734112262726
1789147782711553000,6.009552978515625,-0.28829100728034973,-0.24658960103988647,0.24966807663440704
1789147782721525000,6.01952490234375,-0.17239689826965332,-0.2909533381462097,0.11943710595369339
1789147782731497000,6.0294970703125,-0.1501573622226715,-0.25206106901168823,0.06399089097976685
1789147782741470200,6.03947021484375,-0.1703726351261139,-0.24853423237800598,-0.0393831729888916
1789147782751442000,6.04944189453125,-0.2320488691329956,-0.2932206988334656,-0.0042891912162303925
1789147782761414100,6.0594140625,-0.12378472089767456,-0.2420531064271927,0.10232087969779968
1789147782771387100,6.06938720703125,-0.05995910242199898,-0.21550250053405762,0.40242451429367065
1789147782781358800,6.07935888671875,0.07206764072179794,-0.15377254784107208,0.14302918314933777
1789147782791331000,6.0893310546875,0.03745923936367035,-0.3498288094997406,0.4780164062976837
1789147782801304000,6.099303955078125,0.017601378262043,-0.2411862462759018,0.11300646513700485
1789147782811276000,6.109276123046875,-0.049086108803749084,-0.26388755440711975,0.10479533672332764
1789147782821248000,6.119248046875,-0.10169445723295212,-0.2429356575012207,0.023321252316236496
1789147782831221000,6.129220947265625,-0.027270987629890442,-0.22473154962062836,0.05352559685707092
1789147782841193000,6.13919287109375,-0.028130125254392624,-0.2663026750087738,0.2974804937839508
1789147782851165200,6.149165283203125,0.10474444925785065,-0.18831366300582886,-0.22471466660499573
1789147782861138200,6.15913818359375,0.10740174353122711,-0.18638579547405243,-0.26283860206604004
1789147782871110000,6.16910986328125,0.19770461320877075,-0.1909269243478775,-0.24078749120235443
1789147782881083100,6.179083251953125,0.15410840511322021,-0.14680100977420807,-0.2022976279258728
1789147782891055000,6.18905517578125,0.14338243007659912,-0.0862780436873436,-0.1449470967054367
1789147782901027000,6.199027099609375,0.11847309023141861,-0.12433008849620819,0.16504564881324768
1789147782911000000,6.209,0.10882574319839478,-0.06958886981010437,-0.10599121451377869
1789147782920972000,6.218971923828125,0.1032450795173645,-0.05194009840488434,-0.12387727200984955
1789147782930944300,6.2289443359375,0.16244001686573029,-0.16466660797595978,0.2125854790210724
1789147782940917200,6.238917236328125,0.10750406235456467,-0.09800820797681808,-0.00978899747133255
1789147782950889500,6.248889404296875,0.11083453893661499,-0.15001413226127625,-0.1980668306350708
1789147782960861200,6.258861083984375,0.11175252497196198,-0.18842916190624237,-0.23171746730804443
1789147782970834200,6.268834228515625,0.046859413385391235,-0.07718253880739212,-0.23745140433311462
1789147782980806400,6.278806396484375,0.16562333703041077,-0.05071790888905525,-0.36992448568344116
1789147782990778000,6.288778076171875,0.22228075563907623,-0.019005518406629562,-0.25116482377052307
1789147783000751400,6.29875146484375,0.2583112120628357,-0.06461641192436218,-0.0542573481798172
1789147783010723300,6.308723388671875,0.29787516593933105,-0.025365741923451424,-0.12612776458263397
1789147783020695300,6.3186953125,0.2640996277332306,-0.051010921597480774,-0.031734149903059006
1789147783030668300,6.328668212890625,0.12744034826755524,-0.11309096962213516,0.19659389555454254
1789147783040640300,6.33864013671875,0.10967226326465607,-0.12268846482038498,0.09371012449264526
1789147783050613200,6.34861328125,0.15205566585063934,-0.09157080948352814,-0.13414199650287628
1789147783060585200,6.358585205078125,0.1173967644572258,-0.06996805220842361,-0.21495294570922852
1789147783070557400,6.368557373046875,0.04194410517811775,-0.05572070553898811,-0.1678362935781479
1789147783080530200,6.3785302734375,0.13364367187023163,-0.0299407746642828,-0.19892975687980652
1789147783090502100,6.388502197265625,0.2505247890949249,-0.04569236934185028,0.062574602663517
1789147783100474400,6.398474365234375,0.2907273471355438,-0.039161499589681625,0.10876473039388657
1789147783110447000,6.408447021484375,0.2932129204273224,-0.07745549082756042,0.18466834723949432
1789147783120419300,6.41841943359375,0.3040730357170105,-0.008488412015140057,0.03968292474746704
1789147783130391300,6.428391357421875,0.2475767880678177,-0.01857047528028488,0.2299615889787674
1789147783140364300,6.4383642578125,0.1184353157877922,-0.05297825112938881,0.209684818983078
1789147783150336300,6.448336181640625,0.07269513607025146,-0.05344296619296074,0.14118951559066772
1789147783160308500,6.45830859375,0.14722715318202972,-0.05213136225938797,0.11205187439918518
1789147783170281200,6.46828125,0.13592039048671722,0.008227117359638214,0.03497861698269844
1789147783180253200,6.478253173828125,0.1633426994085312,0.00820527970790863,0.068789042532444
1789147783190225200,6.48822509765625,0.21267817914485931,-0.01596255786716938,0.04228435456752777
1789147783200198100,6.4981982421875,0.15783490240573883,0.03143904730677605,-0.04339832440018654
1789147783210170400,6.50817041015625,0.20343099534511566,0.028827883303165436,-0.1420278549194336
1789147783220143400,6.518143310546875,0.1649176925420761,0.051681000739336014,-0.16511960327625275
1789147783230115000,6.528114990234375,0.15659423172473907,0.006432711612433195,-0.042538832873106
1789147783240087300,6.53808740234375,0.04177363961935043,-0.021823693066835403,0.08705537766218185
1789147783250060300,6.548060302734375,0.06147787347435951,-0.06863299757242203,0.02917269617319107
1789147783260032300,6.5580322265625,0.0032545141875743866,-0.10359923541545868,0.08236666768789291
1789147783270004200,6.568004150390625,0.022694898769259453,-0.09661643952131271,0.07716720551252365
1789147783279977200,6.577977294921875,-0.0105091268196702,-0.12334632128477097,0.18529632687568665
1789147783289949200,6.58794921875,-0.018973756581544876,-0.10320263355970383,0.13021227717399597
1789147783299921200,6.597921142578125,-0.010530206374824047,-0.0977945551276207,0.007352928165346384
1789147783309894400,6.607894287109375,-0.01677427813410759,-0.12946245074272156,0.12556716799736023
1789147783319866000,6.6178662109375,-0.028728675097227097,-0.05031222477555275,0.04860740527510643
1789147783329838300,6.62783837890625,0.05508088320493698,-0.0647193118929863,-0.01953154429793358
1789147783339811300,6.637811279296875,0.023647859692573547,-0.087839275598526,0.09472419321537018
1789147783349783300,6.647783203125,0.025010094046592712,-0.025373803451657295,-0.18115530908107758
1789147783359755300,6.65775537109375,0.0293198861181736,-0.032659679651260376,-0.17053808271884918
1789147783369728300,6.667728271484375,0.07829900085926056,0.04786783829331398,-0.22715358436107635
1789147783379700200,6.6777001953125,0.12233090400695801,0.1141752228140831,-0.23628796637058258
1789147783389673200,6.687673095703125,0.16493473947048187,0.07905735075473785,-0.13021168112754822
1789147783399645400,6.6976455078125,0.1410917192697525,0.05404094606637955,0.02539203315973282
1789147783409617200,6.7076171875,0.15603789687156677,0.1142696961760521,-0.039781663566827774
1789147783419590100,6.717590087890625,0.12714606523513794,0.10349481552839279,0.04918389394879341
1789147783429562400,6.727562255859375,0.07774560153484344,0.06334251910448074,0.09574085474014282
1789147783439534000,6.7375341796875,0.10618177056312561,0.06177818030118942,0.12257566303014755
1789147783449507300,6.74750732421875,0.18219564855098724,0.08956786245107651,0.04948846995830536
1789147783459479300,6.757479248046875,0.19999247789382935,0.10110467672348022,0.06554839015007019
1789147783469451300,6.767451171875,0.20576448738574982,0.14565172791481018,0.015736788511276245
1789147783479424300,6.77742431640625,0.2274966835975647,0.15245583653450012,0.017590615898370743
1789147783489396200,6.787396240234375,0.2548675239086151,0.13062219321727753,0.05776272714138031
1789147783499368200,6.7973681640625,0.22438044846057892,0.13997867703437805,-0.05207056552171707
1789147783509341200,6.807341064453125,0.20862841606140137,0.09953294694423676,-0.1518392115831375
1789147783519313400,6.8173134765625,0.17069222033023834,0.03735718876123428,-0.05952579900622368
1789147783529285000,6.82728515625,0.08646806329488754,0.04229692369699478,0.038574352860450745
1789147783539258400,6.83725830078125,0.06648184359073639,0.0583651028573513,-0.025215543806552887
1789147783549230300,6.847230224609375,0.08298589289188385,0.015359628945589066,0.015892652794718742
1789147783559203000,6.857203125,0.11540188640356064,0.03392905369400978,-0.02739010564982891
1789147783569175300,6.86717529296875,0.1117284968495369,0.029967714101076126,-0.036636993288993835
1789147783579147300,6.877147216796875,0.13297733664512634,0.013283012434840202,-0.09808037430047989
1789147783589120300,6.887120361328125,0.15114890038967133,0.060697365552186966,-0.1422310471534729
1789147783599092200,6.89709228515625,0.1306995451450348,0.06959524750709534,-0.08166010677814484
1789147783609064400,6.907064453125,0.18829196691513062,0.08613020926713943,-0.0724509209394455
1789147783619037200,6.917037109375,0.230586439371109,0.12841853499412537,-0.10381550341844559
1789147783629009200,6.927009033203125,0.21563692390918732,0.12280040979385376,0.01532701961696148
1789147783638981400,6.9369814453125,0.23015248775482178,0.13220936059951782,0.0996813178062439
1789147783648954000,6.9469541015625,0.24473701417446136,0.1333780288696289,0.10640524327754974
1789147783658926300,6.95692626953125,0.20201565325260162,0.2049528807401657,-0.07464896142482758
1789147783668898300,6.966898193359375,0.26982590556144714,0.1907067447900772,-0.01080650370568037
1789147783678871000,6.97687109375,0.3222014904022217,0.2543395161628723,0.0746103897690773
1789147783688843300,6.98684326171875,0.3275913894176483,0.28468021750450134,0.024745510891079903
1789147783698815200,6.996815185546875,0.34476107358932495,0.28766030073165894,-0.03835383057594299
1789147783708788200,7.006788330078125,0.31974345445632935,0.29562726616859436,0.08240095525979996
1789147783718760200,7.01676025390625,0.29490095376968384,0.32286474108695984,0.11433065682649612
1789147783728732400,7.026732421875,0.2783973217010498,0.3298807442188263,-0.03705807402729988
1789147783738705200,7.036705078125,0.2834312319755554,0.2594699561595917,0.05747722089290619
1789147783748677400,7.046677490234375,0.3008660674095154,0.2547295391559601,0.06835908442735672
1789147783758650400,7.056650390625,0.304067462682724,0.2722534239292145,0.02823403850197792
1789147783768622000,7.0666220703125,0.2922322154045105,0.24241742491722107,0.0761643722653389
1789147783778594300,7.07659423828125,0.21366389095783234,0.2335325926542282,0.1063917875289917
1789147783788567300,7.0865673828125,0.18863527476787567,0.22886629402637482,0.032896824181079865
1789147783798539300,7.096539306640625,0.15092571079730988,0.17064638435840607,0.010389115661382675
1789147783808511200,7.10651123046875,0.08666455000638962,0.13650298118591309,-0.0372169055044651
1789147783818484200,7.116484130859375,-0.005474695935845375,0.11448503285646439,-0.03446665778756142
1789147783828456200,7.126456298828125,-0.03457583114504814,0.07634062319993973,0.04503645375370979
1789147783838428200,7.13642822265625,-0.07548011839389801,0.026196762919425964,0.0866968110203743
1789147783848401400,7.1464013671875,-0.09468437731266022,-0.014172179624438286,0.11803881078958511
1789147783858373000,7.156373046875,-0.136631578207016,-0.038668736815452576,0.05680474638938904
1789147783868345300,7.166345458984375,-0.229432612657547,-0.133454367518425,0.22049273550510406
1789147783878318300,7.176318359375,-0.3084169030189514,-0.09574160724878311,-0.03103962168097496
1789147783888290000,7.1862900390625,-0.3055015504360199,-0.07834595441818237,-0.05392098054289818
1789147783898262300,7.19626220703125,-0.23195916414260864,-0.10219669342041016,-0.09790121763944626
1789147783908235300,7.2062353515625,-0.19357363879680634,-0.1492580771446228,-0.0025988740380853415
1789147783918207200,7.216207275390625,-0.2351362556219101,-0.05115601792931557,-0.1395420879125595
1789147783928179500,7.226179443359375,-0.21935299038887024,-0.10450863838195801,0.013559886254370213
1789147783938151700,7.236151611328125,-0.27841684222221375,-0.05377088859677315,-0.06381559371948242
1789147783948123600,7.24612353515625,-0.14999864995479584,0.015143532305955887,-0.20853246748447418
1789147783958096400,7.256096435546875,-0.1239372119307518,-0.05120193958282471,0.0411900132894516
1789147783968068600,7.266068603515625,-0.11041911691427231,-0.0561336949467659,-0.0036987774074077606
1789147783978040600,7.27604052734375,-0.17108593881130219,-0.023506511002779007,-0.011857638135552406
1789147783988013600,7.286013671875,-0.20116309821605682,-0.047481004148721695,0.08317383378744125
1789147783997985500,7.295985595703125,-0.2072952836751938,-0.01959211379289627,0.038285717368125916
1789147784007957800,7.305957763671875,-0.18470343947410583,-0.033524289727211,0.1253979653120041
1789147784017930500,7.315930419921875,-0.17498716711997986,-0.014191074296832085,0.057747554033994675
1789147784027902700,7.32590283203125,-0.20549845695495605,-0.028280677273869514,0.05872547626495361
1789147784037874700,7.335874755859375,-0.22959579527378082,-0.04923123121261597,0.16475097835063934
1789147784047847400,7.345847412109375,-0.19584909081459045,-0.01419668085873127,-0.05034434050321579
1789147784057819600,7.355819580078125,-0.16056141257286072,-0.018434569239616394,-0.1076827347278595
1789147784067791600,7.36579150390625,-0.19959929585456848,-0.03931640088558197,-0.04403845965862274
1789147784077764600,7.3757646484375,-0.21925023198127747,-0.05556381493806839,-0.0335775651037693
1789147784087736600,7.385736572265625,-0.18134279549121857,-0.04264397174119949,-0.1826287806034088
1789147784097708800,7.395708740234375,-0.17527265846729279,0.026615796610713005,0.024539045989513397
1789147784107681500,7.405681640625,-0.08070183545351028,0.015079529955983162,-0.006920550484210253
1789147784117653500,7.415653564453125,-0.003996938467025757,-0.028348904103040695,0.08798892050981522
1789147784127626800,7.425626708984375,0.06930555403232574,0.04000924900174141,-0.007785214576870203
1789147784137598500,7.435598388671875,0.12586709856987,0.030634921044111252,0.09861845523118973
1789147784147570700,7.44557080078125,0.12946057319641113,0.1198711097240448,-0.07552985846996307
1789147784157543700,7.455543701171875,0.1194353699684143,0.1332617551088333,0.06157366931438446
1789147784167515400,7.465515380859375,0.11976958066225052,0.09937790036201477,0.12101730704307556
1789147784177487600,7.475487548828125,0.08491838723421097,0.18545418977737427,-0.17737683653831482
1789147784187460600,7.485460693359375,0.09369583427906036,0.14851190149784088,-0.2547023296356201
1789147784197432600,7.4954326171875,-0.003944167867302895,0.03183082863688469,0.005286636762320995
1789147784207404500,7.505404541015625,-0.04532608389854431,0.029184065759181976,0.004087810404598713
1789147784217377500,7.51537744140625,0.0017610001377761364,-0.05769544094800949,0.1411529779434204
1789147784227349500,7.525349609375,-0.015128646045923233,-0.07808741927146912,0.2080266922712326
1789147784237321700,7.53532177734375,-0.09401174634695053,-0.04907840117812157,0.05792880803346634
1789147784247294700,7.545294677734375,-0.1377115249633789,-0.12355201691389084,0.09625944495201111
1789147784257266400,7.555266357421875,-0.26310965418815613,-0.09415951371192932,0.014977906830608845
1789147784267238700,7.56523876953125,-0.2459304928779602,-0.17123959958553314,0.07370850443840027
1789147784277211600,7.575211669921875,-0.2928412854671478,-0.15759755671024323,-0.017710624262690544
1789147784287183600,7.58518359375,-0.2558990716934204,-0.17633123695850372,-0.07769548892974854
1789147784297155600,7.595155517578125,-0.1896478682756424,-0.1968253254890442,-0.04453514143824577
1789147784307128600,7.605128662109375,-0.24070464074611664,-0.1331261247396469,-0.15751893818378448
1789147784317100500,7.6151005859375,-0.1705748289823532,-0.09781234711408615,-0.25840240716934204
1789147784327073500,7.625073486328125,-0.21845877170562744,-0.11039826273918152,-0.048006851226091385
1789147784337045800,7.635045654296875,-0.22854922711849213,-0.06774507462978363,-0.052755799144506454
1789147784347017500,7.645017578125,-0.12337509542703629,-0.07037778943777084,-0.09397324919700623
1789147784356990500,7.654990478515625,-0.13753750920295715,-0.05369602143764496,0.07702565938234329
1789147784366962700,7.664962646484375,-0.11683400720357895,-0.03725457936525345,0.060210052877664566
1789147784376934700,7.6749345703125,-0.1178840920329094,-0.03475094214081764,0.05668668821454048
1789147784386907600,7.68490771484375,-0.08973130583763123,-0.000897272489964962,-0.002427816390991211
1789147784396879600,7.694879638671875,-0.07826373726129532,0.03957505151629448,-0.02395734377205372
1789147784406851600,7.7048515625,-0.010974595323204994,0.06398443877696991,-0.07460629940032959
1789147784416824600,7.714824462890625,-0.01124810054898262,0.07674737274646759,0.015701496973633766
1789147784426796800,7.724796875,-0.025447094812989235,0.060071028769016266,-0.05305657908320427
1789147784436768500,7.7347685546875,-0.03342486172914505,0.017977366223931313,0.04634644091129303
1789147784446741500,7.744741455078125,-0.011755110695958138,0.06513159722089767,-0.036267366260290146
1789147784456713700,7.754713623046875,-0.09327979385852814,-0.018083931878209114,0.10650470107793808
1789147784466685400,7.764685546875,-0.23359492421150208,-0.0016271453350782394,0.05164961516857147
1789147784476658700,7.77465869140625,-0.2097093015909195,-0.016417276114225388,0.08584859222173691
1789147784486630700,7.784630615234375,-0.19134312868118286,-0.03737834841012955,0.04779595881700516
1789147784496603600,7.794603759765625,-0.23043833673000336,-0.050975918769836426,0.07797649502754211
1789147784506575600,7.80457568359375,-0.1470128446817398,-0.03578997403383255,0.03495775908231735
1789147784516547600,7.814547607421875,-0.1391804814338684,-0.06204501539468765,0.08361984044313431
1789147784526520800,7.824520751953125,-0.17225508391857147,-0.03043435886502266,-0.03984297811985016
1789147784536492500,7.834492431640625,-0.2046966403722763,-0.037933286279439926,-0.10274790227413177
1789147784546464800,7.84446484375,-0.21560035645961761,0.0016468623653054237,-0.12269677221775055
1789147784556437800,7.854437744140625,-0.14817124605178833,0.023658953607082367,-0.13207723200321198
1789147784566409500,7.864409423828125,-0.1550874561071396,-0.03238479048013687,-0.009098277427256107
1789147784576381700,7.874381591796875,-0.17662790417671204,-0.037633348256349564,0.042377959936857224
1789147784586354700,7.884354736328125,-0.20355981588363647,-0.02617814391851425,0.00856631901115179
1789147784596326700,7.89432666015625,-0.21113863587379456,-0.06059763580560684,0.030762169510126114
1789147784606298600,7.904298583984375,-0.19160985946655273,-0.07711481302976608,-0.02895914949476719
1789147784616271600,7.914271728515625,-0.21686461567878723,-0.09503389149904251,-0.03708045929670334
1789147784626243600,7.92424365234375,-0.2024105191230774,-0.10522487759590149,-0.12441956251859665
1789147784636215800,7.9342158203125,-0.17664922773838043,-0.11611747741699219,-0.10595986247062683
1789147784646188800,7.944188720703125,-0.14188344776630402,-0.08214700222015381,-0.10745302587747574
1789147784656160500,7.954160400390625,-0.12249857187271118,-0.06510836631059647,-0.056821275502443314
1789147784666132700,7.9641328125,-0.07577673345804214,-0.056221429258584976,-0.05948375537991524
1789147784676105500,7.97410546875,-0.09728974848985672,-0.05732664093375206,-0.043162573128938675
1789147784686077700,7.98407763671875,-0.14035947620868683,-0.058299191296100616,-0.1551216095685959
1789147784696050700,7.99405078125,-0.1544332206249237,-0.09241056442260742,-0.07143417000770569
1789147784706022400,8.0040224609375,-0.16598862409591675,-0.054506655782461166,-0.08208039402961731
1789147784715994600,8.01399462890625,-0.11457763612270355,-0.03583656623959541,-0.11555206775665283
1789147784725967600,8.023967529296876,-0.09423079341650009,-0.06187758594751358,0.03972518816590309
1789147784735939600,8.033939697265625,-0.11844265460968018,-0.02576538547873497,0.08743492513895035
1789147784745911600,8.04391162109375,-0.14157384634017944,-0.009663250297307968,0.07569696754217148
1789147784755884500,8.053884521484376,-0.04302704334259033,-0.06963231414556503,-0.030212417244911194
1789147784765856500,8.0638564453125,-0.006259534507989883,-0.04987293854355812,-0.1633058488368988
1789147784775828500,8.073828369140625,-0.03785314783453941,-0.016061976552009583,-0.08197716623544693
1789147784785801700,8.0838017578125,-0.07806295156478882,-0.005092133767902851,0.11439493298530579
1789147784795773400,8.0937734375,-0.07538993656635284,0.014382231049239635,0.09902822226285934
1789147784805745700,8.10374560546875,-0.01327840331941843,-0.047125887125730515,0.2626543641090393
1789147784815718700,8.11371875,0.035350918769836426,-0.05836549028754234,0.16002094745635986
1789147784825690600,8.123690673828126,-0.07540825754404068,-0.11037015169858932,0.2472984343767166
1789147784835662600,8.13366259765625,-0.15646769106388092,-0.16681692004203796,0.16517852246761322
1789147784845635600,8.143635498046875,-0.19885051250457764,-0.1608855426311493,0.0723290741443634
1789147784855607600,8.153607666015626,-0.1463489532470703,-0.1511724591255188,-0.0036288010887801647
1789147784865579500,8.16357958984375,-0.08216385543346405,-0.13465523719787598,0.011428693309426308
1789147784875552800,8.173552734375,-0.04288649186491966,-0.1164083257317543,0.0027739526703953743
1789147784885524500,8.1835244140625,-0.06320231407880783,-0.107260562479496,0.10183725506067276
1789147784895497500,8.19349755859375,-0.10321630537509918,-0.14866100251674652,0.10935429483652115
1789147784905469700,8.2034697265625,-0.10868648439645767,-0.1849260777235031,0.00804972369223833
1789147784915441400,8.21344140625,-0.15572936832904816,-0.14689481258392334,0.01794789545238018
1789147784925414700,8.22341455078125,-0.16994066536426544,-0.21364517509937286,0.08057257533073425
1789147784935387000,8.233386962890625,-0.16729827225208282,-0.2142592966556549,0.02465338259935379
1789147784945359000,8.243359130859375,-0.13981766998767853,-0.18962275981903076,0.03872092068195343
1789147784955331800,8.253331787109374,-0.09455645084381104,-0.19831691682338715,0.05369587615132332
1789147784965303800,8.2633037109375,-0.11467836797237396,-0.23085850477218628,0.17243650555610657
1789147784975276000,8.273276123046875,-0.15017324686050415,-0.2155914008617401,-0.008681084029376507
1789147784985248800,8.283248779296875,-0.13181306421756744,-0.20416048169136047,-0.06325023621320724
1789147784995221000,8.293220947265626,-0.06357861310243607,-0.2002221941947937,0.014143088832497597
1789147785005193000,8.30319287109375,0.003472417127341032,-0.17274002730846405,0.06680745631456375
1789147785015165700,8.313165771484375,0.010958562605082989,-0.1607757806777954,0.08646984398365021
1789147785025138000,8.323137939453124,-0.028038758784532547,-0.16873089969158173,0.1951400190591812
1789147785035110000,8.33310986328125,-0.05393240973353386,-0.1429957002401352,0.11157480627298355
1789147785045083000,8.343082763671875,0.008985212072730064,-0.1650010049343109,0.11788561940193176
1789147785055054800,8.353054931640624,0.023018473759293556,-0.18658407032489777,0.12919072806835175
1789147785065027000,8.363027099609376,0.03595910221338272,-0.18360958993434906,0.1317671686410904
1789147785074999800,8.372999755859375,0.06969789415597916,-0.1228056326508522,-0.026021940633654594
1789147785084972000,8.382971923828125,0.11634287983179092,-0.08610785752534866,-0.006282098591327667
1789147785094945000,8.392945068359374,0.12922832369804382,-0.06821301579475403,0.11125970631837845
1789147785104916700,8.402916748046875,0.20709338784217834,-0.04667782410979271,-0.13596701622009277
1789147785114889000,8.412888916015625,0.21925552189350128,-0.046233877539634705,-0.16949541866779327
1789147785124862000,8.422862060546874,0.16222506761550903,-0.044260174036026,-0.09119810909032822
1789147785134834000,8.432833984375,0.09685378521680832,-0.014344887807965279,-0.10062995553016663
1789147785144806000,8.442805908203125,0.13447248935699463,-0.023458773270249367,-0.15011927485466003
1789147785154779000,8.45277880859375,0.20122861862182617,-0.051604390144348145,-0.021362625062465668
1789147785164750800,8.462750732421876,0.21040698885917664,-0.04152785241603851,-0.006770593114197254
1789147785174722800,8.472722900390625,0.19662965834140778,-0.10207641869783401,0.04196498915553093
1789147785184696000,8.482696044921875,0.11739252507686615,-0.15121100842952728,0.17128132283687592
1789147785194667800,8.492667724609374,0.13841843605041504,-0.14678509533405304,0.09593704342842102
1789147785204640000,8.502639892578125,0.12327998876571655,-0.11181828379631042,-0.007082514464855194
1789147785214613000,8.512613037109375,0.18843981623649597,-0.1470779925584793,-0.06914722174406052
1789147785224584700,8.522584716796874,0.14317789673805237,-0.14197692275047302,0.003331343876197934
1789147785234557000,8.532556884765626,0.11845497786998749,-0.14108343422412872,-0.015992285683751106
1789147785244530000,8.542530029296875,0.10956847667694092,-0.1681981086730957,0.0375792533159256
1789147785254502000,8.552501953125,0.09848546981811523,-0.2274867296218872,0.09332134574651718
1789147785264473900,8.562473876953124,0.03680790960788727,-0.1675766259431839,-0.04861456900835037
1789147785274446800,8.57244677734375,0.013142528012394905,-0.15722119808197021,-0.047613754868507385
1789147785284418800,8.582418701171875,0.015223242342472076,-0.16484540700912476,-0.027580931782722473
1789147785294391000,8.59239111328125,0.15732870995998383,-0.20896866917610168,-0.06874620914459229
1789147785304364000,8.602364013671876,0.1735774427652359,-0.2088361531496048,-0.008112700656056404
1789147785314335700,8.612335693359375,0.15775613486766815,-0.18573270738124847,0.023222584277391434
1789147785324309000,8.62230908203125,0.14848262071609497,-0.1545153707265854,-0.046880483627319336
1789147785334281000,8.632281005859374,0.1990690976381302,-0.16686630249023438,-0.05375223979353905
1789147785344253000,8.6422529296875,0.21194981038570404,-0.09138860553503036,-0.2060048133134842
1789147785354226000,8.652225830078125,0.1613936871290207,-0.05657602846622467,-0.16128501296043396
1789147785364198000,8.662197998046874,0.1715179681777954,-0.0526094026863575,-0.13065464794635773
1789147785374169900,8.672169921875,0.2861502766609192,-0.01452886126935482,-0.12389981746673584
1789147785384142800,8.682142822265625,0.27470311522483826,-0.005693126004189253,0.011016638949513435
1789147785394115000,8.692114990234375,0.3040120005607605,-0.03149436414241791,0.023718850687146187
1789147785404086800,8.702086669921876,0.240778848528862,-0.020428696647286415,0.09609226882457733
1789147785414059800,8.712059814453125,0.23589354753494263,-0.029635244980454445,-0.0368490070104599
1789147785424032000,8.722031982421875,0.2573812007904053,-0.06156359612941742,-0.036043208092451096
1789147785434003700,8.732003662109374,0.25045618414878845,0.009449325501918793,-0.16519959270954132
1789147785443977000,8.74197705078125,0.26861459016799927,0.046826839447021484,-0.02980750985443592
1789147785453949000,8.751948974609375,0.3144521117210388,0.04956643283367157,-0.06162961944937706
1789147785463921000,8.7619208984375,0.38134801387786865,0.07216581702232361,0.03361643850803375
1789147785473894000,8.771893798828126,0.354765385389328,0.05419906973838806,0.04598522186279297
1789147785483865900,8.781865966796875,0.25526317954063416,0.014962919056415558,-0.010180141776800156
1789147785493837800,8.791837890625,0.2371976375579834,0.035650622099637985,-0.05162212252616882
1789147785503810800,8.801810791015624,0.25172609090805054,0.059149619191884995,-0.0669594332575798
1789147785513783000,8.811782958984375,0.290022611618042,0.09731751680374146,0.0023400085046887398
1789147785523754800,8.821754638671875,0.31475844979286194,0.11798276007175446,0.02164456993341446
1789147785533728000,8.83172802734375,0.3594430983066559,0.13497719168663025,0.03722912445664406
1789147785543700000,8.841699951171876,0.43028774857521057,0.17903372645378113,0.04292888939380646
1789147785553673000,8.8516728515625,0.43679067492485046,0.11586993932723999,0.21014530956745148
1789147785563645000,8.86164501953125,0.3915744721889496,0.13785269856452942,0.11512027680873871
1789147785573617000,8.871616943359374,0.39228981733322144,0.1908504068851471,-0.05262318626046181
1789147785583590000,8.88158984375,0.42696499824523926,0.22377316653728485,-0.14480502903461456
1789147785593561900,8.891561767578125,0.4274510145187378,0.26695260405540466,-0.0977373793721199
1789147785603534000,8.9015341796875,0.4435144364833832,0.2665737271308899,-0.022331546992063522
1789147785613506800,8.9115068359375,0.46473878622055054,0.24339383840560913,0.0500667542219162
1789147785623478800,8.921478759765625,0.44478973746299744,0.26200541853904724,-0.09647906571626663
1789147785633451000,8.931450927734375,0.3773217499256134,0.2523045837879181,-0.1910542994737625
1789147785643423700,8.941423828125,0.3588400185108185,0.16466714441776276,-0.044124703854322433
1789147785653396000,8.95139599609375,0.2699679434299469,0.13129986822605133,0.10075738281011581
1789147785663368000,8.961367919921875,0.27380287647247314,0.14908680319786072,-0.0033908982295542955
1789147785673340700,8.971340576171874,0.26820144057273865,0.12181976437568665,0.0255438145250082
1789147785683313000,8.98131298828125,0.25611481070518494,0.1401630938053131,0.027689658105373383
1789147785693284900,8.991284912109375,0.27183997631073,0.09820844233036041,0.21493038535118103
1789147785703257900,9.0012578125,0.2336580753326416,0.14022307097911835,0.06278755515813828
1789147785713229800,9.011229736328126,0.23695506155490875,0.24309511482715607,-0.19651643931865692
1789147785723202000,9.0212021484375,0.19658292829990387,0.3108632266521454,-0.346476286649704
1789147785733174800,9.0311748046875,0.274109423160553,0.25734806060791016,-0.06836239993572235
1789147785743147000,9.04114697265625,0.3892469108104706,0.23446747660636902,0.12129776924848557
1789147785753119000,9.051118896484375,0.3805708587169647,0.2310599684715271,0.07491269707679749
1789147785763091700,9.061091796875,0.3257274627685547,0.16131079196929932,0.2327597290277481
1789147785773064000,9.07106396484375,0.18861888349056244,0.2718988358974457,-0.035668786615133286
1789147785783037000,9.081036865234376,0.13280902802944183,0.31792521476745605,-0.04832401126623154
1789147785793009000,9.0910087890625,0.11712246388196945,0.24457909166812897,0.03266751021146774
1789147785802980900,9.10098095703125,0.16919684410095215,0.21512441337108612,0.11764071881771088
1789147785812953900,9.110953857421874,0.21277281641960144,0.21297045052051544,0.1069212332367897
1789147785822925800,9.12092578125,0.19178758561611176,0.20852994918823242,0.10454218834638596
1789147785832897800,9.130897705078125,0.18832947313785553,0.21827073395252228,0.16332802176475525
1789147785842871000,9.14087109375,0.17953510582447052,0.24826006591320038,0.18061131238937378
1789147785852842800,9.1508427734375,0.15907378494739532,0.2949761748313904,-0.043679576367139816
1789147785862815000,9.16081494140625,0.16625280678272247,0.24020925164222717,-0.008384723216295242
1789147785872788000,9.1707880859375,0.1399274617433548,0.23535937070846558,0.09064199030399323
1789147785882760000,9.180760009765624,0.12498939037322998,0.2501411736011505,0.062140412628650665
1789147785892732000,9.19073193359375,0.170038104057312,0.21650171279907227,0.03878236189484596
1789147785902705000,9.200704833984375,0.12067873775959015,0.2505582273006439,0.12010589987039566
1789147785912676900,9.2106767578125,0.0432736910879612,0.24923570454120636,0.17260214686393738
1789147785922648800,9.22064892578125,0.0028221108950674534,0.2292654812335968,0.05533887445926666
1789147785932622300,9.230622314453125,-0.025529369711875916,0.17972110211849213,0.07333465665578842
1789147785942594600,9.240594482421875,-0.029939722269773483,0.24383731186389923,-0.04582598805427551
1789147785952566300,9.250566162109376,0.06093186140060425,0.21603497862815857,0.007367189507931471
1789147785962539500,9.26053955078125,0.0712013989686966,0.21413232386112213,0.02185436338186264
1789147785972511500,9.270511474609375,-0.02096395008265972,0.20793062448501587,0.15523959696292877
1789147785982483500,9.2804833984375,0.0649971067905426,0.20104777812957764,0.14133156836032867
1789147785992456400,9.29045654296875,0.07262121140956879,0.2923516035079956,0.07081373035907745
1789147786002428400,9.300428466796875,0.010566893965005875,0.22512920200824738,0.15556834638118744
1789147786012401700,9.310401611328125,-0.06308602541685104,0.19173263013362885,0.17680492997169495
1789147786022373400,9.320373291015626,-0.018551448360085487,0.22448384761810303,0.1313568651676178
1789147786032345600,9.330345703125,-0.0628478080034256,0.22690758109092712,0.1373220682144165
1789147786042318600,9.340318603515625,-0.0026632528752088547,0.20906609296798706,0.10783158242702484
1789147786052290600,9.35029052734375,0.0033954386599361897,0.198654443025589,0.13553059101104736
1789147786062262500,9.360262451171875,-0.06859935820102692,0.14215363562107086,0.1783718466758728
1789147786072235500,9.370235595703125,-0.19374503195285797,0.1387205570936203,-0.041725363582372665
1789147786082207500,9.38020751953125,-0.18058092892169952,0.10753203183412552,-0.12700051069259644
1789147786092179500,9.390179443359376,-0.21148903667926788,0.05218382179737091,-0.12558718025684357
1789147786102152700,9.400152587890625,-0.24892061948776245,0.04638607054948807,-0.15066887438297272
1789147786112124400,9.41012451171875,-0.2042975127696991,0.006461291573941708,-0.150363951921463
1789147786122096600,9.4200966796875,-0.20635256171226501,-0.036376386880874634,-0.04007062688469887
1789147786132069600,9.430069580078126,-0.278870165348053,-0.04323482885956764,-0.05320640280842781
1789147786142041300,9.440041259765625,-0.30795150995254517,-0.06667377054691315,-0.18085026741027832
1789147786152013600,9.450013671875,-0.3100396990776062,-0.08930451422929764,-0.1208852082490921
1789147786161986600,9.459986572265626,-0.27182379364967346,-0.09521877020597458,-0.06689939647912979
1789147786171958500,9.46995849609375,-0.137444406747818,-0.07703123986721039,-0.12214001268148422
1789147786181930500,9.479930419921875,-0.10364224016666412,-0.08234424889087677,-0.0792684480547905
1789147786191903500,9.489903564453124,-0.18147018551826477,-0.0347231961786747,-0.06738542020320892
1789147786201875500,9.49987548828125,-0.23274996876716614,-0.03510461002588272,0.023309290409088135
1789147786211847400,9.509847412109375,-0.20968219637870789,-0.019250812008976936,-0.07903625816106796
1789147786221820700,9.519820556640624,-0.12209463119506836,-0.06391771137714386,-0.041287098079919815
1789147786231792400,9.52979248046875,-0.09424515813589096,-0.04125847667455673,0.003961340524256229
1789147786241764600,9.5397646484375,-0.03260210156440735,-0.001915049273520708,-0.029514137655496597
1789147786251737600,9.549737548828125,-0.02115955948829651,0.010810067877173424,-0.014180188067257404
1789147786261709600,9.55970947265625,-0.08343663811683655,0.029499683529138565,0.06761523336172104
1789147786271682600,9.5696826171875,-0.10535285621881485,0.04820333048701286,0.06387855112552643
1789147786281654500,9.579654541015625,-0.039326660335063934,0.0557110495865345,-0.047662608325481415
1789147786291626500,9.58962646484375,0.05985851213335991,0.03523746877908707,0.07235115021467209
1789147786301599500,9.599599609375,0.1136922761797905,0.09862291067838669,0.004432701505720615
1789147786311571700,9.60957177734375,0.15469935536384583,0.10186797380447388,0.06551016867160797
1789147786321543400,9.61954345703125,0.14786019921302795,0.10889066755771637,0.049593035131692886
1789147786331516400,9.629516357421876,0.11085584759712219,0.1181025430560112,0.0289149209856987
1789147786341488600,9.639488525390625,0.14921768009662628,0.09724178910255432,0.056514669209718704
1789147786351460400,9.64946044921875,0.08963344991207123,0.08459337055683136,0.15375067293643951
1789147786361433600,9.65943359375,0.11184301227331161,0.0692996084690094,0.007406399119645357
1789147786371405600,9.669405517578125,0.13039912283420563,0.07321472465991974,0.006569367833435535
1789147786381377500,9.67937744140625,0.09390892088413239,0.04432133957743645,0.08418657630681992
1789147786391350500,9.6893505859375,0.024091491475701332,-0.052511196583509445,0.14134573936462402
1789147786401322500,9.699322509765626,-0.0017022546380758286,-0.10529029369354248,0.14305390417575836
1789147786411294500,9.70929443359375,-0.013436942361295223,-0.1444544643163681,0.11321850121021271
1789147786421267500,9.719267333984375,-0.13253283500671387,-0.1707456409931183,0.105368472635746
1789147786431239700,9.72923974609375,-0.21563677489757538,-0.19629786908626556,0.056204646825790405
1789147786441211400,9.73921142578125,-0.21724127233028412,-0.21837954223155975,0.014589590951800346
1789147786451184400,9.749184326171875,-0.14449089765548706,-0.20245997607707977,0.04596961662173271
1789147786461156600,9.759156494140624,0.021328777074813843,-0.2107257843017578,0.1588056981563568
1789147786471128600,9.769128662109376,0.011077738367021084,-0.15842343866825104,0.16331523656845093
1789147786481101600,9.7791015625,0.021094154566526413,-0.13752268254756927,0.22765134274959564
1789147786491073500,9.789073486328125,-0.03843948245048523,-0.08878709375858307,0.28848913311958313
1789147786501045500,9.79904541015625,0.03329478204250336,-0.05617435649037361,0.11228737235069275
1789147786511018500,9.8090185546875,-0.010647907853126526,-0.02667825296521187,-0.08035611361265182
1789147786520990700,9.81899072265625,0.026555120944976807,0.005221623461693525,-0.1649988293647766
1789147786530963500,9.82896337890625,0.04271145164966583,0.11212117969989777,-0.06792048364877701
1789147786540935400,9.838935302734376,0.279797226190567,0.0808025524020195,0.0378863699734211
1789147786550907600,9.84890771484375,0.32585978507995605,0.1956617534160614,0.01763063110411167
1789147786560880400,9.85888037109375,0.28869926929473877,0.21060650050640106,0.04505039379000664
1789147786570852600,9.8688525390625,0.35262471437454224,0.1396969109773636,-0.0694439560174942
1789147786580824300,9.87882421875,0.26465559005737305,0.27895769476890564,-0.2438824474811554
1789147786590797300,9.88879736328125,0.2584397792816162,0.1814231276512146,0.0034506453666836023
1789147786600769500,9.89876953125,0.24906878173351288,0.23122049868106842,-0.051372162997722626
1789147786610741500,9.908741455078125,0.23834823071956635,0.32178208231925964,0.012164732441306114
1789147786620714500,9.918714599609375,0.20703615248203278,0.22901523113250732,0.1926434487104416
1789147786630686500,9.9286865234375,0.2057035118341446,0.1961427628993988,0.1860601156949997
1789147786640658400,9.938658447265626,0.21786126494407654,0.2283198982477188,-0.020382964983582497
1789147786650631400,9.94863134765625,0.2286507934331894,0.18142856657505035,-0.13431192934513092
1789147786660603600,9.958603759765625,0.14670923352241516,0.08362147957086563,0.06366312503814697
1789147786670575400,9.968575439453126,0.09183134883642197,0.149058535695076,-0.13820262253284454
1789147786680548400,9.97854833984375,0.09827274829149246,0.20118071138858795,-0.20092645287513733
1789147786690520600,9.9885205078125,0.07845669984817505,0.15875308215618134,-0.03682486340403557
1789147786700492300,9.9984921875,0.09394965320825577,0.12687064707279205,0.08527708053588867
1789147786710465500,10.008465576171876,0.0831952765583992,0.1712982952594757,-0.06944485008716583
1789147786720437500,10.0184375,0.03920900076627731,0.11933336406946182,-0.09666834771633148
1789147786730409500,10.028409423828125,-0.018321668729186058,0.08731790632009506,-0.021873198449611664
1789147786740382500,10.038382568359374,-0.047323018312454224,0.130459263920784,0.03242138773202896
1789147786750354400,10.0483544921875,0.010929367505013943,0.14241740107536316,-0.010058695450425148
1789147786760326400,10.058326416015625,0.03596552461385727,0.14164888858795166,-0.02806803397834301
1789147786770299400,10.06829931640625,0.04399415850639343,0.14969855546951294,-0.04104534909129143
1789147786780271600,10.078271728515626,0.02711794152855873,0.15188825130462646,-0.0016164674889296293
1789147786790244600,10.08824462890625,0.015392309054732323,0.14561116695404053,0.002948723267763853
1789147786800216300,10.09821630859375,-0.050953932106494904,0.19041994214057922,-0.07800731062889099
1789147786810188500,10.1081884765625,-0.015993816778063774,0.18491332232952118,-0.05473900958895683
1789147786820161500,10.11816162109375,-0.015445111319422722,0.20696797966957092,-0.027559496462345123
1789147786830133500,10.128133544921875,-0.01056753285229206,0.2148733139038086,-0.007978337816894054
1789147786840105500,10.13810546875,-0.011052913032472134,0.2108466625213623,-0.002638602629303932
1789147786850078500,10.148078369140626,-0.051522307097911835,0.23489980399608612,0.03967849537730217
1789147786860050400,10.158050537109375,-0.09363197535276413,0.21785210072994232,0.09594544023275375
1789147786870022700,10.168022705078124,-0.10691582411527634,0.16556358337402344,0.09671482443809509
1789147786879995600,10.17799560546875,-0.10040628910064697,0.20443831384181976,-0.0842595100402832
1789147786889967400,10.18796728515625,-0.1012188196182251,0.23676536977291107,-0.16852885484695435
1789147786899939600,10.197939697265625,-0.1576583832502365,0.23686161637306213,-0.15406493842601776
1789147786909912600,10.20791259765625,-0.11042241752147675,0.2350485473871231,-0.15029124915599823
1789147786919884500,10.217884521484375,-0.059852972626686096,0.23104006052017212,-0.14590021967887878
1789147786929856300,10.227856201171875,-0.10788095742464066,0.23709850013256073,-0.14893808960914612
1789147786939829200,10.237829345703124,-0.18379400670528412,0.17374226450920105,-0.053988587111234665
1789147786949801200,10.24780126953125,-0.30298110842704773,0.09059810638427734,-0.13412417471408844
1789147786959773200,10.257773193359375,-0.4206770658493042,0.0733657255768776,-0.18515585362911224
1789147786969746400,10.267746337890625,-0.35402241349220276,0.10859028995037079,-0.1664048135280609
1789147786979718100,10.27771826171875,-0.35662370920181274,0.05240686237812042,0.0007725560571998358
1789147786989690400,10.2876904296875,-0.3934514820575714,-0.016309084370732307,0.06797076761722565
1789147786999663400,10.297663330078125,-0.4509615898132324,-0.011055215261876583,0.09647732228040695
1789147787009635300,10.30763525390625,-0.5274300575256348,-0.05367671325802803,0.12432945519685745
1789147787019607300,10.317607177734375,-0.5814812779426575,-0.07635940611362457,0.05786062404513359
1789147787029580300,10.327580322265625,-0.5492546558380127,-0.09251467138528824,0.0024607484228909016
1789147787039552300,10.33755224609375,-0.4572550654411316,-0.011834591627120972,-0.041317231953144073
1789147787049524200,10.347524169921876,-0.3309336304664612,-0.020027806982398033,0.08599492162466049
1789147787059497500,10.35749755859375,-0.3903820216655731,0.030015703290700912,0.07562780380249023
1789147787069469200,10.36746923828125,-0.411048948764801,0.01647113263607025,0.09781433641910553
1789147787079442200,10.377442138671874,-0.32897087931632996,-0.015483355149626732,0.03324832767248154
1789147787089414400,10.387414306640625,-0.39356955885887146,-0.051006730645895004,0.19306223094463348
1789147787099386000,10.39738623046875,-0.5081736445426941,-0.06121312826871872,-0.015550315380096436
1789147787109359400,10.407359375,-0.512069582939148,-0.059671156108379364,-0.036006055772304535
1789147787119331300,10.417331298828126,-0.47767341136932373,-0.05610896274447441,0.037763599306344986
1789147787129303300,10.42730322265625,-0.38481220602989197,-0.07675165683031082,0.0340743213891983
1789147787139276300,10.4372763671875,-0.39669257402420044,-0.03895805403590202,0.0034950992558151484
1789147787149248300,10.447248291015624,-0.3976907432079315,-0.07091598957777023,0.14287270605564117
1789147787159220200,10.45722021484375,-0.43345576524734497,-0.11240836977958679,0.2505471408367157
1789147787169193200,10.467193115234375,-0.49934130907058716,-0.13080255687236786,0.1309938281774521
1789147787179165400,10.47716552734375,-0.48365023732185364,-0.21372385323047638,0.17398439347743988
1789147787189137200,10.48713720703125,-0.46520116925239563,-0.21752046048641205,0.11125177890062332
1789147787199110100,10.497110107421875,-0.43564826250076294,-0.23452316224575043,0.13900066912174225
1789147787209082400,10.507082275390625,-0.43568557500839233,-0.25194475054740906,0.13220134377479553
1789147787219054300,10.517054443359376,-0.4620378911495209,-0.23308052122592926,0.1315189003944397
1789147787229027300,10.52702734375,-0.44276192784309387,-0.2471151202917099,0.11107008904218674
1789147787238999300,10.536999267578125,-0.4650929868221283,-0.29788848757743835,0.2545378506183624
1789147787248971300,10.54697119140625,-0.4638165235519409,-0.30497434735298157,0.07655296474695206
1789147787258944300,10.5569443359375,-0.44760391116142273,-0.32204851508140564,0.012803400866687298
1789147787268916500,10.56691650390625,-0.36163946986198425,-0.3103726804256439,-0.03441711142659187
1789147787278888200,10.57688818359375,-0.35660943388938904,-0.2911086976528168,0.0953252911567688
1789147787288861200,10.586861083984376,-0.4193817377090454,-0.25905728340148926,0.11886896938085556
1789147787298833400,10.59683349609375,-0.38833683729171753,-0.28436946868896484,0.22193825244903564
1789147787308805000,10.60680517578125,-0.22862228751182556,-0.24407266080379486,0.029740579426288605
1789147787318778400,10.6167783203125,-0.0810294896364212,-0.26608386635780334,-0.016013165935873985
1789147787328750300,10.626750244140625,-0.06919866055250168,-0.21808330714702606,-0.013385957106947899
1789147787338722300,10.636722412109375,-0.10414917021989822,-0.23019231855869293,0.06284969300031662
1789147787348695300,10.6466953125,-0.1089487224817276,-0.15467625856399536,-0.04657639190554619
1789147787358667300,10.656667236328126,-0.08901333808898926,-0.1616681069135666,-0.039965033531188965
1789147787368639200,10.66663916015625,-0.08527426421642303,-0.18060077726840973,0.06444792449474335
1789147787378612200,10.6766123046875,-0.05640053376555443,-0.148450568318367,-0.04450918361544609
1789147787388584400,10.68658447265625,-0.05461781099438667,-0.16870523989200592,0.013490735553205013
1789147787398557200,10.69655712890625,0.01954171620309353,-0.15668928623199463,0.024371381849050522
1789147787408529400,10.706529296875,0.05599106848239899,-0.10083639621734619,-0.044217798858881
1789147787418501400,10.71650146484375,0.04312560707330704,-0.06532900780439377,-0.12856703996658325
1789147787428474000,10.72647412109375,0.01823117583990097,-0.05262892693281174,-0.1529213786125183
1789147787438446300,10.7364462890625,0.01947655901312828,-0.04209372401237488,-0.13992129266262054
1789147787448418300,10.746418212890624,0.040010593831539154,-0.0835237205028534,-0.048496559262275696
1789147787458391300,10.756391357421874,0.03942001983523369,-0.059375446289777756,-0.10922452062368393
1789147787468363300,10.76636328125,0.05904804915189743,-0.08094704896211624,-0.04737740382552147
1789147787478335500,10.77633544921875,0.07691322267055511,-0.12332359701395035,0.029416082426905632
1789147787488308200,10.78630810546875,0.03090498223900795,-0.101100854575634,0.07351803034543991
1789147787498280200,10.7962802734375,0.01780465804040432,-0.1302739977836609,0.06191433593630791
1789147787508252400,10.80625244140625,-0.009520439431071281,-0.14294984936714172,0.1438336968421936
1789147787518225200,10.81622509765625,-0.009179212152957916,-0.1284443587064743,0.09959613531827927
1789147787528197400,10.826197265625,-0.030275974422693253,-0.15791462361812592,0.11315641552209854
1789147787538169300,10.83616943359375,-0.03196314349770546,-0.18234875798225403,0.10134968161582947
1789147787548142000,10.84614208984375,-0.03779120743274689,-0.18305715918540955,0.06613816320896149
1789147787558114300,10.8561142578125,-0.06779935956001282,-0.19723711907863617,0.08819237351417542
1789147787568086300,10.866086181640625,-0.0837077647447586,-0.20293468236923218,0.1410798281431198
1789147787578059300,10.876059326171875,-0.1450972557067871,-0.2526341676712036,0.13410219550132751
1789147787588031200,10.88603125,-0.20149636268615723,-0.30571869015693665,0.16268804669380188
1789147787598003500,10.89600341796875,-0.2061356008052826,-0.3274398148059845,0.09159201383590698
1789147787607976200,10.90597607421875,-0.18458609282970428,-0.2965676486492157,-0.0714389830827713
1789147787617948400,10.915948486328125,-0.20676471292972565,-0.23389172554016113,-0.07138685882091522
1789147787627920400,10.92592041015625,-0.172071173787117,-0.2513889670372009,0.0163632333278656
1789147787637893000,10.93589306640625,-0.13544100522994995,-0.18897055089473724,-0.1635502725839615
1789147787647865300,10.945865234375,-0.03322569280862808,-0.18126095831394196,-0.09123001247644424
1789147787657837300,10.95583740234375,-0.029715780168771744,-0.17052681744098663,-0.013399623334407806
1789147787667810300,10.965810302734376,-0.039643775671720505,-0.20150789618492126,-0.109881691634655
1789147787677782300,10.9757822265625,-0.07292775064706802,-0.1998416930437088,-0.10847613960504532
1789147787687754500,10.98575439453125,-0.07904502749443054,-0.21112897992134094,-0.03342666104435921
1789147787697727200,10.995727294921876,-0.04802694171667099,-0.1612432897090912,-0.12423353642225266
1789147787707699200,11.00569921875,-0.01215655729174614,-0.17869818210601807,-0.12502849102020264
1789147787717672400,11.01567236328125,-0.034558579325675964,-0.20176923274993896,-0.037525296211242676
1789147787727644200,11.02564404296875,-0.09313880652189255,-0.2269749641418457,0.023485058918595314
1789147787737616400,11.035616455078125,-0.08162343502044678,-0.24736662209033966,0.017931409180164337
1789147787747589400,11.04558935546875,-0.16987553238868713,-0.21077531576156616,0.09145915508270264
1789147787757561000,11.05556103515625,-0.11934445798397064,-0.2669368088245392,0.0654507726430893
1789147787767533300,11.065533203125,-0.07866360247135162,-0.26721855998039246,0.053125668317079544
1789147787777506300,11.07550634765625,-0.08464695513248444,-0.2344726324081421,-0.009839250706136227
1789147787787478300,11.085478271484375,-0.1983862966299057,-0.21102802455425262,0.04427698254585266
1789147787797450200,11.0954501953125,-0.14487674832344055,-0.25001469254493713,0.0327066071331501
1789147787807423200,11.10542333984375,-0.07475706189870834,-0.23876416683197021,0.07488974928855896
1789147787817395200,11.115395263671875,-0.09674853086471558,-0.24328666925430298,0.08673744648694992
1789147787827367400,11.125367431640624,-0.09809529036283493,-0.23421674966812134,-0.024873768910765648
1789147787837340400,11.13534033203125,-0.11937546730041504,-0.18174953758716583,0.02200094237923622
1789147787847312100,11.14531201171875,-0.1450326293706894,-0.20561465620994568,0.07281965017318726
1789147787857284400,11.155284423828125,-0.08793816715478897,-0.19660258293151855,-0.055261146277189255
1789147787867257300,11.16525732421875,-0.003233133815228939,-0.1664430797100067,-0.04309289529919624
1789147787877229300,11.175229248046875,-0.013740919530391693,-0.15201231837272644,0.00820463988929987
1789147787887201300,11.185201171875,-0.006857713684439659,-0.16315925121307373,0.02068927139043808
1789147787897174300,11.19517431640625,0.02715195342898369,-0.136736199259758,-0.026193533092737198
1789147787907146200,11.205146240234376,0.02287864312529564,-0.1391730010509491,0.039461374282836914
1789147787917118200,11.2151181640625,-0.003708619624376297,-0.12588879466056824,0.023674851283431053
1789147787927091500,11.225091552734375,0.04915938898921013,-0.18085910379886627,0.0602395199239254
1789147787937063400,11.2350634765625,0.0337018221616745,-0.15009519457817078,0.0029231642838567495
1789147787947035400,11.245035400390625,-0.01551072858273983,-0.1769009828567505,0.08449765294790268
1789147787957008400,11.25500830078125,-0.042584680020809174,-0.2028178870677948,0.1504404991865158
1789147787966980400,11.26498046875,-0.0002476116642355919,-0.2005843073129654,0.043332695960998535
1789147787976952300,11.274952392578125,0.10740318894386292,-0.18604212999343872,-0.0851193517446518
1789147787986925300,11.28492529296875,0.10120707750320435,-0.1447380930185318,-0.12454505264759064
1789147787996897500,11.2948974609375,0.1247427761554718,-0.12360920757055283,-0.13978174328804016
1789147788006869200,11.304869140625,0.08784067630767822,-0.08571935445070267,-0.15672184526920319
1789147788016842200,11.31484228515625,0.07431812584400177,-0.12525685131549835,-0.10433382540941238
1789147788026814500,11.324814453125,0.14333632588386536,-0.17676903307437897,0.022932253777980804
1789147788036786400,11.334786376953126,0.16935086250305176,-0.12660256028175354,-0.03730079159140587
1789147788046759400,11.344759521484375,0.17031599581241608,-0.1139480248093605,-0.1668207049369812
1789147788056731400,11.3547314453125,0.17857179045677185,-0.11831854283809662,-0.11909312754869461
1789147788066703400,11.364703369140624,0.14734169840812683,-0.10330097377300262,0.06848955154418945
1789147788076676400,11.37467626953125,0.19372110068798065,-0.07759502530097961,-0.07134540379047394
1789147788086648600,11.384648681640625,0.21744559705257416,-0.1010417640209198,-0.007304902654141188
1789147788096620300,11.394620361328125,0.1954684555530548,-0.07306846976280212,0.0326513797044754
1789147788106593300,11.40459326171875,0.24603921175003052,-0.04956180974841118,0.04863886907696724
1789147788116565500,11.4145654296875,0.2975148856639862,-0.0717729777097702,-0.02126838080585003
1789147788126537200,11.424537109375,0.3015189468860626,-0.008584152907133102,-0.12505336105823517
1789147788136510500,11.434510498046874,0.32602888345718384,0.09071227163076401,-0.19670115411281586
1789147788146482400,11.444482421875,0.4076124429702759,0.10972458124160767,-0.15019117295742035
1789147788156454400,11.454454345703125,0.4000173807144165,0.1264384686946869,-0.09012619405984879
1789147788166427400,11.464427490234375,0.4398292303085327,0.13871192932128906,0.06951726227998734
1789147788176399400,11.4743994140625,0.5002568960189819,0.15745100378990173,0.09183881431818008
1789147788186372400,11.484372314453125,0.45634695887565613,0.19580397009849548,0.08315637707710266
1789147788196344300,11.49434423828125,0.5175987482070923,0.26354119181632996,-0.11923777312040329
1789147788206316500,11.504316650390624,0.47295081615448,0.2502698600292206,-0.01562216505408287
1789147788216289300,11.514289306640626,0.48369863629341125,0.1937306672334671,0.07644323259592056
1789147788226261500,11.524261474609375,0.4593623876571655,0.17452208697795868,0.0836806446313858
1789147788236233500,11.5342333984375,0.4385264813899994,0.16041666269302368,0.060275908559560776
1789147788246206200,11.544206298828126,0.38669976592063904,0.18328362703323364,0.1834106296300888
1789147788256178400,11.554178466796875,0.3280113935470581,0.23089471459388733,0.043713174760341644
1789147788266150400,11.564150390625,0.33260828256607056,0.13812190294265747,0.026685984805226326
1789147788276123400,11.574123291015624,0.31060904264450073,0.21219155192375183,-0.2343418002128601
1789147788286095400,11.584095458984375,0.26779475808143616,0.14616966247558594,-0.0634898915886879
1789147788296067600,11.594067626953125,0.25812387466430664,0.04271375387907028,0.18441401422023773
1789147788306040300,11.604040283203124,0.2809663712978363,0.1806631088256836,0.06502557545900345
1789147788316012300,11.61401220703125,0.31071120500564575,0.10764162242412567,0.1813439279794693
1789147788325984500,11.623984619140625,0.14144572615623474,0.1965603232383728,0.20566311478614807
1789147788335957200,11.633957275390625,0.1978609710931778,0.1097923293709755,0.19311393797397614
1789147788345929500,11.643929443359376,0.20458464324474335,0.11388560384511948,0.07420699298381805
1789147788355901400,11.6539013671875,0.21534837782382965,0.1644599735736847,-0.20046336948871613
1789147788365874200,11.663874267578125,0.18775217235088348,0.17111414670944214,-0.10047312825918198
1789147788375846400,11.673846435546874,0.25233185291290283,0.20709438621997833,-0.07272420078516006
1789147788385818400,11.683818359375,0.3188733458518982,0.27093061804771423,-0.14700455963611603
1789147788395791400,11.693791259765625,0.3639180362224579,0.2190343141555786,0.06020514294505119
1789147788405763300,11.703763427734375,0.3836992084980011,0.20021694898605347,0.1958942711353302
1789147788415735600,11.713735595703126,0.2650794982910156,0.2650805413722992,0.0024652485735714436
1789147788425708300,11.723708251953125,0.18444056808948517,0.2538023293018341,-0.04162764549255371
1789147788435680500,11.733680419921875,0.17432859539985657,0.21216513216495514,-0.0069169881753623486
1789147788445652500,11.743652587890624,0.1694081425666809,0.22572220861911774,-0.08421550691127777
1789147788455625200,11.753625244140625,0.19313567876815796,0.17314310371875763,-0.044174522161483765
1789147788465597400,11.763597412109375,0.21976728737354279,0.15361280739307404,0.005607948638498783
1789147788475569400,11.7735693359375,0.2093900591135025,0.1699954718351364,-0.07152890413999557
1789147788485542400,11.78354248046875,0.17287811636924744,0.15852950513362885,-0.18862409889698029
1789147788495514400,11.793514404296875,0.1689450591802597,0.14292441308498383,-0.2942429482936859
1789147788505486300,11.803486328125,0.1572902649641037,0.05464700609445572,-0.11836034804582596
1789147788515459300,11.813459228515624,0.07308178395032883,0.09862156957387924,-0.0555645115673542
1789147788525431300,11.823431396484375,0.10089664161205292,-0.0018949208315461874,0.08337792754173279
1789147788535403300,11.8334033203125,0.07410143315792084,-0.05220586061477661,0.18512789905071259
1789147788545376300,11.843376220703124,-0.020200299099087715,-0.038750771433115005,0.18269270658493042
1789147788555348500,11.853348388671876,-0.08400849997997284,-0.031514234840869904,-0.05484258756041527
1789147788565320200,11.8633203125,-0.1833159178495407,-0.06683175265789032,-0.06332448869943619
1789147788575293200,11.873293212890625,-0.1548738032579422,-0.09594542533159256,-0.01777523197233677
1789147788585265400,11.883265380859376,-0.10409478098154068,-0.08607707917690277,-0.07499351352453232
1789147788595237400,11.8932373046875,-0.07267045229673386,-0.05792245268821716,-0.09015213698148727
1789147788605210400,11.90321044921875,-0.07080357521772385,-0.010923519730567932,-0.11766605079174042
1789147788615182300,11.913182373046874,-0.05049212649464607,0.007326044607907534,-0.11564915627241135
1789147788625154300,11.923154296875,-0.08186176419258118,0.01011943444609642,0.08503414690494537
1789147788635127300,11.933127197265625,-0.059999607503414154,0.014570202678442001,-0.04725019261240959
1789147788645099500,11.943099609375,-0.015590330585837364,0.040959734469652176,0.09305018931627274
1789147788655071200,11.9530712890625,0.007594770286232233,0.08224505931138992,0.11757142096757889
1789147788665044200,11.963044189453125,-0.01814388297498226,0.08905688673257828,0.1235363632440567
1789147788675016400,11.973016357421875,-0.0007723690941929817,0.09293673187494278,0.03360727056860924
1789147788684988200,11.98298828125,0.06558828055858612,0.08460023999214172,0.22718445956707
1789147788694961400,11.99296142578125,0.012602975592017174,0.10271855443716049,0.09925749152898788
1789147788704933400,12.002933349609375,0.025023426860570908,0.07320327311754227,0.2105025202035904
1789147788714905300,12.0129052734375,-0.029427336528897285,0.09817816317081451,-0.014630205929279327
1789147788724878300,12.02287841796875,-0.03149288147687912,0.04400014504790306,0.0732828751206398
1789147788734850300,12.032850341796875,-0.07396849244832993,0.001547439955174923,0.05699370801448822
1789147788744823600,12.042823486328125,-0.09264657646417618,-0.059662654995918274,0.22368203103542328
1789147788754795300,12.052795166015626,-0.18622642755508423,-0.09136053919792175,0.2261311113834381
1789147788764767500,12.062767578125,-0.23584218323230743,-0.15484896302223206,0.030397286638617516
1789147788774740500,12.072740478515625,-0.28486305475234985,-0.12563231587409973,-0.009496349841356277
1789147788784712200,12.082712158203124,-0.2736247777938843,-0.15727491676807404,0.09576109796762466
1789147788794684400,12.092684326171875,-0.2920948266983032,-0.15256738662719727,0.08841617405414581
1789147788804657400,12.102657470703125,-0.2351553738117218,-0.19453027844429016,0.039754897356033325
1789147788814629400,12.11262939453125,-0.25963032245635986,-0.2091292291879654,0.15535154938697815
1789147788824601300,12.122601318359376,-0.2519606649875641,-0.2019599974155426,0.05946096405386925
1789147788834574300,12.13257421875,-0.2567042112350464,-0.209628626704216,0.09975974261760712
1789147788844546300,12.14254638671875,-0.22430017590522766,-0.1686716079711914,0.02798994816839695
1789147788854518500,12.1525185546875,-0.16860151290893555,-0.15984828770160675,0.046714898198843
1789147788864491500,12.162491455078126,-0.12294081598520279,-0.17834500968456268,0.03757466375827789
1789147788874463200,12.172463134765625,-0.08857730776071548,-0.1273200660943985,0.05146157741546631
1789147788884435500,12.182435546875,-0.037549279630184174,-0.09439805895090103,-0.052768152207136154
1789147788894408400,12.192408447265626,-0.025898132473230362,-0.13640835881233215,-0.018361033871769905
1789147788904380400,12.20238037109375,-0.02257317677140236,-0.062101900577545166,-0.17789743840694427
1789147788914352400,12.212352294921875,-0.008627532050013542,-0.012082943692803383,-0.16144202649593353
1789147788924325400,12.222325439453124,-0.020013611763715744,-0.028837155550718307,-0.012969995848834515
1789147788934296600,12.232296630859375,0.08982500433921814,-0.03674541413784027,-0.0003716464852914214
1789147788944268800,12.242268798828125,0.11941006779670715,-0.027913039550185204,0.08256344497203827
1789147788954241800,12.25224169921875,0.10139444470405579,-0.045524612069129944,0.1287510246038437
1789147788964213500,12.262213623046875,0.12361479550600052,-0.056248363107442856,0.02646486461162567
