time,seconds_elapsed,z,y,x
1790173701922521000,1.59352099609375,-0.8634259248286485,0.0909802476078271,-1.0733611262280494
1790173701932593200,1.60359326171875,0.5990823299586773,-0.4640630341380834,-1.4227800555109975
1790173701942664200,1.613664306640625,-0.2934907788991928,-0.4120142824709415,-2.0885048951566216
1790173701952736300,1.623736328125,-0.0247252759337425,0.4470651375859975,-2.157558703768998
1790173701962807300,1.633807373046875,-0.4631231229394674,0.6406301458775997,-2.0905901769980786
1790173701972879000,1.643879150390625,-0.7462474061250686,0.0132195470571517,-2.325708115775138
1790173701982951200,1.653951171875,-0.332377558915317,-0.5091898775875568,-1.868274436648935
1790173701993022000,1.66402197265625,0.0920551833629608,0.2855687537282705,-1.6430775879055262
1790173702003094000,1.674093994140625,0.076019409841299,0.8012649444699287,-1.405026664416492
1790173702013165800,1.684165771484375,0.3673495035752654,0.5702116247832775,-1.0685462002269923
1790173702023236900,1.69423681640625,-0.9972177246809004,0.128696522539854,-0.4423493611104786
1790173702033309000,1.704308837890625,0.1721750142604112,-0.1483048938512802,0.3171814145555719
1790173702043381000,1.714381103515625,0.4585466088041663,-0.0346089565664529,0.5741844374043866
1790173702053452000,1.7244521484375,0.0293611190408468,-0.637882308474183,0.7773569762684405
1790173702063524000,1.734524169921875,-0.7838894467771053,-0.7940028445124626,1.4986701398842035
1790173702073596000,1.744595947265625,0.1582300755381584,0.1877683047115802,1.164835075636953
1790173702083667000,1.7546669921875,2.158698375323415,0.0552799886733293,0.5119231384763494
1790173702093739000,1.764739013671875,2.5559879668712613,-0.1702139433205127,-0.1578243442814797
1790173702103810000,1.77481005859375,-0.9324982920110224,0.0463619382023811,-0.1286402623079717
1790173702113882000,1.784882080078125,-1.9864982266217468,-0.0641787499219179,0.0614321180948987
1790173702123954200,1.7949541015625,-0.7651470446452499,-0.9438894545972348,0.0586783258747309
1790173702134025200,1.805025146484375,2.242279160329699,-0.6536246520072221,0.2956425866382196
1790173702144097000,1.815096923828125,1.0396247877776623,0.6368447821199894,0.0130899293281137
1790173702154169000,1.825169189453125,-0.2219131508976221,0.5470633889079094,-0.1071692754624411
1790173702164240100,1.835240234375,-0.7293035778477788,0.7464379602611064,-0.5999478972794487
1790173702174312200,1.845312255859375,-1.297049981561303,-0.396086060976982,-1.2725883249998091
1790173702184384000,1.855384033203125,-1.00842710095942,-0.603016162276268,-0.8086155994936823
1790173702194455000,1.865455078125,0.7213643092811107,-0.8300327737927436,-0.8157327380225062
1790173702204527000,1.875527099609375,0.1329091717988252,-0.2252215447932481,-0.2918126896191388
1790173702214599200,1.88559912109375,0.7756321983024478,0.4972638774722814,0.3880922126788645
1790173702224670200,1.895670166015625,-1.7303706714332103,1.5130892719894646,0.7337177410282194
1790173702234742300,1.9057421875,-2.144930546733737,1.028142439776659,1.1154286551721393
1790173702244814000,1.91581396484375,-0.0589420183122158,-0.1296820264458656,1.440689221689105
1790173702254884900,1.925884765625,-0.7701686721995472,0.1748006865888834,1.195461611503735
1790173702264957000,1.93595703125,-3.0662422588199374,1.65881057908833,1.3187798750713466
1790173702275028500,1.946028564453125,-3.3325627067208288,1.492683612820506,1.9623168483063576
1790173702285100500,1.9561005859375,1.3725760549277066,-0.373418886616826,2.584832953083515
1790173702295172400,1.96617236328125,1.3833265815228224,0.2632031926631927,1.8811752731457352
1790173702305243400,1.976243408203125,-0.057128831410408,0.6567687952518463,0.5284594453986734
1790173702315315500,1.9863154296875,-1.4652712897598743,0.3996978217333555,0.3007039434147067
1790173702325387500,1.996387451171875,-3.47375133882612,0.5822983684182167,-0.0295083911575842
1790173702335458600,2.00645849609375,-2.949930878339708,-0.2962871316194534,-0.1539505715880542
1790173702345530600,2.016530517578125,1.393714996807277,-0.9925310281693934,-0.3170769678004085
1790173702355602400,2.0266025390625,2.7517519465118645,-0.3195633777886629,0.0615001463963882
1790173702365673500,2.036673583984375,0.9080772597208618,0.2454191141694784,-0.4173208644464611
1790173702375745500,2.04674560546875,-0.8878963492184877,0.1236041678369045,-1.2175660374145951
1790173702385817600,2.056817626953125,-0.9219695914730428,0.1649526617914438,-1.710619238389283
1790173702395888600,2.066888671875,-0.0760202866241335,0.0483738625466823,-1.110497190119326
1790173702405960400,2.07696044921875,0.4291980569839477,0.9731137955158948,-1.0100948880411684
1790173702416031500,2.087031494140625,0.258417127430439,0.0700093557715415,-1.4252499527558684
1790173702426103600,2.097103515625,4.968337278136611,-2.9207880782246587,-0.1152807770571671
1790173702436175600,2.107175537109375,1.4528741650015116,-0.728159960770607,0.7238179129783063
1790173702446246700,2.11724658203125,-0.8516729431927204,0.1476063901931047,0.372617945497483
1790173702456318700,2.127318603515625,5.620892839607596,-3.3208582404017446,-0.3398662341702729
1790173702466390500,2.137390625,-5.068085354089737,2.4337942503541705,1.761720041681826
1790173702476461300,2.14746142578125,-5.660936096182465,2.086950066930056,2.569563487759232
1790173702486533400,2.157533447265625,5.313547138357162,-3.615684651818871,0.3319489582397043
1790173702496605700,2.167605712890625,5.81329932551384,-2.497169867199659,-0.0283366530976258
1790173702506676500,2.177676513671875,-1.6235411127865311,2.497825700759888,1.363624978969991
1790173702516748500,2.18774853515625,-1.2717919139251113,0.7948428024679421,0.8866674650106579
1790173702526820400,2.1978203125,1.072385486128926,-1.4045856426507233,-0.8479933048319072
1790173702536891400,2.207891357421875,1.3334154264062643,-1.3117267416894436,-0.4031852619903162
1790173702546963500,2.21796337890625,2.7111586548388003,-1.4208458725780249,0.2357270836513489
1790173702557035500,2.228035400390625,1.4797773694962262,0.083550389868021,-0.0784638803839683
1790173702567106600,2.2381064453125,-0.674662179338932,0.6985521734923124,0.6882344122912735
1790173702577178400,2.248178466796875,-0.035035949806869,-0.8334650863289833,0.1866504065975546
1790173702587249400,2.25824951171875,2.3898323590308426,-1.9387989023357628,-1.4015220172964036
1790173702597321500,2.268321533203125,2.243941248323023,-0.5331108514010906,-1.4034003783889113
1790173702607393500,2.2783935546875,1.8883499870806928,0.7880541652411222,-0.5290206229453907
1790173702617464600,2.288464599609375,-0.2402712298870086,0.4092617688924074,-0.4877321520823985
1790173702627536600,2.29853662109375,0.2443544075474142,-0.8994342267990112,-1.5239683934003114
1790173702637608400,2.3086083984375,1.338932144001126,-1.585282986062765,-1.620567796064168
1790173702647679500,2.318679443359375,1.627864821204543,-1.2077262689888475,-1.8131385326214131
1790173702657751600,2.32875146484375,-1.134934589022398,0.4394628458887338,-1.698137650217861
1790173702667823600,2.33882373046875,-1.162204288741946,0.3209159614413976,-0.9439423538282512
1790173702677894700,2.348894775390625,1.052471409869194,-0.1574041461080312,-1.4027797622725366
1790173702687966500,2.358966552734375,1.468923382526636,0.2941121256679296,-1.7096327115699648
1790173702698038500,2.36903857421875,0.1916986298978328,0.4257470397472381,-0.8926809531465172
1790173702708109600,2.379109619140625,-1.5695084938257933,0.8243979827761649,0.0095254052469506
1790173702718181600,2.389181640625,-1.849998336854577,-0.0886760623186826,0.3056950479665771
1790173702728252400,2.39925244140625,-1.834334026993811,-0.7383359023481607,0.2237582307750359
1790173702738324500,2.409324462890625,0.9524018468767405,-1.0134300238132476,0.1718804882932454
1790173702748396500,2.419396484375,0.1622626920551061,0.360045025780797,-0.1760056419318541
1790173702758467300,2.42946728515625,-0.4467351749792694,1.3692156385838985,0.8304821249954402
1790173702768539400,2.439539306640625,0.0160679222255945,0.5608493376761674,1.217083587659895
1790173702778611500,2.449611572265625,1.3605875109702348,-0.4429927735805511,0.1124517459100112
1790173702788682500,2.4596826171875,1.3815858753353356,-0.2973141365796327,0.6929176747366785
1790173702798754600,2.469754638671875,-0.1598483243897557,0.5583586899042129,0.9641350278336556
1790173702808826400,2.479826416015625,-1.1624009803578257,0.4759007714480161,1.1302963347624986
1790173702818897400,2.4898974609375,-0.1618061804592609,-0.3307815218955278,1.1212735818080604
1790173702828969500,2.499969482421875,-1.106840128916502,-0.1036772320955991,0.3825695402672514
1790173702839041500,2.51004150390625,-1.4798025039374827,-0.258810510662198,-0.0255562103325501
1790173702849112600,2.520112548828125,0.1831575960457324,-0.7264695234656333,0.5689762012368068
1790173702859184400,2.530184326171875,1.6176386107444762,-0.2806540936797857,0.5345455238467082
1790173702869255400,2.54025537109375,1.7706541665047406,0.4575356781959533,0.1042780110003426
1790173702879327500,2.550327392578125,1.924240215629339,0.1977940241634845,0.7479438347794115
1790173702889399600,2.560399658203125,1.2423469159930944,-0.3304711407721042,0.4161686256714165
1790173702899470600,2.570470703125,-1.4537760822772978,0.0196025260925292,0.3263367443811148
1790173702909542700,2.580542724609375,-1.7814450251102447,-0.4382622379273176,0.0758447108615189
1790173702919614500,2.590614501953125,1.1912193708240986,-1.8089467800199983,-0.6679179657757282
1790173702929685500,2.600685546875,0.1000385833323001,-0.371199457001686,-0.6559041412465274
1790173702939757600,2.610757568359375,0.1598188060343265,0.5400672464102506,-0.0614586042430251
1790173702949829600,2.62082958984375,0.1380026955455541,0.1986982795268297,-0.1524760420560836
1790173702959900700,2.630900634765625,-0.2335930672973394,-0.0562836127579212,-0.5903183010056614
1790173702969972700,2.64097265625,-1.8143612062841648,-0.2453273442327976,-0.4671949754882603
1790173702980044500,2.65104443359375,-1.3793196839690207,0.2516886959582567,0.0029123437827453
1790173702990115300,2.661115234375,-0.7589940749734639,1.2950310429543257,0.3047295274026692
1790173703000187600,2.671187744140625,-2.1503402968227863,0.868466257083416,1.80552601179108
1790173703010258400,2.681258544921875,-2.7005408147126437,-0.3589320961028337,0.8115569867078214
1790173703020330500,2.69133056640625,-1.3524597340941429,-0.8877227462172508,-1.2171015617080032
1790173703030402300,2.70140234375,-0.0031292379364371,0.1756301231503486,-1.3842685385480522
1790173703040473300,2.711473388671875,2.6930472440868614,1.101450252571702,-1.5948915030159054
1790173703050545400,2.72154541015625,0.2837152348160743,2.34382814822495,-1.5274597426474092
1790173703060617500,2.731617431640625,-2.518339496478438,1.408066470503807,-0.948968511427194
1790173703070688500,2.7416884765625,-1.7470511725991964,-1.0119137740314006,-0.7100044186159968
1790173703080760600,2.751760498046875,0.0527656677648425,-1.3756161532759663,-0.5504514604436234
1790173703090832400,2.761832275390625,0.3673433660954237,-0.775691527274251,-0.1917928109873086
1790173703100903400,2.7719033203125,1.5867627032265066,0.3890881649136543,-0.3704727501623332
1790173703110975500,2.7819755859375,-0.2674620191514492,1.0055091676861048,-0.4660691132634877
1790173703121046500,2.792046630859375,-1.7479314625650644,0.5921586681753397,0.4473260535445064
1790173703131118600,2.80211865234375,0.5724266704842448,-0.835530202165246,-0.139484239340201
1790173703141190700,2.812190673828125,1.6760738485783335,-0.7866752781033516,-0.8291562832191586
1790173703151261700,2.82226171875,1.212087971329689,0.1554734703063964,-0.189240094297193
1790173703161333500,2.83233349609375,0.2138081703752279,-0.0379600205600261,-0.0635887116068974
1790173703171405600,2.842405517578125,-1.5145572987154126,-0.0585579874306917,-0.3923425635997206
1790173703181476600,2.8524765625,-0.4363432525634765,-0.3133352970540523,-0.4405796845568344
1790173703191548700,2.862548583984375,0.9481494501292704,-0.8686796075731515,-0.2914540854398161
1790173703201620500,2.872620361328125,0.499056898368895,-0.1112532203078269,-0.236479180660285
1790173703211691500,2.88269140625,-2.470221069997549,0.890870396593213,0.0110278822317719
1790173703221763600,2.892763671875,-1.050074870121479,-0.0763724610626697,0.2960411940343678
1790173703231835600,2.902835693359375,2.2112018850207327,-0.8624129483938217,-1.0118358864896
1790173703241906400,2.912906494140625,0.0990361282914876,0.4279167850017547,-1.902482703460008
1790173703251978800,2.922978759765625,-0.6681964904561638,1.0270371088832615,-1.5773106920093296
1790173703262049500,2.933049560546875,0.556618568238616,-0.9618933133214712,-1.10105306994766
1790173703272121300,2.943121337890625,1.1008218915402888,-0.7801520138144493,-1.238242987805605
1790173703282193400,2.953193359375,0.8155348773628472,0.1879728873729705,-1.1238903401777147
1790173703292264400,2.963264404296875,1.7688515009969472,-0.1824257746398448,-0.3901026757184416
1790173703302336500,2.97333642578125,0.339470147524774,-0.0155015205144882,-0.2466032824527472
1790173703312408300,2.983408203125,-2.715136910820007,0.4526519978076219,-0.0841694716144353
1790173703322479400,2.993479248046875,0.6117658704429865,-0.9695037883251904,-0.1405503707343712
1790173703332551400,3.003551513671875,2.163743968275189,-1.9665338814795017,0.1425906443903222
1790173703342623500,3.01362353515625,2.1663713941693303,-0.5122159474104643,0.8394756518553942
1790173703352694500,3.023694580078125,1.4118752151370049,0.90178634288311,1.076634448810294
1790173703362766600,3.0337666015625,-1.50953596342206,0.6884323460161685,0.640168958106637
1790173703372838400,3.04383837890625,-2.45665168658942,-0.5062871418833732,-0.0256131098852492
1790173703382909400,3.053909423828125,-1.4706743178471922,-0.8686924670547247,-1.0247088120661676
1790173703392981500,3.0639814453125,1.5511469077050686,-0.4176490734875202,-2.058902953097224
1790173703403052500,3.074052490234375,0.67490826305449,1.0103063388347626,-1.1104579540874808
1790173703413124600,3.08412451171875,1.5022759092912077,0.7241255906879901,-0.2120377814355306
1790173703423196700,3.09419677734375,1.5617849138364197,0.28409634308815,0.2804630828860215
1790173703433267700,3.104267822265625,0.5366691284045577,0.1550467693269252,-0.2900836556031368
1790173703443339500,3.114339599609375,-2.0994360390156506,0.1345481711775064,-0.003320175664965
1790173703453411600,3.12441162109375,-1.2497829112127423,-0.8375304360717535,0.5893418206563219
1790173703463482600,3.134482666015625,0.8347317452639341,-1.3532248732477423,0.3651378188751638
1790173703473554700,3.1445546875,0.0472290764257311,0.0486363128751516,-0.0744077003283426
1790173703483626500,3.15462646484375,-0.167048465026915,0.2746528074383735,-0.0635264052267186
1790173703493697300,3.164697265625,0.7870224841058254,0.1729249558448791,0.5968457665456458
1790173703503769600,3.17476953125,0.034312311707437,0.1473100375950336,0.5956670050898566
1790173703513840400,3.18484033203125,0.6926607773661613,-0.6400128907620907,-0.0909358056779019
1790173703523912400,3.194912353515625,1.313428869432211,-0.481706827378273,-0.4163485853482037
1790173703533984500,3.204984619140625,0.5868661147251725,0.9579764321386812,-0.1025145632580853
1790173703544055600,3.2150556640625,0.3782107970684766,1.3141431551814078,0.1565776686886325
1790173703554127400,3.22512744140625,1.112273259881139,-0.3260837194681167,-1.1127305751945822
1790173703564199400,3.235199462890625,0.1160524372830986,-0.6289157426863908,-1.5965452615723013
1790173703574270500,3.2452705078125,-2.8123025690644976,0.2279886714190244,-0.3596133928978815
1790173703584342500,3.255342529296875,0.4647080540433526,-0.6512117456465959,-0.2202990119655616
1790173703594414600,3.26541455078125,0.4265820292666554,-1.0384522368669509,-0.7477779766932129
1790173703604485600,3.275485595703125,-1.0180343027383087,-0.3292980053395032,-0.8542620829030871
1790173703614557400,3.285557373046875,-1.614328755544126,0.3034726592093706,-0.0795073980875313
1790173703624629500,3.29562939453125,-0.4728074816077947,-0.0693541067332029,0.7905013391975313
1790173703634700500,3.305700439453125,-2.096288680900633,0.0473947883814573,0.3367510978244245
1790173703644772600,3.315772705078125,-1.798878682731092,0.1286287180006504,-0.4084948396405204
1790173703654843600,3.32584375,0.1179085865437984,0.312132935526967,-0.7925833331033587
1790173703664915500,3.33591552734375,-0.4018430170685053,1.1404881314963102,-0.8170257735077291
1790173703674987500,3.345987548828125,-2.300312539364397,1.1033756676763296,-0.9756986974425612
1790173703685058600,3.35605859375,-0.4772466330990195,0.3390297102808952,-1.87800511867702
1790173703695130600,3.366130615234375,-0.8209887588545679,0.3019616701245308,-2.2352551069118083
1790173703705202700,3.37620263671875,0.2488034959107637,0.3056459115952253,-1.475150878739357
1790173703715273700,3.386273681640625,0.7574985757187008,-0.1507528715252876,-0.2218936607458628
1790173703725345500,3.396345458984375,0.215514389771223,-0.7029623911499977,-0.812288442787528
1790173703735417600,3.40641748046875,-2.339064294824004,0.1734907730340957,-0.5356307983327656
1790173703745488400,3.41648828125,-0.8021224380820989,-0.1110959839195013,-0.0190199586979113
1790173703755560700,3.426560791015625,1.0296662883430718,0.4125204784274101,-0.4361953319927677
1790173703765631500,3.436631591796875,2.361322888383269,0.3045651306211948,-0.949406318322569
1790173703775703600,3.44670361328125,2.5798785455465314,-0.196957573339343,-1.2742037973724305
1790173703785775400,3.456775390625,-0.5147101023137569,0.0807838477641344,-0.3630457419667393
1790173703795846400,3.466846435546875,-3.474591881303489,0.1173895311057567,0.2973681683218106
1790173703805918500,3.47691845703125,-0.8619827402830124,-0.341704482448101,-0.1895366295583546
1790173703815990500,3.486990478515625,1.3351432731121775,-0.9559557399660348,-0.4540991644086316
1790173703826061600,3.4970615234375,1.5047262250527738,-0.0281236862003803,-0.8691121537715196
1790173703836133400,3.50713330078125,0.1534101080358028,0.8905325429409742,-0.6734562376152724
1790173703846205400,3.517205322265625,-1.4587980020925402,0.3053022127240896,-0.5366398292448371
1790173703856276500,3.5272763671875,-0.417770654040575,0.1075543657898902,-1.006689025120437
1790173703866348500,3.5373486328125,1.597340211342275,-1.123318970030546,-2.041905933327973
1790173703876419600,3.547419677734375,-0.0842599994421005,-0.117594113767147,-2.608282802253961
1790173703886491600,3.55749169921875,-2.048077023178339,0.1061702179551124,-1.5784689221337436
1790173703896563500,3.5675634765625,0.2710787483438849,-0.7470493701577187,-1.2215567875511943
1790173703906634500,3.577634521484375,2.919335541328788,-0.6272749897420405,-1.4272140924356878
1790173703916706600,3.58770654296875,3.408843982368708,-0.6076034900665283,-1.3320491064891218
1790173703926778600,3.597778564453125,2.2111650601416826,0.1728355239957571,-0.2374527384001761
1790173703936849700,3.607849609375,0.5693316270783543,0.6865840878009796,-0.0380303093172609
1790173703946921500,3.61792138671875,0.0964846902430057,-0.3185293585658073,-0.2055035025622695
1790173703956993500,3.62799365234375,1.8381454019755123,-1.5784095931619404,-0.9739039229802788
1790173703967064600,3.638064697265625,1.0351011728733777,-0.7695961330085992,-1.3735845013178885
1790173703977136600,3.64813671875,2.3907237549126146,0.7477893748700618,0.0521701860897243
1790173703987207400,3.65820751953125,3.824006499737501,0.9779226571023464,0.4571467519436031
1790173703997279500,3.668279541015625,3.0701234841674565,0.601826075708866,0.1360133483592421
1790173704007351600,3.6783515625,-0.5433718409135937,-0.6680331165879965,-0.4211034517250955
1790173704017422300,3.68842236328125,-2.7009306908130646,-2.178876655477285,-0.5493574911944568
1790173704027494400,3.698494384765625,-5.984856500136852,-1.868542293804884,0.10916099726893
1790173704037566500,3.70856640625,-4.417729348489642,-1.6223580404818057,-0.5094662833761423
1790173704047637500,3.718637451171875,3.93314842697978,-1.7753578141510489,-2.179845208248496
1790173704057709600,3.72870947265625,5.335584782642126,0.9861737680971622,-2.596707515272498
1790173704067781400,3.738781494140625,1.792759323067963,3.439391096323728,-1.822976182155311
1790173704077852400,3.748852294921875,-1.1846104740783572,2.255160269212723,-0.7717529457163065
1790173704087924500,3.758924560546875,-5.465948946133255,-0.4295551998585462,-1.1634056273557245
1790173704097995500,3.76899560546875,-6.63729398818612,-3.4875247203737496,-2.7344524366647005
1790173704108067600,3.779067626953125,-2.8462939782544967,-3.140691058343649,-3.1107211597546933
1790173704118139400,3.789139404296875,-1.2318959568664432,-1.9073890340715645,-2.8612413720175622
1790173704128210400,3.79921044921875,1.6644988538578152,-0.1226794542074203,-1.9173928339526056
1790173704138282500,3.809282470703125,4.377256468325853,2.2824778997272253,-1.23245154492259
1790173704148354600,3.8193544921875,4.878274145373702,2.119929960989952,-1.4394839375525712
1790173704158425600,3.829425537109375,-1.6722525367245078,0.7649269721537828,-1.256738867830485
1790173704168497700,3.83949755859375,-5.503668143674731,-0.8208440896868705,-0.0184068135019391
1790173704178569500,3.849569580078125,-4.380244836486876,-1.3565414504498243,-0.0622136603940278
1790173704188640500,3.859640625,1.8147510823845865,-3.0347996573299167,-0.7490271730367094
1790173704198712600,3.869712646484375,3.0308254930019376,-1.0554109704524277,-1.1240589747428893
1790173704208783600,3.87978369140625,0.099184596851468,2.042101455900073,-0.2449330111529677
1790173704218855700,3.889855712890625,-2.975950577998161,2.700909648025036,1.5902818172633646
1790173704228927500,3.899927490234375,-4.672836912980675,0.7551765625119209,1.2197035608999431
1790173704238998500,3.90999853515625,-1.100357196637988,-1.831627398383617,0.9065119101002812
1790173704249070300,3.9200703125,2.2784806467846037,-1.264671560525894,0.5686739668872207
1790173704259142700,3.930142578125,3.626285540810227,1.135762272018194,0.8722769744779915
1790173704269213400,3.94021337890625,1.3249801910161971,3.5417087305039163,1.493297068543732
1790173704279285000,3.950284912109375,-1.004559319615364,2.987657966926694,0.5309614182822406
1790173704289357000,3.960357177734375,-1.0569693058103322,0.7421434779375791,0.4345188136152922
1790173704299428000,3.970427978515625,-0.243638660493493,-1.2142489487558603,0.5809734034247696
1790173704309500000,3.9805,-0.4023518433734774,-0.0941512788593769,0.0458089804947376
1790173704319571000,3.990571044921875,1.4887787143364548,0.2325198851078748,-0.2782658833689987
1790173704329643000,4.00064306640625,0.6189677646458148,0.837027747246623,-0.1467226661611348
1790173704339715000,4.010715087890625,-2.55809809089303,2.074711347603798,-0.8188116340111941
1790173704349786000,4.0207861328125,-1.145794421210885,0.7569716292351484,-1.1720722603488714
1790173704359858000,4.03085791015625,3.605511632850766,-0.875189427858591,-0.6607074498750269
1790173704369930000,4.040929931640625,2.2435303294345736,-1.0897253279864787,-0.7406836345180868
1790173704380000800,4.051000732421875,0.5489043405994772,-0.3076180884510278,-0.8552460524391382
1790173704390072800,4.06107275390625,-5.069870483940839,1.758991201239824,-1.028856433264911
1790173704400145200,4.071145263671875,-2.7889649480968712,0.5543903707951306,0.1824172990724444
1790173704410216000,4.0812158203125,2.174540087577701,-1.2533610619604587,0.6811817173007876
1790173704420287700,4.091287841796875,1.3866755996897815,-0.3895733180820941,0.5886167212521657
1790173704430358800,4.10135888671875,-0.2604080089867115,-0.4298328477561474,-0.2578790750309824
1790173704440430800,4.111430908203125,-0.1922907505720853,-1.039382795715332,0.4248561187895014
1790173704450503000,4.1215029296875,-1.8613748863935469,-0.3437643375873565,0.953781756927818
1790173704460574000,4.131573974609375,1.1876362516403198,-2.5782617579996585,0.8044799609936774
1790173704470646000,4.14164599609375,2.2695395076990126,-2.3366309301972388,0.3825971589265391
1790173704480717800,4.1517177734375,-1.6038348340585826,-0.7957587482690811,0.2668316122934222
1790173704490788900,4.161788818359375,-0.3217518277436494,-0.8851771533876657,-0.1474851384336128
1790173704500861000,4.17186083984375,0.9315934521257876,0.8406628888785839,0.2489846976965665
1790173704510933000,4.18193310546875,0.1752437541812658,1.2524749267756938,-0.2045955026055686
1790173704521004000,4.192004150390625,2.5657228866830466,-0.6069692838162183,-1.2210006149731576
1790173704531075800,4.202075927734375,0.949856838569045,-0.3654892626613378,-1.1217601962812245
1790173704541147000,4.21214697265625,-1.842282647910714,0.2591670690149069,-0.6589634557519107
1790173704551219000,4.222218994140625,-0.2022463273972272,-0.8762900825768709,-1.0373891376800837
1790173704561291000,4.232291015625,-0.1222413550511002,-0.3985258553445339,-0.5798665746940299
1790173704571362000,4.242362060546875,-0.2105062062203884,1.268026716172695,-0.1463691856815014
1790173704581434000,4.25243408203125,0.523361610803008,1.462206056970358,0.4301620797105133
1790173704591506000,4.262505859375,0.4596797044873237,0.9071955084502696,0.5529612147748469
1790173704601577000,4.272576904296875,-1.2025962126240133,0.6189853003025054,1.009030400614813
1790173704611649000,4.28264892578125,-1.7238982605487108,0.2085369519740343,0.8728511211041361
1790173704621721000,4.29272119140625,0.7435135972470045,-0.2461409987032413,1.096617644783482
1790173704631791900,4.3027919921875,2.800522699421644,-0.1098959604799747,1.810736001524329
1790173704641864000,4.312864013671875,2.018647515076399,1.3309621880352496,1.7715918857462702
1790173704651935000,4.32293505859375,0.8294067508488893,1.0661521446973086,1.1926308450572192
1790173704662006800,4.3330068359375,1.2769371678590773,-0.0513823967128992,1.3995299666963517
1790173704672078800,4.343078857421875,-1.735496343883872,0.3550508707553148,1.4007795283660291
1790173704682150000,4.35314990234375,-1.4289929386764764,-0.4610311190962791,0.616071166421473
1790173704692222000,4.363221923828125,0.1987526400625705,-1.7848118711948393,1.0188888006757943
1790173704702293800,4.373293701171875,-1.4746195483416318,0.2013373958587646,1.4380024668231606
1790173704712364800,4.38336474609375,-0.4561845558479428,0.4565232862830162,0.465230507014878
1790173704722436900,4.393436767578125,2.091193988110125,-0.3998509664684533,0.6239904151134192
1790173704732508000,4.4035078125,1.6980030640527606,0.5534568893373012,1.099908722218126
1790173704742580000,4.413580078125,1.6506427624627946,0.3943810106247663,1.250502311528474
1790173704752652000,4.423652099609375,0.5219043977320194,0.1122170969039201,1.283969989105314
1790173704762723000,4.43372314453125,-0.7309852473244071,-0.6156383279621601,1.7113747329317033
1790173704772795000,4.443794921875,-0.0591828413307666,-1.1011311036199332,1.8075442197456957
1790173704782867000,4.453866943359375,0.4007397320017218,-1.3205009997755288,1.0407523305028676
1790173704792938000,4.46393798828125,1.6878800217062233,-1.840952860611677,-0.0650523178860545
1790173704803010000,4.474010009765625,-0.688797087675333,-0.674533584523201,0.7467965644404292
1790173704813081900,4.484081787109375,-0.167615451259911,0.0525993712872266,0.8860187918435781
1790173704823153000,4.49415283203125,0.3179980281680822,-0.295689165726304,0.4655675204169004
1790173704833225000,4.504224853515625,1.176583527228236,-0.5355144054114819,0.9171099495474248
1790173704843296000,4.5142958984375,-0.593200578443706,0.8458499361276626,0.5545875738676637
1790173704853368000,4.5243681640625,-0.296026727117598,0.1196428629904985,-0.0302224120453
1790173704863440100,4.534440185546875,0.6269809752315283,-0.1863502546072006,0.0331883491788059
1790173704873511000,4.544510986328125,-0.2242991692513227,1.0700433069169522,-0.0470431253995746
1790173704883582700,4.554582763671875,-1.0331848178580405,1.4449422029584644,0.0141503251012414
1790173704893654800,4.56465478515625,-0.6688762894138693,0.1352875913679599,-0.0850355138592422
1790173704903725800,4.574725830078125,-0.5938809619233012,-0.0978770213842391,-0.4005716088932007
1790173704913798000,4.5847978515625,-1.167769229392707,0.3983914153099059,-0.6734372406538576
1790173704923870000,4.594869873046875,-1.2255524330586194,-0.4682067098140716,0.1954289024673402
1790173704933941000,4.60494091796875,-2.4005361238747835,0.0800976190656423,0.6615523032013326
1790173704944012800,4.6150126953125,-2.54069804328084,0.6247627146601676,0.578215190757811
1790173704954083800,4.625083740234375,-1.049377243246138,0.5749444985240697,-0.0851077023126185
1790173704964156000,4.635156005859375,0.8570312553554773,-0.3357645710051059,-0.04891439916417
1790173704974228000,4.64522802734375,1.281954703760147,0.2389139700591564,0.14019713684991
1790173704984299000,4.655299072265625,-0.3707043669611215,0.9291671017616988,0.1412470842942595
1790173704994370800,4.665370849609375,-0.1440355459690094,0.6847492735892534,-0.1702184733651578
1790173705004443000,4.67544287109375,-1.9083947039827704,-0.2140145066022872,-0.649672991771996
1790173705014514000,4.685513916015625,-0.883766702067852,-1.0534797101289033,-0.2746880248822271
1790173705024586000,4.6955859375,-2.313116199097037,-0.3627408407360315,0.1960031952239573
1790173705034657000,4.705656982421875,-0.689089933142066,-0.1225076047718524,-0.2106824395701289
1790173705044729000,4.71572900390625,0.3426970006167888,0.2946253358870744,-0.0480282639794051
1790173705054801000,4.72580078125,2.926761307415366,-0.7378741300553083,-0.5026752349965274
1790173705064872000,4.735871826171875,2.2968229436829684,-0.4987888950824737,-0.4131311576716601
1790173705074944000,4.745944091796875,0.1774348344847559,-0.6108049164563417,-0.0206045427419245
1790173705085016000,4.75601611328125,-0.0857300719946622,-0.5865946043074131,0.1192361818857491
1790173705095087000,4.766087158203125,-0.339554026415944,-0.634603725194931,-0.0860790315628051
1790173705105159200,4.7761591796875,-0.5474854137122631,-1.3070008822113277,-0.3327833632372319
1790173705115231000,4.78623095703125,-0.0622656097769737,-1.714655215907097,-0.850894798427075
1790173705125301800,4.7963017578125,-0.3700111239999532,-0.9183516932368276,-1.0659102987654507
1790173705135373800,4.806373779296875,1.7240256863206624,-0.5054138661801815,-0.8180594274044036
1790173705145444900,4.81644482421875,1.4206640862703324,-0.3191016054958105,-0.3849848943132907
1790173705155517000,4.826516845703125,0.2251893960893154,0.4617506655424833,0.4115737721618264
1790173705165588700,4.836588623046875,-0.7977344322562218,0.1125479362934827,1.0438816415045409
1790173705175659800,4.84665966796875,0.1986222916811704,-0.8549187932461499,0.1155400307815521
1790173705185731800,4.85673193359375,0.3537619999885559,-0.7050251688987016,-0.0910855346132069
1790173705195804000,4.866803955078125,0.5791425347357988,0.8047270676225423,0.3474113888528198
1790173705205875000,4.876875,3.52784445580244,0.2293663895130157,0.6292184519600122
1790173705215947000,4.886947021484375,3.2709722197264437,0.4349906689107418,0.7119242807626723
1790173705226018800,4.897018798828125,1.8704209471583368,-0.1989899559497833,1.2300247561670838
1790173705236089900,4.90708984375,-1.0862941844940186,0.0594043751269578,1.1456728406578305
1790173705246162000,4.917161865234375,-0.8556967918813229,-0.3154775697797536,1.669685901106894
1790173705256233000,4.92723291015625,-0.5376873655363917,-0.3796574887454509,1.4092752617716788
1790173705266305000,4.937304931640625,-0.6250257495105266,0.0865484026402235,1.836542789084464
1790173705276377000,4.947377197265625,0.2097054112315177,-0.757166275024414,1.752193503923714
1790173705286448000,4.9574482421875,-0.1600508612245321,-0.4104717292040586,1.1950989887364207
1790173705296520000,4.96752001953125,-1.3547282635480165,0.3976847283452749,1.542477279037237
1790173705306592000,4.977592041015625,1.3375427354693412,-0.4118745817393064,0.7584190515644847
1790173705316663000,4.9876630859375,1.9841472795814277,0.456635514485836,0.0110159725982695
1790173705326735000,4.997735107421875,0.3906222426131367,1.2408587232619523,0.3647806760005653
1790173705336806100,5.00780615234375,2.105663535228372,-0.5403881489276886,-0.3327248379830271
1790173705346878000,5.0178779296875,0.7193821955531835,-0.7409083831846713,-0.954253831418976
1790173705356950000,5.027949951171875,-2.1941990200325847,-0.0116623807430267,-1.0843083444390444
1790173705367021000,5.03802099609375,-0.0478296726673841,-2.031735544708371,-1.9063097144022585
1790173705377093000,5.048093017578125,0.2665957577109337,-1.589666315713525,-1.896022713665664
1790173705387165200,5.058165283203125,-0.5778203462213277,0.4093120377749204,-0.5945039161272346
1790173705397236200,5.068236328125,-0.576546088501811,0.5626911661505699,0.3278022868890315
1790173705407308000,5.07830810546875,0.735869804495573,0.036098902863264,-0.6086779143650084
1790173705417380000,5.088380126953125,-0.6622638855367898,1.0441156694561242,0.2706859496340155
1790173705427451100,5.098451171875,-1.0964885385110974,0.0150958623230457,-0.7211387568969279
1790173705437523200,5.108523193359375,-1.6310197781041265,-0.1787654985666275,-0.8557876119699329
1790173705447594200,5.11859423828125,0.265910698056221,0.1058615903973579,-0.4961524821642786
1790173705457666000,5.128666015625,2.1188205384433267,0.2897434090644121,-0.5804962143670768
1790173705467738000,5.138738037109375,0.4448123902231454,-0.0570177722513675,0.0572607872270047
1790173705477809000,5.148808837890625,-0.7107868011653423,-0.5523170716524124,0.4085642881475388
1790173705487881000,5.158880859375,-0.0673778382241725,-0.5259779307812452,0.3878124458894133
1790173705497953300,5.168953369140625,-0.5131505979120731,-0.214712425738573,0.3132914579123258
1790173705508024000,5.179024169921875,0.0979872037604451,0.5601344674050808,0.5241682510107756
1790173705518096000,5.189095947265625,-0.5857938093185424,1.0904776076585054,1.2101545921143144
1790173705528167000,5.1991669921875,-0.5364899724453688,1.114488597843051,1.3202686523243783
1790173705538239000,5.209239013671875,-0.4622442942783236,-0.2239776822119951,0.179591574127227
1790173705548311000,5.21931103515625,0.3645256783261895,-0.6390156964182854,-0.0546183829594403
1790173705558382000,5.229382080078125,-2.035139800193906,0.2272784773230552,0.6278823810506612
1790173705568454100,5.2394541015625,-0.5088257204502821,0.1004091702103614,0.3392750633440911
1790173705578526000,5.24952587890625,1.5823255975618955,-0.0598760842919349,0.6902168182801455
1790173705588597000,5.259596923828125,0.197582427239418,0.3919266032099723,0.9106767746947704
1790173705598669000,5.2696689453125,-2.478650460168719,1.0065256512522698,1.0537539970256389
1790173705608740000,5.279739990234375,-1.0069701801493762,-0.0966582932442426,-0.0613188304461538
1790173705618812200,5.289812255859375,-0.6188122818231582,-0.1415413910657167,-0.3146905841205269
1790173705628884000,5.299884033203125,-1.2267629778921605,0.2745797422021627,-0.1878976301796734
1790173705638955000,5.309955078125,-0.3287225435391068,0.2867716997772455,-0.227833261661604
1790173705649027000,5.320027099609375,0.0544651651591062,0.213761408624053,-0.6956262030430138
1790173705659099100,5.33009912109375,0.3051502370327711,0.3011807488799095,-1.0810834641084075
1790173705669170200,5.340170166015625,0.2886298948645591,-0.2193640509366989,-0.8942815202109515
1790173705679242200,5.3502421875,0.74536828520298,-0.1822527561604976,-2.083879281182587
1790173705689314000,5.36031396484375,-0.0255178876161575,-0.2683680280804634,-2.443993865068257
1790173705699385000,5.370385009765625,0.0812690009325742,-0.3248024474859237,-1.3828727002754806
1790173705709457200,5.38045703125,-1.3723100974678992,-0.4289981504976749,-0.951145709335804
1790173705719528000,5.39052783203125,-0.2978808305516839,-1.106726147148013,-0.4549563292272389
1790173705729600000,5.40060009765625,0.5651864900976419,-0.3459276531010866,-0.4788274725496769
1790173705739672000,5.410672119140625,1.6972475695103406,0.0175642982631921,-0.3510371416019275
1790173705749743000,5.4207431640625,-0.3290180193543434,0.3202724028408527,0.2120951559122651
1790173705759815000,5.43081494140625,0.1489130888774991,-0.8977490501910448,0.2646079083619639
1790173705769887000,5.440886962890625,0.528909892579913,-1.0548217723876236,1.1052879310384391
1790173705779958000,5.4509580078125,0.6691799485355615,-0.7386632346063852,0.9992278954595328
1790173705790030000,5.461030029296875,1.336746908916533,-0.5332639961361885,1.3527696768261492
1790173705800101000,5.47110107421875,2.160966612516344,0.3034223903268575,0.9528710718236864
1790173705810173000,5.4811728515625,3.309656170646846,1.0499456907838582,0.1411638995228335
1790173705820245000,5.491244873046875,0.6671370445311069,1.138214925867319,0.4280324838032945
1790173705830316000,5.50131591796875,-3.3557594579130408,0.7748550764501094,0.6153695209581405
1790173705840388000,5.51138818359375,-4.056755517426133,-0.7637146737545728,-0.2056084242414683
1790173705850460200,5.521460205078125,0.9946259546220302,-2.3439953214854,0.1253839273931458
1790173705860531200,5.53153125,3.742597505812346,-1.2438140659362078,0.17116192822773
1790173705870603000,5.54160302734375,1.0864362233132123,0.9508160389900208,1.2325047364145516
1790173705880675000,5.551675048828125,-1.188355798086524,2.323749236792326,0.1863879745353944
1790173705890746000,5.56174609375,-3.5549484435662624,1.397018422266841,-1.342917998766899
1790173705900818200,5.571818115234375,-0.5808633671790361,-0.9425339483350514,-0.4482432049220428
1790173705910889200,5.58188916015625,2.152703518822789,-1.274770929735899,1.3745875408805903
1790173705920961000,5.5919609375,1.4691954774662852,0.0591156213134527,1.4832602431759236
1790173705931033000,5.602033203125,-0.4374257871031761,0.516806197810173,-1.398691031654179
1790173705941104000,5.612104248046875,-1.3879641781955956,0.0492687655597925,-1.4884958057418465
1790173705951176200,5.62217626953125,-0.7465285611540079,-0.4139069643497466,-0.3074623133674263
1790173705961248300,5.632248291015625,-0.0079494976997375,-0.1252934360980987,-0.0990432886846363
1790173705971319000,5.642319091796875,-1.9251701899558304,0.0881967543691396,0.5099136618174612
1790173705981390800,5.652390869140625,-3.405695162948966,0.4440881676018238,-0.5604899297792464
1790173705991462000,5.6624619140625,-0.8940887741178274,-0.6207715991973877,-1.311806967318803
1790173706001534000,5.672533935546875,3.736774206486344,-1.7013783857047555,-0.8632849089227617
1790173706011606000,5.68260595703125,2.3602511674985287,1.0594096846997738,0.3398131888087838
1790173706021677000,5.692677001953125,-0.1808288608372211,1.5252461582511665,-0.3620149010816589
1790173706031749000,5.7027490234375,-1.665582849702239,-0.2924742953330278,-0.5921800032243132
1790173706041821000,5.712821044921875,-2.5980887404978272,-0.8421990124046802,-0.0111976219086442
1790173706051892000,5.72289208984375,0.9770610718369483,-1.2480799066871404,0.2630924805640243
1790173706061964000,5.732964111328125,3.949497504234314,-0.7794862433820963,0.2054599374151788
1790173706072035000,5.74303515625,-0.7888058603912591,1.8666905284583568,0.3995632355682552
1790173706082107100,5.753107177734375,-3.0854519862025973,1.745969807103276,-0.5520099784646183
1790173706092179000,5.763178955078125,-1.2196700970217584,-0.1249836394965648,0.2511292902435176
1790173706102250000,5.77325,2.5661089633911844,-1.167588904389739,0.7479922770310193
1790173706112322000,5.783322021484375,2.0932593962073325,0.4229086014509201,0.0450962519483873
1790173706122394000,5.79339404296875,-0.7895429424941539,1.549156026148796,-1.6887617729768156
1790173706132465200,5.803465087890625,-1.4438047233611344,-0.2943085250228643,-0.2998641498560085
1790173706142537200,5.813537109375,-0.5847323175668716,-0.3531324699133634,0.0765975293896626
1790173706152608300,5.823608154296875,-2.269139110204577,0.6850549785375595,0.4628847110737115
1790173706162680000,5.83368017578125,1.3154916471809148,-1.0391466488718986,-0.2048310283944941
1790173706172752100,5.843752197265625,0.8641077696129679,-0.388689520984888,0.2636083028653636
1790173706182823000,5.853822998046875,-2.341475155358016,0.683493136048317,-0.9610953678768128
1790173706192895200,5.863895263671875,-0.3954261357635259,-0.6265601194709539,-2.58782570515871
1790173706202967000,5.873967041015625,1.6935194888979197,-0.7474263867765665,-0.988846494437754
1790173706213038000,5.8840380859375,0.0827767751470208,0.5675257467001676,0.5373162306690589
1790173706223110000,5.89410986328125,-1.0666092408150434,0.5962684415817261,0.1125247380809858
1790173706233181000,5.904180908203125,0.4195154518812894,-0.10811433776021,-0.9153335144594312
1790173706243253000,5.9142529296875,0.2285357839077711,-0.6133744746834039,-0.2830507247590459
1790173706253325000,5.924324951171875,-1.2799474555909631,0.0298205532461404,-1.176578193465993
1790173706263396000,5.93439599609375,-2.372659398172796,0.8077478767484426,-1.1044177971404046
1790173706273468200,5.94446826171875,0.4680965274378657,0.2180693349510431,-0.7745837121628224
1790173706283540200,5.954540283203125,2.169350994502008,-0.1116430964082479,-0.1268113481140695
1790173706293611300,5.964611328125,0.769120916712284,0.4998410344839096,-0.2407971899898722
1790173706303683300,5.974683349609375,-3.863181741306185,0.382947177940607,0.5579018860474229
1790173706313754400,5.98475439453125,-6.711856184956431,0.1851204205513,0.235942352103535
1790173706323826400,5.994826416015625,-1.2323650356829166,-1.4082225378483533,-1.4860161177553235
1790173706333898200,6.004898193359375,2.6033587898552417,-0.7302145552128553,-0.1529062136342749
1790173706343969300,6.01496923828125,3.575135783809423,0.9650690207481384,0.398048995080404
1790173706354041300,6.025041259765625,1.3842144702732562,2.237158164054155,0.9800218213386832
1790173706364113400,6.035113525390625,0.7240589551925659,1.2277063962221144,-0.1407733658352866
1790173706374184400,6.045184326171875,-2.511521633157134,0.1868172875970602,0.2448383734057657
1790173706384256300,6.05525634765625,-3.165838359081745,-0.6167196934580803,-0.2901215764607303
1790173706394328300,6.065328369140625,-1.0006959221854803,-1.5109750563144684,-0.5919856131633743
1790173706404399000,6.075399169921875,0.9251774476036428,-0.529014521998167,-0.2416871610995382
1790173706414471200,6.08547119140625,2.116919673258066,0.1796902121961116,0.6703334294196218
1790173706424542200,6.095542236328125,0.8030223095312714,0.0596282470107078,0.2333240410976111
1790173706434614300,6.1056142578125,-1.4973133184477685,0.2971481323629617,-0.3386005250833928
1790173706444686000,6.11568603515625,-4.007632297816873,1.4749299294650553,0.5172531378600747
1790173706454757000,6.125757080078125,2.0634841434076425,-0.7051783136337995,0.1951908741940744
1790173706464829200,6.1358291015625,6.614772359776497,-1.8178519710093732,0.5948230650790035
1790173706474901200,6.1459013671875,0.1308724052742123,1.6334423290759323,-0.2567395496070385
1790173706484972300,6.15597216796875,-2.641620131449401,1.141432134348154,-1.1802057363133878
1790173706495044400,6.16604443359375,-0.8454661975070834,-1.7339900309741496,-0.5228166902713477
1790173706505115400,6.176115478515625,-3.1330706464678046,-0.3213701349496841,0.2137806795801036
1790173706515187200,6.186187255859375,0.7710615293860436,-0.8988175562053918,-1.418305248184502
1790173706525259300,6.19625927734375,3.70881623224169,-0.6758318076401949,-0.1142340627495199
1790173706535330300,6.206330322265625,-0.7896443570420145,1.7078163097977637,0.7829789808686822
1790173706545402400,6.21640234375,-3.082751495072245,0.941003670027852,-0.6357029916737228
1790173706555474200,6.22647412109375,0.4207914631664752,-1.8910913947433232,-1.2368525563605128
1790173706565545200,6.236545166015625,-0.4877408468455076,-0.7595078697144985,-0.2643231366038322
1790173706575617300,6.2466171875,1.5952970150768755,0.9868471373140812,-0.0730524497944861
1790173706585688300,6.256688232421875,3.749242058393359,0.2538847446978092,-0.0137793089649174
1790173706595760400,6.266760498046875,1.9564631538420916,0.0362707522988319,0.8198324284262954
1790173706605832400,6.27683251953125,-2.8327473912000656,-0.2456961775451898,-0.7211712709270417
1790173706615903500,6.286903564453125,-2.983978109370172,-0.7187526654779911,-2.117532690589875
1790173706625975300,6.296975341796875,0.9122413936629892,-0.9760878428906202,-2.293759756720066
1790173706636047400,6.30704736328125,1.4570800922587512,0.0126870476156473,-0.9022603170704095
1790173706646118100,6.3171181640625,-1.1526681063726545,0.6600882950633764,0.003756868315488
1790173706656190200,6.327190185546875,-0.5938491054803132,0.2597866622179746,-0.5928679854884743
1790173706666261200,6.33726123046875,2.452339960870147,-1.808032003262639,-0.5612642386199906
1790173706676333300,6.347333251953125,1.5278452348336578,-0.2758826414942741,-0.2899406304032542
1790173706686405000,6.357405029296875,0.5878709078535437,0.5862374614328145,-0.8149182067692279
1790173706696476200,6.36747607421875,-0.2336690551429986,-0.5047668004482985,-1.0887861474402247
1790173706706548200,6.37754833984375,1.3052554998487234,-0.6502665737509727,-0.033138116828911
1790173706716620300,6.387620361328125,-1.846670945997536,1.173787759029865,0.7528824602253734
1790173706726691300,6.39769140625,-1.6098919421404598,0.5240338109761477,-0.0938656851173378
1790173706736763100,6.40776318359375,0.5096902283251286,-0.6792518452167511,-0.1826210597499273
1790173706746834200,6.417834228515625,0.4800204817265271,0.5380424625843763,0.0814458736031316
1790173706756906200,6.42790625,-0.7165954874441027,0.8458516896933317,-0.9220647224105896
1790173706766978300,6.437978271484375,0.4392959648892283,-0.0455722491294145,-0.2287290414575487
1790173706777049300,6.44804931640625,0.3329541897594928,-0.5858288806319236,0.0908240706654265
1790173706787121400,6.458121337890625,-3.470448497888446,1.1686790377140044,0.0175219934914261
1790173706797193200,6.468193115234375,-3.1515853773236278,0.5620575444221496,-1.4102603272862733
1790173706807264300,6.47826416015625,1.2174258252263068,-1.4310960484355688,-1.6590391271471976
1790173706817336300,6.48833642578125,0.2229138523727655,0.4368938721835613,-0.1025991728016175
1790173706827407400,6.498407470703125,-3.868091432918608,2.4831559548944235,0.3544478633608668
1790173706837479400,6.5084794921875,0.3875622705206274,-0.0142594114989042,-0.0756842596028
1790173706847551200,6.51855126953125,2.2188637979507444,-1.2514175266772507,1.185636602255702
1790173706857622300,6.528622314453125,-1.48793904864192,1.0402683463782072,-0.0692226258406415
1790173706867694300,6.5386943359375,-2.329184121322632,0.6268646553754806,-0.6588621142692863
1790173706877766400,6.548766357421875,-2.0356530104130504,0.064191609403491,0.013797730537597
1790173706887837200,6.558837158203125,-3.924382644461095,0.6676467476189136,0.0233469185189343
1790173706897909200,6.5689091796875,-0.662265639102459,-0.6487976702421904,0.3248266320791095
1790173706907980300,6.578980224609375,3.980093718028068,-1.162709900176525,0.93002978300564
1790173706918052000,6.589052001953125,1.9840140085905789,1.6301912183254956,1.1633293472491204
1790173706928124200,6.599124267578125,0.2764119260653853,2.323636424067616,-0.1571917089337483
1790173706938195200,6.6091953125,0.5876432365775108,0.8733926075696945,-0.7123005667291581
1790173706948267300,6.619267333984375,-1.200830664256215,0.1746381895035505,-0.3238003577712923
1790173706958339300,6.62933935546875,-3.4528210712611678,-1.200892039054632,-1.6473481048315763
1790173706968410400,6.639410400390625,-3.2184847843810918,-1.4963853899478912,-1.9555932391397652
1790173706978482200,6.649482177734375,-2.71913182567507,-0.1633697765141725,-0.3325281828997656
1790173706988553200,6.65955322265625,1.7958318623811005,-0.1256535015821457,0.3685231139319017
1790173706998625300,6.669625244140625,3.093948011869192,-0.1561234586477279,0.6696555301580578
1790173707008697300,6.679697265625,1.6027382709935307,0.6765864253997802,0.3035295222294517
1790173707018768400,6.689768310546875,-1.2208783037677406,0.8392021686762571,1.2455382593803106
1790173707028840200,6.699840087890625,-0.980249054223299,0.279674434992671,0.9461172136493028
1790173707038912300,6.709912353515625,1.6761135960668323,-1.8229250364899636,0.2597416174998507
1790173707048983300,6.7199833984375,2.044853677217662,-1.2155974407553671,0.5167316712692379
1790173707059055400,6.730055419921875,-0.6506921056866646,1.000278865817189,0.1389506621864624
1790173707069126400,6.74012646484375,0.1294429569929838,-0.1487368555277586,-0.5610355809632689
1790173707079198500,6.750198486328125,1.3424620716929434,-0.4108136745095253,0.4304888639794662
1790173707089270300,6.760270263671875,0.6728162592113017,0.2108312003910541,0.4253418199472129
1790173707099341000,6.770341064453125,-0.4652057744324207,-0.1592307770133018,1.149891627396643
1790173707109413400,6.780413330078125,-2.715902049973607,0.408369203966856,1.063971585787833
1790173707119485400,6.7904853515625,-2.473547584071756,0.4263818305194378,0.354856151900813
1790173707129556200,6.80055615234375,1.8377157783865927,-1.625887968173623,0.578634183354862
1790173707139628300,6.810628173828125,1.598338282468915,0.3930728506356477,0.3790951421549544
1790173707149699300,6.82069921875,2.887622890725732,0.8343921380460262,0.2724144904596731
1790173707159771100,6.830771240234375,1.3361843065977097,0.5989192483514547,1.2069058925166725
1790173707169843200,6.84084326171875,-2.0861030947119,0.5704249752730131,0.6470388438761234
1790173707179914200,6.850914306640625,-0.1851923167437315,-1.9340309572815892,0.1112319765903987
1790173707189986300,6.860986328125,1.3505188291594383,-0.8954676612555981,0.4823101270336657
1790173707200057300,6.871057373046875,1.1412950639650226,0.3251478999227285,1.4329521976962685
1790173707210129200,6.881129150390625,-1.035018463025987,1.195019347628951,1.200484481167048
1790173707220201200,6.891201171875,-0.7603297074913978,-0.4644879815518856,0.5878307950388639
1790173707230272300,6.901272216796875,1.3105521449521182,-2.1326555870503188,1.4279913604184984
1790173707240344300,6.91134423828125,1.0665057804405689,-0.8129144657313824,1.307405517489463
1790173707250416400,6.92141650390625,0.3907897081345319,0.1861380731612444,0.5206456663751975
1790173707260487400,6.9314873046875,0.8021306213885545,0.2144417921036481,0.7997861771542578
1790173707270559200,6.941559326171875,1.7309943562895058,0.882134716951847,1.1004474322047084
1790173707280630300,6.95163037109375,-0.1165092411398887,1.817352204793692,-0.3759781791782006
1790173707290702300,6.961702392578125,-1.0369102681219575,0.5572060127377509,-0.8848745902445166
1790173707300774400,6.9717744140625,-2.208414300128817,-0.0800076026946306,-0.311318477338925
1790173707310845400,6.981845458984375,-2.920843023282289,0.4535878173530101,-0.9677449619591236
1790173707320917200,6.991917236328125,-0.5149348509803414,-0.4405804517418146,-3.1197944007873533
1790173707330989300,7.0019892578125,0.7604296607345342,-0.7203478257149457,-1.604266503474116
1790173707341060400,7.012060302734375,-1.3875190647765994,1.470872178506851,-0.4841087008882314
1790173707351132400,7.02213232421875,-3.5158901063755152,1.7168004112422466,-1.1592790489450095
1790173707361203200,7.032203125,-1.0741527880623936,-0.3314554756343364,-1.6817396192550658
1790173707371275500,7.042275634765625,-0.2678320215076208,-0.7256073536783456,-1.1033118817251175
1790173707381347300,7.052347412109375,-1.232427579525113,0.0278928000539541,-0.5171488007027656
1790173707391418000,7.062418212890625,-0.4885647304490208,-0.0412497097551822,-0.8426724020700901
1790173707401490200,7.072490234375,0.8642600375652313,0.2540402275204658,-0.7348739253260195
1790173707411562200,7.082562255859375,0.16775719781816,0.0778559776186943,-1.1422047261558472
1790173707421633300,7.09263330078125,-0.3574561783313751,-0.3999550113648176,-0.6044948565267027
1790173707431705300,7.102705322265625,-1.509991598235071,-0.3777741592168808,-0.2189910163732245
1790173707441776400,7.1127763671875,-1.837079234048724,-0.3448386888206005,-0.9072910777792336
1790173707451848200,7.12284814453125,0.7158379470750689,-1.1850912433326244,-1.988221104891598
1790173707461920300,7.132920166015625,2.4233286781802774,-0.8822638962894678,-1.5560089607834815
1790173707471991300,7.1429912109375,1.8347642351046205,0.4536462695419788,-0.2017513834871351
1790173707482063400,7.1530634765625,1.019926984617114,0.842546218407154,-0.3646421808453277
1790173707492135200,7.16313525390625,-0.7758008328676224,1.2428905213505028,-1.5280097777456043
1790173707502206200,7.173206298828125,-1.703220214179158,0.123140641978383,-2.2168138796836137
1790173707512278300,7.1832783203125,1.0049737456351515,-0.723497229656577,-1.7137456998467444
1790173707522349300,7.193349365234375,0.4524509222775697,0.3609820143699646,-0.6759483466919511
1790173707532421400,7.20342138671875,-0.2863707177609205,0.4564543127000331,-1.710341152100265
1790173707542493400,7.213493408203125,-2.46787918304652,-0.101579383033514,-2.0076316155433656
1790173707552564500,7.223564453125,-2.603115044227242,0.1364852767199277,-1.2801884247399866
1790173707562636300,7.23363623046875,-1.7628250803142784,0.4676648580223321,-0.3839257041165605
1790173707572708400,7.243708251953125,1.1821049209982155,0.098321258020401,0.4002975411921739
1790173707582779400,7.253779296875,2.2894810564875603,0.6640986997485161,0.5920238993471488
1790173707592851500,7.2638515625,0.4041770129740238,1.1361661766439677,0.0209306374577106
1790173707602922200,7.273922119140625,0.9009364480555055,0.0284656315058469,-0.4236124023387208
1790173707612994300,7.283994384765625,-0.8730249433010816,-0.8009984024882316,0.3411137134807184
1790173707623066400,7.29406640625,-2.0424431089445947,-0.283100317788124,-0.2956907000962644
1790173707633137200,7.30413720703125,0.0690302816063165,-0.8106932825505733,-1.217670155376196
1790173707643209200,7.314209228515625,-0.5264391185522079,-0.3195809134453535,-0.6186297648631036
1790173707653280300,7.3242802734375,-1.1796131041824818,0.0196130474865436,-0.5785651732392609
1790173707663352300,7.334352294921875,-0.5412696079373359,0.0647498278081417,0.1612659909016452
1790173707673424100,7.344424072265625,1.7851941485106944,-0.4825725042968988,0.0465513050283305
1790173707683495200,7.3544951171875,1.070526414258778,0.5092874927431345,-0.1098010122055187
1790173707693567200,7.364567138671875,-1.459038825111091,0.9871563493937252,-1.2758135706566274
1790173707703639300,7.374639404296875,-1.7591840934634209,0.8993570699095725,-1.451784762329608
1790173707713710300,7.38471044921875,0.9384218368411064,-0.2096311769515275,0.2507467389330268
1790173707723782400,7.394782470703125,2.483110362187028,-1.0730676231741905,0.9027790802475064
1790173707733853400,7.404853515625,0.1113175177156925,0.4351742087841033,0.0420192328229546
1790173707743925200,7.41492529296875,-1.6774501053676008,0.3464654132395982,-0.6475982313245534
1790173707753997300,7.424997314453125,-1.9721862081527708,0.2253179909050464,-0.1717320562658831
1790173707764068400,7.435068359375,-0.0971317559748888,-0.3373784359425306,0.0706873646309599
1790173707774140400,7.445140380859375,0.8430407239258288,0.1628331854194402,0.962463368294388
1790173707784212200,7.455212158203125,0.2020703863084316,0.4404951115459203,0.3331169425731524
1790173707794283300,7.465283203125,-1.033126073408127,0.1564396849900484,0.434106323824264
1790173707804355300,7.475355224609375,-1.3545569986343382,-0.4261532824605703,0.7166138268183916
1790173707814426400,7.48542626953125,-0.3426280270338058,-0.8593792797863483,0.4405253240210935
1790173707824498400,7.49549853515625,3.372914590853453,-0.8561381059080362,-0.8224259520508348
1790173707834570500,7.505570556640625,1.5654554190427064,0.9002923049330711,-0.9842603356912732
1790173707844641300,7.515641357421875,0.280038007608056,1.7184002476543188,-1.05099636888057
1790173707854713000,7.525713134765625,-0.6558955195486545,0.4227887744635343,-0.1023954121241346
1790173707864785200,7.53578515625,-0.7607759899541735,-0.8710381533980369,-0.725511492088437
1790173707874856200,7.545856201171875,-0.0850327373802661,-1.383466866776347,-1.217321195808053
1790173707884928300,7.55592822265625,0.2233218486517667,-0.1951607530504465,-1.3488906434357166
1790173707894999300,7.565999267578125,0.9014876521974802,0.1983703627467155,-1.0565963808447123
1790173707905071400,7.5760712890625,0.7730477347671986,-0.2791284915477037,0.1014208497372455
1790173707915143200,7.58614306640625,-2.326758940002322,0.2351718609213829,0.9246522546857596
1790173707925214200,7.596214111328125,-0.2054804870128631,-0.1613543450385332,-0.0603301847349852
1790173707935286300,7.606286376953125,3.320207083016634,-0.5892793133467435,0.3788769328270107
1790173707945357300,7.616357421875,2.363135783024132,0.4055786964654922,0.5451596011132002
1790173707955429400,7.626429443359375,-2.4450819525659084,1.0562509284079074,0.6870658799685537
1790173707965501200,7.636501220703125,-2.299063416086137,-0.6245084476381539,0.4977224348947405
1790173707975572200,7.646572265625,-2.299259815441072,-0.4073006979525089,0.9201590349197388
1790173707985644300,7.656644287109375,-0.6579401771187782,-0.7012281147032976,0.8896000843964517
1790173707995716400,7.66671630859375,2.607957515822351,-0.9542033433407544,0.3590987579066306
1790173708005787400,7.676787353515625,-1.3748024988055227,1.007287867796421,0.4523295609202236
1790173708015859500,7.686859375,-4.277063571214676,1.9038976848244664,-0.863272560897842
1790173708025930500,7.696930419921875,0.1581470734298229,-1.5220318723797797,-1.5652173725031315
1790173708036002300,7.707002197265625,2.484350717636943,-1.0385562817633152,-0.0756893741693347
1790173708046074400,7.717074462890625,2.6871742604002358,0.9034539838343858,-0.1328261696904897
1790173708056145200,7.727145263671875,2.074291660887003,1.583196242916584,-1.1550640615984795
1790173708066217500,7.737217529296875,-4.085014228183031,1.9745032529234885,-0.5326842965520918
1790173708076289500,7.74728955078125,-3.9610090783298015,-0.4104664685070514,-0.2250308262604288
1790173708086360300,7.7573603515625,0.0701437958061695,-2.117545111680031,-0.5795367216851562
1790173708096432000,7.76743212890625,0.6218295838177204,-0.4842863224774599,-1.3694997162222862
1790173708106503200,7.777503173828125,0.6537672753483057,0.538759086421132,-1.6765984569743275
1790173708116575200,7.7875751953125,-1.324726508516073,0.962783540159464,-0.561314617100358
1790173708126647300,7.797647216796875,-2.3753584279984232,0.4265215312510728,-0.0940266478327103
1790173708136718300,7.80771826171875,-0.486632301081717,-0.3103992436021566,0.0601949957816861
1790173708146790100,7.8177900390625,1.5729323307946323,0.3149228585064411,-0.2273517982875928
1790173708156862200,7.8278623046875,2.180316332891583,0.6220166308224201,-0.651162572742626
1790173708166933200,7.837933349609375,-0.5208703785091638,1.6469652429938315,-1.3065870407134297
1790173708177005300,7.84800537109375,-2.958658666935563,0.4293658147662877,-1.4867622599475083
1790173708187076400,7.858076416015625,-0.6251850317254662,-2.3501696262061595,-1.8600632192730904
1790173708197148400,7.8681484375,-1.7073434315890073,-1.124367017778754,-1.0798462504636497
1790173708207220200,7.87822021484375,0.0879717134416103,0.6032587388604879,-1.1205295585077255
1790173708217291300,7.888291259765625,1.4339777413517236,0.5785650271087884,-0.8253376747790724
1790173708227363300,7.89836328125,0.6810317143708468,0.570313331592083,-1.0234564008522775
1790173708237434400,7.908434326171875,-3.055839522749185,0.4057558065980672,-0.6100647656135261
1790173708247506400,7.91850634765625,-2.456574821960926,-1.1218331153869627,-0.4921638509195297
1790173708257578500,7.92857861328125,-0.7198252631455659,-0.3699298754572868,-0.6301381240881979
1790173708267649500,7.9386494140625,2.039345727451145,-0.1001250925719738,-0.1304163138034753
1790173708277721300,7.948721435546875,3.825096048539877,-0.0105424368023872,1.170143118917197
1790173708287793400,7.95879345703125,3.583178220489621,-0.193180977410078,0.9286188202291726
1790173708297864200,7.9688642578125,-0.5648872148901224,0.8395090426683426,0.7667211620941757
1790173708307936300,7.978936279296875,-3.753783793476224,-0.4129664686292409,0.3386425010615959
1790173708318007300,7.98900732421875,-2.774918302565813,-1.2835592163473366,0.9185003079272808
1790173708328079000,7.9990791015625,1.971248050519824,-0.9469377362519502,0.4408798000145703
1790173708338151200,8.009151123046875,3.888718333622813,0.4837894788712263,0.0706213684563525
1790173708348222200,8.01922216796875,0.978468016025424,2.108582053023577,0.1145464349006302
1790173708358294300,8.029294189453125,-2.462428808686137,0.8902741842657327,7.09280780516e-05
1790173708368365300,8.039365234375,-2.3983137716501948,-1.136053363919258,-0.404302904376015
1790173708378437400,8.049437255859376,-2.3105448873043057,-0.9608686464488506,-0.6871271817017346
1790173708388509200,8.05950927734375,2.894864532417059,-0.7640607107132673,-0.512803318844363
1790173708398580200,8.069580322265624,5.684863499736785,0.0991688147604465,-0.2866475436746142
1790173708408652300,8.07965234375,-0.3571741465196013,3.40689927804172,-0.4382274954074993
1790173708418724400,8.089724365234375,-4.790531564512849,1.782421761187911,-1.159660376412794
1790173708428795400,8.09979541015625,-2.7955606931000947,-1.4022446324825286,-1.2841188960567116
1790173708438867500,8.109867431640625,-0.6178165487840771,-2.061079712614417,-0.0414299251602962
1790173708448938500,8.1199384765625,0.9983680637598036,-0.9814993465453384,-0.3851148043032735
1790173708459010300,8.13001025390625,2.0761369964927434,0.4356961868315935,-0.8337624618403613
1790173708469082400,8.140082275390625,3.4009310172870757,0.3078764471262693,-0.9268759220845996
1790173708479153400,8.1501533203125,-0.3997241252183914,0.5308668718665838,-0.9714011463791132
1790173708489225500,8.1602255859375,-4.02217491017133,-0.1195738894075155,-0.8692815920542926
1790173708499297300,8.17029736328125,0.3304828312098979,-1.8275947818666696,-0.455268646579422
1790173708509368300,8.180368408203124,3.307292071864009,-1.6939596338808536,-0.3633258740823715
1790173708519440400,8.1904404296875,1.1028905145078898,0.7386947987884283,-0.9644901979468762
1790173708529511200,8.20051123046875,0.6369587638884783,0.6371037253171206,-1.7907444761142133
1790173708539583200,8.210583251953125,0.9607806759044528,0.3404062593311071,-1.5688418466106056
1790173708549655300,8.2206552734375,-2.8610043483912944,0.6883651259988546,-1.6716525250047445
1790173708559726300,8.230726318359375,-2.547129829894006,-0.3615782266974449,-2.1153363495893776
1790173708569798100,8.240798095703125,-0.0190875623077154,-0.7566074720978736,-2.28456668870002
1790173708579869200,8.250869140625,1.382213359583914,-0.0419131420999765,-2.252073409113288
1790173708589941200,8.260941162109376,-0.3152759097278118,1.2963672599941491,-2.6307506546497343
1790173708600013300,8.271013427734376,-1.818224019192159,0.6848591637045145,-3.05982128586173
1790173708610084400,8.28108447265625,-2.2684905831679703,0.6242617794007063,-2.4583564446806907
1790173708620156400,8.291156494140624,-0.7076259990468621,-0.4567442355573177,-2.4236371596075594
1790173708630228200,8.301228271484375,1.9184560792699452,-0.5681389101624489,-1.837544367342442
1790173708640299300,8.31129931640625,1.5321367945477369,0.9800006324201822,-1.1923156416282057
1790173708650371300,8.321371337890625,-0.7179957096308469,1.5538064823031426,-2.253230177932977
1790173708660442400,8.3314423828125,-3.1603409307092427,0.1046779335707426,-2.637666717648506
1790173708670514400,8.341514404296875,-4.230342152050137,-0.3128168261379003,-1.614196361336112
1790173708680586200,8.351586181640625,-0.0599812982320785,-1.5206342805415392,-0.8064120981000363
1790173708690657300,8.3616572265625,0.3601619301587343,-0.0793289727807045,-0.4769871053799986
1790173708700729300,8.371729248046876,-0.3532370993316173,1.04563425732553,-1.131690419469401
1790173708710801400,8.381801513671874,2.7416008471146225,0.0334627091407775,-1.7015099031299352
1790173708720872400,8.39187255859375,0.7201058336526155,1.3763210866749285,-0.7933005414620041
1790173708730944500,8.401944580078125,-1.8380057012438773,1.0106424389213322,-1.5559250818923114
1790173708741015300,8.412015380859375,-0.0303004457175731,-1.2638333561360835,-1.68089264703691
1790173708751087400,8.42208740234375,0.3801081551223993,-1.2503309004843235,-1.2343820745937526
1790173708761159400,8.432159423828125,-0.9397808502346277,0.5112865576058626,-2.03353616438955
1790173708771230200,8.442230224609375,-1.949742321154475,0.0512976410388946,-3.924619960348308
1790173708781302300,8.45230224609375,-1.6387328366994858,-0.0264911165624856,-2.8967358792468905
1790173708791373300,8.462373291015625,-0.1692301929801702,-0.6122556997865438,-0.8408956747211516
1790173708801445000,8.472445068359375,-0.643151188787818,-0.2777081033557653,-0.4388282012470066
1790173708811517200,8.48251708984375,-1.6047496108159425,0.4394441411882638,-0.9423162139311432
1790173708821588200,8.492588134765626,-1.6581091528207064,0.2098445274412632,-1.5001815673604606
1790173708831660300,8.502660400390624,-0.412518724861741,0.1142079784601926,-1.053982106693089
1790173708841732400,8.512732421875,-1.2329033803433178,0.3341951297312974,-0.9510742515347896
1790173708851803400,8.522803466796875,1.0981909585148095,-0.7903904992341995,-1.337145845106244
1790173708861875200,8.532875244140625,0.8278174358308314,-0.9896452436000108,-1.5950849797613915
1790173708871946200,8.5429462890625,-2.7551351592093702,0.9023965837359428,-1.3238036945827305
1790173708882018300,8.553018310546875,-2.257438735538721,0.0056418052792549,-1.0547209423616528
1790173708892090400,8.56309033203125,0.70252926042974,-0.8009177384674548,-0.4588979064598679
1790173708902161400,8.573161376953125,-0.4847568625986576,0.2662853765875101,-0.8333924594841897
1790173708912233500,8.5832333984375,-0.0621779314935207,-0.6296060630381107,-1.9084300675570964
1790173708922304500,8.593304443359376,-1.4885314615771177,-0.1684977870523929,-0.5585428142994642
1790173708932376300,8.603376220703124,-0.9071107527762652,-0.0209819977521896,-0.1217787059754133
1790173708942448400,8.613448486328124,2.6818776152968407,-1.3953735776692628,-1.2406189231567084
1790173708952519400,8.62351953125,4.164026390099525,-1.327238783597946,-1.708556314510107
1790173708962591500,8.633591552734375,0.0007528641939163,1.360061441269517,-1.99131381020993
1790173708972663300,8.643663330078125,-0.911930135756731,0.580635988163948,-2.0697437883242964
1790173708982734000,8.653734130859375,-1.0832874038934708,-0.1085620815277099,-1.4843455541945991
1790173708992806100,8.66380615234375,-0.4369295280188321,-0.6063847619265318,-1.2657153704904018
1790173709002877200,8.673877197265625,1.6385042886406185,-0.5797317328006029,-2.0100662953443824
1790173709012949200,8.68394921875,1.5095552526444196,0.0158341134697198,-1.710068034247309
1790173709023021300,8.694021240234376,0.0237011935830116,1.2141682847350834,-1.025171607272327
1790173709033092400,8.70409228515625,0.2166822645068168,-0.5903916585028172,-1.130583408075571
1790173709043164200,8.7141640625,-1.3013231288358569,-1.0217553690880536,-1.2072972299218176
1790173709053235200,8.724235107421874,-2.2648735617145896,-0.4893833533555269,-1.432354231803119
1790173709063307300,8.734307373046875,-0.2404913023784756,-0.4342746295958757,-0.8393713877633213
1790173709073379300,8.74437939453125,3.3812048648148774,-0.6413216352730989,-0.4752329551890492
1790173709083450400,8.754450439453125,0.504021535038948,0.5898170734852552,-0.8171953579209744
1790173709093522400,8.7645224609375,-2.2853192606329915,0.3762409583002328,-1.2068633685491978
1790173709103594200,8.77459423828125,-0.9097001847475766,-0.0287818578481674,-1.1413751434639097
1790173709113665300,8.784665283203125,2.38399999961555,-0.7626958521008491,-0.8848676490470766
1790173709123737300,8.7947373046875,3.04431421238929,-0.7551058353632688,-1.2444415501847863
1790173709133808400,8.804808349609376,-0.6118614397719502,0.1693354069203138,-2.0443449970431624
1790173709143880400,8.81488037109375,-4.345909728425741,0.2482669048160314,-2.112525383821875
1790173709153952300,8.8249521484375,-0.8210691306143999,-1.6638234388142823,-1.9449553791388867
1790173709164023300,8.835023193359374,0.6213344937771559,-2.0308295357793567,-1.687810171340406
1790173709174095400,8.845095458984375,0.1685650070697069,-0.4137772004902362,-1.2428050350241362
1790173709184166100,8.855166259765625,0.0277478386253118,-0.4339379449874162,-1.987445298213512
1790173709194238500,8.865238525390625,1.1011322726637125,-0.1513946765601634,-1.179960456315428
1790173709204310500,8.875310546875,-0.7975853791743517,0.6736375124663114,-1.0564341760203242
1790173709214381300,8.88538134765625,1.968767339619994,-1.0170371083945036,-1.5237524125620725
1790173709224453000,8.895453125,-0.0137421096265316,-0.7536784329086542,-1.969454883492738
1790173709234525200,8.905525146484376,-3.84430840627104,0.8493389472872018,-1.159634730514884
1790173709244596200,8.91559619140625,-3.097137455560267,-0.8157634254217148,-1.008541374988854
1790173709254668300,8.925668212890624,-0.4215954730257392,-0.8293132273465394,-0.4046525215312838
1790173709264739300,8.9357392578125,0.8320046583876013,0.6468547194808721,-0.5156229793749749
1790173709274811400,8.945811279296874,3.068011022058129,0.6531979510277509,-0.652061932735145
1790173709284883200,8.95588330078125,0.8525728146418928,1.1735714859306812,-0.403427802041918
1790173709294954000,8.9659541015625,-3.0784692877084017,1.7157827586323022,-0.2191303883112967
1790173709305026000,8.976026123046875,-0.6321428880393505,-0.5648579887956381,-0.8583312320381402
1790173709315097000,8.98609716796875,-0.3902367504268884,-1.3080904310137034,-2.4390239677011967
1790173709325169200,8.996169189453125,-1.695715537637472,-0.2645914321511983,-2.3464682874701914
1790173709335241000,9.006240966796875,-0.0037888708889484,0.2101683525681495,-2.8500375486969944
1790173709345312000,9.01631201171875,1.2623533467113972,0.4072276327162981,-2.3811662374943494
1790173709355384000,9.026384033203126,0.8619605284512043,0.2214128001600503,-3.2762796784847974
1790173709365456100,9.0364560546875,-0.7926993606984615,0.1495440802574157,-3.730018887007237
1790173709375527200,9.046527099609374,-1.8954086734205484,-0.2595850021660327,-3.132453099091351
1790173709385599200,9.05659912109375,-1.2166577634632587,-0.2691664849817752,-3.747248254227638
1790173709395670300,9.066670166015625,0.0463023169696331,-0.323921572998166,-4.200391834944487
1790173709405742000,9.0767421875,1.0398708714932203,-0.2941127101898193,-4.157895924520492
1790173709415814100,9.086814208984377,-0.1532563787788152,-0.1389665721416473,-3.34117797485292
1790173709425885200,9.09688525390625,-0.956147463145852,-0.2903542344391346,-3.451286409039795
1790173709435957200,9.106957275390624,-2.5346599321603773,-0.6878554229110478,-3.338433060058952
1790173709446028300,9.1170283203125,-1.186969312164187,-0.7370821028947829,-3.607699790544808
1790173709456100400,9.127100341796876,-0.508051813468337,-0.7130138295650482,-3.639063189318776
1790173709466172200,9.137172119140626,-1.732650306802988,-0.671090750592947,-2.467984689247608
1790173709476243200,9.1472431640625,-0.993201474776864,-0.3598766834765672,-2.6311469604909417
1790173709486315300,9.157315185546874,0.8196107484996318,-1.0169704728990792,-1.7120426953211425
1790173709496387300,9.16738720703125,1.2895698549389838,-1.1963964812010526,-1.5238728240713475
1790173709506458000,9.1774580078125,-1.4420555416062473,-0.3802396725475788,-1.369442433077097
1790173709516530000,9.187530029296877,-1.8969886360883712,-0.4557920493990182,-0.4185439765006303
1790173709526601000,9.19760107421875,0.5173550638645887,-0.6491033751904964,-0.1335660282723605
1790173709536673000,9.207673095703123,0.9711790280610324,-0.9127811996281148,0.6994169736281037
1790173709546745000,9.2177451171875,-0.1080073702543973,-0.3476543307632208,0.2705168766774237
1790173709556816100,9.227816162109375,-1.67780607919842,0.2336538575738668,0.9130093092955648
1790173709566888200,9.23788818359375,-1.425669931733608,0.0239098678976297,1.2057424016952514
1790173709576959200,9.247959228515626,0.7838909080818295,-0.7690490205198526,1.085579021961987
1790173709587031000,9.258031005859374,2.421110125347972,-1.2282272052258252,1.2343962492495777
1790173709597103000,9.26810302734375,1.431211199247837,-0.3098509620696306,0.2546701959870756
1790173709607174100,9.278174072265625,-2.2528128293037413,-0.1553781932383775,1.241110944457352
1790173709617246200,9.28824609375,-2.487161683404445,0.1584896032571792,1.5712224581368266
1790173709627318000,9.298318115234377,1.9416957928210496,-1.003641620248556,-0.1724728281632065
1790173709637389000,9.30838916015625,2.1587544894248247,-1.4546090259701012,-1.3356551681570707
1790173709647461000,9.318461181640624,0.5695195508658886,0.4714999061405658,-2.0476997142985462
1790173709657532200,9.3285322265625,1.496935717307031,0.6424100150316954,-1.5742743930533527
1790173709667604200,9.338604248046876,1.4157102632552383,0.1499386325329542,-1.208965747655928
1790173709677676300,9.34867626953125,-0.2869774514824151,0.3936667248755693,-1.0072273697808385
1790173709687747300,9.358747314453124,-0.5485749625146389,0.1475982068866491,-1.8413595417164264
1790173709697819100,9.368819091796874,-0.8053381852582097,-0.8475795363992452,-1.305861502917856
1790173709707890000,9.378889892578124,0.9107841805920004,-1.108496079429984,-0.8120173707611859
1790173709717962000,9.3889619140625,2.319237312325835,-0.4362666801959275,-1.639994819459319
1790173709728034300,9.399034423828123,5.955210718935728,-1.228915772011876,-1.397441323854029
1790173709738105000,9.40910498046875,1.2760811355516313,0.8729764279842376,-2.336202621782571
1790173709748177200,9.41917724609375,-3.8633556365683672,1.5311439841181038,-1.8289394744738936
1790173709758249000,9.4292490234375,-4.0946430572718375,-0.4815396541178226,-1.5330458722166715
1790173709768320000,9.439320068359375,0.952583633184433,-3.214082457768917,-2.2739064707368613
1790173709778392000,9.44939208984375,0.5716854967281222,-1.4462848497390746,-3.4678771860957145
1790173709788463000,9.459463134765626,0.5939639640316366,0.0840618465214967,-2.890108570061624
1790173709798535200,9.46953515625,0.1193786590963602,1.3370271871626376,-2.871709866800904
1790173709808607000,9.47960693359375,0.2141431014180183,0.9586907178878784,-2.578838681104779
1790173709818678000,9.489677978515624,-1.0015542925804852,0.5342693737864495,-3.0096997028648853
1790173709828750000,9.49975,-0.2736220030859113,-1.4288415475070475,-3.66406494410634
1790173709838821000,9.509821044921877,0.8531900697574019,-0.8842167839229106,-4.2388329170197245
1790173709848893200,9.51989306640625,-2.5686098402962085,1.282338734641671,-4.342441175532341
1790173709858965200,9.52996533203125,-1.4244815987318753,0.2162158160388469,-4.240247459992766
1790173709869036300,9.540036376953124,0.2563546419426799,-1.2181804429858922,-6.742534816336631
1790173709879108000,9.550108154296876,-1.6602566862434147,-0.5663561183989048,-6.165190855455398
1790173709889180200,9.56018017578125,-1.6209803223878143,0.6612871494591236,-3.478126485170424
1790173709899251200,9.570251220703126,-2.1361337845548984,1.0507038156747817,-3.25845497571975
1790173709909323300,9.5803232421875,-0.2948565142944455,-0.126259066259861,-4.032331270265579
1790173709919394300,9.590394287109374,0.0211328043997287,0.0901186623424291,-3.733644676288962
1790173709929466400,9.60046630859375,-2.076716842207313,0.5492068306773901,-2.6558199217155574
1790173709939538200,9.6105380859375,-4.1856355798393485,0.8866413807213306,-1.9013063531570136
1790173709949609000,9.62060888671875,-1.3590554790973663,-0.5723369463741779,-1.585405297268182
1790173709959681000,9.630680908203123,2.3438474374473093,-2.133346491923928,-1.8795989637397228
1790173709969752000,9.640751953125,0.0629822336137294,0.0025473463952541,-2.3857933127731084
1790173709979824000,9.65082421875,-1.9334850138366224,1.2145482239633798,-2.0317296994894742
1790173709989896000,9.66089599609375,1.5286226489469408,0.3388590298891067,-1.4967675211332738
1790173709999967000,9.670967041015626,0.3057923343285918,0.7669581857204437,-1.8022712477788327
1790173710010039000,9.6810390625,-0.4513689722597598,-0.1177472585022449,-1.3525048884101212
1790173710020110000,9.691110107421874,1.2032444473996755,-1.652685958728194,-2.048919319221377
1790173710030182100,9.70118212890625,-0.1106967554688453,-1.895959293040633,-2.282486083033681
1790173710040254200,9.711254150390625,-3.080941815301776,-1.3070792081445457,-2.733943610359728
1790173710050325200,9.7213251953125,1.282557345828414,-1.7081407194465397,-2.652406898401677
1790173710060397000,9.73139697265625,1.8451146564662453,-0.1464981366902589,-3.94505601465553
1790173710070469000,9.74146923828125,2.416855098251998,0.8230436455577611,-3.283389802750945
1790173710080540200,9.7515400390625,-0.0454214424818754,0.3825999719381332,-3.110129039080441
1790173710090612200,9.7616123046875,-4.40309292037189,0.2089069543302059,-3.449678681582212
1790173710100683300,9.771683349609376,-4.029339687234163,-1.033044240343571,-4.024293217499554
1790173710110755300,9.78175537109375,2.928266743542254,-2.256231697836518,-4.155499092511833
1790173710120827100,9.7918271484375,0.4836205520451068,-1.450529063180089,-4.7041138025149705
1790173710130898200,9.801898193359374,-2.623992412561178,-0.6879869403362274,-4.646668744762241
1790173710140970200,9.81197021484375,-0.4288537735909223,-0.4899269587129354,-4.011557070045173
1790173710151041000,9.822041015625,0.523967760002613,-0.5322258852601051,-3.6651951171800494
1790173710161113300,9.83211328125,-3.01509951608181,-1.6453782660633325,-4.455614257986843
1790173710171185200,9.84218505859375,-4.424024064719677,-1.9833043990164996,-4.382669433285296
1790173710181256000,9.852255859375,-2.0834160475850103,-1.757684210294485,-3.439019048140943
1790173710191328000,9.862327880859375,1.0648767179340124,-0.8422714931190013,-1.5109496296122669
1790173710201399000,9.87239892578125,4.217779023075104,-0.1064718312501907,-2.9134198875442148
1790173710211471000,9.88247119140625,1.614673331198096,-0.1386316410988569,-3.5060368208810684
1790173710221543200,9.892543212890626,-3.0865210767388342,-0.7102472874611616,-2.6419164840474725
1790173710231614200,9.9026142578125,-7.547491601061821,-1.6487486192792653,-2.2998875919505952
1790173710241686000,9.91268603515625,-1.0894564479172228,-4.385704563197494,-3.2700624114051458
1790173710251758000,9.922758056640625,4.130453206321597,-3.4872055714219807,-4.484828369772434
1790173710261829000,9.9328291015625,0.9917962841540574,-0.456430347302556,-3.227598649685085
1790173710271901200,9.942901123046877,-3.988766561566293,0.7645996398955583,-2.656937527568638
1790173710281973000,9.952972900390623,-5.560527510493993,-0.3460007183372974,-2.431994507455826
1790173710292044800,9.963044921875,-7.209830256524682,-3.5057466057628397,-1.6426315977036952
1790173710302116900,9.973116943359376,-4.319029320284724,-4.497541136351227,-3.5120272934675216
1790173710312187600,9.983187744140626,0.9771519649907946,-3.663772098639608,-3.752998196056485
1790173710322259700,9.993259765625,5.631738058748841,-1.3867799368470906,-2.517897013407945
1790173710332330800,10.003330810546874,2.654102888664603,1.88604404822588,-2.674696179360151
1790173710342402800,10.01340283203125,3.296961231985688,0.4639999057739973,-1.8378633701637384
1790173710352474600,10.023474609375,2.5113673193782566,-0.6934399450451135,-0.9808023041918872
1790173710362545700,10.033545654296876,-2.644818635229766,-0.1947995185226202,-0.8036509628236294
1790173710372617700,10.04361767578125,-2.6725410471528765,-2.266860059356689,-1.7013842309236529
1790173710382689800,10.053689697265623,0.4600374318838119,-3.718201607963443,-2.61174463314563
1790173710392760800,10.0637607421875,-1.1822972286999225,-1.6065373710155486,-2.710587869213521
1790173710402832600,10.07383251953125,-1.722041819027066,-1.0579197384029626,-2.111550255179405
1790173710412903700,10.083903564453124,-2.06417007984519,-0.7488146262645721,-2.440665597428381
1790173710422975700,10.093975830078126,-2.48347919549942,0.0629354718625545,-1.7551742733001707
1790173710433047800,10.1040478515625,-2.087683934162557,0.120382283180952,-1.2213818693757057
1790173710443118800,10.114118896484374,-0.0463625227242708,-0.4740361466199159,-1.8391145392686128
1790173710453191000,10.12419091796875,2.082913651020825,-0.3668997139811515,-2.209487482318282
1790173710463262000,10.134261962890625,2.7442528229281304,-0.100533088850975,-1.6218591510489582
1790173710473333800,10.144333740234377,0.692543872988224,-0.4921826286852359,-1.871304159733653
1790173710483405800,10.15440576171875,0.1965945852458477,-1.0741039804846049,-1.920095370909572
1790173710493476900,10.164476806640623,-2.852948467707634,-1.2021896776497365,-2.7514988485336302
1790173710503549000,10.174548828125,-5.236610029149055,-0.9676280575811862,-3.065453154268861
1790173710513619700,10.18461962890625,-1.859571636363864,-1.5934861662626263,-1.539955943866074
1790173710523691800,10.19469189453125,-0.5979711538463831,-0.9472522090286016,-1.2134013920158149
1790173710533763800,10.204763916015626,-3.985459044453501,-0.2032896989703178,-1.299660748581588
1790173710543834600,10.214834716796876,-2.799121015930176,-0.7330214293271303,-0.5263265980884433
1790173710553906700,10.22490673828125,0.765236184233427,-1.0476438435822724,-1.540574952547252
1790173710563977700,10.234977783203124,1.393729902115464,-0.2989356003016233,-1.1603951934933665
1790173710574049800,10.2450498046875,1.9711589109316467,-0.375912456998229,-0.890208425553143
1790173710584121600,10.25512158203125,0.5203647670745849,-0.1966898623138666,-1.1324182222872972
1790173710594192600,10.265192626953125,0.955550666296482,-0.3367202642947435,-1.0891311614856125
1790173710604264700,10.2752646484375,1.4823188706725834,-1.6433394537121055,-2.3808804062902924
1790173710614336800,10.285336669921875,-1.7114444371670483,-1.9449983414977787,-1.9575076944589611
1790173710624407800,10.29540771484375,-2.2154098581045867,-2.1237667626738546,-2.3959026188552377
1790173710634479900,10.30547998046875,-1.0839838617250324,-1.876542644909024,-1.2295789120957257
1790173710644551000,10.315551025390626,0.6091892979532479,-1.5719401048868893,-2.080020852188766
1790173710654622700,10.325622802734374,1.2981623267173763,-0.9770371064394712,-3.2091534769341346
1790173710664694800,10.33569482421875,1.6303072459205985,0.2898796026647091,-2.950812337349355
1790173710674765800,10.345765869140624,2.49856687451601,0.9510942714095116,-2.330965451781452
1790173710684838000,10.355837890625,2.78854789172858,0.6549579464375972,-1.8906448200196029
1790173710694909000,10.365908935546877,2.108359057922661,1.1055804842442274,-2.0157927101671693
1790173710704980700,10.375980712890623,-1.8443582851409912,1.6368547678679226,-2.2900851598605514
1790173710715052800,10.386052734375,-2.8487416636675595,1.2165151401221752,-1.600407489958405
1790173710725123800,10.396123779296875,-3.6666011845856894,0.1475748260110616,-1.965367468048632
1790173710735196000,10.40619580078125,-2.8407921659678217,-0.7323287708878516,-2.586838739947974
1790173710745268000,10.41626806640625,1.293476799249649,-1.88251879670918,-3.009152005854249
1790173710755338800,10.4263388671875,1.9382438988015052,-0.7002917106360197,-2.7186381969392297
1790173710765410600,10.43641064453125,-0.3342679027065635,0.0076619129300117,-2.653424551011622
1790173710775481600,10.446481689453124,-2.174967957600951,0.1983177557766437,-1.6910794022694229
1790173710785553700,10.4565537109375,0.1094137299209833,-1.0967413442283869,-2.3030001710131764
1790173710795625700,10.466625732421877,3.691311262950301,-1.879392773643136,-1.911942751853168
1790173710805696800,10.47669677734375,3.38017435272336,-0.1647708754837513,-1.8763883311301468
1790173710815768800,10.486768798828123,-0.1377308928668499,1.1142121189892291,-1.006206210039556
1790173710825839900,10.49683984375,-1.9449790522754191,1.273441142436862,-0.9423404715895652
1790173710835911700,10.50691162109375,-1.6414780437543988,0.2335889756441116,-1.260846303149313
1790173710845983700,10.516983642578126,-3.133730279420316,-0.768617643365264,-2.0216709545508027
1790173710856054800,10.5270546875,-3.000361381155252,-2.1190490865021943,-1.5705122640408575
1790173710866126800,10.537126953125,-1.5125824915111064,-1.494332549071312,-1.5271069836869835
1790173710876198000,10.547197998046874,0.4367594321489333,-1.31287065102756,-1.6786283553667365
1790173710886269700,10.557269775390624,4.377227826753258,-2.1273966436088085,-1.7517399149373172
1790173710896341800,10.567341796875,5.559267865821719,-1.0780261223644017,-1.7555924987122415
1790173710906412800,10.577412841796876,2.017148216429353,1.0338713388174772,-2.0969234716728327
1790173710916484900,10.58748486328125,0.8408645489305258,0.7639034743249415,-1.0835308572605251
1790173710926557000,10.597556884765623,-0.3675815587654709,0.599815904930234,-0.9147558607019484
1790173710936628000,10.6076279296875,-3.974645681755245,0.0618196195751428,-1.7816158516325056
1790173710946699800,10.61769970703125,-2.8861703538298604,-1.403126091492176,-2.312955601707846
1790173710956770600,10.6277705078125,-0.7808399960786103,-0.4236281478971243,-2.2686066107630727
1790173710966842600,10.637842529296876,-3.231251326973736,0.99035543769598,-2.360632129640132
1790173710976915000,10.6479150390625,-5.461072280007601,-0.2663572727799415,-1.1045566941544414
1790173710986985700,10.65798583984375,-1.8792559955209491,-1.0793407120943068,-0.581375554484874
1790173710997057800,10.668057861328125,4.273348350083828,-1.856272010296583,-1.7587271434761582
1790173711007128800,10.67812890625,5.828098835238814,-1.991408795017004,-1.921014677711576
1790173711017200600,10.68820068359375,2.158435340473056,1.0325672704815865,-1.612159594811499
1790173711027272700,10.698272705078123,-1.9765365123167635,3.0978707382708786,-0.5335745233900845
1790173711037343700,10.70834375,-0.9698562550246717,0.5578296975940465,0.5304996459893881
1790173711047415800,10.718415771484375,1.5468071249350903,-1.4316244562238454,-2.000406194334477
1790173711057486800,10.72848681640625,1.537417949821055,-0.8586889594346284,-3.76376859639585
1790173711067558700,10.73855859375,-0.50737493712008,0.6314718569099903,-1.9713082562744615
1790173711077630700,10.748630615234376,-1.7821283311992884,1.1277537376075983,-0.7414088800527155
1790173711087701800,10.75870166015625,-2.708596110874414,1.3368804721683265,-1.212407120281458
1790173711097773800,10.76877392578125,-1.4226345095604658,-0.4443196382701396,-1.1509027041353284
1790173711107844900,10.778844970703124,2.762735697340965,-2.5287796419501305,-0.4684571774438023
1790173711117917000,10.7889169921875,3.3053587657138706,-2.069607886984944,-0.4342769676834344
1790173711127988700,10.79898876953125,-0.4513198724210262,-0.9386702586442232,-0.0338159064926207
1790173711138059800,10.809059814453123,1.1605930541530252,-2.39104991812706,-0.3476170674927532
1790173711148131800,10.8191318359375,1.8023334993600844,-0.8386603168845176,-0.9585423954583704
1790173711158204000,10.829203857421875,-1.5025670011922716,1.619410881114006,-0.4873635379657149
1790173711168275000,10.83927490234375,-2.6783307364702225,1.0959306123673915,0.6158848500691354
1790173711178346800,10.8493466796875,-1.8992048508331176,-0.2811018374472856,0.4667338607825338
1790173711188417800,10.859417724609376,-1.0719392036661506,0.309581497478485,-0.3289690656460821
1790173711198489600,10.869489501953124,1.4871020132958888,-0.4305862964719533,-0.9474434938170015
1790173711208561700,10.879561767578124,3.44850788423717,-0.1058721117913722,-1.086319903457165
1790173711218632700,10.8896328125,-0.3986351609379053,0.8885749791324138,-1.236752749247849
1790173711228704800,10.899704833984377,-1.464647020381689,-0.563097408863902,-1.544577904578298
1790173711238775800,10.90977587890625,-0.1076478892922401,-2.640445534712076,-2.144266675997525
1790173711248847600,10.91984765625,0.1163286238759756,-1.27225105586946,-2.0680913449421525
1790173711258919700,10.929919677734375,0.9358084394723176,0.139524790546298,-1.0685486113797873
1790173711268990700,10.93999072265625,1.3705673454537988,0.8587748841524123,-0.8709110198870301
1790173711279062500,10.9500625,-0.8909317713916302,1.4484651163876057,-1.636105995327234
1790173711289133600,10.960133544921876,-0.766994718338549,0.586777559658885,-0.8837656060893088
1790173711299205600,10.97020556640625,-1.254799570330977,0.0541156210690736,-1.459286954653263
1790173711309277400,10.98027734375,-1.4610188930124044,-0.3853635914325714,-0.7755507305640726
1790173711319348500,10.990348388671874,-1.4169073640853165,-0.8517571143448353,-0.7381071350935846
1790173711329420500,11.000420654296876,0.6351251187205315,-0.472122421953082,-0.7047810579445213
1790173711339492600,11.01049267578125,1.2443947884336113,-0.2795926019281148,-1.221979469942674
1790173711349563600,11.020563720703125,2.0482231536507607,-0.4124333846658468,-1.3363766142994165
1790173711359635700,11.0306357421875,1.156171438318491,0.7629536262542009,-1.2070794955179094
1790173711369706800,11.040706787109375,-0.0524412581160664,0.5001116681188345,-0.746429484693706
1790173711379778600,11.050778564453124,1.529138781775534,-1.2364438294291495,-1.3691545560464262
1790173711389850600,11.0608505859375,1.6115613366574049,-1.458400819468498,-1.8781709767632184
1790173711399921400,11.07092138671875,0.740698247565329,-1.4735083722293376,-2.0703253876045347
1790173711409993500,11.080993408203126,-1.0685638820141554,0.3188163588136434,-2.103940949219465
1790173711420064500,11.091064453125,-1.2339648720949887,0.3682692487686872,-2.1321407693959773
1790173711430136300,11.10113623046875,1.0569365725845097,-0.3491045295715332,-1.9874353613413869
1790173711440208400,11.11120849609375,0.5987997136250138,0.1902168669074773,-1.6542703053101897
1790173711450279400,11.121279541015625,1.1700848128587007,-0.0934784941643476,-1.8919126479983328
1790173711460351500,11.1313515625,0.009509586623311,-0.0233393745332956,-1.8910295815534888
1790173711470422500,11.141422607421877,-0.4278875589072704,0.1940086604058742,-1.9242650578096507
1790173711480494600,11.15149462890625,0.2685258489906788,-0.3739268361389636,-1.5208607827737926
1790173711490566400,11.16156640625,1.8348937067031856,-2.1830776142984627,-1.7710776526138186
1790173711500637400,11.171637451171875,2.0142805520385503,-1.252278527420759,-2.267600940851867
1790173711510709500,11.18170947265625,0.7566878438577056,-0.3783604346722364,-1.7836866665571929
1790173711520780500,11.191780517578126,-0.9623609308332204,0.2765846522837877,-1.0386704827275126
1790173711530852600,11.2018525390625,-1.4885197711393237,0.6714765350401402,-1.040628777188435
1790173711540924700,11.211924560546874,-0.0602282587304711,0.0813175162494182,-1.136916702750325
1790173711550995700,11.22199560546875,1.2451385925382374,-0.8979606471151113,-1.8513290009364485
1790173711561067500,11.232067626953125,0.149282506711781,0.0320657018244266,-1.610679000864923
1790173711571139600,11.2421396484375,-1.7944485913291572,0.4363578656107187,-1.2219127613820135
1790173711581210600,11.252210693359377,-0.6343056190311909,-0.2914531355917453,-0.4848117345910519
1790173711591282700,11.26228271484375,0.0184013336092233,-0.5546054748505354,-0.4660937362480908
1790173711601353500,11.272353515625,-0.2453700143307447,-0.055418520361185,-0.0895155088175088
1790173711611425300,11.28242529296875,-0.2849830627948045,-0.3754565299242735,-0.5994575930118561
1790173711621497600,11.29249755859375,0.0766769969671964,0.0028770167410373,-1.0502372941415756
1790173711631568400,11.302568359375,-2.461776774518192,0.5424041649252176,-0.8412002106256783
1790173711641640400,11.312640380859374,-0.5909034074172377,-0.0948445218205451,-0.396447514700517
1790173711651711500,11.32271142578125,3.5626813759058718,-0.6954998001843691,-0.2316772237386554
1790173711661783600,11.332783447265625,2.32037449966222,0.9133283121168612,0.7417476104877889
1790173711671855400,11.34285546875,-1.048164944846928,1.3304846336513756,0.9082797965556384
1790173711681926400,11.352926513671877,-2.6870927195966243,0.0416717345595359,0.7346228731743991
1790173711691998500,11.36299853515625,-2.243942709627748,-1.319642921641469,0.5046181857578456
1790173711702069500,11.373069580078123,-0.7517249607533216,-0.7718149781018495,0.7635879055697471
1790173711712141600,11.3831416015625,0.407876744274795,-0.0320125103324651,0.8296869560297578
1790173711722213600,11.393213623046876,1.4549877961546185,0.8986515519887208,1.663908194488287
1790173711732284700,11.40328466796875,-0.4098483366087079,1.432744984686375,0.9471843314241616
1790173711742356500,11.4133564453125,-2.62408242893219,0.5663409208297729,0.8262597580600529
1790173711752427500,11.423427490234374,-1.4799749378949405,-0.6979565456867217,-0.1764378593366593
1790173711762499600,11.43349951171875,0.892576908250153,-0.3314151436239481,-1.314375356502086
1790173711772571600,11.443571533203125,1.3035232692286371,1.1186404568254946,0.035039420405589
1790173711782642700,11.453642578125,-0.176796828842163,1.6817846274405717,0.0522609331130981
1790173711792714500,11.463714599609377,-1.0427084330067038,1.2308505394667386,-1.4905593141429123
1790173711802786600,11.47378662109375,-0.77671911675632,0.0289729965060949,-1.537758726082742
1790173711812857600,11.483857666015624,-1.277366791447997,-0.3221767751574516,-2.0854476995430886
1790173711822929700,11.4939296875,-0.5397451748490333,-0.7340823365569115,-1.7351409545749426
1790173711833000400,11.50400048828125,1.2680328536525367,-0.4848924716770648,-1.2564721797183156
1790173711843072500,11.514072509765626,2.1104846717745063,-0.390056717684865,-0.4070673275880515
1790173711853144300,11.524144287109374,1.8433149135679008,-0.2949444848388433,-0.3618910189736634
1790173711863215400,11.53421533203125,-0.4777534135773778,-0.1962000329703092,-0.18470488028666
1790173711873287400,11.544287353515625,-0.7841074734419584,-0.4348398622632026,0.4278209234118461
1790173711883358500,11.5543583984375,2.313512504938245,-1.7816525303810833,0.0489201484849443
1790173711893430500,11.564430419921877,3.802061794432997,-1.0316782126873731,0.2008039100365713
1790173711903502600,11.574502685546875,2.065743612772226,-0.2845096000641584,0.6257144624270499
1790173711913573400,11.584573486328123,-1.1585147865742444,0.1885977412730455,0.8297911470565944
1790173711923645400,11.5946455078125,-1.2541247398093345,-0.3042851446360349,0.8337189149595796
1790173711933716500,11.604716552734375,0.376393518513441,-1.5575520985722542,0.2033805373252369
1790173711943788500,11.61478857421875,1.2936036404997109,-1.3123556872427462,-0.0225377758268266
1790173711953860600,11.624860595703124,0.2117868936806917,-0.371579980751872,-0.6094068496940657
1790173711963931600,11.634931640625,-1.0512857072159647,0.3381447441399097,-1.658828553136438
1790173711974003500,11.64500341796875,0.7527522579744458,0.4285772947371006,-1.515600962549448
1790173711984074500,11.655074462890624,2.7042522364512083,0.0778425336152315,-1.5995948584012687
1790173711994146600,11.665146484375,1.785994943499565,-0.5941495497316122,-1.185962692404911
1790173712004218600,11.675218505859377,-1.140439616179466,-0.0001817863076925,-1.0967023273922505
1790173712014289700,11.68528955078125,-0.4032119673341512,0.1198176350355148,-1.0746573765836656
1790173712024361700,11.69536181640625,0.3949544265985488,-0.5244926606595516,-1.3595422397010029
1790173712034432500,11.7054326171875,0.843435860723257,-0.17255027731359,-1.1561313985690471
1790173712044504300,11.71550439453125,0.2903969045370817,0.7426561036348343,-1.0003579954680055
1790173712054576600,11.72557666015625,0.5569838944196701,0.5595756644785403,-0.6318057650394737
1790173712064647400,11.7356474609375,0.340492184048891,0.8598410520792007,-0.8424971916336566
1790173712074719500,11.745719482421874,0.3994634284555912,0.2801186716288328,-1.0438152252048254
1790173712084790500,11.75579052734375,0.3279372383803129,0.1801876403242349,-0.4610899000788107
1790173712094862300,11.7658623046875,-2.037266875350475,0.7615273928433656,-0.2924356072904542
1790173712104934400,11.775934326171877,-3.877432384976745,0.7880722854197025,0.5234521386306733
1790173712115005400,11.78600537109375,-2.7450860588818786,-0.2310977433502674,0.475245376279205
1790173712125077500,11.796077392578123,0.2631882873550057,-0.2952899372756481,-0.4808630700305104
1790173712135148500,11.8061484375,1.3552972956076264,-0.1344108085334301,-0.7568416461799293
1790173712145220600,11.816220703125,0.2641659002155065,0.5804518637686967,0.39753538300246
1790173712155292400,11.82629248046875,-1.5368711295932531,1.0097913750499483,0.4880521778170019
1790173712165363500,11.836363525390626,-2.2048969396576283,1.2918629343122243,-0.5556461795425042
1790173712175435500,11.846435546875,-0.5905638001993299,-0.3232873667478561,-0.780963257132098
1790173712185507600,11.856507568359374,0.4897708913683891,-0.5352221444666385,-0.8837984123803675
1790173712195578600,11.86657861328125,-0.0108247608751058,-0.2113520093947649,-0.9325346784986556
1790173712205650700,11.876650634765625,-0.989965561595559,0.3136573686152696,-0.0322381631813477
1790173712215721700,11.8867216796875,1.1638918034374712,-0.0835392839521169,0.0072855949974851
1790173712225793500,11.89679345703125,2.8373551772564647,0.1837958939492702,0.2974177430845797
1790173712235865600,11.906865478515623,-0.267085587054491,0.2086047565132379,0.7955718473948538
1790173712245936600,11.9169365234375,-2.4331238037467,-0.1316483580827712,0.731037562033534
1790173712256008700,11.9270087890625,-1.6582187506750226,-0.7664952443838119,-0.061934752121102
1790173712266079500,11.93707958984375,1.5241174464821814,-0.893606543558836,0.2214122521707788
1790173712276151300,11.9471513671875,3.781082719290256,-0.684267043030262,-0.4398667505145072
1790173712286223600,11.9572236328125,2.329791439566016,0.4637433006644249,-0.0392482154733501
1790173712296294700,11.967294677734374,-0.1517407135188579,0.8903793982058763,0.5842712759263813
1790173712306366700,11.97736669921875,-1.7285639142721891,0.420010541921854,0.6183437144633382
1790173712316437800,11.987437744140625,-2.107442235338688,-1.1992793431609867,1.1300639873113485
1790173712326509800,11.997509765625,-0.8805021473139524,-2.141675928851962,1.7165350383043287
1790173712336581600,12.00758154296875,-0.0198582544192671,-0.4441092103898525,1.4733879607200622
1790173712346652700,12.017652587890623,1.093310492996871,1.051633205479383,2.1738116271726784
1790173712356724700,12.027724853515624,2.79073897203207,1.0327028795599935,1.4813769136473536
1790173712366795800,12.037795654296875,1.288571491551399,0.9493056344270706,1.341830788052082
1790173712376867800,12.047867919921876,-0.714105131933093,1.344279350247979,1.0584772261552513
1790173712386939600,12.057939697265626,0.5584335087060928,-0.6941004547804593,1.1009665607079864
1790173712397010700,12.0680107421875,0.5606430014491081,-1.1931518001914023,0.1918516285024583
1790173712407082800,12.078082763671874,-0.9148232268497348,-0.5615799900382756,-0.68583494993411
1790173712417153500,12.088153564453124,-1.2099682026967409,0.0306833075553178,-0.4170829640373587
1790173712427225600,12.0982255859375,-0.045108723270893,0.0737222388148307,-1.0367889798298475
1790173712437297700,12.108297607421877,1.0407771726831794,-0.2972071690738201,-0.4184447173772379
1790173712447368700,12.11836865234375,-0.0527577767193317,-0.2152034241259098,-0.2136544411182403
1790173712457440500,12.1284404296875,-1.2078811672896146,0.7385743872791528,-0.4571884721934795
1790173712467511600,12.138511474609375,-0.7889803401753306,0.0525239679634571,-0.6587231441900133
1790173712477583600,12.14858349609375,0.8496294546663761,0.0389168828934431,-0.3816040927685797
1790173712487655700,12.15865576171875,2.4776912597477434,0.0177799868404865,-0.8133907780062407
1790173712497726700,12.168726806640626,1.8115671916514635,-0.8341367019802332,-0.453615509077534
1790173712507798800,12.178798828125,0.0384136095464229,0.1501578282415867,0.0412548608543351
1790173712517869800,12.188869873046874,0.7988163822740316,-0.3822130184471607,0.0311031404025852
1790173712527941600,12.198941650390625,0.9414414769232272,-0.8063958776175976,0.378268810866028
1790173712538013700,12.209013671875,-0.2699140884786844,-0.2866279073923826,0.5198755222529172
1790173712548084700,12.219084716796877,0.1848655690073966,-0.5137894803375005,0.4152507801741361
1790173712558156800,12.22915673828125,1.510734817817807,-0.3875152165085077,0.053273251960799
1790173712568227800,12.239227783203123,1.944803695708513,-0.0904822349578142,0.0012516805615276
1790173712578299600,12.249299560546875,1.181305879575014,-0.2110387056618928,0.1060471760973334
1790173712588371700,12.259371826171876,1.1654805339336394,-0.0274596693336963,0.5383301204193384
1790173712598442800,12.26944287109375,-0.8097428499579429,-0.3434925349086523,0.404053021268174
1790173712608514800,12.279514892578124,-2.080943519991636,-0.6800485485523938,0.2979521422222256
1790173712618587000,12.2895869140625,-1.2445596236065029,-0.6660007339775562,0.0501730209231376
1790173712628657700,12.29965771484375,0.6255407132953406,-0.4553513198941946,-0.1107554268535226
1790173712638729500,12.3097294921875,2.110826032558083,-0.2549304543584585,-0.4783688420619815
1790173712648800500,12.319800537109376,0.5179717344582081,0.388109675270319,0.3176290487252176
1790173712658872600,12.32987255859375,0.2646528069496154,0.4273673344254493,0.2788912487257272
1790173712668944600,12.339944580078123,1.2980562359943986,-0.2979734772711992,-0.0239596253234893
1790173712679015700,12.350015625,-0.8412266602411865,0.0579126752644777,0.1362498605288565
1790173712689087700,12.360087646484375,-2.0984236471027136,-0.5836176343232393,-0.1642913483384996
1790173712699158800,12.37015869140625,-0.5044143337488174,-0.4177437660336494,0.107047950637713
1790173712709230600,12.380230712890626,0.7223375382274388,0.3955249199628829,0.4349691877312958
1790173712719302700,12.390302734375,2.6484499774694443,0.2092570829421281,0.5292499381892383
1790173712729373700,12.400373779296874,-0.2000742440551519,0.7422393395274877,1.1679629983991384
1790173712739445800,12.41044580078125,-4.303624245882034,1.1453127751737833,1.0305706167716533
1790173712749516800,12.420516845703125,-2.217119292370975,-0.5485264471977949,0.2520689274474978
1790173712759588600,12.430588623046877,1.9769301878094672,-1.3872855482816695,-0.2269877507481724
1790173712769660700,12.44066064453125,3.747945004320144,-0.6555056434482336,0.3358481576353311
1790173712779731700,12.450731689453123,0.6236942086458206,1.7878274196237325,0.8505205582872033
1790173712789803800,12.4608037109375,-1.0271177729040384,1.934363550236821,1.3122061957694588
1790173712799874800,12.470874755859375,0.1499339563578367,-0.8142886766940355,0.349380350838229
1790173712809947000,12.48094677734375,-1.5246628054052591,-1.3825322162747382,0.321843524615094
1790173712820018700,12.491018798828126,-3.1389129427552223,-0.609756284186244,1.0321608085725456
1790173712830089500,12.50108935546875,-0.6570820989847183,-0.7044798099756241,1.022392571013048
1790173712840161800,12.511161865234374,1.724986640307307,-0.6825608236342668,0.3487935639262199
1790173712850232600,12.521232666015624,0.482764227476716,0.6075561437934637,1.1516904935121537
1790173712860304600,12.5313046875,3.2267411560729142,0.7755220159262418,1.313132809095085
1790173712870376700,12.541376708984377,1.6285183166772126,0.3288268806964158,-0.0820018452517688
1790173712880447700,12.55144775390625,-0.605610270422697,-0.8849094423621893,-0.0776635968517512
1790173712890519600,12.56151953125,-1.9814561408013105,-2.029902484062314,0.1740133356034755
1790173712900590600,12.571590576171875,-1.390753808914125,-1.7549749513357875,-0.1752355708748102
1790173712910662700,12.58166259765625,-1.547552098083496,-0.4916705875098705,0.662634764675796
1790173712920734700,12.591734619140626,-0.1476630888164043,-0.1921457891434431,1.155493465991691
1790173712930805800,12.6018056640625,1.8793191238850355,-0.2949713728457689,0.9491831770911812
1790173712940877600,12.611877685546874,2.4035142629027364,0.0070043258041143,0.8850416173744946
1790173712950948600,12.621948486328124,1.3657035388097165,0.2575444362491369,0.8963610298987478
1790173712961020700,12.632020751953124,0.0894388633847236,0.5577420193105935,1.088408765495196
1790173712971092700,12.6420927734375,0.43829497115314,0.4167302050769328,0.2775569313820451
1790173712981163800,12.652163818359377,0.5304495232373476,-0.8553671215355396,1.2617702861264348
1790173712991235800,12.66223583984375,-1.2206880418926476,-0.9870517199754716,1.2813809955254196
1790173713001307000,12.672306884765623,1.393077575686574,-0.9979548067837952,0.8844110643859953
1790173713011378700,12.682378662109375,-0.5872323176890611,0.8100847952634096,1.368078743508458
1790173713021450800,12.69245068359375,-0.5668047389492392,1.6086007332861425,1.3392511468224226
1790173713031521800,12.702521728515626,2.8724872809141875,-0.150873283034563,0.734368460021913
1790173713041593900,12.71259375,1.1800883204787969,-0.070551207563281,1.238712943404913
1790173713051664600,12.72266455078125,-0.9095008627831936,0.5804232221961021,1.1677412454072384
1790173713061736700,12.73273681640625,-0.8400269290626049,-0.4984072022885084,1.5431608773872256
1790173713071808500,12.74280859375,1.5270412249743937,-0.0800362442672252,0.4043426518645137
1790173713081879600,12.752879638671876,0.9219996943503618,-0.6338643050044774,1.370456578555703
1790173713091951600,12.76295166015625,-0.2809422629714012,-0.7153209374636411,1.8382333725199105
1790173713102022700,12.773022705078125,-1.1103463834717868,-0.4003279363304376,1.4282891743212938
1790173713112094700,12.7830947265625,0.5296402526810765,-1.4290782788723706,1.6255593207411467
1790173713122166500,12.79316650390625,0.5611544581025838,-0.9725216748416424,2.416055326176435
1790173713132237600,12.803237548828124,0.3118547031074762,-0.817836724564433,2.1241360343776643
1790173713142309600,12.8133095703125,1.3897440473496914,-0.0989297453075647,2.0244164538666607
1790173713152380700,12.823380615234376,1.2821294758051631,0.0667126523137092,2.1557906711831687
1790173713162452700,12.83345263671875,0.0328638664647936,-0.6343909592270851,1.717974423457682
1790173713172524800,12.84352490234375,0.0933688963100314,-0.6804886935353279,1.911675917610526
1790173713182595800,12.853595947265624,0.0633095658719539,0.1430517956286668,2.795023517483473
1790173713192667600,12.863667724609376,0.6001388532742857,0.0811830762147903,2.2782199500218034
1790173713202738700,12.87373876953125,-0.5857260047793388,0.0367266793727874,1.8802640035197136
1790173713212810800,12.883810791015623,-3.7046111817672847,1.2756670017927885,2.1851187647372483
1790173713222882800,12.8938828125,-1.6794219899624585,-0.6444470738172531,1.5921847282752393
1790173713232953900,12.903953857421875,4.122685494929552,-1.731702796819806,0.9753811559259892
1790173713243025700,12.914025634765624,4.34753469927907,0.514819992429018,1.63732165472731
1790173713253097700,12.92409765625,1.693828116455674,1.6317103907167911,2.686539177367091
1790173713263168500,12.93416845703125,-1.322160457420349,0.9040297378957272,1.4088941534996031
1790173713273240600,12.944240478515624,-3.431215973174572,0.1379769765824079,1.604451212391257
1790173713283311000,12.95431103515625,-3.556605563123524,-1.1839420732975006,1.1540839645199477
1790173713293383200,12.964383056640624,-1.871553750580549,-2.615441441836953,1.0124373595140874
1790173713303455200,12.974455322265625,-0.2861632124900817,-1.4777870724618434,0.8827528488501906
1790173713313526000,12.984526123046876,0.2147340530484914,0.3673626553177833,1.732881485210359
1790173713323597800,12.994597900390623,0.082729721134901,1.4913549945652484,1.6954180159956216
1790173713333668900,13.0046689453125,1.1672492971718311,0.4688339018017053,1.2090648241162298
1790173713343741000,13.014740966796875,1.3560992596402763,-0.4737573296785354,0.7696713902018963
1790173713353813000,13.02481298828125,-2.221630632315576,-0.4989098911136388,0.9016707536794244
1790173713363884000,13.034884033203124,-3.3666350721925493,-1.5356062242239712,1.041235583975166
1790173713373955800,13.044955810546876,-1.5886609380632637,-1.8919576561838387,1.1917014552526175
1790173713384027000,13.05502685546875,0.4983271227896213,-1.245697395464778,2.002464442038536
1790173713394099000,13.065098876953124,0.9365335388764738,-0.2489350133359432,1.7071794731989502
1790173713404171000,13.0751708984375,-0.2303980706483125,0.2597241183757782,1.7266883296586573
1790173713414242000,13.085241943359376,-3.1318487034574147,0.5163099387258291,1.5554751461677252
1790173713424314000,13.095314208984377,-0.5331862547248601,-1.347445705324411,0.7023973046131432
1790173713434385200,13.10538525390625,3.479192945358157,-1.686702210098505,0.4167405803404748
1790173713444457000,13.11545703125,3.3375130226045844,-0.6930506534665822,0.8750332143835723
1790173713454529000,13.125529052734375,-1.030945514498651,-0.0968961936533451,0.2698303557179868
1790173713464600000,13.13560009765625,-1.1789061249569055,-0.4312818775206804,0.1391315534450113
1790173713474672000,13.145672119140626,-0.7782157850548624,-1.313378016027808,0.3516135897830128
1790173713484743200,13.1557431640625,-0.514018028396368,-0.8754583079278468,0.8212772204071283
1790173713494815200,13.165815185546874,1.4812421813517809,-0.4845867667287588,0.6668026980102062
1790173713504887000,13.175886962890624,1.8614359689310191,0.0243476747930049,0.8788292456656693
1790173713514957800,13.185957763671874,0.3231026578307152,0.1111760634183883,0.3198999162666499
1790173713525030100,13.196030029296876,0.7547957465007901,-0.8946867400109767,0.6928200595811009
1790173713535101000,13.206100830078125,1.50037825897634,-0.8013309954434633,1.3092691194042565
1790173713545173000,13.216173095703123,-1.1017612182170151,-0.5301625229895115,1.4543373694218695
1790173713555244800,13.226244873046875,-1.4191437448352575,-1.4244371750682592,0.4002632005311548
1790173713565315800,13.23631591796875,-0.791432117241621,-1.5687965461641549,1.0871430564083158
1790173713575388000,13.246387939453124,0.5749295932158828,-1.492558525136113,1.252258361415565
1790173713585459000,13.256458984375,1.3641814438089728,-1.502418824893236,1.1269133412607013
1790173713595531000,13.266531005859376,-0.5451379738032818,-0.2255284187853336,1.812075871825963
1790173713605603000,13.27660302734375,-1.051339190968871,0.0206710321068763,1.2977259811267257
1790173713615674000,13.286674072265624,2.7366493621870878,-0.9756985513120888,0.5592334269121289
1790173713625746000,13.296745849609374,3.916198753483594,-0.5140045843929052,0.6186942084014415
1790173713635817000,13.30681689453125,1.9550947880983351,0.213539290305972,1.1996658582605422
1790173713645889000,13.316888916015625,-2.352550383862853,0.904737009382248,1.9652534862801432
1790173713655961000,13.326961181640623,-3.1094314122051,-1.4332710543870926,1.516799816945195
1790173713666032000,13.3370322265625,-1.669848105931282,-2.7487346445173024,1.0359449302211403
1790173713676104200,13.347104248046875,-0.8007225081562995,-1.8938181893587112,0.7840851154796779
1790173713686175200,13.35717529296875,2.316427515602112,-1.689510837778449,0.8164490695983171
1790173713696247000,13.3672470703125,4.8105818343728775,0.6912801366627216,0.0192021285980939
1790173713706319000,13.377319091796876,4.554793301880359,0.7443167303234338,-0.3551312425151467
1790173713716390100,13.38739013671875,-0.4089876281261443,0.4835504094183445,1.585009868209809
1790173713726462200,13.397462158203124,-3.0449048717588183,0.5032669172793627,1.3547279712870717
1790173713736533000,13.407532958984374,-2.672158185315132,-2.129879108074307,0.0813539027370512
1790173713746604800,13.417604736328125,-2.6057208428114653,-2.0402450143784283,0.591026887666434
1790173713756675800,13.42767578125,-0.3883040287986397,-1.1134709452331066,0.6566868160568178
1790173713766748000,13.437747802734377,1.3611965827792882,0.3198842803061008,0.5042112123921513
1790173713776820000,13.447820068359375,0.4106149370670318,2.652134803462028,1.059471497889608
1790173713786891000,13.45789111328125,-0.4379775757670402,1.2736731976270674,0.1800325958929955
1790173713796963000,13.467963134765624,1.8452566952854397,-0.4998907188445329,-0.8933674741059541
1790173713807035000,13.478034912109376,1.4709873293191194,-1.0068670120358467,0.5782976083442568
1790173713817106000,13.48810595703125,-1.879177961848676,-0.7506810046583413,1.1386916034683583
1790173713827178000,13.498177978515624,-3.398026235756278,-0.2073117940932512,1.6110368743918837
1790173713837249000,13.5082490234375,-3.2510236566752195,-0.2866512882679701,2.637439338633418
1790173713847321000,13.518321044921874,-2.1945441802084447,0.5603437262415886,1.8528202624075116
1790173713857393200,13.52839306640625,1.0661293483436107,0.9763514622628688,0.8660460441991686
1790173713867464200,13.538464111328125,0.6438304032236337,1.4780162050426005,2.089935220220685
1790173713877536000,13.548535888671877,-3.1178759999454018,1.2904729412585496,1.654555698122829
1790173713887607000,13.55860693359375,-2.507288525632024,-0.8414531624734402,0.668970105177164
1790173713897679000,13.56867919921875,0.846481512029469,-3.1388521524786945,1.3267083299830555
1790173713907750100,13.578750244140624,2.3839359944686294,-1.9956541775017973,1.2081497550979257
1790173713917822200,13.588822265625,2.282821598598361,0.8170207320064306,0.1441989198371767
1790173713927894000,13.59889404296875,1.0668962410628795,1.7353385229736566,0.1104686458013951
1790173713937964800,13.60896484375,-2.029501502045989,1.1851257301241158,0.5829679382428526
1790173713948036900,13.619036865234374,-2.803671518841386,-1.0836252575457097,0.2471653733149171
1790173713958109000,13.62910888671875,0.6104869365483522,-3.699810795748234,0.4007407549150288
1790173713968180000,13.639179931640625,3.874506268396973,-3.4228263304919,0.5968564706027507
1790173713978252000,13.649251953125,3.7541251542598006,-1.1516378865420818,1.4620666484996676
1790173713988323000,13.659322998046877,2.5948881908908485,0.300405672854185,3.3468402383983133
1790173713998395000,13.669394775390623,0.4807102175563573,1.2061416301459074,4.340360862126946
1790173714008466000,13.6794658203125,-1.8981743387416004,-0.0497480735093355,3.242292360948026
1790173714018538000,13.6895380859375,0.339123233783245,-2.380286532050371,1.6019285620458423
1790173714028610000,13.699610107421876,1.7659505188584326,-2.2750474574655293,0.8772010599419474
1790173714038681000,13.70968115234375,2.1801427298903464,-0.1201046352833509,1.0228685910269617
1790173714048753000,13.7197529296875,1.149050500397384,1.0010445894926785,1.8773846486911177
1790173714058824000,13.729823974609374,-0.5721721112012863,1.0627747772186993,2.5752403643518686
1790173714068896000,13.73989599609375,-1.5525637887656687,-0.0607423457324504,1.827735651642084
1790173714078968000,13.749968017578125,-0.1901300654068589,-1.1535317374646663,0.5963204640299081
1790173714089039000,13.7600390625,1.138000406333804,-0.5195668946951627,0.4776406008526682
1790173714099111200,13.770111083984377,-0.1779679184481501,1.1964847440063953,1.249700347495824
1790173714109182200,13.78018212890625,-1.4243477432191372,0.7926087598055601,1.0530638228043914
1790173714119254000,13.79025390625,-1.3383885386437178,-0.402649072754383,0.6263746799014508
1790173714129326000,13.800326171875,-2.4359423682987686,-1.1662860050976276,0.3344492506228387
1790173714139396900,13.81039697265625,-0.435456532856822,-2.5277175656765696,0.7888580289699136
1790173714149469200,13.82046923828125,2.397771919858456,0.257342776197195,0.8043065041229128
1790173714159540000,13.8305400390625,3.1605764930307862,1.2825859874010086,1.066610117597878
1790173714169612000,13.840612060546874,2.048193050773442,1.8259224647402763,1.3029540910385549
1790173714179683800,13.850683837890625,-0.2883803040176629,1.8837743497282269,0.8814880896113813
1790173714189755000,13.8607548828125,-0.7045651501715183,-0.9921803150355816,1.422316821913421
1790173714199827000,13.870826904296877,-2.7858324952900406,-1.744039715823531,0.5220965593032538
1790173714209898000,13.88089794921875,-2.895098925694823,-1.696761831820011,1.0156466769494117
1790173714219970000,13.890969970703123,1.7668956907540558,-1.4055956964761018,1.619149892090261
1790173714230041900,13.901041748046875,3.965211790716648,1.3619061923533675,1.7079773455783724
1790173714240113000,13.91111279296875,0.9612193595826626,2.215341469043493,2.4442633296594023
1790173714250185000,13.92118505859375,-1.211560148063302,1.3825450757563114,2.382128945046663
1790173714260256000,13.931256103515626,-0.2747387321561574,-0.8350579084783792,1.5645324589788914
1790173714270328000,13.941328125,-1.0339525873601436,-1.807465601551533,1.2143335582993924
1790173714280400600,13.951400634765625,-1.9409417595833536,-1.3348048349380492,1.8515365062072875
1790173714290471700,13.9614716796875,-0.546631427231431,-0.4156266277492046,2.5852391957968472
1790173714300543500,13.97154345703125,-1.398860543002188,0.5343541294604539,2.060478970242292
1790173714310614300,13.9816142578125,-2.8656986436873675,-0.4040530943334102,1.7564089296616612
1790173714320686300,13.991686279296877,-0.9689783031463622,-1.3825415686249731,1.5813874399289487
1790173714330758400,14.00175830078125,1.592168946184218,-0.6066501348644495,0.9201111041247844
1790173714340829400,14.011829345703124,3.57545902441442,0.4689969834089278,0.8688913506276905
1790173714350901200,14.0219013671875,2.6018261734604837,-0.293430573144555,1.0134719632588327
1790173714360972300,14.03197216796875,-0.3039440761134028,-1.3846172058552504,1.1805587144695222
1790173714371044400,14.04204443359375,-1.6436910436287522,-1.0600117422461508,1.434977127652615
1790173714381116400,14.052116455078124,-0.7963619748592377,-0.0737882897883653,1.941484488157928
1790173714391187500,14.0621875,-0.9983177948772908,0.0467038835078477,2.244192154344171
1790173714401259500,14.072259521484376,-0.2363309678286314,-0.8929448647797107,2.095626855991036
1790173714411330600,14.08233056640625,-0.6720289082258939,0.0241477683067321,2.164429027929902
1790173714421402400,14.09240234375,1.1131880366384983,0.0320411519050598,2.2724330371834336
1790173714431474400,14.102474365234375,3.2457255502671,-0.9209721048682928,3.136772131334245
1790173714441545500,14.11254541015625,-0.2351560788303613,0.1983551651775836,2.3785694989994166
1790173714451617500,14.122617431640624,-3.6674063634887335,0.6886731690347194,2.5306951201826333
1790173714461688600,14.1326884765625,-3.786794667196274,-0.4657949724972248,1.7318270077213644
1790173714471760400,14.142760498046876,-1.248781917476654,-1.4414397477954626,1.0825703416652976
1790173714481832400,14.15283251953125,1.7522803054243326,-1.0601917749881744,1.3272288467258213
1790173714491903500,14.162903564453124,2.357949612557888,-0.8867652993619441,1.057811017331481
1790173714501975600,14.1729755859375,0.0351420405298471,0.0347153395503759,0.2739262467294931
1790173714512046300,14.18304638671875,1.382616387426853,-0.082837857684493,0.417669824014604
1790173714522118400,14.193118408203125,1.182229131899774,0.0009153612792491,1.1886654485575854
1790173714532190200,14.203190185546877,-0.2433642274662852,-0.2702864289224148,0.4921704998560249
1790173714542261200,14.21326123046875,-0.5550967654988169,-0.8546224406480789,-0.4699003619894385
1790173714552333300,14.223333251953123,-0.455320632494986,-1.1025848095595836,0.7450761703886092
1790173714562404400,14.233404296875,-0.27628186994493,-1.6491916868716476,0.6774373431406915
1790173714572476400,14.243476318359376,-0.3671855451852083,-1.4626128842055797,0.34950682676211
1790173714582548500,14.253548583984376,-1.2425909538820386,-0.2071855373650789,1.0209246173523363
1790173714592619500,14.26361962890625,-0.0733753250733017,-0.4608417340040207,1.0863656422950327
1790173714602691300,14.27369140625,3.0322675085037947,-0.6165390761941671,0.2257242336183786
1790173714612762400,14.283762451171874,4.0237408443138,-1.0442886879354716,0.984204806111753
