time,seconds_elapsed,z,y,x
1789998051293873700,0.058873779296875,0.3318939208984375,-0.5984344482421875,0.0656585693359375
1789998051303944700,0.06894482421875,0.17681884765625,-0.672027587890625,0.3291168212890625
1789998051314016300,0.079016357421875,-0.2687835693359375,-0.8820648193359375,0.2629241943359375
1789998051324087300,0.08908740234375,-0.43743896484375,-1.1016998291015625,0.12823486328125
1789998051334159400,0.099159423828125,-0.2888946533203125,-1.1528778076171875,0.061004638671875
1789998051344230400,0.10923046875,-0.32659912109375,-1.01580810546875,0.0416717529296875
1789998051354301400,0.119301513671875,-0.3914642333984375,-0.81463623046875,0.01708984375
1789998051364372500,0.12937255859375,-0.141876220703125,-0.866363525390625,0.04180908203125
1789998051374443300,0.139443359375,0.034423828125,-0.9322509765625,0.2930450439453125
1789998051384514300,0.149514404296875,-0.2158050537109375,-0.8125152587890625,0.3791656494140625
1789998051394585300,0.15958544921875,-0.3715667724609375,-0.8663482666015625,0.379913330078125
1789998051404656400,0.169656494140625,-0.1470794677734375,-0.9071502685546875,0.25384521484375
1789998051414727400,0.1797275390625,0.3067169189453125,-0.9828033447265625,-0.0212249755859375
1789998051424798500,0.189798583984375,0.158843994140625,-0.9580535888671875,-0.1061859130859375
1789998051434869200,0.199869140625,-0.6902923583984375,-0.8949127197265625,0.0018310546875
1789998051444940300,0.209940185546875,-1.057952880859375,-1.186767578125,0.14935302734375
1789998051455011300,0.22001123046875,-0.673919677734375,-1.1598663330078125,0.1055755615234375
1789998051465082400,0.230082275390625,0.2543487548828125,-1.01055908203125,0.1537933349609375
1789998051475153400,0.2401533203125,0.6281585693359375,-0.8874053955078125,0.2527618408203125
1789998051485224400,0.250224365234375,-0.2004547119140625,-0.71038818359375,0.20245361328125
1789998051495295200,0.260295166015625,-0.8820343017578125,-0.9667510986328125,-0.0827178955078125
1789998051505366300,0.2703662109375,-0.1608734130859375,-1.3802642822265625,0.038726806640625
1789998051515437300,0.280437255859375,0.3461761474609375,-1.2228240966796875,0.2425079345703125
1789998051525508400,0.29050830078125,-0.0953521728515625,-0.85992431640625,0.09197998046875
1789998051535579400,0.300579345703125,-0.2283782958984375,-0.8071136474609375,-0.140350341796875
1789998051545650400,0.310650390625,-0.4242706298828125,-1.0063934326171875,-0.00274658203125
1789998051555721200,0.32072119140625,-0.0699005126953125,-1.1089935302734375,-0.0643463134765625
1789998051565792300,0.330792236328125,-0.1308135986328125,-0.9591522216796875,-0.11865234375
1789998051575863300,0.34086328125,-0.33489990234375,-0.9780120849609375,-0.043304443359375
1789998051585934300,0.350934326171875,-0.6282958984375,-0.9784698486328125,0.027984619140625
1789998051596005400,0.36100537109375,-0.3034820556640625,-1.1375579833984375,-0.1360626220703125
1789998051606076400,0.371076416015625,0.441986083984375,-1.1046905517578125,-0.18035888671875
1789998051616147200,0.381147216796875,0.36669921875,-0.9268798828125,-0.1136627197265625
1789998051626218200,0.39121826171875,-0.1832427978515625,-0.7792510986328125,-0.190032958984375
1789998051636289300,0.401289306640625,-0.9931793212890625,-0.8331451416015625,-0.1470184326171875
1789998051646360300,0.4113603515625,-1.016754150390625,-1.1255950927734375,-0.0413360595703125
1789998051656431400,0.421431396484375,-0.5327606201171875,-1.2722015380859375,0.09259033203125
1789998051666502400,0.43150244140625,-0.0908660888671875,-1.070098876953125,0.0521392822265625
1789998051676573200,0.4415732421875,-0.108612060546875,-0.65045166015625,0.0909271240234375
1789998051686644200,0.451644287109375,-0.1275787353515625,-0.5099029541015625,-0.0810699462890625
1789998051696715300,0.46171533203125,0.112457275390625,-0.7389678955078125,-0.17352294921875
1789998051706786300,0.471786376953125,0.251129150390625,-1.0877227783203125,-0.1029510498046875
1789998051716857300,0.481857421875,-0.327423095703125,-1.16400146484375,-0.010467529296875
1789998051726928400,0.491928466796875,-0.819427490234375,-1.155059814453125,-0.247528076171875
1789998051736999400,0.50199951171875,-0.4190826416015625,-1.17193603515625,-0.36798095703125
1789998051747070200,0.5120703125,-0.0542755126953125,-0.944732666015625,-0.107940673828125
1789998051757141200,0.522141357421875,-0.0811920166015625,-0.6859130859375,0.13140869140625
1789998051767212300,0.53221240234375,-0.115325927734375,-0.7718505859375,0.2699127197265625
1789998051777283300,0.542283447265625,-0.629302978515625,-0.8166351318359375,0.238372802734375
1789998051787354400,0.552354248046875,-0.370330810546875,-1.0221099853515625,-0.013916015625
1789998051797425400,0.56242529296875,0.0543975830078125,-1.189178466796875,0.0891876220703125
1789998051807496200,0.57249609375,-0.343048095703125,-0.9294891357421875,0.210693359375
1789998051817567200,0.582567138671875,-0.7341461181640625,-0.78369140625,-0.035369873046875
1789998051827638300,0.59263818359375,-0.788330078125,-0.8853302001953125,-0.023712158203125
1789998051837709300,0.602709228515625,-0.1412200927734375,-1.09063720703125,0.1394500732421875
1789998051847780400,0.6127802734375,0.20111083984375,-1.00714111328125,0.293853759765625
1789998051857851400,0.622851318359375,-0.2445831298828125,-0.7193603515625,0.1342315673828125
1789998051867922400,0.63292236328125,-0.8141326904296875,-0.711578369140625,-0.16552734375
1789998051877993500,0.642993408203125,-0.390594482421875,-1.0156402587890625,-0.258056640625
1789998051888064500,0.653064453125,-0.116729736328125,-1.1509857177734375,0.0058135986328125
1789998051898135300,0.66313525390625,-0.6213531494140625,-1.05511474609375,0.160369873046875
1789998051908206300,0.673206298828125,-0.812652587890625,-0.9730072021484375,0.022796630859375
1789998051918277400,0.68327734375,-0.4244537353515625,-1.079193115234375,-0.017791748046875
1789998051928348400,0.693348388671875,0.2274322509765625,-1.1339569091796875,0.1101837158203125
1789998051938419500,0.70341943359375,0.208160400390625,-0.979736328125,0.2428436279296875
1789998051948490500,0.713490478515625,-0.247589111328125,-0.818450927734375,0.14093017578125
1789998051958561500,0.7235615234375,-0.6247711181640625,-0.8855438232421875,0.052581787109375
1789998051968632600,0.733632568359375,-0.5209197998046875,-1.0817413330078125,0.02484130859375
1789998051978703600,0.74370361328125,-0.3225555419921875,-1.214996337890625,0.1829376220703125
1789998051988774400,0.7537744140625,0.061798095703125,-1.033203125,0.1994781494140625
1789998051998845400,0.763845458984375,-0.0977783203125,-0.72589111328125,0.0220947265625
1789998052008916500,0.77391650390625,-0.098052978515625,-0.7530670166015625,-0.284393310546875
1789998052018987500,0.783987548828125,-0.0529327392578125,-0.9755859375,-0.1414031982421875
1789998052029058600,0.79405859375,-0.4046478271484375,-1.0441436767578125,0.04931640625
1789998052039129600,0.804129638671875,-0.319976806640625,-1.152069091796875,-0.0559844970703125
1789998052049200400,0.814200439453125,-0.298431396484375,-1.0293731689453125,-0.2631683349609375
1789998052059271400,0.824271484375,-0.0221099853515625,-0.9102630615234375,-0.33807373046875
1789998052069342500,0.834342529296875,0.2715301513671875,-0.786224365234375,-0.3406524658203125
1789998052079413500,0.84441357421875,0.2120208740234375,-0.81817626953125,-0.2579498291015625
1789998052089484500,0.854484619140625,-0.2946929931640625,-0.943115234375,-0.1769256591796875
1789998052099555600,0.8645556640625,-0.8092498779296875,-1.059722900390625,-0.1682281494140625
1789998052109626400,0.87462646484375,-0.374176025390625,-1.2523193359375,-0.2158203125
1789998052119697400,0.884697509765625,0.1865234375,-1.1838226318359375,-0.081146240234375
1789998052129768400,0.8947685546875,0.242828369140625,-0.9403228759765625,-0.0297698974609375
1789998052139839500,0.904839599609375,-0.0120697021484375,-0.719085693359375,-0.108062744140625
1789998052149910500,0.91491064453125,-0.013397216796875,-0.7542266845703125,-0.063873291015625
1789998052159981600,0.924981689453125,-0.2102813720703125,-0.98577880859375,0.09197998046875
1789998052170052400,0.93505224609375,-0.319183349609375,-1.188873291015625,0.08837890625
1789998052180123400,0.945123291015625,-0.255767822265625,-1.047515869140625,-0.0253448486328125
1789998052190194400,0.9551943359375,-0.250518798828125,-0.973785400390625,-0.1286468505859375
1789998052200265500,0.965265380859375,-0.413482666015625,-1.1049041748046875,-0.1566009521484375
1789998052210336500,0.97533642578125,-0.7831268310546875,-1.2341766357421875,-0.1276092529296875
1789998052220407600,0.985407470703125,-0.8010406494140625,-1.0740966796875,-0.260406494140625
1789998052230478300,0.995478271484375,-0.276336669921875,-1.035308837890625,-0.2304534912109375
1789998052240549400,1.00554931640625,0.823486328125,-1.093902587890625,-0.1143035888671875
1789998052250620400,1.015620361328125,0.515838623046875,-0.734619140625,0.040985107421875
1789998052260691500,1.02569140625,-0.9811248779296875,-0.5285491943359375,0.0346527099609375
1789998052270762500,1.035762451171875,-1.13311767578125,-1.105987548828125,-0.1241607666015625
1789998052280833500,1.04583349609375,-0.3769989013671875,-1.51727294921875,-0.0796966552734375
1789998052290904300,1.055904296875,-0.34942626953125,-1.223785400390625,0.1491851806640625
1789998052300975400,1.065975341796875,-0.1999053955078125,-0.9791412353515625,-0.0558624267578125
1789998052311046000,1.0760458984375,-0.1473541259765625,-0.8353729248046875,-0.1169891357421875
1789998052321117000,1.086116943359375,-0.093475341796875,-0.764007568359375,-0.001861572265625
1789998052331188000,1.09618798828125,-0.159942626953125,-0.8860015869140625,0.08489990234375
1789998052341259000,1.106259033203125,-0.34857177734375,-0.936981201171875,0.0612640380859375
1789998052351330000,1.116330078125,-0.3119964599609375,-0.956939697265625,-0.05731201171875
1789998052361400800,1.12640087890625,0.271026611328125,-0.8316802978515625,-0.1437530517578125
1789998052371470800,1.136470947265625,0.010345458984375,-0.7751007080078125,-0.0581207275390625
1789998052381543000,1.14654296875,-0.47296142578125,-0.941070556640625,-0.0114593505859375
1789998052391613000,1.156613037109375,-0.7600555419921875,-1.04833984375,-0.0772705078125
1789998052401684000,1.16668408203125,-0.555938720703125,-1.158294677734375,-0.1170654296875
1789998052411754800,1.176754638671875,-0.227203369140625,-1.088775634765625,0.04046630859375
1789998052421825800,1.18682568359375,0.2805938720703125,-0.8979034423828125,0.0828399658203125
1789998052431896800,1.196896728515625,0.3289947509765625,-0.65313720703125,0.152374267578125
1789998052441967900,1.2069677734375,-0.1521759033203125,-0.6082611083984375,0.0858306884765625
1789998052452039000,1.217038818359375,-0.865478515625,-0.910369873046875,0.0331878662109375
1789998052462110000,1.22710986328125,-0.7967071533203125,-1.2321624755859375,0.03802490234375
1789998052472180700,1.2371806640625,-0.1874847412109375,-1.32470703125,0.0444488525390625
1789998052482251800,1.247251708984375,-0.163482666015625,-1.0041656494140625,0.0755767822265625
1789998052492322800,1.25732275390625,-0.28900146484375,-0.794097900390625,0.0407562255859375
1789998052502393900,1.267393798828125,-0.3799591064453125,-0.9172210693359375,0.04962158203125
1789998052512465000,1.27746484375,-0.6168365478515625,-0.9154205322265625,0.1063079833984375
1789998052522536000,1.287535888671875,-0.3141632080078125,-0.9879302978515625,0.0382080078125
1789998052532606700,1.297606689453125,0.3794708251953125,-0.927459716796875,-0.116455078125
1789998052542677800,1.307677734375,0.307037353515625,-0.8692626953125,-0.1232147216796875
1789998052552748800,1.317748779296875,-0.1930694580078125,-1.0352783203125,-0.2023162841796875
1789998052562819800,1.32781982421875,-0.647857666015625,-1.2447509765625,-0.249176025390625
1789998052572891000,1.337890869140625,-1.0487213134765625,-1.22021484375,-0.2027740478515625
1789998052582962000,1.3479619140625,-0.6725616455078125,-1.0798797607421875,-0.1786346435546875
1789998052593033000,1.358032958984375,0.346435546875,-1.02630615234375,-0.0929718017578125
1789998052603104000,1.36810400390625,0.80133056640625,-0.77264404296875,-0.0059356689453125
1789998052613175000,1.378175048828125,-0.1334686279296875,-0.682861328125,0.048980712890625
1789998052623246000,1.38824609375,-0.8523712158203125,-0.9599761962890625,-0.174591064453125
1789998052633317000,1.398317138671875,-0.86376953125,-1.256805419921875,-0.27301025390625
1789998052643388200,1.40838818359375,-0.4299774169921875,-1.3839111328125,-0.135040283203125
1789998052653459000,1.418458984375,-0.26348876953125,-1.2122650146484375,-0.1343536376953125
1789998052663530000,1.428530029296875,-0.4660186767578125,-0.95599365234375,-0.1376190185546875
1789998052673601000,1.43860107421875,-0.489715576171875,-0.913482666015625,-0.1514434814453125
1789998052683672000,1.448672119140625,-0.4624786376953125,-0.886322021484375,-0.1263580322265625
1789998052693743000,1.4587431640625,-0.10650634765625,-0.9897918701171875,-0.06939697265625
1789998052703814100,1.468814208984375,0.4037933349609375,-1.0274658203125,-0.0106353759765625
1789998052713885000,1.478885009765625,0.2178192138671875,-0.7865447998046875,-0.0580902099609375
1789998052723956000,1.4889560546875,-0.4007568359375,-0.69647216796875,-0.110809326171875
1789998052734027000,1.499027099609375,-0.1404876708984375,-1.0513458251953125,-0.1812591552734375
1789998052744098000,1.50909814453125,-0.003143310546875,-1.1487274169921875,-0.11322021484375
1789998052754169000,1.519169189453125,-0.6439666748046875,-0.771942138671875,0.024810791015625
1789998052764240100,1.529240234375,-0.6184234619140625,-0.76458740234375,-0.0423736572265625
1789998052774311000,1.539310791015625,0.2115631103515625,-1.0859832763671875,-0.1010894775390625
1789998052784382000,1.5493818359375,-0.043212890625,-0.7866973876953125,0.0612030029296875
1789998052794453000,1.559452880859375,-0.4164886474609375,-0.761322021484375,0.0831298828125
1789998052804524000,1.56952392578125,-0.36126708984375,-1.1436004638671875,-0.137786865234375
1789998052814595000,1.579594970703125,-0.7824554443359375,-1.2119903564453125,-0.0823974609375
1789998052824666000,1.589666015625,-0.7423248291015625,-1.1049346923828125,-0.03765869140625
1789998052834737000,1.59973681640625,0.1186065673828125,-1.1318511962890625,-0.184539794921875
1789998052844808000,1.609807861328125,-0.0106353759765625,-1.0230560302734375,-0.1010589599609375
1789998052854879000,1.61987890625,-0.523651123046875,-0.74591064453125,-0.120758056640625
1789998052864950000,1.629949951171875,-0.304595947265625,-0.9071807861328125,-0.3035125732421875
1789998052875021000,1.64002099609375,-0.0276641845703125,-1.1653594970703125,-0.311004638671875
1789998052885092000,1.650092041015625,-0.1870269775390625,-1.0740203857421875,-0.2178802490234375
1789998052895163000,1.660162841796875,-0.272491455078125,-0.9869537353515625,-0.3190765380859375
1789998052905234000,1.67023388671875,-0.0548858642578125,-1.0280914306640625,-0.507110595703125
1789998052915305000,1.680304931640625,-0.3715667724609375,-0.9961700439453125,-0.35406494140625
1789998052925376000,1.6903759765625,-0.198822021484375,-1.0884246826171875,-0.3815765380859375
1789998052935447000,1.700447021484375,0.0805511474609375,-1.15576171875,-0.4224090576171875
1789998052945518000,1.71051806640625,-0.2199554443359375,-0.7796478271484375,-0.3623046875
1789998052955588900,1.7205888671875,-0.1312103271484375,-0.82965087890625,-0.3046417236328125
1789998052965660000,1.730659912109375,0.2773895263671875,-1.0578155517578125,-0.264495849609375
1789998052975731000,1.74073095703125,-0.209259033203125,-0.8079833984375,-0.171295166015625
1789998052985802000,1.750802001953125,-0.36529541015625,-0.8573150634765625,-0.114288330078125
1789998052995873000,1.760873046875,-0.0155487060546875,-1.0619659423828125,-0.127166748046875
1789998053005944000,1.770944091796875,-0.117431640625,-0.997222900390625,-0.195953369140625
1789998053016015000,1.78101513671875,-0.380645751953125,-1.045166015625,-0.066436767578125
1789998053026086000,1.7910859375,-0.469818115234375,-1.002777099609375,0.05865478515625
1789998053036157000,1.801156982421875,-0.2512969970703125,-0.7512054443359375,-0.0315704345703125
1789998053046228000,1.81122802734375,0.052703857421875,-0.8466339111328125,-0.0626068115234375
1789998053056299000,1.821299072265625,-0.3014068603515625,-0.8134765625,0.0582427978515625
1789998053066370000,1.8313701171875,-0.8909454345703125,-0.892791748046875,0.033416748046875
1789998053076441000,1.841441162109375,-0.5014495849609375,-1.15057373046875,0.001190185546875
1789998053086511900,1.851511962890625,-0.072601318359375,-1.1893157958984375,-0.047149658203125
1789998053096583000,1.8615830078125,0.1640472412109375,-0.882904052734375,-0.0784912109375
1789998053106654000,1.871654052734375,-0.11004638671875,-0.60968017578125,0.0349273681640625
1789998053116725000,1.88172509765625,-0.13360595703125,-0.74993896484375,0.0402069091796875
1789998053126796000,1.891796142578125,-0.45928955078125,-0.982147216796875,0.003448486328125
1789998053136867000,1.9018671875,-0.42236328125,-1.151885986328125,-0.053314208984375
1789998053146937900,1.911937744140625,0.0204010009765625,-1.202056884765625,-0.1123809814453125
1789998053157009000,1.9220087890625,-0.2325286865234375,-0.9272918701171875,-0.08087158203125
1789998053167080000,1.932079833984375,-0.7379608154296875,-0.8417816162109375,0.0904541015625
1789998053177151000,1.94215087890625,-0.4144744873046875,-1.0802459716796875,0.0965423583984375
1789998053187222000,1.952221923828125,-0.402679443359375,-1.044708251953125,0.039337158203125
1789998053197293000,1.96229296875,-0.1505889892578125,-0.94915771484375,0.0005645751953125
1789998053207362800,1.97236279296875,0.0880584716796875,-0.9965362548828125,0.031829833984375
1789998053217433900,1.982433837890625,-0.5324554443359375,-0.7269134521484375,0.0362091064453125
1789998053227505000,1.9925048828125,-0.6840667724609375,-0.8570098876953125,0.0840606689453125
1789998053237576000,2.002575927734375,-0.1252288818359375,-1.1370391845703125,0.0205841064453125
1789998053247647000,2.01264697265625,-0.1617889404296875,-1.0832977294921875,0.0055389404296875
1789998053257717800,2.0227177734375,-0.2223358154296875,-0.947296142578125,0.0577850341796875
1789998053267788800,2.032788818359375,-0.289520263671875,-0.8064727783203125,0.0160980224609375
1789998053277859800,2.04285986328125,-0.2244110107421875,-0.708404541015625,-0.0993804931640625
1789998053287931000,2.052930908203125,0.065155029296875,-0.9168853759765625,-0.119659423828125
1789998053298002000,2.063001953125,-0.3329010009765625,-0.9656982421875,-0.1125030517578125
1789998053308073000,2.073072998046875,-0.732269287109375,-0.9766387939453125,-0.0728302001953125
1789998053318144300,2.083144287109375,-0.27728271484375,-1.126129150390625,-0.0758056640625
1789998053328215300,2.09321533203125,0.0997314453125,-1.1418914794921875,-0.1893768310546875
1789998053338286000,2.1032861328125,-0.328765869140625,-1.0179443359375,-0.2379150390625
1789998053348357000,2.113357177734375,-0.6122894287109375,-0.955718994140625,-0.1643829345703125
1789998053358428200,2.12342822265625,-0.4492340087890625,-1.068267822265625,-0.1295318603515625
1789998053368499200,2.133499267578125,-0.289886474609375,-1.1491546630859375,-0.2071533203125
1789998053378570200,2.1435703125,-0.3603057861328125,-0.928924560546875,-0.2082977294921875
1789998053388641300,2.153641357421875,0.108734130859375,-0.741058349609375,-0.302978515625
1789998053398712000,2.163712158203125,0.2153778076171875,-0.836517333984375,-0.3322296142578125
1789998053408783000,2.173783203125,-0.1997528076171875,-0.7923583984375,-0.226776123046875
1789998053418854100,2.183854248046875,-0.4627838134765625,-0.93817138671875,-0.1808319091796875
1789998053428925200,2.19392529296875,-0.2656097412109375,-1.1071929931640625,-0.1561279296875
1789998053438996200,2.203996337890625,-0.7393035888671875,-1.0039520263671875,-0.0754241943359375
1789998053449067300,2.2140673828125,-0.38818359375,-0.8882293701171875,-0.09576416015625
1789998053459138000,2.224137939453125,0.3100738525390625,-1.0275421142578125,-0.088134765625
1789998053469209000,2.234208984375,0.014739990234375,-0.9086151123046875,-0.1673583984375
1789998053479280000,2.244280029296875,-0.5768890380859375,-0.9199676513671875,-0.04058837890625
1789998053489351200,2.25435107421875,-0.1088104248046875,-1.0355224609375,0.1618194580078125
1789998053499422200,2.264422119140625,0.29150390625,-1.056488037109375,0.13458251953125
1789998053509493200,2.2744931640625,0.00408935546875,-1.041900634765625,0.151611328125
1789998053519564000,2.28456396484375,-0.2591094970703125,-1.020599365234375,0.2127227783203125
1789998053529635000,2.294635009765625,-0.0910797119140625,-0.9708709716796875,0.3029937744140625
1789998053539706000,2.3047060546875,-0.2562408447265625,-1.0321197509765625,0.2529144287109375
1789998053549777200,2.314777099609375,-0.4798126220703125,-1.1297607421875,0.112030029296875
1789998053559848200,2.32484814453125,-0.083251953125,-1.2503509521484375,0.0962371826171875
1789998053569919200,2.334919189453125,0.1766815185546875,-0.9490509033203125,0.0891876220703125
1789998053579990300,2.344990234375,0.0866851806640625,-0.8051605224609375,0.085723876953125
1789998053590061300,2.355061279296875,-0.0893402099609375,-0.90533447265625,0.188507080078125
1789998053600132400,2.36513232421875,-0.6937408447265625,-0.988006591796875,0.160186767578125
1789998053610203400,2.375203369140625,-0.6533660888671875,-1.085418701171875,0.1501617431640625
1789998053620274400,2.3852744140625,-0.012786865234375,-1.099884033203125,0.2651824951171875
1789998053630345500,2.395345458984375,0.211395263671875,-1.022003173828125,0.1004638671875
1789998053640416300,2.405416259765625,-0.0059051513671875,-0.9227447509765625,0.0033721923828125
1789998053650487300,2.4154873046875,-0.07440185546875,-0.8455657958984375,0.126495361328125
1789998053660558300,2.425558349609375,-0.093780517578125,-0.847137451171875,0.20794677734375
1789998053670629400,2.43562939453125,-0.1379852294921875,-0.8275909423828125,0.1652374267578125
1789998053680700400,2.445700439453125,-0.1460418701171875,-0.95294189453125,0.1668243408203125
1789998053690771500,2.455771484375,-0.47589111328125,-0.966278076171875,0.18218994140625
1789998053700842500,2.465842529296875,-0.6351318359375,-0.927642822265625,0.1822967529296875
1789998053710912300,2.475912353515625,-0.3326568603515625,-0.9257354736328125,0.120086669921875
1789998053720983300,2.4859833984375,-0.1370391845703125,-1.0775604248046875,-0.041168212890625
1789998053731054300,2.496054443359375,-0.4866180419921875,-1.1503143310546875,-0.057464599609375
1789998053741125400,2.50612548828125,-0.7950286865234375,-0.9351959228515625,0.0772247314453125
1789998053751196400,2.516196533203125,-0.537750244140625,-0.8552703857421875,0.1205291748046875
1789998053761267200,2.52626708984375,0.3495330810546875,-0.902587890625,-0.0068511962890625
1789998053771338200,2.536338134765625,0.38714599609375,-0.7497406005859375,-0.1658172607421875
1789998053781409300,2.5464091796875,-0.376617431640625,-0.6949462890625,0.0163116455078125
1789998053791480300,2.556480224609375,-0.9764404296875,-0.9138641357421875,0.13311767578125
1789998053801551400,2.56655126953125,-0.4941558837890625,-1.3232269287109375,-0.0116729736328125
1789998053811622400,2.576622314453125,-0.2873687744140625,-1.370880126953125,-0.251922607421875
1789998053821693200,2.586693115234375,-0.0178070068359375,-1.1536407470703125,-0.375244140625
1789998053831764200,2.59676416015625,0.25262451171875,-0.845458984375,-0.1512451171875
1789998053841835300,2.606835205078125,0.0238037109375,-0.6216278076171875,0.1496429443359375
1789998053851906300,2.61690625,-0.2627716064453125,-0.5947418212890625,0.1519927978515625
1789998053861977300,2.626977294921875,-0.13372802734375,-0.93988037109375,0.0531463623046875
1789998053872048400,2.63704833984375,-0.18389892578125,-1.2040557861328125,-0.0011138916015625
1789998053882119200,2.647119140625,-0.6794891357421875,-1.1306610107421875,0.0492095947265625
1789998053892190200,2.657190185546875,-0.7632904052734375,-1.0083770751953125,0.0909423828125
1789998053902261200,2.66726123046875,-0.3718109130859375,-1.172027587890625,0.011993408203125
1789998053912332300,2.677332275390625,0.0817413330078125,-1.1400299072265625,-0.168304443359375
1789998053922403300,2.6874033203125,-0.1152801513671875,-0.7281341552734375,-0.0270843505859375
1789998053932474400,2.697474365234375,-0.2450103759765625,-0.5604400634765625,0.238006591796875
1789998053942545200,2.707545166015625,0.0058441162109375,-0.81634521484375,0.2575225830078125
1789998053952616200,2.7176162109375,-0.0156097412109375,-1.1207733154296875,0.1237640380859375
1789998053962687200,2.727687255859375,-0.8436279296875,-1.1498870849609375,0.181243896484375
1789998053972758300,2.73775830078125,-1.5018768310546875,-0.9833984375,0.267242431640625
1789998053982829300,2.747829345703125,-0.642822265625,-1.141021728515625,0.1511993408203125
1789998053992900400,2.757900390625,0.1658782958984375,-1.25067138671875,0.0428314208984375
1789998054002971100,2.76797119140625,0.26416015625,-0.9507293701171875,-0.1040496826171875
1789998054013042200,2.778042236328125,-0.46441650390625,-0.57098388671875,0.030517578125
1789998054023113200,2.78811328125,-0.441650390625,-0.5493927001953125,0.2479705810546875
1789998054033184300,2.798184326171875,0.03350830078125,-1.129791259765625,0.0898590087890625
1789998054043255300,2.80825537109375,-0.5498504638671875,-1.3206787109375,-0.0826416015625
1789998054053326300,2.818326416015625,-0.796844482421875,-1.167694091796875,-0.05621337890625
1789998054063397000,2.828397216796875,-0.2212677001953125,-0.9253692626953125,-0.1568603515625
1789998054073468200,2.83846826171875,0.5630340576171875,-0.733978271484375,-0.2491302490234375
1789998054083539200,2.848539306640625,0.2332305908203125,-0.6413421630859375,-0.33892822265625
1789998054093610200,2.8586103515625,-0.5194244384765625,-0.7458953857421875,-0.2844696044921875
1789998054103681300,2.868681396484375,-0.9595947265625,-0.99310302734375,-0.08502197265625
1789998054113751300,2.878751220703125,-0.5782623291015625,-1.3067169189453125,0.0607147216796875
1789998054123822300,2.888822265625,0.3222808837890625,-1.5533599853515625,-0.1137542724609375
1789998054133893400,2.898893310546875,0.407684326171875,-1.17169189453125,-0.21673583984375
1789998054143964400,2.90896435546875,-0.0486297607421875,-0.6548919677734375,-0.040374755859375
1789998054154035500,2.919035400390625,-0.304840087890625,-0.5727386474609375,0.01629638671875
1789998054164106500,2.9291064453125,-0.0344085693359375,-0.9531707763671875,-0.1072235107421875
1789998054174177300,2.93917724609375,0.1137847900390625,-1.270294189453125,-0.227783203125
1789998054184248300,2.949248291015625,-0.2540283203125,-1.0005645751953125,-0.17010498046875
1789998054194319400,2.9593193359375,-0.3325347900390625,-0.89288330078125,-0.003204345703125
1789998054204390400,2.969390380859375,-0.14727783203125,-1.0738067626953125,0.0225982666015625
1789998054214461400,2.97946142578125,-0.223388671875,-1.045379638671875,-0.1020355224609375
1789998054224532500,2.989532470703125,0.088623046875,-0.994171142578125,-0.0995330810546875
1789998054234603300,2.999603271484375,0.2530975341796875,-0.9249725341796875,-0.0829925537109375
1789998054244674300,3.00967431640625,-0.0312042236328125,-0.9589080810546875,-0.0662689208984375
1789998054254745300,3.019745361328125,-0.3942718505859375,-1.0563812255859375,0.020477294921875
1789998054264816400,3.02981640625,-0.5416259765625,-1.129547119140625,-0.0372772216796875
1789998054274887400,3.039887451171875,-0.350677490234375,-1.1390533447265625,-0.1152496337890625
1789998054284958500,3.04995849609375,-0.006195068359375,-0.9730224609375,-0.19677734375
1789998054295029200,3.060029296875,0.1128692626953125,-0.7592315673828125,-0.155609130859375
1789998054305100300,3.070100341796875,0.0769195556640625,-0.870819091796875,-0.153472900390625
1789998054315171300,3.08017138671875,-0.225616455078125,-1.0698394775390625,-0.0345916748046875
1789998054325242400,3.090242431640625,-0.3417816162109375,-1.134918212890625,0.08380126953125
1789998054335313200,3.100313232421875,-0.3549041748046875,-1.0815277099609375,0.078369140625
1789998054345384200,3.11038427734375,-0.4459075927734375,-0.923583984375,0.08514404296875
1789998054355455200,3.120455322265625,-0.127655029296875,-1.0166168212890625,0.0087432861328125
1789998054365526300,3.1305263671875,-0.1581878662109375,-1.0295867919921875,-0.0657958984375
1789998054375597300,3.140597412109375,-0.5822296142578125,-0.890045166015625,0.0405120849609375
1789998054385668400,3.15066845703125,-0.7287139892578125,-1.1370697021484375,0.120025634765625
1789998054395739100,3.1607392578125,-0.3559417724609375,-1.214263916015625,-0.041961669921875
1789998054405810200,3.17081005859375,-0.3790740966796875,-0.9382476806640625,-0.074127197265625
1789998054415881200,3.180881103515625,-0.205718994140625,-0.7855377197265625,-0.0465240478515625
1789998054425952300,3.1909521484375,0.15521240234375,-0.9874267578125,-0.1148681640625
1789998054436022300,3.201022216796875,0.1645965576171875,-0.994873046875,-0.2000274658203125
1789998054446093000,3.211093017578125,0.1114501953125,-0.839599609375,-0.1446533203125
1789998054456164000,3.2211640625,-0.2294464111328125,-0.791534423828125,-0.06121826171875
1789998054466235100,3.231235107421875,-0.312652587890625,-0.9975128173828125,-0.08721923828125
1789998054476306200,3.24130615234375,-0.5282135009765625,-1.0830841064453125,-0.0987701416015625
1789998054486377200,3.251377197265625,-0.3487396240234375,-1.05841064453125,-0.0995330810546875
1789998054496448300,3.2614482421875,-0.2895050048828125,-1.00048828125,-0.092681884765625
1789998054506519000,3.27151904296875,-0.1738128662109375,-0.923736572265625,-0.1418304443359375
1789998054516590000,3.281590087890625,0.05645751953125,-0.865692138671875,-0.1325836181640625
1789998054526661000,3.2916611328125,-0.20684814453125,-0.7794952392578125,-0.0270843505859375
1789998054536732200,3.301732177734375,-0.4993133544921875,-0.8154144287109375,0.093170166015625
1789998054546803200,3.31180322265625,-0.2667999267578125,-1.123565673828125,0.0181121826171875
1789998054556874200,3.321874267578125,-0.0979156494140625,-1.094573974609375,-0.0967864990234375
1789998054566945000,3.331945068359375,-0.3872833251953125,-0.95001220703125,-0.0272064208984375
1789998054577016000,3.34201611328125,-0.186309814453125,-0.95037841796875,-0.0267333984375
1789998054587087000,3.352087158203125,-0.08880615234375,-0.9788360595703125,-0.0691680908203125
1789998054597158100,3.362158203125,-0.522979736328125,-0.9289703369140625,-0.061614990234375
1789998054607229200,3.372229248046875,-0.76629638671875,-0.949920654296875,0.0596466064453125
1789998054617300200,3.38230029296875,-0.21405029296875,-1.0314788818359375,0.0330963134765625
1789998054627371000,3.39237109375,0.30279541015625,-0.8728790283203125,-0.0907745361328125
1789998054637442000,3.402442138671875,-0.110870361328125,-0.7817230224609375,-0.039031982421875
1789998054647513000,3.41251318359375,-0.5725860595703125,-0.7886199951171875,0.0311279296875
1789998054657584000,3.422584228515625,-0.6622467041015625,-0.9798431396484375,0.078857421875
1789998054667655200,3.4326552734375,-0.39154052734375,-1.2808990478515625,0.000823974609375
1789998054677726200,3.442726318359375,-0.381591796875,-1.274261474609375,-0.0841064453125
1789998054687797000,3.452796875,-0.14678955078125,-1.0501861572265625,-0.14593505859375
1789998054697868000,3.462867919921875,0.5517578125,-0.8503875732421875,-0.205596923828125
1789998054707939000,3.47293896484375,-0.2375335693359375,-0.6514129638671875,-0.210174560546875
1789998054718010000,3.483010009765625,-0.5813446044921875,-0.8720550537109375,-0.1251678466796875
1789998054728081200,3.4930810546875,-0.0803985595703125,-1.325653076171875,-0.246673583984375
1789998054738152200,3.503152099609375,-0.192108154296875,-1.176116943359375,-0.30548095703125
1789998054748222200,3.51322216796875,-0.801239013671875,-0.9614715576171875,-0.062286376953125
1789998054758293200,3.523293212890625,-0.4145050048828125,-0.9855194091796875,-0.0186920166015625
1789998054768364300,3.5333642578125,-0.0173492431640625,-0.977630615234375,-0.239044189453125
1789998054778435300,3.543435302734375,0.2228851318359375,-0.796600341796875,-0.23486328125
1789998054788506400,3.55350634765625,0.0992889404296875,-0.758636474609375,-0.0476531982421875
1789998054798577200,3.5635771484375,-0.1969451904296875,-1.0012359619140625,0.0157928466796875
1789998054808648200,3.573648193359375,-0.537872314453125,-1.0647735595703125,0.0634613037109375
1789998054818719200,3.58371923828125,-0.4842376708984375,-1.2147216796875,0.0524444580078125
1789998054828790300,3.593790283203125,-0.2949676513671875,-1.1059112548828125,-0.0524444580078125
1789998054838861300,3.603861328125,-0.0806884765625,-0.8928375244140625,-0.15496826171875
1789998054848932400,3.613932373046875,0.0780487060546875,-0.7402496337890625,-0.1271820068359375
1789998054859003100,3.624003173828125,0.0482940673828125,-0.6585540771484375,-0.0383758544921875
1789998054869074200,3.63407421875,-0.2759552001953125,-0.7683563232421875,-0.0125274658203125
1789998054879145200,3.644145263671875,-0.11767578125,-0.89959716796875,-0.0481719970703125
1789998054889216300,3.65421630859375,-0.0109710693359375,-0.9294586181640625,-0.136505126953125
1789998054899287300,3.664287353515625,-0.710052490234375,-0.9360504150390625,-0.105560302734375
1789998054909358300,3.6743583984375,-0.74603271484375,-1.1105499267578125,-0.07666015625
1789998054919429400,3.684429443359375,-0.367401123046875,-1.206573486328125,-0.1567535400390625
1789998054929500200,3.694500244140625,-0.0189666748046875,-1.1175537109375,-0.1961822509765625
1789998054939571200,3.7045712890625,0.1294403076171875,-0.9081573486328125,-0.115203857421875
1789998054949642200,3.714642333984375,-0.0772857666015625,-0.6700286865234375,0.004913330078125
1789998054959713300,3.72471337890625,-0.4337005615234375,-0.871368408203125,0.014434814453125
1789998054969784300,3.734784423828125,-0.8682403564453125,-1.215362548828125,0.0565032958984375
1789998054979855400,3.74485546875,-0.76373291015625,-1.4565887451171875,-0.030120849609375
1789998054989926100,3.754926025390625,0.0287628173828125,-1.3780364990234375,-0.1023712158203125
1789998054999997200,3.7649970703125,0.49053955078125,-1.03509521484375,-0.06488037109375
1789998055010068200,3.775068115234375,-0.0176849365234375,-0.6021881103515625,0.019683837890625
1789998055020139300,3.78513916015625,-0.437774658203125,-0.706787109375,0.0826416015625
1789998055030209300,3.795209228515625,-0.02288818359375,-0.9454803466796875,0.108856201171875
1789998055040280000,3.805280029296875,-0.160003662109375,-0.97711181640625,-0.012115478515625
1789998055050351000,3.81535107421875,-0.3745880126953125,-1.00335693359375,-0.003265380859375
1789998055060422100,3.825422119140625,-0.475341796875,-0.9674835205078125,0.058502197265625
1789998055070493200,3.8354931640625,-0.386199951171875,-1.090667724609375,0.0341339111328125
1789998055080564200,3.845564208984375,-0.2501678466796875,-1.1573486328125,-0.0511016845703125
1789998055090635300,3.85563525390625,-0.3754119873046875,-0.9925994873046875,-0.14068603515625
1789998055100706000,3.8657060546875,-0.2442474365234375,-0.918731689453125,-0.1287078857421875
1789998055110777000,3.875777099609375,-0.0179290771484375,-0.6279449462890625,-0.0708465576171875
1789998055120848100,3.88584814453125,-0.00897216796875,-0.6070556640625,0.0196380615234375
1789998055130919200,3.895919189453125,-0.35906982421875,-0.7670440673828125,0.1316375732421875
1789998055140990200,3.905990234375,-0.465789794921875,-1.019683837890625,0.0501251220703125
1789998055151061200,3.916061279296875,-0.185546875,-1.1627197265625,-0.0955657958984375
1789998055161132000,3.926132080078125,-0.505889892578125,-1.113525390625,-0.1649017333984375
1789998055171203000,3.936203125,-0.7073211669921875,-1.0201416015625,-0.1247711181640625
1789998055181274000,3.946274169921875,-0.2369384765625,-0.9339141845703125,-0.075927734375
1789998055191345200,3.95634521484375,-0.2116546630859375,-0.725006103515625,-0.026031494140625
1789998055201416200,3.966416259765625,-0.6234283447265625,-0.77447509765625,0.0838470458984375
1789998055211487200,3.9764873046875,-0.39508056640625,-1.0757598876953125,0.2113037109375
1789998055221558000,3.98655810546875,-0.3282623291015625,-1.0512542724609375,0.2031707763671875
1789998055231629000,3.996629150390625,-0.2764739990234375,-1.120574951171875,-0.0304718017578125
1789998055241700000,4.0067001953125,-0.1416778564453125,-1.1412353515625,-0.07183837890625
1789998055251771100,4.016771240234375,-0.33331298828125,-0.907562255859375,0.022003173828125
1789998055261842200,4.02684228515625,-0.3553619384765625,-0.7353973388671875,0.19976806640625
1789998055271913200,4.036913330078125,-0.1348419189453125,-1.0016326904296875,0.19476318359375
1789998055281984000,4.04698388671875,0.3217010498046875,-1.2635345458984375,0.0974578857421875
1789998055292054300,4.05705419921875,0.0236968994140625,-1.045989990234375,0.0928192138671875
1789998055302125300,4.067125244140625,-0.79986572265625,-0.9654083251953125,0.0921630859375
1789998055312196400,4.0771962890625,-0.60302734375,-1.1647491455078125,0.0384674072265625
1789998055322267100,4.08726708984375,-0.0466461181640625,-1.1931610107421875,0.0590972900390625
1789998055332338200,4.097338134765625,-0.00982666015625,-0.8621063232421875,0.092926025390625
1789998055342409200,4.1074091796875,0.0489654541015625,-0.7387847900390625,0.158447265625
1789998055352480000,4.11747998046875,0.2218475341796875,-0.7964935302734375,0.20684814453125
1789998055362551000,4.127551025390625,-0.5015411376953125,-0.729217529296875,0.1330718994140625
1789998055372622000,4.1376220703125,-0.7638397216796875,-1.02081298828125,-0.007598876953125
1789998055382693000,4.147693115234375,-0.176361083984375,-1.2907562255859375,-0.0587310791015625
1789998055392764200,4.15776416015625,-0.476287841796875,-1.0557861328125,0.0550384521484375
1789998055402835200,4.167835205078125,-0.4382476806640625,-1.024200439453125,0.04022216796875
1789998055412906000,4.177906005859375,-0.2499847412109375,-0.9570159912109375,0.0211944580078125
1789998055422977000,4.18797705078125,-0.51116943359375,-0.738372802734375,0.0536346435546875
1789998055433048000,4.198048095703125,-0.2238616943359375,-0.9416656494140625,0.04962158203125
1789998055443119000,4.208119140625,0.047393798828125,-0.9652099609375,0.0778350830078125
1789998055453190100,4.218190185546875,-0.4234619140625,-0.7772979736328125,0.05596923828125
1789998055463261200,4.22826123046875,-0.3292388916015625,-0.91632080078125,0.0179901123046875
1789998055473332000,4.23833203125,-0.041961669921875,-0.9371490478515625,0.0030517578125
1789998055483403000,4.248403076171875,0.011322021484375,-0.91876220703125,0.0440826416015625
1789998055493474000,4.25847412109375,-0.1246795654296875,-0.8874053955078125,0.0101776123046875
1789998055503545000,4.268545166015625,-0.298583984375,-0.8821868896484375,-0.062530517578125
1789998055513616100,4.2786162109375,-0.4080657958984375,-1.0992279052734375,0.022216796875
1789998055523686000,4.288685791015625,-0.3465423583984375,-1.3004913330078125,-0.0273590087890625
1789998055533757000,4.2987568359375,-0.015899658203125,-1.233642578125,-0.089935302734375
1789998055543828000,4.308827880859375,-0.1508026123046875,-1.173583984375,-0.11346435546875
1789998055553899000,4.31889892578125,-0.1940460205078125,-1.027557373046875,-0.1437225341796875
1789998055563970000,4.328969970703125,-0.3595428466796875,-0.904754638671875,-0.119842529296875
1789998055574041000,4.339041015625,0.109344482421875,-0.9620819091796875,-0.0105438232421875
1789998055584111900,4.34911181640625,0.18524169921875,-1.033233642578125,0.0489501953125
1789998055594183000,4.359182861328125,-0.4701995849609375,-0.8950958251953125,0.0286102294921875
1789998055604254000,4.36925390625,-0.361053466796875,-1.1138458251953125,0.095367431640625
1789998055614325000,4.379324951171875,-0.145751953125,-1.26446533203125,0.0823516845703125
1789998055624396000,4.38939599609375,0.0412445068359375,-1.00286865234375,0.0538482666015625
1789998055634467000,4.399467041015625,0.3977203369140625,-0.844940185546875,0.0435943603515625
1789998055644537900,4.409537841796875,0.071685791015625,-0.7426300048828125,0.1579132080078125
1789998055654609000,4.41960888671875,-0.56494140625,-0.753509521484375,0.204437255859375
1789998055664680000,4.429679931640625,-0.502197265625,-1.0854034423828125,0.1929473876953125
1789998055674751000,4.4397509765625,-0.292388916015625,-1.256927490234375,0.1025238037109375
1789998055684822000,4.449822021484375,-0.054168701171875,-1.0796661376953125,0.040771484375
1789998055694893000,4.45989306640625,0.0234527587890625,-0.732696533203125,0.0772247314453125
1789998055704963800,4.4699638671875,-0.272186279296875,-0.7303009033203125,0.1235198974609375
1789998055715035000,4.480034912109375,-0.382080078125,-0.9882965087890625,0.1541748046875
1789998055725106000,4.49010595703125,-0.096954345703125,-1.3112030029296875,0.0836334228515625
1789998055735177000,4.500177001953125,-0.20550537109375,-1.077301025390625,0.0215606689453125
1789998055745248000,4.510248046875,-0.357818603515625,-0.89190673828125,-0.0532379150390625
1789998055755318000,4.520318115234375,-0.14117431640625,-0.85748291015625,0.0083465576171875
1789998055765389000,4.53038916015625,-0.4776763916015625,-0.8189849853515625,0.0724334716796875
1789998055775460000,4.540460205078125,-0.3280487060546875,-0.9240570068359375,-0.03216552734375
1789998055785531100,4.55053125,-0.046630859375,-0.9823760986328125,-0.011474609375
1789998055795602200,4.560602294921875,-0.4060211181640625,-0.8359375,0.0182037353515625
1789998055805673200,4.570673095703125,-0.23553466796875,-0.88720703125,-0.01934814453125
1789998055815744000,4.580743896484375,0.056182861328125,-0.97576904296875,-0.0438232421875
1789998055825815000,4.59081494140625,-0.1815032958984375,-0.98675537109375,-0.0224456787109375
1789998055835886000,4.600885986328125,-0.429840087890625,-1.086578369140625,-0.0352935791015625
1789998055845957000,4.61095703125,-0.3750762939453125,-1.041717529296875,-0.0598907470703125
1789998055856028200,4.621028076171875,-0.328460693359375,-0.99371337890625,0.038482666015625
1789998055866099200,4.63109912109375,-0.2860107421875,-1.0247650146484375,-0.001434326171875
1789998055876170000,4.641169921875,-0.3642425537109375,-0.99249267578125,0.0675811767578125
1789998055886241000,4.651240966796875,-0.3844146728515625,-0.958892822265625,0.2020721435546875
1789998055896312000,4.66131201171875,-0.3259124755859375,-0.996826171875,0.2147216796875
1789998055906383000,4.671383056640625,-0.493255615234375,-0.920623779296875,0.1868743896484375
1789998055916454100,4.6814541015625,-0.4193572998046875,-0.990753173828125,0.279022216796875
1789998055926525200,4.691525146484375,-0.307525634765625,-0.9214324951171875,0.22308349609375
1789998055936596000,4.701595947265625,-0.322296142578125,-0.788787841796875,0.17388916015625
1789998055946667000,4.7116669921875,-0.15667724609375,-0.93902587890625,0.1674041748046875
1789998055956737000,4.721737060546875,-0.1745147705078125,-1.0825347900390625,0.0670013427734375
1789998055966808000,4.73180810546875,-0.7346649169921875,-0.9494476318359375,0.1063385009765625
1789998055976879000,4.741879150390625,-0.7371826171875,-0.9111480712890625,0.0918426513671875
1789998055986950000,4.751949951171875,-0.163421630859375,-1.027862548828125,-0.09259033203125
1789998055997021000,4.76202099609375,0.0213165283203125,-0.825897216796875,-0.253753662109375
1789998056007092000,4.772092041015625,0.0022735595703125,-0.8459930419921875,-0.2328033447265625
1789998056017163000,4.7821630859375,-0.0279388427734375,-1.0106964111328125,-0.304473876953125
1789998056027234000,4.792234130859375,-0.9259185791015625,-1.0336151123046875,-0.2480621337890625
1789998056037305000,4.80230517578125,-0.8482513427734375,-1.21942138671875,-0.2093505859375
1789998056047376000,4.8123759765625,0.0875091552734375,-1.36993408203125,-0.4227142333984375
1789998056057447000,4.822447021484375,0.014129638671875,-0.9813385009765625,-0.4254608154296875
1789998056067518000,4.83251806640625,-0.47918701171875,-0.6409759521484375,-0.3072357177734375
1789998056077589000,4.842589111328125,0.277069091796875,-0.87445068359375,-0.45703125
1789998056087660000,4.852659912109375,0.243316650390625,-0.9571380615234375,-0.3950347900390625
1789998056097731000,4.86273095703125,-0.42877197265625,-0.937225341796875,-0.24285888671875
1789998056107801900,4.8728017578125,-0.4641571044921875,-1.1368865966796875,-0.3011474609375
1789998056117873000,4.882872802734375,-0.516937255859375,-1.102783203125,-0.358123779296875
1789998056127944000,4.89294384765625,-0.1827545166015625,-1.0544586181640625,-0.286407470703125
1789998056138015000,4.903014892578125,0.30194091796875,-1.04364013671875,-0.280731201171875
1789998056148086000,4.9130859375,-0.0778961181640625,-0.94549560546875,-0.117218017578125
1789998056158157000,4.923156982421875,-0.2245330810546875,-0.7783966064453125,-0.0155792236328125
1789998056168227000,4.93322705078125,-0.3337554931640625,-0.87396240234375,-0.08953857421875
1789998056178298000,4.943298095703125,-0.0711212158203125,-0.999481201171875,-0.042694091796875
1789998056188369200,4.953369140625,-0.0330352783203125,-1.0353240966796875,-0.05438232421875
1789998056198440200,4.963440185546875,-0.1657867431640625,-0.9088287353515625,-0.012725830078125
1789998056208511200,4.97351123046875,-0.4656829833984375,-0.7534332275390625,0.11651611328125
1789998056218582000,4.98358203125,-0.4391326904296875,-1.02764892578125,0.045379638671875
1789998056228653000,4.993653076171875,-0.6201324462890625,-1.2469635009765625,0.1538543701171875
1789998056238724000,5.00372412109375,-0.5165863037109375,-1.1187896728515625,0.0862884521484375
1789998056248795100,5.013795166015625,0.16973876953125,-0.8745269775390625,0.0269622802734375
1789998056258866200,5.0238662109375,-0.121551513671875,-0.716766357421875,0.1088409423828125
1789998056268937200,5.033937255859375,-0.3045196533203125,-0.74908447265625,0.1339263916015625
1789998056279008000,5.044008056640625,-0.0958099365234375,-0.82696533203125,0.0355072021484375
1789998056289079000,5.0540791015625,-0.3085784912109375,-0.9568634033203125,0.0699462890625
1789998056299150000,5.064150146484375,-0.3893280029296875,-1.0751800537109375,0.071685791015625
1789998056309221000,5.07422119140625,-0.091217041015625,-0.989837646484375,0.06060791015625
1789998056319292400,5.08429248046875,-0.215789794921875,-0.94903564453125,0.1502227783203125
1789998056329363500,5.094363525390625,-0.167388916015625,-1.03131103515625,0.1836090087890625
1789998056339434500,5.1044345703125,0.0631256103515625,-0.9758148193359375,0.16796875
1789998056349505300,5.11450537109375,-0.2235107421875,-0.893402099609375,0.209716796875
1789998056359576300,5.124576416015625,-0.253509521484375,-1.016448974609375,0.195465087890625
1789998056369646300,5.134646240234375,-0.534698486328125,-1.1029510498046875,0.15350341796875
1789998056379717400,5.14471728515625,-0.5675506591796875,-1.0180816650390625,0.21405029296875
1789998056389788200,5.1547880859375,0.118316650390625,-1.0510101318359375,0.1479644775390625
1789998056399859200,5.164859130859375,0.3468170166015625,-0.80999755859375,0.1867523193359375
1789998056409930200,5.17493017578125,-0.34765625,-0.6401519775390625,0.2967376708984375
1789998056420001300,5.185001220703125,-0.5003814697265625,-0.938995361328125,0.125946044921875
1789998056430072300,5.195072265625,-0.2712249755859375,-1.2398834228515625,0.0791015625
1789998056440143400,5.205143310546875,-0.2723541259765625,-1.075958251953125,0.1200103759765625
1789998056450214400,5.21521435546875,-0.19830322265625,-0.9312896728515625,0.079071044921875
1789998056460285200,5.22528515625,-0.1815185546875,-0.93389892578125,-0.006378173828125
1789998056470356200,5.235356201171875,-0.2929534912109375,-0.8868560791015625,-0.00079345703125
1789998056480427300,5.24542724609375,-0.2057342529296875,-1.0493011474609375,0.0149383544921875
1789998056490498300,5.255498291015625,-0.511474609375,-1.0262298583984375,0.0323333740234375
1789998056500569300,5.2655693359375,-0.6580963134765625,-1.020233154296875,0.1213531494140625
1789998056510640400,5.275640380859375,-0.1652679443359375,-1.1345672607421875,-0.0953216552734375
1789998056520711200,5.285711181640625,-0.21612548828125,-0.945220947265625,-0.1225738525390625
1789998056530782200,5.2957822265625,-0.1976318359375,-0.8195648193359375,-0.0848236083984375
1789998056540853200,5.305853271484375,0.2526092529296875,-0.9214324951171875,-0.1746826171875
1789998056550924300,5.31592431640625,-0.348541259765625,-0.80224609375,-0.0529022216796875
1789998056560994300,5.325994384765625,-0.7789306640625,-0.8384246826171875,-0.029052734375
1789998056571065000,5.336065185546875,-0.4453887939453125,-1.0674591064453125,-0.07574462890625
1789998056581136100,5.34613623046875,-0.1098480224609375,-0.9936676025390625,-0.115936279296875
1789998056591207200,5.356207275390625,-0.220977783203125,-0.83526611328125,-0.18499755859375
1789998056601278200,5.3662783203125,-0.118377685546875,-0.9659576416015625,-0.126617431640625
1789998056611349200,5.376349365234375,-0.6193084716796875,-1.005767822265625,-0.054168701171875
1789998056621420300,5.386420166015625,-0.913238525390625,-1.0458831787109375,-0.0242462158203125
1789998056631491000,5.396490966796875,-0.3225250244140625,-1.2548065185546875,-0.0428924560546875
1789998056641562000,5.40656201171875,-0.0958709716796875,-1.0409088134765625,-0.0363311767578125
1789998056651633200,5.416633056640625,-0.5045013427734375,-0.8492279052734375,-0.0296173095703125
1789998056661704200,5.4267041015625,-0.2724456787109375,-1.01287841796875,-0.1676177978515625
1789998056671775200,5.436775146484375,-0.2923583984375,-1.1512451171875,-0.221954345703125
1789998056681846300,5.44684619140625,-0.6594696044921875,-1.1163787841796875,-0.0849761962890625
1789998056691917000,5.4569169921875,-0.30096435546875,-0.9472808837890625,-0.16998291015625
1789998056701988000,5.466988037109375,0.305694580078125,-1.0023956298828125,-0.297210693359375
1789998056712059100,5.47705908203125,-0.1684722900390625,-0.837127685546875,-0.256744384765625
1789998056722130200,5.487130126953125,-0.3580780029296875,-0.7561187744140625,-0.271484375
1789998056732201200,5.497201171875,0.0533447265625,-1.05596923828125,-0.335205078125
1789998056742272300,5.507272216796875,-0.2500152587890625,-1.09210205078125,-0.2399139404296875
1789998056752342300,5.51734228515625,-0.3997955322265625,-1.1719207763671875,-0.184600830078125
1789998056762413300,5.527413330078125,-0.505279541015625,-1.2392120361328125,-0.116302490234375
1789998056772484400,5.537484375,-0.3492584228515625,-1.012725830078125,-0.124359130859375
1789998056782555400,5.547555419921875,0.2919158935546875,-0.879638671875,-0.12762451171875
1789998056792626400,5.55762646484375,0.425048828125,-0.8343353271484375,-0.0449066162109375
1789998056802697200,5.567697265625,0.0701904296875,-0.810943603515625,-0.049774169921875
1789998056812768300,5.577768310546875,-0.4227294921875,-1.0006103515625,-0.0293426513671875
1789998056822839300,5.58783935546875,-0.50701904296875,-1.244537353515625,-0.0004119873046875
1789998056832910300,5.597910400390625,-0.0879974365234375,-1.2257232666015625,-0.0956268310546875
1789998056842981400,5.6079814453125,-0.143524169921875,-0.7811431884765625,-0.1103973388671875
1789998056853052400,5.618052490234375,-0.0353240966796875,-0.7095947265625,-0.085052490234375
1789998056863123200,5.628123291015625,0.1514892578125,-0.7630157470703125,-0.138671875
1789998056873194200,5.6381943359375,0.0172882080078125,-0.7535400390625,-0.09576416015625
1789998056883265300,5.648265380859375,-0.1687164306640625,-1.0449676513671875,-0.043182373046875
1789998056893336300,5.65833642578125,-0.6070709228515625,-1.2378082275390625,-0.05548095703125
1789998056903407400,5.668407470703125,-0.848846435546875,-1.1238555908203125,-0.0734710693359375
1789998056913478400,5.678478515625,-0.1446990966796875,-1.0439300537109375,-0.193695068359375
1789998056923548200,5.688548095703125,0.077392578125,-0.977630615234375,-0.3099822998046875
1789998056933619200,5.698619140625,-0.0424346923828125,-0.95257568359375,-0.31207275390625
1789998056943690200,5.708690185546875,0.0219879150390625,-0.746917724609375,-0.1816864013671875
1789998056953761300,5.71876123046875,-0.11810302734375,-0.8350067138671875,-0.1355438232421875
1789998056963832300,5.728832275390625,-0.399169921875,-1.07855224609375,-0.095550537109375
1789998056973903000,5.738903076171875,-0.286834716796875,-1.164794921875,-0.1338653564453125
1789998056983974100,5.74897412109375,-0.4197845458984375,-1.224151611328125,-0.2184600830078125
1789998056994045200,5.759045166015625,-0.71588134765625,-1.053802490234375,-0.178314208984375
1789998057004116200,5.7691162109375,-0.3627471923828125,-0.9577789306640625,-0.223541259765625
1789998057014187300,5.779187255859375,-0.0278472900390625,-0.994537353515625,-0.243072509765625
1789998057024258300,5.78925830078125,-0.34552001953125,-0.8744964599609375,-0.0875701904296875
1789998057034329000,5.7993291015625,-0.094512939453125,-0.85125732421875,-0.1641693115234375
1789998057044400000,5.809400146484375,0.29229736328125,-1.0063323974609375,-0.177581787109375
1789998057054471200,5.81947119140625,-0.047943115234375,-0.8722381591796875,-0.096160888671875
1789998057064542200,5.829542236328125,-0.270416259765625,-0.9246673583984375,-0.2078704833984375
1789998057074613200,5.83961328125,-0.4202117919921875,-0.959503173828125,-0.2068939208984375
1789998057084684300,5.849684326171875,-0.202423095703125,-1.0110931396484375,-0.206695556640625
1789998057094754300,5.85975439453125,-0.0871734619140625,-1.0255889892578125,-0.213775634765625
1789998057104825300,5.869825439453125,-0.3065032958984375,-0.761749267578125,-0.107940673828125
1789998057114896400,5.879896484375,-0.390380859375,-0.8732757568359375,-0.0428009033203125
1789998057124967400,5.889967529296875,-0.4217071533203125,-1.1331329345703125,-0.1321563720703125
1789998057135038500,5.90003857421875,-1.0079345703125,-0.9855499267578125,-0.056121826171875
1789998057145109200,5.910109130859375,-0.3121337890625,-1.004547119140625,-0.130706787109375
1789998057155180300,5.92018017578125,-0.0067596435546875,-1.0024261474609375,-0.115692138671875
1789998057165251300,5.930251220703125,-0.6213836669921875,-0.7099151611328125,0.116607666015625
1789998057175322400,5.940322265625,-0.2813720703125,-0.8043212890625,0.010833740234375
1789998057185393400,5.950393310546875,0.13189697265625,-0.8297119140625,0.0080718994140625
1789998057195464400,5.96046435546875,-0.2674102783203125,-0.881011962890625,0.0799102783203125
1789998057205535200,5.97053515625,-0.55865478515625,-0.97515869140625,-0.1088104248046875
1789998057215606300,5.980606201171875,-0.1981048583984375,-1.0738677978515625,-0.14813232421875
1789998057225677300,5.99067724609375,-0.0837554931640625,-1.0317840576171875,-0.0544281005859375
1789998057235748400,6.000748291015625,-0.5463409423828125,-0.804168701171875,-0.0074920654296875
1789998057245819400,6.0108193359375,-0.56622314453125,-0.8935546875,-0.085784912109375
1789998057255890400,6.020890380859375,-0.084259033203125,-0.92877197265625,0.09722900390625
1789998057265960200,6.030960205078125,-0.1515350341796875,-0.697235107421875,0.1990509033203125
1789998057276031200,6.04103125,-0.04742431640625,-0.9005279541015625,0.006988525390625
1789998057286102300,6.051102294921875,-0.263916015625,-1.167572021484375,0.04754638671875
1789998057296173300,6.06117333984375,-0.923614501953125,-1.104705810546875,0.0565032958984375
1789998057306244400,6.071244384765625,-0.751800537109375,-1.23828125,0.02197265625
1789998057316314600,6.081314697265625,0.048187255859375,-1.2352142333984375,0.0274658203125
1789998057326385700,6.0913857421875,0.2040557861328125,-0.9761810302734375,0.141937255859375
1789998057336456700,6.101456787109375,-0.278106689453125,-0.6239776611328125,0.161224365234375
1789998057346527700,6.11152783203125,-0.3092041015625,-0.55914306640625,0.1380462646484375
1789998057356598800,6.121598876953125,-0.12298583984375,-0.85443115234375,0.235137939453125
1789998057366669600,6.131669677734375,-0.328765869140625,-1.0335693359375,0.1706390380859375
1789998057376740600,6.14174072265625,-0.31512451171875,-1.0958099365234375,0.076629638671875
1789998057386811600,6.151811767578125,0.0023040771484375,-0.87030029296875,0.1059112548828125
1789998057396882700,6.161882568359375,-0.218841552734375,-0.68621826171875,0.100799560546875
1789998057406953700,6.17195361328125,0.1908721923828125,-0.7560577392578125,0.0369110107421875
1789998057417024800,6.182024658203125,0.2182769775390625,-0.7923736572265625,0.107147216796875
1789998057427094800,6.1920947265625,-0.55908203125,-0.9175262451171875,0.1538848876953125
1789998057437165800,6.202165771484375,-0.696685791015625,-1.3377838134765625,0.0940399169921875
1789998057447236900,6.21223681640625,-0.58795166015625,-1.372650146484375,0.0613250732421875
1789998057457308000,6.222307861328125,-0.142791748046875,-1.1865386962890625,0.0699615478515625
1789998057467379000,6.23237890625,0.02813720703125,-0.9341278076171875,0.206817626953125
1789998057477449700,6.24244970703125,-0.4916534423828125,-0.680999755859375,0.305572509765625
1789998057487520800,6.252520751953125,-0.431243896484375,-0.89501953125,0.232635498046875
1789998057497591800,6.262591796875,-0.134613037109375,-1.042877197265625,0.2666168212890625
1789998057507662800,6.272662841796875,0.06146240234375,-1.0318603515625,0.230316162109375
1789998057517734000,6.28273388671875,0.272003173828125,-0.79400634765625,0.2073974609375
1789998057527805000,6.292804931640625,0.1528778076171875,-0.63262939453125,0.2101593017578125
1789998057537875700,6.302875732421875,-0.3721771240234375,-0.896148681640625,0.2161407470703125
1789998057547946800,6.31294677734375,-1.0780487060546875,-1.276824951171875,0.10711669921875
1789998057558017800,6.323017822265625,-0.7398529052734375,-1.3814849853515625,0.049041748046875
1789998057568088800,6.3330888671875,0.5555419921875,-1.0640869140625,0.0667877197265625
1789998057578159900,6.343159912109375,0.9948883056640625,-0.6299591064453125,0.0209808349609375
1789998057588229600,6.353229736328125,-0.4180755615234375,-0.600128173828125,0.0648193359375
1789998057598300700,6.36330078125,-1.5973663330078125,-1.18902587890625,0.10638427734375
1789998057608371700,6.373371826171875,-1.113067626953125,-1.5573577880859375,-0.009552001953125
1789998057618442800,6.38344287109375,-0.2577972412109375,-1.3918914794921875,-0.1168060302734375
1789998057628513800,6.393513671875,0.8560943603515625,-1.1069488525390625,-0.1732940673828125
1789998057638584800,6.403584716796875,0.7393646240234375,-0.4757080078125,-0.1586151123046875
1789998057648655600,6.413655517578125,-0.532318115234375,-0.0953826904296875,-0.0616607666015625
1789998057658726700,6.4237265625,-0.7262115478515625,-0.768890380859375,0.02679443359375
1789998057668797700,6.433797607421875,-0.225677490234375,-1.348114013671875,-0.06103515625
1789998057678868700,6.44386865234375,-0.0809326171875,-1.264068603515625,0.0367889404296875
1789998057688939800,6.453939697265625,-0.5334930419921875,-0.8275909423828125,0.1309356689453125
1789998057699010800,6.4640107421875,-0.5838623046875,-0.605804443359375,-0.0118408203125
1789998057709081900,6.474081787109375,-0.1798095703125,-0.8676300048828125,-0.0840606689453125
1789998057719152600,6.484152587890625,-0.2805023193359375,-0.99407958984375,-0.07275390625
1789998057729223700,6.4942236328125,-0.025390625,-1.1701202392578125,0.0107269287109375
1789998057739293700,6.504293701171875,-0.012054443359375,-1.03680419921875,0.04132080078125
1789998057749364700,6.51436474609375,-0.3719024658203125,-1.0440673828125,0.048187255859375
1789998057759435800,6.524435791015625,-0.682098388671875,-1.2139129638671875,0.021270751953125
1789998057769506800,6.5345068359375,-0.590606689453125,-1.259918212890625,0.0341644287109375
1789998057779577900,6.544577880859375,-0.4421234130859375,-0.9582672119140625,-0.0106048583984375
1789998057789649000,6.55464892578125,-0.2300872802734375,-0.81768798828125,0.02099609375
1789998057799720000,6.564719970703125,0.098052978515625,-0.904052734375,0.003662109375
1789998057809791000,6.574791015625,-0.4090423583984375,-0.8134918212890625,-0.0187225341796875
1789998057819861800,6.58486181640625,-0.59375,-0.8551788330078125,-0.095001220703125
1789998057829932800,6.594932861328125,-0.120635986328125,-1.0703582763671875,-0.2852020263671875
1789998057840003800,6.60500390625,0.0084991455078125,-1.0970611572265625,-0.1894378662109375
1789998057850075000,6.615074951171875,-0.2197113037109375,-0.9811859130859375,-0.0962066650390625
1789998057860146000,6.62514599609375,-0.192718505859375,-0.909332275390625,-0.0477294921875
1789998057870217000,6.635217041015625,-0.326751708984375,-0.9196929931640625,-0.0149993896484375
1789998057880288000,6.6452880859375,-0.519378662109375,-0.9705963134765625,-0.01446533203125
1789998057890358800,6.65535888671875,-0.1990509033203125,-1.161346435546875,-0.041534423828125
1789998057900428800,6.6654287109375,0.185699462890625,-1.2334747314453125,-0.0689849853515625
1789998057910499800,6.675499755859375,-0.1896820068359375,-0.866424560546875,-0.0193023681640625
1789998057920571000,6.68557080078125,-0.6082000732421875,-0.7970428466796875,-0.019500732421875
1789998057930641700,6.6956416015625,-0.4316864013671875,-1.0731658935546875,-0.134185791015625
1789998057940712700,6.705712646484375,-0.4163970947265625,-1.09429931640625,-0.206787109375
1789998057950783700,6.71578369140625,-0.334747314453125,-0.918914794921875,-0.1639251708984375
1789998057960854800,6.725854736328125,-0.12469482421875,-0.821624755859375,-0.1692352294921875
1789998057970925800,6.73592578125,-0.1532745361328125,-0.8236236572265625,-0.2290191650390625
1789998057980996900,6.745996826171875,-0.327362060546875,-0.89752197265625,-0.2095947265625
1789998057991068000,6.75606787109375,-0.3185882568359375,-0.9870758056640625,-0.145599365234375
1789998058001138700,6.766138671875,-0.17071533203125,-1.052947998046875,-0.1498260498046875
1789998058011209700,6.776209716796875,-0.284881591796875,-1.14208984375,-0.1378173828125
1789998058021280800,6.78628076171875,-0.4138336181640625,-1.2039031982421875,-0.1738739013671875
1789998058031351800,6.796351806640625,-0.406494140625,-1.1417694091796875,-0.19952392578125
1789998058041421600,6.806421630859375,-0.180419921875,-1.0187225341796875,-0.1634368896484375
1789998058051492600,6.81649267578125,0.1177825927734375,-0.884765625,-0.194610595703125
1789998058061563600,6.826563720703125,0.0806121826171875,-0.8000946044921875,-0.2781982421875
1789998058071634700,6.836634765625,-0.108428955078125,-0.9122467041015625,-0.1167144775390625
1789998058081705700,6.846705810546875,-0.116546630859375,-1.0049896240234375,-0.0737762451171875
1789998058091776800,6.85677685546875,-0.107177734375,-1.1160888671875,-0.027740478515625
1789998058101847800,6.866847900390625,-0.053192138671875,-1.04693603515625,-0.02166748046875
1789998058111918600,6.876918701171875,-0.4284210205078125,-1.0201263427734375,0.019561767578125
1789998058121989600,6.88698974609375,-0.597808837890625,-1.01416015625,0.0326690673828125
1789998058132060700,6.897060791015625,-0.0619049072265625,-1.1390533447265625,-0.115142822265625
1789998058142131700,6.907131591796875,-0.05859375,-1.0296173095703125,-0.077850341796875
1789998058152202800,6.91720263671875,-0.224945068359375,-1.004669189453125,0.031158447265625
1789998058162273800,6.927273681640625,-0.42376708984375,-0.917510986328125,0.074127197265625
1789998058172344600,6.937344482421875,0.0007781982421875,-1.0464630126953125,0.025634765625
1789998058182415600,6.94741552734375,0.3004302978515625,-1.0772552490234375,-0.009063720703125
1789998058192486000,6.95748583984375,-0.01434326171875,-0.944427490234375,0.058502197265625
1789998058202557000,6.967556884765625,0.0741424560546875,-0.881591796875,0.0402984619140625
1789998058212628000,6.9776279296875,0.177581787109375,-0.77178955078125,0.0009918212890625
1789998058222698800,6.98769873046875,-0.13629150390625,-0.7446136474609375,-0.0045928955078125
1789998058232769800,6.997769775390625,-0.04229736328125,-0.9038848876953125,-0.028472900390625
1789998058242840800,7.0078408203125,-0.169342041015625,-0.823577880859375,-0.121337890625
1789998058252911900,7.017911865234375,-0.4659576416015625,-0.946014404296875,-0.1882171630859375
1789998058262983000,7.02798291015625,-0.625946044921875,-1.0635223388671875,-0.1190032958984375
1789998058273054000,7.038053955078125,-0.215728759765625,-1.1458282470703125,-0.15228271484375
1789998058283124700,7.048124755859375,-0.036773681640625,-1.0133819580078125,-0.069671630859375
1789998058293195800,7.05819580078125,-0.31982421875,-0.83941650390625,0.0288543701171875
1789998058303266800,7.068266845703125,-0.64288330078125,-0.8266448974609375,0.0340728759765625
1789998058313337900,7.078337890625,-0.53729248046875,-0.9062347412109375,0.0218963623046875
1789998058323409700,7.08840966796875,-0.290069580078125,-1.1665802001953125,-0.069366455078125
1789998058333479700,7.098479736328125,-0.468109130859375,-1.1029205322265625,-0.02935791015625
1789998058343550500,7.108550537109375,-0.6817169189453125,-0.982421875,0.0242919921875
1789998058353621500,7.11862158203125,-0.4030914306640625,-1.0452728271484375,0.07275390625
1789998058363692500,7.128692626953125,-0.3786163330078125,-1.087158203125,0.091094970703125
1789998058373763600,7.138763671875,-0.129974365234375,-0.97491455078125,0.03265380859375
1789998058383834600,7.148834716796875,-0.0324554443359375,-0.8698883056640625,0.0661468505859375
1789998058393905700,7.15890576171875,-0.1506195068359375,-0.8763275146484375,-0.02374267578125
1789998058403976700,7.168976806640625,-0.305419921875,-1.05181884765625,-0.0319061279296875
1789998058414047500,7.179047607421875,-0.3730316162109375,-1.139678955078125,-0.0078277587890625
1789998058424118500,7.189118408203125,-0.3225555419921875,-1.2909088134765625,-0.1019287109375
1789998058434189600,7.199189453125,-0.4004058837890625,-1.1337127685546875,-0.0587158203125
1789998058444260600,7.209260498046875,-0.2479248046875,-0.9362335205078125,-0.073394775390625
1789998058454331600,7.21933154296875,0.2066802978515625,-0.7173309326171875,-0.240692138671875
1789998058464402700,7.229402587890625,0.1569366455078125,-0.64013671875,-0.2062530517578125
1789998058474472400,7.239472412109375,-0.098297119140625,-0.7836456298828125,-0.1255340576171875
1789998058484543500,7.24954345703125,-0.6660919189453125,-0.888916015625,-0.1400909423828125
1789998058494614500,7.259614501953125,-0.972015380859375,-1.0893096923828125,-0.1671295166015625
1789998058504685600,7.269685546875,-0.2486724853515625,-1.28558349609375,-0.22503662109375
1789998058514756600,7.279756591796875,0.116424560546875,-0.8917694091796875,-0.2028350830078125
1789998058524827400,7.289827392578125,-0.1165008544921875,-0.5224151611328125,-0.0961456298828125
1789998058534898400,7.2998984375,-0.273956298828125,-0.7211761474609375,-0.0030670166015625
1789998058544969500,7.309969482421875,-0.4131317138671875,-0.997161865234375,0.045745849609375
1789998058555040500,7.32004052734375,-0.5021514892578125,-1.106842041015625,-0.02947998046875
1789998058565111600,7.330111572265625,-0.090240478515625,-1.1136627197265625,-0.1954345703125
1789998058575182600,7.3401826171875,-0.313720703125,-1.052947998046875,-0.1999969482421875
1789998058585253400,7.35025341796875,-0.7747039794921875,-0.9683685302734375,-0.1178741455078125
1789998058595324400,7.360324462890625,-0.3670654296875,-1.056182861328125,-0.1800079345703125
1789998058605395500,7.3703955078125,0.1788330078125,-1.147247314453125,-0.3055419921875
1789998058615465700,7.3804658203125,0.0683746337890625,-1.012237548828125,-0.1735382080078125
1789998058625536500,7.39053662109375,0.0173492431640625,-0.7169189453125,-0.0661163330078125
1789998058635607600,7.400607666015625,-0.2087860107421875,-0.8211517333984375,-0.0848846435546875
1789998058645678600,7.4106787109375,-0.3905029296875,-1.0869598388671875,-0.07159423828125
1789998058655749600,7.42074951171875,-0.295867919921875,-1.1296844482421875,-0.047332763671875
1789998058665820700,7.430820556640625,-0.0865325927734375,-0.935760498046875,-0.1634521484375
1789998058675891700,7.4408916015625,0.23211669921875,-0.931060791015625,-0.1827239990234375
1789998058685962800,7.450962646484375,-0.335784912109375,-0.6981964111328125,-0.040008544921875
1789998058696033500,7.461033447265625,-0.2134246826171875,-0.9876861572265625,0.0385284423828125
1789998058706104600,7.4711044921875,-0.140380859375,-1.207550048828125,0.0428009033203125
1789998058716175600,7.481175537109375,-0.532135009765625,-1.257965087890625,0.022308349609375
1789998058726246700,7.49124658203125,-0.6011505126953125,-1.2068634033203125,-0.0038604736328125
1789998058736317700,7.501317626953125,-0.2563323974609375,-0.9536590576171875,0.0046234130859375
1789998058746388700,7.511388671875,0.291259765625,-0.7405242919921875,-0.060760498046875
1789998058756458500,7.52145849609375,0.1805572509765625,-0.7061309814453125,0.0505218505859375
1789998058766529500,7.531529541015625,-0.0806427001953125,-0.61663818359375,0.2133941650390625
1789998058776600600,7.5416005859375,-0.1639556884765625,-0.7844696044921875,0.16571044921875
1789998058786671600,7.551671630859375,-0.5320892333984375,-1.095916748046875,0.1721954345703125
1789998058796742700,7.56174267578125,-0.83673095703125,-1.3200225830078125,0.10791015625
1789998058806813400,7.5718134765625,-0.667755126953125,-1.2396087646484375,-0.0097808837890625
1789998058816884500,7.581884521484375,0.184722900390625,-1.0387115478515625,-0.0250244140625
1789998058826955500,7.59195556640625,0.40509033203125,-0.8555908203125,-0.008331298828125
1789998058837026600,7.602026611328125,-0.026611328125,-0.8257293701171875,0.0623626708984375
1789998058847097600,7.61209765625,-0.454681396484375,-0.8746490478515625,0.1432037353515625
1789998058857168600,7.622168701171875,-0.4273681640625,-0.9790802001953125,0.104339599609375
1789998058867239400,7.632239501953125,-0.411834716796875,-1.206298828125,0.0037384033203125
1789998058877310500,7.642310546875,-0.448455810546875,-1.2878570556640625,-0.00946044921875
1789998058887380500,7.65238037109375,-0.0892333984375,-1.15191650390625,-0.0272369384765625
1789998058897451500,7.662451416015625,-0.0655364990234375,-0.804290771484375,-0.0567474365234375
1789998058907522600,7.6725224609375,-0.3624420166015625,-0.7829742431640625,-0.0140228271484375
1789998058917593600,7.682593505859375,-0.4239349365234375,-0.9104156494140625,0.036041259765625
1789998058927664600,7.69266455078125,-0.1677398681640625,-0.9122772216796875,-0.0368194580078125
1789998058937735700,7.702735595703125,-0.0277252197265625,-0.9659423828125,-0.0304412841796875
1789998058947806700,7.712806640625,-0.4029388427734375,-1.04071044921875,-0.0273895263671875
1789998058957877800,7.722877685546875,-0.447998046875,-0.959228515625,-0.03778076171875
1789998058967948800,7.73294873046875,0.050262451171875,-0.9997711181640625,-0.0885009765625
1789998058978019600,7.74301953125,0.202392578125,-0.9519500732421875,-0.0569305419921875
1789998058988090600,7.753090576171875,-0.3429412841796875,-0.8931884765625,0.0334930419921875
1789998058998161700,7.76316162109375,-0.12945556640625,-0.9191131591796875,0.083251953125
1789998059008232700,7.773232666015625,-0.2160186767578125,-0.9424285888671875,0.074249267578125
1789998059018302700,7.783302734375,-0.402923583984375,-1.003265380859375,0.1321868896484375
1789998059028373500,7.79337353515625,-0.4980010986328125,-0.9661102294921875,0.02923583984375
1789998059038444500,7.803444580078125,-0.5456390380859375,-0.8477935791015625,0.0049285888671875
1789998059048515600,7.813515625,-0.362579345703125,-0.8916778564453125,-0.00653076171875
1789998059058586600,7.823586669921875,-0.6107635498046875,-0.8834686279296875,0.0788116455078125
1789998059068657700,7.83365771484375,0.1006622314453125,-1.043609619140625,0.0177764892578125
1789998059078728700,7.843728759765625,0.375701904296875,-0.99322509765625,-0.0052032470703125
1789998059088799500,7.853799560546875,-0.167877197265625,-0.85546875,0.032684326171875
1789998059098870500,7.86387060546875,-0.7163848876953125,-0.9997711181640625,0.0487060546875
1789998059108941600,7.873941650390625,-0.744720458984375,-1.167572021484375,0.14447021484375
1789998059119012600,7.8840126953125,-0.167999267578125,-1.08050537109375,0.0536956787109375
1789998059129083600,7.894083740234375,0.190521240234375,-1.015655517578125,0.076507568359375
1789998059139154700,7.90415478515625,0.1207122802734375,-0.911102294921875,0.082366943359375
1789998059149224400,7.914224365234375,-0.396697998046875,-0.930084228515625,0.066497802734375
1789998059159295500,7.92429541015625,-0.56549072265625,-1.0576934814453125,0.05181884765625
1789998059169366500,7.934366455078125,-0.0667877197265625,-1.2077484130859375,-0.0308685302734375
1789998059179437600,7.9444375,-0.0320587158203125,-1.028656005859375,-0.08740234375
1789998059189508600,7.954508544921875,-0.4499359130859375,-0.7918548583984375,-0.0391082763671875
1789998059199579400,7.964579345703125,-0.4050750732421875,-0.96453857421875,-0.049102783203125
1789998059209650400,7.974650390625,-0.3165130615234375,-1.1064910888671875,-0.10009765625
1789998059219721500,7.984721435546875,-0.548614501953125,-1.0502166748046875,-0.0721588134765625
1789998059229792500,7.99479248046875,-0.253265380859375,-1.11260986328125,-0.0932159423828125
1789998059239863600,8.004863525390626,-0.0754547119140625,-0.9929656982421875,-0.105377197265625
1789998059249934600,8.0149345703125,-0.041229248046875,-0.724090576171875,-0.0864715576171875
1789998059260005400,8.02500537109375,-0.1058197021484375,-0.8885345458984375,0.0023193359375
1789998059270076400,8.035076416015626,-0.3133544921875,-1.000946044921875,-0.0468902587890625
1789998059280146700,8.045146728515626,0.0435028076171875,-1.0003662109375,-0.134674072265625
1789998059290217700,8.0552177734375,-0.186004638671875,-0.8390960693359375,0.0037078857421875
1789998059300288800,8.065288818359376,-0.0364532470703125,-0.8459014892578125,-0.050628662109375
1789998059310359600,8.075359619140626,0.07220458984375,-0.960174560546875,-0.062835693359375
1789998059320429800,8.085429931640626,-0.339080810546875,-1.0252532958984375,0.0044097900390625
1789998059330500900,8.0955009765625,-0.4572296142578125,-1.130859375,-0.0882415771484375
1789998059340572000,8.105572021484376,-0.52691650390625,-1.1719512939453125,-0.1251220703125
1789998059350642700,8.115642578125,-0.337310791015625,-1.2018280029296875,-0.1218719482421875
1789998059360713700,8.125713623046876,-0.027496337890625,-0.9183197021484375,-0.1689910888671875
1789998059370784800,8.13578466796875,0.1663055419921875,-0.678802490234375,-0.199676513671875
1789998059380855800,8.145855712890626,0.30224609375,-0.8033599853515625,-0.1168670654296875
1789998059390926800,8.1559267578125,-0.3016815185546875,-0.8508148193359375,-0.117218017578125
1789998059400996600,8.16599658203125,-0.6602020263671875,-1.0546112060546875,-0.0595550537109375
1789998059411067600,8.176067626953126,-0.3078155517578125,-1.3532867431640625,-0.1297149658203125
1789998059421138700,8.186138671875,-0.32220458984375,-1.2152099609375,-0.1515045166015625
1789998059431209700,8.196209716796876,-0.26556396484375,-1.039520263671875,-0.0521697998046875
1789998059441280800,8.20628076171875,-0.2360992431640625,-1.0720672607421875,0.0031280517578125
1789998059451351800,8.216351806640626,-0.4851226806640625,-0.950408935546875,-0.0335540771484375
1789998059461422600,8.226422607421876,-0.2006683349609375,-0.9767913818359375,0.0015716552734375
1789998059471493600,8.23649365234375,0.2116241455078125,-0.95849609375,-0.106231689453125
1789998059481564700,8.246564697265624,0.0868072509765625,-0.899322509765625,-0.1623992919921875
1789998059491635700,8.2566357421875,0.1359710693359375,-0.77545166015625,-0.05908203125
1789998059501706800,8.266706787109374,-0.0184173583984375,-0.947906494140625,-0.0850677490234375
1789998059511777800,8.27677783203125,-0.69720458984375,-1.1722259521484375,-0.0615081787109375
1789998059521848600,8.2868486328125,-1.150604248046875,-1.2678680419921875,0.02130126953125
1789998059531918800,8.2969189453125,-0.75848388671875,-1.242462158203125,-0.0343475341796875
1789998059541990000,8.306989990234374,0.0460357666015625,-0.99737548828125,-0.118408203125
1789998059552061000,8.31706103515625,0.1245880126953125,-0.5647430419921875,-0.1637725830078125
1789998059562132000,8.327132080078124,-0.090545654296875,-0.6856231689453125,-0.1001739501953125
1789998059572202800,8.33720263671875,-0.4805755615234375,-0.82171630859375,-0.0478363037109375
1789998059582273800,8.347273681640624,-0.500885009765625,-0.92034912109375,-0.114898681640625
1789998059592344800,8.3573447265625,-0.0834503173828125,-1.1513824462890625,-0.1905364990234375
1789998059602415900,8.367415771484374,0.1016845703125,-1.10028076171875,-0.1601715087890625
1789998059612487000,8.37748681640625,-0.1347198486328125,-0.7652435302734375,-0.0854644775390625
1789998059622558000,8.387557861328125,-0.6088104248046875,-0.8319549560546875,0.0015106201171875
1789998059632628700,8.397628662109375,-0.7527618408203125,-0.9271392822265625,0.024505615234375
1789998059642699800,8.40769970703125,-0.3605804443359375,-1.0050201416015625,-0.121978759765625
1789998059652769800,8.417769775390624,0.237823486328125,-1.068023681640625,-0.2596435546875
1789998059662840800,8.4278408203125,-0.3612060546875,-0.8768157958984375,-0.1465301513671875
1789998059672912000,8.437911865234375,-1.046478271484375,-0.8916015625,-0.0223846435546875
1789998059682982700,8.447982666015625,-0.698638916015625,-1.1795196533203125,-0.0821075439453125
1789998059693053700,8.4580537109375,0.25628662109375,-1.200225830078125,-0.1984405517578125
1789998059703124700,8.468124755859375,0.2590789794921875,-0.900909423828125,-0.23248291015625
1789998059713195800,8.47819580078125,-0.23040771484375,-0.65032958984375,-0.1021728515625
1789998059723266800,8.488266845703125,-0.3574066162109375,-0.7795257568359375,0.010986328125
1789998059733337900,8.498337890625,-0.50592041015625,-1.14349365234375,-0.026275634765625
1789998059743408600,8.50840869140625,-0.761199951171875,-1.3895111083984375,0.0190277099609375
1789998059753479700,8.518479736328125,-0.3866119384765625,-1.2496185302734375,-0.04248046875
1789998059763550700,8.52855078125,-0.1125640869140625,-0.972625732421875,0.028289794921875
1789998059773620700,8.538620849609375,-0.1205596923828125,-0.6802825927734375,0.1363067626953125
1789998059783691800,8.54869189453125,0.6904449462890625,-0.844329833984375,0.110931396484375
1789998059793762600,8.558762451171875,0.437408447265625,-0.9253997802734375,0.0767974853515625
1789998059803833600,8.56883349609375,-0.2388916015625,-0.880645751953125,0.1452484130859375
1789998059813904600,8.578904541015625,-0.224029541015625,-1.2118377685546875,0.1348114013671875
1789998059823975700,8.5889755859375,-0.195220947265625,-1.1595458984375,0.0555572509765625
1789998059834046700,8.599046630859375,0.0018768310546875,-0.9534912109375,-0.0137786865234375
1789998059844117800,8.60911767578125,0.0808258056640625,-0.964080810546875,0.0166473388671875
1789998059854188800,8.619188720703125,-0.551605224609375,-0.8325958251953125,0.0598602294921875
1789998059864259800,8.629259765625,-0.6190948486328125,-1.02264404296875,0.0085906982421875
1789998059874331000,8.639330810546875,-0.3980712890625,-1.138397216796875,-0.04779052734375
1789998059884402000,8.64940185546875,0.018890380859375,-1.063323974609375,-0.10009765625
1789998059894472000,8.659471923828125,0.150726318359375,-0.7637481689453125,-0.1259918212890625
1789998059904542700,8.669542724609375,0.11444091796875,-0.680267333984375,-0.0107269287109375
1789998059914613800,8.67961376953125,-0.181182861328125,-0.6919097900390625,0.0016632080078125
1789998059924684800,8.689684814453125,-0.50726318359375,-1.013916015625,0.0001678466796875
1789998059934755800,8.699755859375,-0.23455810546875,-1.0980377197265625,-0.10626220703125
1789998059944827000,8.709826904296875,-0.089996337890625,-1.13616943359375,-0.1456146240234375
1789998059954898000,8.71989794921875,-0.2866973876953125,-1.0331878662109375,-0.142730712890625
1789998059964968700,8.72996875,-0.089263916015625,-1.0657501220703125,-0.1138916015625
1789998059975039700,8.740039794921875,-0.36376953125,-0.939849853515625,-0.089019775390625
1789998059985110800,8.75011083984375,-0.848541259765625,-0.908721923828125,-0.0115966796875
1789998059995181800,8.760181884765625,-0.448699951171875,-0.9847412109375,-0.058746337890625
1789998060005252900,8.7702529296875,-0.057342529296875,-1.0392303466796875,-0.0996246337890625
1789998060015322600,8.780322509765625,0.1395416259765625,-1.025177001953125,-0.1194305419921875
1789998060025393700,8.7903935546875,-0.39813232421875,-1.1317596435546875,-0.0846710205078125
1789998060035464700,8.800464599609375,-0.9510345458984375,-1.113189697265625,0.0473175048828125
1789998060045535700,8.81053564453125,-0.325714111328125,-1.111480712890625,-0.0543670654296875
1789998060055606800,8.820606689453125,0.514617919921875,-1.0202178955078125,-0.1828460693359375
1789998060065677800,8.830677734375,-0.1643218994140625,-0.7153167724609375,-0.03076171875
1789998060075748600,8.84074853515625,-0.5265655517578125,-0.8068389892578125,0.042144775390625
1789998060085819600,8.850819580078126,-0.3690185546875,-1.0056915283203125,-0.054473876953125
1789998060095890700,8.860890625,-0.3078155517578125,-1.0532073974609375,-0.1485443115234375
1789998060105961700,8.870961669921876,0.336822509765625,-1.039947509765625,-0.229766845703125
1789998060116032800,8.88103271484375,0.3647613525390625,-0.8871917724609375,-0.2520599365234375
1789998060126103800,8.891103759765626,-0.2520904541015625,-0.617431640625,-0.1246337890625
1789998060136173800,8.901173828125,-0.300018310546875,-0.8953857421875,-0.0912322998046875
1789998060146244900,8.911244873046876,-0.2238616943359375,-1.1471710205078125,-0.167816162109375
1789998060156316000,8.92131591796875,-0.420806884765625,-1.0540771484375,-0.1262359619140625
1789998060166387000,8.931386962890626,-0.66729736328125,-0.90966796875,-0.0685577392578125
1789998060176458000,8.9414580078125,-0.8329620361328125,-0.836090087890625,-0.0074920654296875
1789998060186528800,8.95152880859375,-0.18792724609375,-0.967254638671875,-0.088165283203125
1789998060196599800,8.961599853515626,0.1080169677734375,-0.9853057861328125,-0.260162353515625
1789998060206670800,8.9716708984375,-0.1592254638671875,-0.8257904052734375,-0.1575469970703125
1789998060216742000,8.981741943359374,-0.3941497802734375,-0.7035980224609375,-0.0542449951171875
1789998060226813000,8.99181298828125,-0.468292236328125,-0.772125244140625,-0.019378662109375
1789998060236884000,9.001884033203124,-0.1526336669921875,-1.0088958740234375,-0.026153564453125
1789998060246953700,9.01195361328125,-0.1915130615234375,-1.0901031494140625,-0.076171875
1789998060257024800,9.022024658203126,-0.5729522705078125,-0.96502685546875,0.038726806640625
1789998060267095800,9.032095703125,-0.203094482421875,-1.000213623046875,0.07275390625
1789998060277166800,9.042166748046874,0.1690216064453125,-1.03179931640625,0.0130462646484375
1789998060287238000,9.05223779296875,-0.1922454833984375,-1.020263671875,0.10400390625
1789998060297308700,9.06230859375,-0.40179443359375,-1.0696258544921875,0.1258392333984375
1789998060307379700,9.072379638671874,-0.9254913330078125,-1.0525360107421875,0.1818084716796875
1789998060317450800,9.08245068359375,-0.767608642578125,-1.2821807861328125,0.0801849365234375
1789998060327521300,9.092521240234374,0.27008056640625,-1.329132080078125,-0.0941314697265625
1789998060337592300,9.10259228515625,0.486602783203125,-0.8855133056640625,-0.0402679443359375
1789998060347663000,9.1126630859375,-0.112152099609375,-0.6229095458984375,0.1663360595703125
1789998060357733400,9.1227333984375,-0.2944793701171875,-0.9059295654296875,0.2293243408203125
1789998060367804400,9.132804443359374,-0.2763214111328125,-1.13629150390625,0.17767333984375
1789998060377875500,9.14287548828125,-0.2725372314453125,-1.092041015625,0.070098876953125
1789998060387946200,9.1529462890625,-0.2400360107421875,-0.9419403076171875,0.0210418701171875
1789998060398017300,9.163017333984374,-0.319000244140625,-0.8764801025390625,0.007843017578125
1789998060408088300,9.17308837890625,-0.29736328125,-0.80023193359375,0.078887939453125
1789998060418159400,9.183159423828124,0.0318603515625,-0.823211669921875,-0.0228729248046875
1789998060428230400,9.19323046875,-0.470916748046875,-1.2351837158203125,-0.0254669189453125
1789998060438301400,9.203301513671875,-1.438995361328125,-1.407867431640625,-0.0345001220703125
1789998060448372500,9.21337255859375,-0.963104248046875,-1.361907958984375,-0.048553466796875
1789998060458443300,9.223443359375,0.55267333984375,-1.0608978271484375,-0.14312744140625
1789998060468513300,9.23351318359375,1.1048736572265625,-0.7417449951171875,-0.134185791015625
1789998060478584300,9.243584228515624,0.3052520751953125,-0.4263763427734375,-0.15301513671875
1789998060488655400,9.2536552734375,-0.56671142578125,-0.52801513671875,0.009765625
1789998060498726400,9.263726318359375,-1.154876708984375,-0.985382080078125,0.1628265380859375
1789998060508797200,9.273797119140625,-0.34515380859375,-1.4850921630859375,0.0286865234375
1789998060518868200,9.2838681640625,0.22344970703125,-1.4983062744140625,-0.1281280517578125
1789998060528939300,9.293939208984375,0.096160888671875,-0.943328857421875,-0.09661865234375
1789998060539010300,9.30401025390625,-0.0823516845703125,-0.647186279296875,0.10565185546875
1789998060549081300,9.314081298828125,-0.4819488525390625,-0.9672698974609375,0.20782470703125
1789998060559152400,9.32415234375,-1.1569366455078125,-1.461334228515625,0.1665496826171875
1789998060569223200,9.33422314453125,-0.95086669921875,-1.623931884765625,0.17742919921875
1789998060579293200,9.344293212890625,0.4768829345703125,-1.302947998046875,0.1298065185546875
1789998060589364200,9.3543642578125,0.5964508056640625,-0.6716156005859375,0.24847412109375
1789998060599435300,9.364435302734375,0.2409515380859375,-0.49212646484375,0.1008148193359375
1789998060609506300,9.37450634765625,-0.1888275146484375,-0.7194061279296875,0.0004425048828125
1789998060619577000,9.3845771484375,-0.81048583984375,-0.980621337890625,0.0523834228515625
1789998060629648100,9.394648193359375,-0.6214599609375,-1.5037689208984375,0.0769195556640625
1789998060639719200,9.40471923828125,-0.291900634765625,-1.48150634765625,0.01239013671875
1789998060649790200,9.414790283203125,-0.23016357421875,-1.0342559814453125,-0.11822509765625
1789998060659861200,9.424861328125,-0.257781982421875,-0.8535003662109375,-0.01580810546875
1789998060669932300,9.434932373046875,-0.3538665771484375,-0.7872772216796875,-0.053375244140625
1789998060680003000,9.445003173828125,-0.236907958984375,-0.874176025390625,-0.0899810791015625
1789998060690073300,9.4550732421875,0.3124542236328125,-1.1246337890625,-0.1727752685546875
1789998060700144400,9.465144287109375,0.398651123046875,-1.2966766357421875,-0.205841064453125
1789998060710215400,9.47521533203125,-0.6595306396484375,-1.17523193359375,-0.10479736328125
1789998060720286500,9.485286376953125,-1.1590576171875,-1.2003936767578125,-0.119537353515625
1789998060730357200,9.495357177734375,-0.570159912109375,-1.0785369873046875,-0.1671142578125
1789998060740428300,9.50542822265625,0.015106201171875,-0.7687530517578125,-0.19671630859375
1789998060750499300,9.515499267578125,0.7769622802734375,-0.5536346435546875,-0.0528717041015625
1789998060760570400,9.5255703125,0.5935516357421875,-0.4399566650390625,0.10528564453125
1789998060770641400,9.535641357421875,0.1753082275390625,-0.483184814453125,0.108123779296875
1789998060780712400,9.54571240234375,-0.4117279052734375,-0.7110443115234375,0.034423828125
1789998060790783200,9.555783203125,-0.8056488037109375,-0.9364471435546875,-0.0112152099609375
1789998060800853200,9.565853271484375,-0.5061798095703125,-1.3183441162109375,0.0384521484375
1789998060810924300,9.57592431640625,-0.2411651611328125,-1.39581298828125,0.100494384765625
1789998060820995300,9.585995361328125,0.1423797607421875,-0.988800048828125,-0.0392303466796875
1789998060831066400,9.59606640625,0.7153778076171875,-0.4042816162109375,-0.1385955810546875
1789998060841137200,9.60613720703125,0.2125244140625,-0.2470550537109375,-0.048980712890625
1789998060851208200,9.616208251953125,-0.278045654296875,-0.5470428466796875,-0.0283050537109375
1789998060861279200,9.626279296875,-1.077789306640625,-1.0338287353515625,0.0844268798828125
1789998060871350300,9.636350341796875,-1.0454559326171875,-1.33740234375,0.1307830810546875
1789998060881421300,9.64642138671875,0.2043304443359375,-1.2146453857421875,-0.0496978759765625
1789998060891492400,9.656492431640626,0.1637725830078125,-0.7806243896484375,-0.0580596923828125
1789998060901563100,9.666563232421876,-0.7444305419921875,-0.665985107421875,0.068267822265625
1789998060911633200,9.676633056640625,-1.2011260986328125,-0.9481353759765625,0.085845947265625
1789998060921704200,9.6867041015625,-0.6703338623046875,-1.3117828369140625,0.0186004638671875
1789998060931775200,9.696775146484375,0.6884002685546875,-1.2937774658203125,-0.1833343505859375
1789998060941846300,9.70684619140625,1.1563262939453125,-0.78863525390625,-0.218505859375
1789998060951917000,9.7169169921875,-0.49725341796875,-0.4627685546875,-0.051116943359375
1789998060961988000,9.726988037109376,-1.5072021484375,-0.9169769287109375,0.2169036865234375
1789998060972059100,9.73705908203125,-1.2115631103515625,-1.4166107177734375,0.1515655517578125
1789998060982130200,9.747130126953126,-0.0551605224609375,-1.48870849609375,-0.2173614501953125
1789998060992201200,9.757201171875,0.7447052001953125,-1.1820068359375,-0.31280517578125
1789998061002272300,9.767272216796876,0.3599853515625,-0.57794189453125,-0.1150665283203125
1789998061012343300,9.77734326171875,-0.4459991455078125,-0.3636474609375,0.02838134765625
1789998061022413300,9.787413330078126,-0.0492095947265625,-0.6246337890625,-0.015289306640625
1789998061032484400,9.797484375,0.204010009765625,-0.932708740234375,-0.061492919921875
1789998061042555400,9.807555419921876,-0.0139617919921875,-0.8503265380859375,-0.0416259765625
1789998061052626400,9.81762646484375,-0.6993408203125,-0.5699310302734375,0.044403076171875
1789998061062697200,9.827697265625,-1.0644683837890625,-0.811920166015625,-0.005523681640625
1789998061072768300,9.837768310546876,-0.473052978515625,-1.2101287841796875,-0.0335693359375
1789998061082839300,9.84783935546875,0.0645294189453125,-1.20965576171875,-0.0446319580078125
1789998061092910300,9.857910400390624,0.0221099853515625,-0.844940185546875,0.07855224609375
1789998061102981400,9.8679814453125,-0.36376953125,-0.795196533203125,0.193634033203125
1789998061113052400,9.878052490234374,-0.5423431396484375,-0.8863525390625,0.1981353759765625
1789998061123122200,9.8881220703125,-0.0355682373046875,-0.807952880859375,0.0666961669921875
1789998061133193200,9.898193115234376,0.1962127685546875,-0.6406097412109375,0.1035003662109375
1789998061143264300,9.90826416015625,-0.321075439453125,-0.5025177001953125,0.1673431396484375
1789998061153335300,9.918335205078124,-0.4953765869140625,-0.4294891357421875,0.0659942626953125
1789998061163406300,9.92840625,-0.387420654296875,-0.7281951904296875,0.020233154296875
1789998061173477000,9.93847705078125,-0.0242462158203125,-1.2777557373046875,0.0335540771484375
1789998061183548200,9.948548095703124,0.2011260986328125,-1.52142333984375,-0.012237548828125
1789998061193619200,9.958619140625,-0.573486328125,-1.2744140625,-0.0657958984375
1789998061203690200,9.968690185546874,-0.700897216796875,-1.029541015625,-0.17022705078125
1789998061213761300,9.97876123046875,-0.5599212646484375,-0.836212158203125,-0.1473388671875
1789998061223831300,9.988831298828124,-0.38482666015625,-0.7581634521484375,-0.0084228515625
1789998061233902300,9.99890234375,-0.3476104736328125,-1.0071868896484375,0.0591888427734375
1789998061243973400,10.008973388671874,-0.7858123779296875,-1.0535888671875,0.0433349609375
1789998061254044400,10.01904443359375,0.052398681640625,-1.0893402099609375,-0.0320892333984375
1789998061264115500,10.029115478515624,-0.049652099609375,-1.1483612060546875,-0.0250091552734375
1789998061274186500,10.0391865234375,-0.0748748779296875,-0.9551239013671875,-0.038909912109375
1789998061284257300,10.04925732421875,-0.3363037109375,-0.963226318359375,0.0451202392578125
1789998061294328300,10.059328369140625,-0.81964111328125,-0.8899993896484375,0.1272430419921875
1789998061304399400,10.0693994140625,-0.632568359375,-1.2242889404296875,0.1092376708984375
1789998061314470400,10.079470458984375,-0.3331146240234375,-1.3148193359375,0.089874267578125
1789998061324541700,10.089541748046875,-0.637786865234375,-0.982757568359375,-0.05401611328125
1789998061334611700,10.09961181640625,0.0672607421875,-1.0054931640625,-0.1080322265625
1789998061344682800,10.109682861328125,0.7476959228515625,-1.027923583984375,-0.2169036865234375
1789998061354753800,10.11975390625,-0.116485595703125,-1.0071258544921875,-0.1839447021484375
1789998061364824800,10.129824951171875,-0.762298583984375,-1.07122802734375,-0.1197357177734375
1789998061374895600,10.1398955078125,-0.4752197265625,-1.1360931396484375,-0.0743865966796875
1789998061384966700,10.149966552734375,-0.35821533203125,-1.0110015869140625,-0.0397186279296875
1789998061395037700,10.16003759765625,-0.2779083251953125,-0.8887786865234375,0.0796966552734375
1789998061405108700,10.170108642578125,0.2454681396484375,-0.8704833984375,0.0900115966796875
1789998061415179800,10.1801796875,0.3050994873046875,-0.712432861328125,0.0348968505859375
1789998061425250800,10.190250732421875,-0.3712921142578125,-0.5502471923828125,0.062652587890625
1789998061435320600,10.200320556640625,-0.61163330078125,-0.8752899169921875,0.0919036865234375
1789998061445391600,10.2103916015625,-0.3444976806640625,-1.208526611328125,0.022735595703125
1789998061455462700,10.220462646484375,-0.0102081298828125,-1.3321533203125,0.1523284912109375
1789998061465533700,10.23053369140625,-0.049407958984375,-1.1926727294921875,0.260650634765625
1789998061475604700,10.240604736328125,-0.635498046875,-1.0349578857421875,0.081207275390625
1789998061485675500,10.250675537109375,-0.63360595703125,-1.0771026611328125,-0.11663818359375
1789998061495746600,10.26074658203125,0.309295654296875,-1.160614013671875,-0.0883636474609375
1789998061505817600,10.270817626953125,0.29193115234375,-1.15496826171875,0.22064208984375
1789998061515888600,10.280888671875,-0.3932647705078125,-0.9359283447265625,0.2143402099609375
1789998061525959700,10.290959716796875,-0.2839202880859375,-0.823822021484375,0.1061859130859375
1789998061536029700,10.30102978515625,-0.152984619140625,-0.868438720703125,0.071441650390625
1789998061546100700,10.311100830078125,-0.2728729248046875,-0.67828369140625,-0.0576324462890625
1789998061556171800,10.321171875,0.16937255859375,-0.9303741455078125,-0.114013671875
1789998061566242800,10.331242919921875,0.0364990234375,-1.0535430908203125,-0.0194091796875
1789998061576313900,10.34131396484375,0.08074951171875,-1.3076629638671875,-0.1017303466796875
1789998061586385000,10.351385009765625,0.071624755859375,-1.4973907470703125,0.0827178955078125
1789998061596455700,10.36145556640625,-0.4026336669921875,-1.198699951171875,0.0926361083984375
1789998061606526700,10.371526611328125,-0.1926116943359375,-1.1498870849609375,0.04974365234375
1789998061616597800,10.38159765625,-0.20196533203125,-0.8649749755859375,-0.0129852294921875
1789998061626668800,10.391668701171875,-0.1173248291015625,-0.846832275390625,0.032257080078125
1789998061636738800,10.40173876953125,-0.2166900634765625,-0.957183837890625,0.0246124267578125
1789998061646809600,10.4118095703125,-0.4576568603515625,-1.0634307861328125,0.0223541259765625
1789998061656880600,10.421880615234375,-0.4036865234375,-1.035064697265625,0.0556640625
1789998061666951700,10.43195166015625,-0.2152099609375,-1.1131744384765625,-0.00665283203125
1789998061677022700,10.442022705078125,-0.10205078125,-0.958404541015625,-0.1029052734375
1789998061687093800,10.45209375,0.0325164794921875,-0.7879638671875,-0.15130615234375
1789998061697164800,10.462164794921875,-0.1582183837890625,-0.759307861328125,-0.205108642578125
1789998061707235600,10.472235595703125,-0.248382568359375,-0.7967071533203125,-0.25103759765625
1789998061717306600,10.482306640625,-0.329986572265625,-0.9243621826171875,-0.1696929931640625
1789998061727377700,10.492377685546876,-0.262237548828125,-1.3201751708984375,-0.2195587158203125
1789998061737447700,10.50244775390625,-0.3113250732421875,-1.3115692138671875,-0.2522125244140625
1789998061747518700,10.512518798828125,-0.1827239990234375,-1.1400604248046875,-0.1376495361328125
1789998061757589500,10.522589599609375,-0.223785400390625,-0.8831939697265625,-0.1308746337890625
1789998061767660500,10.53266064453125,-0.2421722412109375,-0.77301025390625,-0.1245269775390625
1789998061777731600,10.542731689453126,-0.4393157958984375,-0.717681884765625,-0.098114013671875
1789998061787802600,10.552802734375,-0.9181976318359375,-0.95819091796875,-0.0449371337890625
1789998061797873700,10.562873779296876,-0.8213043212890625,-1.2257537841796875,-0.128662109375
1789998061807944700,10.57294482421875,-0.31243896484375,-1.120941162109375,-0.1298828125
1789998061818015500,10.583015380859376,0.161224365234375,-0.9671173095703125,-0.0614776611328125
1789998061828086500,10.59308642578125,0.3152923583984375,-0.65240478515625,-0.0219573974609375
1789998061838156800,10.60315673828125,-0.0086669921875,-0.5377655029296875,-0.0729217529296875
1789998061848227800,10.613227783203126,-0.465545654296875,-0.83489990234375,-0.1263885498046875
1789998061858299000,10.623298828125,-0.543060302734375,-1.2085113525390625,-0.093231201171875
1789998061868369700,10.63336962890625,-0.438720703125,-1.3140869140625,-0.136016845703125
1789998061878440700,10.643440673828126,-0.1212158203125,-1.0655517578125,-0.1794586181640625
1789998061888511700,10.65351171875,-0.300994873046875,-0.6248626708984375,-0.119781494140625
1789998061898582800,10.663582763671876,-0.39166259765625,-0.5973968505859375,0.0374298095703125
1789998061908653800,10.67365380859375,-0.3150177001953125,-0.8165130615234375,0.0576171875
1789998061918724900,10.683724853515624,-0.095855712890625,-1.0792083740234375,0.0132293701171875
1789998061928795600,10.693795654296874,-0.0398712158203125,-1.141754150390625,0.0241546630859375
1789998061938865700,10.70386572265625,-0.19525146484375,-0.8220367431640625,0.00799560546875
1789998061948936700,10.713936767578126,0.0600433349609375,-0.6541595458984375,-0.03118896484375
1789998061959007700,10.7240078125,-0.6810760498046875,-0.935394287109375,0.0880889892578125
1789998061969078800,10.734078857421874,-1.1660308837890625,-1.3123779296875,0.024749755859375
1789998061979149600,10.744149658203124,-0.705169677734375,-1.4658050537109375,-0.1324462890625
1789998061989220600,10.754220703125,-0.11968994140625,-1.3171844482421875,-0.072174072265625
1789998061999291600,10.764291748046874,0.16961669921875,-0.9645538330078125,0.1057586669921875
1789998062009362700,10.77436279296875,0.128173828125,-0.719451904296875,0.1071929931640625
1789998062019433700,10.784433837890624,-0.2349090576171875,-0.802886962890625,0.0226593017578125
1789998062029504800,10.7945048828125,-0.5365447998046875,-0.9505767822265625,-0.092254638671875
1789998062039574500,10.804574462890624,-0.1621856689453125,-1.195465087890625,-0.1483001708984375
1789998062049645600,10.8146455078125,0.1033477783203125,-1.2463836669921875,-0.0442962646484375
1789998062059716600,10.824716552734374,-0.2975616455078125,-1.0380096435546875,-0.081939697265625
1789998062069787600,10.83478759765625,-0.3665771484375,-1.0363006591796875,-0.0763397216796875
1789998062079858700,10.844858642578124,-0.01824951171875,-1.064056396484375,-0.092193603515625
1789998062089929500,10.854929443359374,-0.1662139892578125,-0.8715362548828125,-0.021942138671875
1789998062100000500,10.86500048828125,-0.1561737060546875,-0.72393798828125,-0.0498504638671875
1789998062110071600,10.875071533203124,0.0245361328125,-0.6998443603515625,-0.056304931640625
1789998062120142600,10.885142578125,-0.3078460693359375,-0.76971435546875,0.006103515625
1789998062130213600,10.895213623046875,-0.509857177734375,-0.8909912109375,-0.04833984375
1789998062140283600,10.90528369140625,-0.294189453125,-1.0618133544921875,-0.07073974609375
1789998062150354700,10.915354736328124,-0.163604736328125,-1.009613037109375,0.0067596435546875
1789998062160425700,10.92542578125,0.3169403076171875,-0.8676300048828125,0.0090179443359375
1789998062170496800,10.935496826171875,0.296051025390625,-1.05670166015625,0.085693359375
1789998062180567800,10.94556787109375,-0.25299072265625,-0.957550048828125,0.105438232421875
1789998062190638800,10.955638916015625,-0.5324859619140625,-0.9123992919921875,-0.036468505859375
1789998062200709600,10.965709716796875,-0.743927001953125,-0.9672088623046875,-0.06195068359375
1789998062210780700,10.97578076171875,-0.744232177734375,-0.9156494140625,-0.0948944091796875
1789998062220851700,10.985851806640625,-0.426513671875,-0.9013214111328125,-0.1274261474609375
1789998062230921700,10.995921630859375,0.32452392578125,-1.04150390625,-0.1260833740234375
1789998062240992800,11.00599267578125,0.288330078125,-1.0509185791015625,-0.0260772705078125
1789998062251063600,11.0160634765625,-0.1408233642578125,-0.9766082763671875,-0.0843353271484375
1789998062261134600,11.026134521484375,-0.32769775390625,-1.1338348388671875,-0.1487884521484375
1789998062271205600,11.03620556640625,-0.430145263671875,-1.1697845458984375,-0.1735076904296875
1789998062281276700,11.046276611328125,-0.410430908203125,-1.1059112548828125,-0.0695648193359375
1789998062291347700,11.05634765625,-0.167572021484375,-0.891326904296875,0.0087432861328125
1789998062301418800,11.066418701171875,0.1688385009765625,-0.7247467041015625,0.0221710205078125
1789998062311489500,11.076489501953125,0.631378173828125,-0.70361328125,0.05841064453125
1789998062321561300,11.086561279296875,0.1806640625,-0.8479461669921875,0.163421630859375
1789998062331631000,11.096631103515625,-0.7904052734375,-1.044158935546875,0.08575439453125
1789998062341702100,11.1067021484375,-1.11676025390625,-1.2684783935546875,-0.0216827392578125
1789998062351773200,11.116773193359375,-0.597747802734375,-1.3967437744140625,-0.1684417724609375
1789998062361844200,11.12684423828125,-0.2760162353515625,-1.34442138671875,-0.18475341796875
1789998062371915300,11.136915283203125,-0.1913909912109375,-1.1000518798828125,0.06512451171875
1789998062381986300,11.146986328125,-0.3702545166015625,-0.7373046875,0.1391143798828125
1789998062392057000,11.15705712890625,-0.1749267578125,-0.787261962890625,0.145965576171875
1789998062402128100,11.167128173828125,0.023345947265625,-0.99139404296875,0.130889892578125
1789998062412199200,11.17719921875,0.2106170654296875,-0.983978271484375,0.0527191162109375
1789998062422269400,11.18726953125,-0.0507965087890625,-0.7901458740234375,0.0394287109375
1789998062432340500,11.197340576171875,-0.4178924560546875,-0.584014892578125,0.0858306884765625
1789998062442411300,11.207411376953125,-0.2982635498046875,-0.8082427978515625,0.0444183349609375
1789998062452482300,11.217482421875,-0.0757293701171875,-1.056427001953125,0.022369384765625
1789998062462553300,11.22755322265625,-0.0442962646484375,-0.9927978515625,-0.1654510498046875
1789998062472624400,11.237624267578125,0.0681304931640625,-0.8473968505859375,-0.159088134765625
1789998062482695400,11.2476953125,0.1103973388671875,-0.6752166748046875,-0.0782470703125
1789998062492766500,11.257766357421875,0.0800933837890625,-0.7035675048828125,-0.1200408935546875
1789998062502837200,11.267837158203125,-0.7935943603515625,-0.824920654296875,0.0143890380859375
1789998062512907300,11.2779072265625,-1.0063018798828125,-1.0595550537109375,-0.01287841796875
1789998062522978300,11.287978271484375,-0.5186920166015625,-1.1585540771484375,-0.0368499755859375
1789998062533049300,11.29804931640625,-0.5908050537109375,-1.260284423828125,0.04302978515625
1789998062543120400,11.308120361328125,-1.00341796875,-1.2184600830078125,0.0824432373046875
1789998062553191200,11.318191162109375,-0.6859588623046875,-0.9930419921875,0.08953857421875
1789998062563262200,11.32826220703125,0.15057373046875,-0.94671630859375,0.143646240234375
1789998062573333200,11.338333251953125,0.46575927734375,-0.8006134033203125,0.2025604248046875
1789998062583404300,11.348404296875,-0.085113525390625,-0.5203399658203125,0.2515106201171875
1789998062593475300,11.358475341796876,-0.212921142578125,-0.7516937255859375,0.2566986083984375
1789998062603546400,11.36854638671875,-0.7579803466796875,-1.1115264892578125,0.1413421630859375
1789998062613616000,11.3786162109375,-0.6703033447265625,-1.516815185546875,0.1424713134765625
1789998062623687200,11.388687255859375,0.0973968505859375,-1.427581787109375,0.0150909423828125
1789998062633758200,11.39875830078125,-0.0763397216796875,-0.98431396484375,0.0545806884765625
1789998062643829200,11.408829345703126,-0.1114044189453125,-0.8545074462890625,0.0140228271484375
1789998062653900300,11.418900390625,0.1607818603515625,-0.90155029296875,-0.019012451171875
1789998062663971000,11.42897119140625,-0.2577667236328125,-0.9783935546875,-0.005584716796875
1789998062674042000,11.4390419921875,-0.5236968994140625,-1.1019134521484375,0.0261383056640625
1789998062684113200,11.449113037109376,-0.59942626953125,-1.05169677734375,-0.0124359130859375
1789998062694184200,11.45918408203125,-0.5549468994140625,-0.9585113525390625,0.0700531005859375
1789998062704254200,11.469254150390626,-0.083282470703125,-0.81982421875,-0.0353851318359375
1789998062714325200,11.4793251953125,0.3710479736328125,-0.978912353515625,-0.045166015625
1789998062724396300,11.489396240234376,-0.0477752685546875,-0.7445526123046875,0.1190948486328125
1789998062734467300,11.49946728515625,-0.7929534912109375,-0.79180908203125,0.11663818359375
1789998062744538400,11.509538330078126,-0.686279296875,-1.24688720703125,0.1165771484375
1789998062754609400,11.519609375,0.1370849609375,-1.082000732421875,-0.050201416015625
1789998062764680400,11.529680419921876,0.574554443359375,-0.7391357421875,-0.053985595703125
1789998062774751200,11.539751220703126,0.2317352294921875,-0.6529541015625,-0.00408935546875
1789998062784822300,11.549822265625,0.101104736328125,-0.6329498291015625,-0.0090789794921875
1789998062794892300,11.559892333984376,-0.2713623046875,-1.151458740234375,-0.000762939453125
1789998062804963300,11.56996337890625,-0.69207763671875,-1.6149139404296875,-0.094818115234375
1789998062815034000,11.5800341796875,-0.44354248046875,-1.590576171875,-0.157867431640625
1789998062825105200,11.590105224609376,-0.24993896484375,-0.915985107421875,0.099456787109375
1789998062835176200,11.60017626953125,-0.324005126953125,-0.5245819091796875,-0.070281982421875
1789998062845247200,11.610247314453124,-0.2706756591796875,-0.7179107666015625,-0.0852813720703125
1789998062855318300,11.620318359375,0.1268310546875,-1.0341644287109375,-0.1575927734375
1789998062865389300,11.630389404296874,0.0210418701171875,-0.9500732421875,-0.2373504638671875
1789998062875460400,11.64046044921875,-0.1481170654296875,-1.0327606201171875,-0.2234954833984375
1789998062885530000,11.650530029296876,-0.1867218017578125,-1.0481414794921875,-0.1666717529296875
1789998062895601200,11.66060107421875,-0.46173095703125,-0.8626556396484375,-0.1568603515625
1789998062905672200,11.670672119140624,-0.1469879150390625,-0.958709716796875,-0.157470703125
1789998062915743200,11.6807431640625,-0.2395782470703125,-0.92303466796875,-0.087066650390625
1789998062925814300,11.690814208984374,-0.088623046875,-1.1049652099609375,-0.1848297119140625
1789998062935885300,11.70088525390625,-0.877227783203125,-1.115753173828125,-0.1227569580078125
1789998062945956400,11.710956298828124,-0.9382171630859375,-1.27880859375,-0.02642822265625
1789998062956027400,11.72102734375,-0.34130859375,-1.2021636962890625,-0.1071319580078125
1789998062966098400,11.731098388671874,-0.020721435546875,-0.901885986328125,-0.0164947509765625
1789998062976168200,11.741168212890624,0.4217681884765625,-0.5568084716796875,0.07977294921875
1789998062986239200,11.7512392578125,0.2831878662109375,-0.7253875732421875,0.0947113037109375
1789998062996310300,11.761310302734374,-0.887847900390625,-0.886505126953125,0.12945556640625
1789998063006381300,11.77138134765625,-0.9261016845703125,-1.15283203125,0.01715087890625
1789998063016452400,11.781452392578124,-0.433746337890625,-1.2543182373046875,-0.050872802734375
1789998063026523400,11.7915234375,-0.582916259765625,-1.0217132568359375,0.0142364501953125
1789998063036594200,11.80159423828125,-0.815948486328125,-0.7261962890625,0.0441741943359375
1789998063046665200,11.811665283203125,0.8142547607421875,-0.8556365966796875,-0.099609375
1789998063056736300,11.821736328125,0.6419219970703125,-0.734039306640625,0.011322021484375
1789998063066806300,11.83180615234375,-0.615875244140625,-0.762664794921875,0.0442657470703125
1789998063076877300,11.841877197265624,-1.5691986083984375,-1.16143798828125,-0.033477783203125
1789998063086948000,11.851947998046874,-1.5567169189453125,-1.2957000732421875,-0.1097869873046875
1789998063097019100,11.86201904296875,-0.43194580078125,-1.3936614990234375,-0.231842041015625
1789998063107090200,11.872090087890625,0.6043548583984375,-1.0019989013671875,-0.15692138671875
1789998063117161200,11.8821611328125,0.7138671875,-0.4353790283203125,-0.0469207763671875
1789998063127232300,11.892232177734375,0.0420074462890625,-0.4532470703125,-0.317138671875
1789998063137303300,11.90230322265625,-0.981842041015625,-0.8872833251953125,-0.232574462890625
1789998063147374000,11.9123740234375,-0.58331298828125,-1.4471893310546875,-0.23077392578125
1789998063157444400,11.9224443359375,0.00079345703125,-1.5258941650390625,-0.177215576171875
1789998063167515400,11.932515380859375,0.5370330810546875,-0.9822540283203125,-0.1919403076171875
1789998063177586400,11.94258642578125,0.23919677734375,-0.5064697265625,-0.0616912841796875
1789998063187657500,11.952657470703125,0.0120697021484375,-0.46636962890625,0.036376953125
1789998063197728300,11.962728271484375,0.2218017578125,-0.942962646484375,-0.0670928955078125
1789998063207799300,11.97279931640625,-0.5136566162109375,-1.575164794921875,0.0571441650390625
1789998063217870300,11.982870361328125,-1.0889129638671875,-1.597503662109375,0.05377197265625
1789998063227941400,11.99294140625,-0.570343017578125,-1.3019561767578125,0.002410888671875
1789998063238012400,12.003012451171875,0.3689727783203125,-0.7430572509765625,0.1214599609375
1789998063248082200,12.013082275390625,1.3427581787109375,-0.4086456298828125,0.1710052490234375
1789998063258153200,12.0231533203125,0.2945709228515625,-0.0879364013671875,0.292877197265625
1789998063268224300,12.033224365234375,-0.73248291015625,-0.60540771484375,0.2122802734375
1789998063278295300,12.04329541015625,-1.20703125,-1.4218597412109375,0.18109130859375
1789998063288366300,12.053366455078125,-0.9096527099609375,-1.907440185546875,0.0494384765625
1789998063298437400,12.063437255859375,-0.14337158203125,-1.5301971435546875,-0.0287017822265625
1789998063308508200,12.073508056640625,0.8615875244140625,-0.64300537109375,-0.1161956787109375
1789998063318579200,12.0835791015625,0.2496795654296875,-0.1704559326171875,-0.060577392578125
1789998063328650200,12.093650146484375,-0.6054229736328125,-0.7828369140625,-0.0856170654296875
1789998063338720000,12.103719970703125,-0.8280029296875,-1.4067535400390625,-0.1540985107421875
1789998063348791000,12.113791015625,-0.1602783203125,-1.7423858642578125,-0.2358551025390625
1789998063358862000,12.123862060546875,-0.41497802734375,-1.26171875,-0.1337432861328125
1789998063368933000,12.13393310546875,-0.5572662353515625,-0.645904541015625,-0.0487823486328125
1789998063379004200,12.144004150390625,-0.1087493896484375,-0.4899139404296875,-0.1588134765625
1789998063389075000,12.154074951171875,-0.329437255859375,-0.8435516357421875,-0.17333984375
1789998063399146000,12.16414599609375,-0.6751708984375,-1.28460693359375,-0.1984100341796875
1789998063409217000,12.174217041015625,-0.863983154296875,-1.394683837890625,-0.195343017578125
1789998063419288000,12.1842880859375,-0.488616943359375,-1.0118408203125,-0.2747344970703125
1789998063429358300,12.1943583984375,0.2390289306640625,-0.854339599609375,-0.16217041015625
1789998063439429000,12.20442919921875,0.6207427978515625,-0.5819854736328125,0.03741455078125
1789998063449500200,12.214500244140625,0.6339874267578125,-0.432220458984375,0.0740966796875
1789998063459571200,12.2245712890625,-0.4304351806640625,-0.7366485595703125,-0.02777099609375
1789998063469642200,12.234642333984375,-1.121612548828125,-1.3425445556640625,-0.051849365234375
1789998063479713300,12.24471337890625,-0.8814544677734375,-1.55450439453125,-0.2697906494140625
1789998063489784300,12.254784423828125,-0.6697845458984375,-1.27423095703125,-0.2015228271484375
1789998063499855000,12.264855224609375,-0.3067779541015625,-0.9199066162109375,-0.0923004150390625
1789998063509925000,12.274925048828125,0.25543212890625,-0.5471038818359375,0.034881591796875
1789998063519996200,12.28499609375,0.2933502197265625,-0.523590087890625,0.109222412109375
1789998063530067200,12.295067138671875,-0.1901092529296875,-1.071746826171875,0.04315185546875
1789998063540138200,12.30513818359375,-0.7491455078125,-1.40234375,-0.0221405029296875
1789998063550209000,12.315208984375,-1.17864990234375,-1.134918212890625,-0.1202850341796875
1789998063560280000,12.325280029296875,-0.747894287109375,-0.949615478515625,-0.167694091796875
1789998063570351000,12.33535107421875,0.22735595703125,-0.8771514892578125,0.026458740234375
1789998063580422100,12.345422119140625,0.9311370849609375,-0.6800537109375,0.128326416015625
1789998063590493200,12.3554931640625,-0.1346282958984375,-0.747161865234375,0.2932586669921875
1789998063600563000,12.36556298828125,-1.078460693359375,-0.9858551025390625,0.1452789306640625
1789998063610634000,12.375634033203125,-1.0416259765625,-1.278228759765625,-0.0354156494140625
1789998063620705000,12.385705078125,0.3170928955078125,-1.3787841796875,-0.021636962890625
1789998063630776000,12.395776123046875,0.9962158203125,-1.01849365234375,0.06024169921875
1789998063640847000,12.40584716796875,0.32196044921875,-0.583465576171875,0.193206787109375
1789998063650918100,12.415918212890626,-0.639373779296875,-0.659820556640625,0.115753173828125
1789998063660989000,12.425989013671876,-0.8469085693359375,-1.238922119140625,-0.0451507568359375
1789998063671060000,12.43606005859375,-0.161468505859375,-1.3748931884765625,-0.0654296875
1789998063681130200,12.446130126953125,0.26702880859375,-1.0486602783203125,-0.0100860595703125
1789998063691201300,12.456201171875,-0.070037841796875,-0.7280426025390625,0.043304443359375
1789998063701272300,12.466272216796876,-0.5122528076171875,-0.7509918212890625,-0.041900634765625
1789998063711343000,12.476343017578126,-0.4047088623046875,-1.1060943603515625,-0.0144195556640625
1789998063721414100,12.4864140625,0.058197021484375,-1.206939697265625,-0.089263916015625
1789998063731485200,12.496485107421876,0.311737060546875,-1.01226806640625,-0.1667633056640625
1789998063741556200,12.50655615234375,0.11669921875,-0.8143157958984375,-0.06463623046875
1789998063751627300,12.516627197265626,-0.40911865234375,-0.9407196044921875,0.0988922119140625
1789998063761698300,12.5266982421875,-0.4267578125,-0.97137451171875,0.0473175048828125
1789998063771768000,12.53676806640625,-0.2352752685546875,-1.2283935546875,0.0330963134765625
1789998063781839000,12.546839111328126,-0.262603759765625,-1.2492828369140625,-0.0389404296875
1789998063791910100,12.55691015625,-0.164794921875,-1.23870849609375,-0.0333251953125
1789998063801981200,12.566981201171876,-0.1871795654296875,-0.949493408203125,0.0415496826171875
1789998063812052200,12.57705224609375,-0.0442962646484375,-0.696807861328125,-0.0319366455078125
1789998063822123000,12.587123046875,-0.0810546875,-0.77984619140625,0.0534820556640625
1789998063832194000,12.597194091796876,-0.339874267578125,-0.9286346435546875,0.0409088134765625
1789998063842265000,12.60726513671875,-0.6876068115234375,-1.064300537109375,0.0416259765625
1789998063852336000,12.617336181640624,-0.3270111083984375,-1.3028411865234375,-0.1321868896484375
1789998063862406100,12.62740625,0.0828857421875,-1.1935577392578125,-0.163299560546875
1789998063872477000,12.637476806640626,-0.4295654296875,-0.7317047119140625,-0.126983642578125
1789998063882548000,12.6475478515625,-0.5027618408203125,-0.7225799560546875,-0.1748504638671875
1789998063892619000,12.657618896484376,0.0308990478515625,-0.9055328369140625,-0.2931060791015625
1789998063902690000,12.66768994140625,0.1248626708984375,-1.042022705078125,-0.301177978515625
1789998063912761000,12.677760986328124,-0.418853759765625,-1.0799560546875,-0.2079315185546875
1789998063922832100,12.68783203125,-0.8748779296875,-0.8788909912109375,-0.158050537109375
1789998063932903200,12.697903076171874,-0.631195068359375,-0.8999481201171875,-0.0399932861328125
1789998063942973200,12.70797314453125,0.0729217529296875,-1.0316619873046875,-0.12158203125
1789998063953044200,12.718044189453124,0.319244384765625,-1.0579833984375,-0.0682373046875
1789998063963115300,12.728115234375,-0.0819244384765625,-0.8838043212890625,0.025482177734375
1789998063973186300,12.738186279296874,-1.1903228759765625,-0.8331298828125,0.1877899169921875
1789998063983257000,12.748257080078124,-1.242828369140625,-1.1440277099609375,-0.0224609375
1789998063993328000,12.758328125,-0.2080230712890625,-1.3256072998046875,-0.1208648681640625
1789998064003399200,12.768399169921874,0.98919677734375,-0.907196044921875,-0.086029052734375
1789998064013470200,12.77847021484375,0.6469573974609375,-0.404754638671875,0.175506591796875
1789998064023541200,12.788541259765625,-0.40045166015625,-0.3920135498046875,0.1764984130859375
1789998064033611000,12.798611083984374,-1.4502105712890625,-0.936370849609375,0.05645751953125
1789998064043682000,12.80868212890625,-1.1106719970703125,-1.4823150634765625,-0.115325927734375
1789998064053753000,12.818753173828124,-0.30914306640625,-1.412841796875,-0.2319488525390625
1789998064063824100,12.82882421875,0.6274261474609375,-0.90106201171875,-0.05206298828125
1789998064073895200,12.838895263671875,0.5032501220703125,-0.4404449462890625,0.0503692626953125
1789998064083966200,12.84896630859375,-0.4022674560546875,-0.580657958984375,0.0439453125
1789998064094037000,12.859037109375,-0.9101104736328125,-1.0595245361328125,-0.13824462890625
1789998064104108000,12.86910791015625,-0.756683349609375,-1.434814453125,-0.20587158203125
1789998064114178300,12.87917822265625,-0.5083770751953125,-1.195770263671875,-0.122039794921875
1789998064124249300,12.889249267578125,-0.1751708984375,-1.01531982421875,-0.103424072265625
1789998064134320400,12.8993203125,-0.2071685791015625,-0.9272003173828125,-0.029754638671875
1789998064144391200,12.90939111328125,-0.102203369140625,-0.849761962890625,0.002655029296875
1789998064154462200,12.919462158203125,-0.1142730712890625,-0.9315643310546875,0.0394287109375
1789998064164533200,12.929533203125,-0.431121826171875,-1.1401214599609375,0.07098388671875
1789998064174604300,12.939604248046875,-0.60089111328125,-1.184783935546875,0.0491943359375
1789998064184675300,12.94967529296875,-0.272674560546875,-1.0719146728515625,-0.1026153564453125
