time,seconds_elapsed,z,y,x
1789998051293873700,0.058873779296875,-0.16343659162521362,-0.5779895782470703,-0.012370916083455086
1789998051303944700,0.06894482421875,0.03802567720413208,-0.4402647316455841,-0.042877957224845886
1789998051314016300,0.079016357421875,0.13497139513492584,-0.3665921092033386,-0.017360614612698555
1789998051324087300,0.08908740234375,0.12203749269247055,-0.32920533418655396,0.011418303474783897
1789998051334159400,0.099159423828125,0.18059667944908142,-0.2262733429670334,-0.00008069378236541525
1789998051344230400,0.10923046875,0.1867387294769287,-0.16673119366168976,-0.05296814441680908
1789998051354301400,0.119301513671875,0.14122609794139862,-0.18890413641929626,0.09362875670194626
1789998051364372500,0.12937255859375,0.18192479014396667,-0.11140322685241699,0.06017998233437538
1789998051374443300,0.139443359375,0.20379973948001862,-0.05241234228014946,0.03244316205382347
1789998051384514300,0.149514404296875,0.30668216943740845,-0.08703263849020004,0.024031832814216614
1789998051394585300,0.15958544921875,0.48735180497169495,-0.0019944412633776665,0.011004181578755379
1789998051404656400,0.169656494140625,0.5728645920753479,0.11382483690977097,0.06639313697814941
1789998051414727400,0.1797275390625,0.5840727686882019,0.25199708342552185,-0.15475548803806305
1789998051424798500,0.189798583984375,0.5840339064598083,0.25945234298706055,-0.16334845125675201
1789998051434869200,0.199869140625,0.5600723624229431,0.1775588095188141,-0.07640795409679413
1789998051444940300,0.209940185546875,0.5927751660346985,0.13073298335075378,0.08263576030731201
1789998051455011300,0.22001123046875,0.4901904761791229,0.15474404394626617,0.1588519662618637
1789998051465082400,0.230082275390625,0.49588510394096375,0.20831085741519928,0.07119987905025482
1789998051475153400,0.2401533203125,0.6268361806869507,0.2561681270599365,-0.10426142066717148
1789998051485224400,0.250224365234375,0.6171529293060303,0.15989698469638824,0.0011382350930944085
1789998051495295200,0.260295166015625,0.4351291060447693,0.09602639824151993,0.09747116267681122
1789998051505366300,0.2703662109375,0.4468536674976349,0.18829667568206787,0.03418033942580223
1789998051515437300,0.280437255859375,0.5082901120185852,0.30072253942489624,-0.05174681916832924
1789998051525508400,0.29050830078125,0.4512196481227875,0.1648603230714798,-0.01936810463666916
1789998051535579400,0.300579345703125,0.48066115379333496,0.1588706076145172,-0.030430609360337257
1789998051545650400,0.310650390625,0.47710344195365906,0.2820889353752136,0.0030184267088770866
1789998051555721200,0.32072119140625,0.4075254201889038,0.3003758192062378,-0.002566488226875663
1789998051565792300,0.330792236328125,0.3529423475265503,0.25390392541885376,0.022423550486564636
1789998051575863300,0.34086328125,0.418381005525589,0.18467237055301666,-0.015729160979390144
1789998051585934300,0.350934326171875,0.423423707485199,0.21182729303836823,0.09779127687215805
1789998051596005400,0.36100537109375,0.39388152956962585,0.2577556371688843,0.10402467101812363
1789998051606076400,0.371076416015625,0.3813742399215698,0.3614567518234253,-0.018272746354341507
1789998051616147200,0.381147216796875,0.4100804626941681,0.34158849716186523,-0.14481444656848907
1789998051626218200,0.39121826171875,0.34002360701560974,0.2616494596004486,-0.1884032040834427
1789998051636289300,0.401289306640625,0.21947909891605377,0.1295478790998459,-0.057364754378795624
1789998051646360300,0.4113603515625,0.13243314623832703,0.048948101699352264,0.012227371335029602
1789998051656431400,0.421431396484375,0.09348654001951218,0.02183366008102894,0.06285353004932404
1789998051666502400,0.43150244140625,0.09241434931755066,0.01073813159018755,-0.03025990165770054
1789998051676573200,0.4415732421875,0.06019489839673042,-0.05167890712618828,0.022665897384285927
1789998051686644200,0.451644287109375,0.012065451592206955,-0.14372627437114716,0.06734335422515869
1789998051696715300,0.46171533203125,-0.07587825506925583,-0.11856899410486221,-0.026732545346021652
1789998051706786300,0.471786376953125,0.024699220433831215,-0.08525417745113373,-0.13275352120399475
1789998051716857300,0.481857421875,0.07524095475673676,-0.07913663238286972,-0.1261472851037979
1789998051726928400,0.491928466796875,0.015624233521521091,-0.14602458477020264,-0.04700159654021263
1789998051736999400,0.50199951171875,-0.05428800731897354,-0.06567008793354034,-0.02003123238682747
1789998051747070200,0.5120703125,-0.04791745916008949,-0.024760207161307335,0.03474120423197746
1789998051757141200,0.522141357421875,-0.02918904460966587,-0.09057304263114929,-0.029995182529091835
1789998051767212300,0.53221240234375,0.07354985177516937,-0.17229320108890533,-0.061347246170043945
1789998051777283300,0.542283447265625,-0.01173149049282074,-0.2295043021440506,0.07186726480722427
1789998051787354400,0.552354248046875,-0.08683529496192932,-0.24069063365459442,0.07617039978504181
1789998051797425400,0.56242529296875,0.0005723133217543364,-0.15697550773620605,-0.06528100371360779
1789998051807496200,0.57249609375,0.054853662848472595,-0.19799883663654327,-0.0723988339304924
1789998051817567200,0.582567138671875,-0.021074924618005753,-0.2938726246356964,0.05421210452914238
1789998051827638300,0.59263818359375,-0.08547788113355637,-0.287851482629776,0.11598146706819534
1789998051837709300,0.602709228515625,0.0032522522378712893,-0.22130867838859558,0.03814578801393509
1789998051847780400,0.6127802734375,0.13129517436027527,-0.17533400654792786,-0.12529534101486206
1789998051857851400,0.622851318359375,0.21744896471500397,-0.22140535712242126,-0.09128117561340332
1789998051867922400,0.63292236328125,0.1396005004644394,-0.21479566395282745,0.004892759490758181
1789998051877993500,0.642993408203125,0.08258648961782455,-0.07186087220907211,-0.06019596382975578
1789998051888064500,0.653064453125,0.140522763133049,0.03753592446446419,-0.05770990252494812
1789998051898135300,0.66313525390625,0.19634021818637848,-0.034808315336704254,0.036438167095184326
1789998051908206300,0.673206298828125,0.21816295385360718,-0.054483480751514435,0.0190754234790802
1789998051918277400,0.68327734375,0.2758464813232422,0.061655640602111816,-0.003439738880842924
1789998051928348400,0.693348388671875,0.36822062730789185,0.2116970717906952,-0.10151676833629608
1789998051938419500,0.70341943359375,0.4818180501461029,0.24258601665496826,-0.11603845655918121
1789998051948490500,0.713490478515625,0.5101809501647949,0.22137314081192017,-0.1121949777007103
1789998051958561500,0.7235615234375,0.4535624384880066,0.20966002345085144,-0.06557714194059372
1789998051968632600,0.733632568359375,0.3957902193069458,0.23382288217544556,-0.011640677228569984
1789998051978703600,0.74370361328125,0.42371612787246704,0.2715681195259094,-0.057730406522750854
1789998051988774400,0.7537744140625,0.4884146749973297,0.36081117391586304,-0.08428291976451874
1789998051998845400,0.763845458984375,0.49667635560035706,0.3568076491355896,0.010777280665934086
1789998052008916500,0.77391650390625,0.40896299481391907,0.42241302132606506,-0.12384364753961563
1789998052018987500,0.783987548828125,0.4970015287399292,0.41494977474212646,-0.08815702050924301
1789998052029058600,0.79405859375,0.6229349374771118,0.44829654693603516,-0.022300245240330696
1789998052039129600,0.804129638671875,0.688740074634552,0.49481984972953796,0.028112061321735382
1789998052049200400,0.814200439453125,0.6600567698478699,0.5782201886177063,0.010271280072629452
1789998052059271400,0.824271484375,0.6259602904319763,0.6436306238174438,0.019271433353424072
1789998052069342500,0.834342529296875,0.6213056445121765,0.7650713324546814,-0.000713993504177779
1789998052079413500,0.84441357421875,0.636001467704773,0.7957543730735779,-0.027184749022126198
1789998052089484500,0.854484619140625,0.5942904949188232,0.7155967354774475,0.09818968176841736
1789998052099555600,0.8645556640625,0.45694810152053833,0.6199902892112732,0.17774176597595215
1789998052109626400,0.87462646484375,0.3820112943649292,0.6468487977981567,0.13770486414432526
1789998052119697400,0.884697509765625,0.4021186828613281,0.7384205460548401,0.06557261943817139
1789998052129768400,0.8947685546875,0.3955947458744049,0.6257176995277405,0.042931221425533295
1789998052139839500,0.904839599609375,0.2603330612182617,0.47384560108184814,0.030582675710320473
1789998052149910500,0.91491064453125,0.13686516880989075,0.4008672535419464,0.04573845863342285
1789998052159981600,0.924981689453125,0.09288280457258224,0.2776750326156616,0.0814911276102066
1789998052170052400,0.93505224609375,0.07412775605916977,0.17719954252243042,0.0247250534594059
1789998052180123400,0.945123291015625,0.0524834468960762,0.1746479719877243,-0.06578221172094345
1789998052190194400,0.9551943359375,0.027037210762500763,0.15785114467144012,-0.03199228644371033
1789998052200265500,0.965265380859375,-0.045107558369636536,0.10335994511842728,-0.04387211799621582
1789998052210336500,0.97533642578125,-0.10163953900337219,0.03591006249189377,0.07242466509342194
1789998052220407600,0.985407470703125,-0.19292019307613373,0.0000327568814100232,0.21539993584156036
1789998052230478300,0.995478271484375,-0.19350475072860718,-0.019873838871717453,0.2720469534397125
1789998052240549400,1.00554931640625,-0.0589061938226223,0.07092583924531937,-0.03555266931653023
1789998052250620400,1.015620361328125,0.029152026399970055,0.11563605070114136,-0.1203748807311058
1789998052260691500,1.02569140625,-0.056773800402879715,-0.03575054183602333,0.05721242353320122
1789998052270762500,1.035762451171875,-0.15582367777824402,-0.09334059804677963,0.06921102851629257
1789998052280833500,1.04583349609375,-0.10260946303606033,-0.04300765320658684,0.07129228860139847
1789998052290904300,1.055904296875,-0.0192546546459198,-0.03705548867583275,0.08173774182796478
1789998052300975400,1.065975341796875,-0.08592822402715683,-0.08672211319208145,0.06721126288175583
1789998052311046000,1.0760458984375,-0.1618432253599167,-0.09049234539270401,0.048223987221717834
1789998052321117000,1.086116943359375,-0.15213920176029205,-0.06710819900035858,0.04634725674986839
1789998052331188000,1.09618798828125,-0.10342226177453995,-0.051353733986616135,0.015508918091654778
1789998052341259000,1.106259033203125,-0.03141811117529869,-0.039023831486701965,-0.022779081016778946
1789998052351330000,1.116330078125,0.009362875483930111,-0.008823319338262081,-0.06526581943035126
1789998052361400800,1.12640087890625,0.0349702350795269,0.06214512884616852,-0.10364250838756561
1789998052371470800,1.136470947265625,0.08304375410079956,0.07606600224971771,-0.08045116811990738
1789998052381543000,1.14654296875,0.11666802316904068,0.0722811222076416,-0.01119433157145977
1789998052391613000,1.156613037109375,0.09520161896944046,0.123432457447052,-0.01624421775341034
1789998052401684000,1.16668408203125,0.042340267449617386,0.11021092534065247,0.03734337538480759
1789998052411754800,1.176754638671875,0.07149042934179306,0.11895515024662018,0.04634725674986839
1789998052421825800,1.18682568359375,0.15779069066047668,0.19682012498378754,-0.014761368744075298
1789998052431896800,1.196896728515625,0.24133485555648804,0.24479776620864868,-0.12516456842422485
1789998052441967900,1.2069677734375,0.2695651650428772,0.25039198994636536,-0.11339766532182693
1789998052452039000,1.217038818359375,0.2738747000694275,0.21971291303634644,0.04108858108520508
1789998052462110000,1.22710986328125,0.29020413756370544,0.259528785943985,0.08150923997163773
1789998052472180700,1.2371806640625,0.3374430239200592,0.35059183835983276,0.03364318236708641
1789998052482251800,1.247251708984375,0.40714219212532043,0.3875892758369446,0.056947972625494
1789998052492322800,1.25732275390625,0.4161394238471985,0.3871684968471527,0.04881467670202255
1789998052502393900,1.267393798828125,0.4329780638217926,0.420247346162796,0.1388809233903885
1789998052512465000,1.27746484375,0.502541184425354,0.4999304711818695,0.2352612465620041
1789998052522536000,1.287535888671875,0.5459538698196411,0.5515403747558594,0.18666549026966095
1789998052532606700,1.297606689453125,0.5300111174583435,0.5885713696479797,0.058697134256362915
1789998052542677800,1.307677734375,0.5291972756385803,0.6467308402061462,0.10612297058105469
1789998052552748800,1.317748779296875,0.4913178086280823,0.6562314033508301,0.09825573116540909
1789998052562819800,1.32781982421875,0.45634809136390686,0.6514456868171692,0.08584406971931458
1789998052572891000,1.337890869140625,0.43322253227233887,0.6585448980331421,0.1771063357591629
1789998052582962000,1.3479619140625,0.3766961395740509,0.658107578754425,0.1426311880350113
1789998052593033000,1.358032958984375,0.3301723301410675,0.678436279296875,0.009312009438872337
1789998052603104000,1.36810400390625,0.3228877782821655,0.6782690286636353,-0.07012129575014114
1789998052613175000,1.378175048828125,0.3140452802181244,0.6162863373756409,-0.05385337769985199
1789998052623246000,1.38824609375,0.22638200223445892,0.563368558883667,-0.03820597380399704
1789998052633317000,1.398317138671875,0.1494121253490448,0.5420464873313904,0.05450958013534546
1789998052643388200,1.40838818359375,0.11612048000097275,0.5225990414619446,0.022112226113677025
1789998052653459000,1.418458984375,0.10022726655006409,0.5135791897773743,0.07623405009508133
1789998052663530000,1.428530029296875,0.0588097870349884,0.47230470180511475,0.1029953584074974
1789998052673601000,1.43860107421875,0.03273184597492218,0.4018387794494629,0.14027322828769684
1789998052683672000,1.448672119140625,0.040821466594934464,0.37223029136657715,0.28701579570770264
1789998052693743000,1.4587431640625,0.09025239944458008,0.39563387632369995,0.22620756924152374
1789998052703814100,1.468814208984375,0.13428084552288055,0.4509541392326355,0.039852339774370193
1789998052713885000,1.478885009765625,0.08868779242038727,0.4470488727092743,0.03496650606393814
1789998052723956000,1.4889560546875,0.024040887132287025,0.386775940656662,0.14809651672840118
1789998052734027000,1.499027099609375,0.03315608948469162,0.3690747022628784,0.0994458943605423
1789998052744098000,1.50909814453125,0.09307321906089783,0.44496574997901917,0.01756594330072403
1789998052754169000,1.519169189453125,0.08685420453548431,0.4098418354988098,0.17682324349880219
1789998052764240100,1.529240234375,-0.013065734878182411,0.34408146142959595,0.13962846994400024
1789998052774311000,1.539310791015625,-0.05946971848607063,0.35115909576416016,-0.0003611246356740594
1789998052784382000,1.5493818359375,-0.031374700367450714,0.3266180753707886,0.10277671366930008
1789998052794453000,1.559452880859375,-0.013428723439574242,0.282204806804657,0.09573451429605484
1789998052804524000,1.56952392578125,-0.06712817400693893,0.29230085015296936,0.06890050321817398
1789998052814595000,1.579594970703125,-0.14968723058700562,0.26877474784851074,0.14770130813121796
1789998052824666000,1.589666015625,-0.22730346024036407,0.18882717192173004,0.15722264349460602
1789998052834737000,1.59973681640625,-0.27013853192329407,0.1510545015335083,0.09682480990886688
1789998052844808000,1.609807861328125,-0.26141616702079773,0.11994078755378723,0.11337795853614807
1789998052854879000,1.61987890625,-0.3055279552936554,0.0478905588388443,0.17610712349414825
1789998052864950000,1.629949951171875,-0.3891807794570923,-0.03352999687194824,0.20281089842319489
1789998052875021000,1.64002099609375,-0.4187155067920685,-0.06771086901426315,0.11460354179143906
1789998052885092000,1.650092041015625,-0.43148455023765564,-0.1159665510058403,0.13783936202526093
1789998052895163000,1.660162841796875,-0.5050069689750671,-0.16767795383930206,0.11294199526309967
1789998052905234000,1.67023388671875,-0.5906928777694702,-0.21708332002162933,0.09705011546611786
1789998052915305000,1.680304931640625,-0.6026437878608704,-0.23407748341560364,0.19292710721492767
1789998052925376000,1.6903759765625,-0.6135896444320679,-0.2477160543203354,0.0873468890786171
1789998052935447000,1.700447021484375,-0.6195309162139893,-0.2941906154155731,0.06366632878780365
1789998052945518000,1.71051806640625,-0.6215892434120178,-0.2800457775592804,0.15989485383033752
1789998052955588900,1.7205888671875,-0.666256308555603,-0.2910132110118866,0.07341482490301132
1789998052965660000,1.730659912109375,-0.700623631477356,-0.31337204575538635,-0.09775372594594955
1789998052975731000,1.74073095703125,-0.6231716871261597,-0.2870701253414154,0.05778846517205238
1789998052985802000,1.750802001953125,-0.5845308303833008,-0.246792733669281,0.02317509427666664
1789998052995873000,1.760873046875,-0.578835666179657,-0.27042484283447266,-0.004740959499031305
1789998053005944000,1.770944091796875,-0.6046126484870911,-0.2525494396686554,-0.03187431022524834
1789998053016015000,1.78101513671875,-0.5653126835823059,-0.234779492020607,-0.06404263526201248
1789998053026086000,1.7910859375,-0.47264477610588074,-0.24128079414367676,-0.008538094349205494
1789998053036157000,1.801156982421875,-0.4200153946876526,-0.21615733206272125,0.019025888293981552
1789998053046228000,1.81122802734375,-0.446620911359787,-0.22708135843276978,-0.030830349773168564
1789998053056299000,1.821299072265625,-0.44908806681632996,-0.24022777378559113,-0.014357633888721466
1789998053066370000,1.8313701171875,-0.4336688816547394,-0.2043249011039734,0.05277612805366516
1789998053076441000,1.841441162109375,-0.448636919260025,-0.2202034741640091,0.08900577574968338
1789998053086511900,1.851511962890625,-0.4282831847667694,-0.22154410183429718,0.0938764289021492
1789998053096583000,1.8615830078125,-0.4295295178890228,-0.18571633100509644,0.08983001857995987
1789998053106654000,1.871654052734375,-0.4066990613937378,-0.16722653806209564,0.017776334658265114
1789998053116725000,1.88172509765625,-0.3808634579181671,-0.17583733797073364,0.011635617353022099
1789998053126796000,1.891796142578125,-0.3229040205478668,-0.16492503881454468,0.14059706032276154
1789998053136867000,1.9018671875,-0.2884371280670166,-0.15384867787361145,0.07552006095647812
1789998053146937900,1.911937744140625,-0.28032514452934265,-0.15132933855056763,-0.04364814609289169
1789998053157009000,1.9220087890625,-0.25443708896636963,-0.13929717242717743,-0.02749420888721943
1789998053167080000,1.932079833984375,-0.18249285221099854,-0.1163758784532547,0.05703052878379822
1789998053177151000,1.94215087890625,-0.17768637835979462,-0.08965052664279938,0.019989686086773872
1789998053187222000,1.952221923828125,-0.20596754550933838,-0.10162116587162018,0.0747235044836998
1789998053197293000,1.96229296875,-0.25846564769744873,-0.09206707775592804,-0.0261841993778944
1789998053207362800,1.97236279296875,-0.2521246671676636,-0.06679021567106247,-0.09247586876153946
1789998053217433900,1.982433837890625,-0.21034391224384308,-0.06579392403364182,0.04193786159157753
1789998053227505000,1.9925048828125,-0.18214929103851318,-0.08034996688365936,0.07115007936954498
1789998053237576000,2.002575927734375,-0.15741118788719177,-0.0926431193947792,-0.042336270213127136
1789998053247647000,2.01264697265625,-0.14946486055850983,-0.08865264058113098,-0.018733207136392593
1789998053257717800,2.0227177734375,-0.1521647721529007,-0.10424864292144775,-0.04909617453813553
1789998053267788800,2.032788818359375,-0.17347511649131775,-0.11975303292274475,-0.030701186507940292
1789998053277859800,2.04285986328125,-0.26153838634490967,-0.12449052929878235,-0.026521354913711548
1789998053287931000,2.052930908203125,-0.3332120478153229,-0.17119784653186798,-0.11668533831834793
1789998053298002000,2.063001953125,-0.3551514446735382,-0.20731990039348602,-0.034023482352495193
1789998053308073000,2.073072998046875,-0.35986870527267456,-0.25845152139663696,0.10266193002462387
1789998053318144300,2.083144287109375,-0.3842912018299103,-0.3462578058242798,0.03225487470626831
1789998053328215300,2.09321533203125,-0.4315878748893738,-0.42300692200660706,-0.02833789773285389
1789998053338286000,2.1032861328125,-0.46934351325035095,-0.448456346988678,-0.03187191113829613
1789998053348357000,2.113357177734375,-0.4594959616661072,-0.49242326617240906,-0.006708769127726555
1789998053358428200,2.12342822265625,-0.4739188253879547,-0.5292039513587952,0.055504005402326584
1789998053368499200,2.133499267578125,-0.5360269546508789,-0.5521001815795898,0.05209675803780556
1789998053378570200,2.1435703125,-0.5730960369110107,-0.5748428106307983,0.08879644423723221
1789998053388641300,2.153641357421875,-0.6365604996681213,-0.6018751859664917,-0.0029356025625020266
1789998053398712000,2.163712158203125,-0.6963143348693848,-0.6501612663269043,-0.06675692647695541
1789998053408783000,2.173783203125,-0.6989202499389648,-0.6585776209831238,0.05792854726314545
1789998053418854100,2.183854248046875,-0.6831806898117065,-0.6840637922286987,0.006146842148154974
1789998053428925200,2.19392529296875,-0.7042505741119385,-0.7586573362350464,-0.061283864080905914
1789998053438996200,2.203996337890625,-0.6661620736122131,-0.7851651310920715,0.07197805494070053
1789998053449067300,2.2140673828125,-0.628298819065094,-0.7673046588897705,0.06258561462163925
1789998053459138000,2.224137939453125,-0.6565826535224915,-0.8056272864341736,-0.015615710988640785
1789998053469209000,2.234208984375,-0.7151479721069336,-0.8203564286231995,0.017853299155831337
1789998053479280000,2.244280029296875,-0.7084394693374634,-0.8066129088401794,0.0908886268734932
1789998053489351200,2.25435107421875,-0.6542907357215881,-0.8059279322624207,0.002960103563964367
1789998053499422200,2.264422119140625,-0.6193394064903259,-0.8029020428657532,-0.02075428143143654
1789998053509493200,2.2744931640625,-0.5740323662757874,-0.7991693615913391,-0.029195968061685562
1789998053519564000,2.28456396484375,-0.5000553727149963,-0.7854120135307312,-0.006178267300128937
1789998053529635000,2.294635009765625,-0.3958389461040497,-0.7810529470443726,-0.03329271078109741
1789998053539706000,2.3047060546875,-0.2864757180213928,-0.7177978157997131,0.11160881817340851
1789998053549777200,2.314777099609375,-0.24500921368598938,-0.6514339447021484,0.1659572720527649
1789998053559848200,2.32484814453125,-0.20844854414463043,-0.6027314066886902,0.06199146434664726
1789998053569919200,2.334919189453125,-0.1606551855802536,-0.5411385893821716,0.0675036758184433
1789998053579990300,2.344990234375,-0.12187317758798599,-0.4975719749927521,0.04704207554459572
1789998053590061300,2.355061279296875,-0.020479442551732063,-0.45796969532966614,0.003195793367922306
1789998053600132400,2.36513232421875,0.06482160836458206,-0.3805531859397888,0.132735937833786
1789998053610203400,2.375203369140625,0.14929628372192383,-0.3253341615200043,0.20356564223766327
1789998053620274400,2.3852744140625,0.28934019804000854,-0.2621956765651703,0.19679482281208038
1789998053630345500,2.395345458984375,0.3327036499977112,-0.18195942044258118,0.10764151066541672
1789998053640416300,2.405416259765625,0.29410219192504883,-0.156233549118042,0.08237050473690033
1789998053650487300,2.4154873046875,0.33009374141693115,-0.1325513869524002,-0.004514590837061405
1789998053660558300,2.425558349609375,0.40312880277633667,-0.08472181111574173,-0.0022887205705046654
1789998053670629400,2.43562939453125,0.36933889985084534,-0.0968458503484726,-0.00743208359926939
1789998053680700400,2.445700439453125,0.3405945897102356,-0.10778158903121948,-0.05321768298745155
1789998053690771500,2.455771484375,0.32680556178092957,-0.0861940085887909,-0.015169365331530571
1789998053700842500,2.465842529296875,0.33104848861694336,-0.06897401064634323,-0.04770440608263016
1789998053710912300,2.475912353515625,0.36004072427749634,-0.03492229804396629,-0.03971465677022934
1789998053720983300,2.4859833984375,0.30912721157073975,-0.05476071685552597,-0.07048242539167404
1789998053731054300,2.496054443359375,0.2631749212741852,-0.08162642270326614,-0.06397499144077301
1789998053741125400,2.50612548828125,0.2870789170265198,-0.06136775389313698,-0.01356481108814478
1789998053751196400,2.516196533203125,0.32779863476753235,-0.05290635675191879,0.06217921897768974
1789998053761267200,2.52626708984375,0.2889138162136078,-0.05991952493786812,-0.009152219630777836
1789998053771338200,2.536338134765625,0.19083786010742188,-0.07900720089673996,-0.03615400940179825
1789998053781409300,2.5464091796875,0.21297352015972137,-0.07233651727437973,-0.050211504101753235
1789998053791480300,2.556480224609375,0.3441203534603119,-0.022720757871866226,-0.003921770956367254
1789998053801551400,2.56655126953125,0.3982946574687958,-0.012115784920752048,-0.00017976337403524667
1789998053811622400,2.576622314453125,0.37821894884109497,-0.01606045849621296,0.16250155866146088
1789998053821693200,2.586693115234375,0.28335341811180115,-0.0027742148377001286,0.10411442071199417
1789998053831764200,2.59676416015625,0.23704557120800018,0.021770009770989418,-0.030968036502599716
1789998053841835300,2.606835205078125,0.3130023777484894,0.06307510286569595,-0.07242945581674576
1789998053851906300,2.61690625,0.36763474345207214,0.1295526623725891,-0.061881475150585175
1789998053861977300,2.626977294921875,0.31216350197792053,0.1451883465051651,-0.08479291945695877
1789998053872048400,2.63704833984375,0.28194567561149597,0.10745135694742203,-0.1858827769756317
1789998053882119200,2.647119140625,0.34348171949386597,0.1252886801958084,-0.06439416855573654
1789998053892190200,2.657190185546875,0.4024462401866913,0.18624603748321533,-0.003245061729103327
1789998053902261200,2.66726123046875,0.39976924657821655,0.21594960987567902,-0.0007534082396887243
1789998053912332300,2.677332275390625,0.3251059055328369,0.19928939640522003,-0.11432471126317978
1789998053922403300,2.6874033203125,0.32538580894470215,0.19376254081726074,-0.0662786215543747
1789998053932474400,2.697474365234375,0.3866337239742279,0.22157660126686096,-0.02912166714668274
1789998053942545200,2.707545166015625,0.39763978123664856,0.21278737485408783,-0.14364798367023468
1789998053952616200,2.7176162109375,0.3167305588722229,0.21402867138385773,-0.19791680574417114
1789998053962687200,2.727687255859375,0.3649066090583801,0.18762049078941345,-0.12484792619943619
1789998053972758300,2.73775830078125,0.49085041880607605,0.19120058417320251,0.15217755734920502
1789998053982829300,2.747829345703125,0.5123269557952881,0.21895258128643036,0.14423494040966034
1789998053992900400,2.757900390625,0.49577194452285767,0.2505645751953125,0.08007139712572098
1789998054002971100,2.76797119140625,0.4024004340171814,0.28872260451316833,-0.01853666640818119
1789998054013042200,2.778042236328125,0.4004709720611572,0.2865169942378998,0.05299850180745125
1789998054023113200,2.78811328125,0.5009927749633789,0.31273767352104187,0.06265272945165634
1789998054033184300,2.798184326171875,0.49229198694229126,0.3875778317451477,0.011088604107499123
1789998054043255300,2.80825537109375,0.513236939907074,0.3860851228237152,-0.0013853764394298196
1789998054053326300,2.818326416015625,0.5162340402603149,0.3995428681373596,0.09819181263446808
1789998054063397000,2.828397216796875,0.5121668577194214,0.4363781213760376,0.09175948053598404
1789998054073468200,2.83846826171875,0.4131723940372467,0.4718141257762909,0.030434871092438698
1789998054083539200,2.848539306640625,0.29813796281814575,0.4859893321990967,-0.027393806725740433
1789998054093610200,2.8586103515625,0.23545832931995392,0.45157650113105774,0.011780492961406708
1789998054103681300,2.868681396484375,0.263827919960022,0.3866904675960541,0.14517369866371155
1789998054113751300,2.878751220703125,0.3087213635444641,0.30361446738243103,0.23019298911094666
1789998054123822300,2.888822265625,0.2156294882297516,0.21150559186935425,0.10620500147342682
1789998054133893400,2.898893310546875,0.07664657384157181,0.13937866687774658,0.06733323633670807
1789998054143964400,2.90896435546875,0.01619255170226097,0.10128827393054962,0.01721786893904209
1789998054154035500,2.919035400390625,-0.00887871254235506,0.05432023108005524,0.12376534938812256
1789998054164106500,2.9291064453125,-0.07450832426548004,-0.02147599682211876,0.09068968892097473
1789998054174177300,2.93917724609375,-0.11791545152664185,-0.06940250843763351,0.05467629432678223
1789998054184248300,2.949248291015625,-0.14062128961086273,-0.09077810496091843,0.02050767093896866
1789998054194319400,2.9593193359375,-0.1557813435792923,-0.11528318375349045,0.03874446451663971
1789998054204390400,2.969390380859375,-0.1912461221218109,-0.12674729526042938,0.06220664829015732
1789998054214461400,2.97946142578125,-0.21011781692504883,-0.1444232314825058,0.049380067735910416
1789998054224532500,2.989532470703125,-0.23573929071426392,-0.16360117495059967,0.016378439962863922
1789998054234603300,2.999603271484375,-0.21455436944961548,-0.1525202989578247,-0.049983538687229156
1789998054244674300,3.00967431640625,-0.17548047006130219,-0.13340093195438385,-0.08360221982002258
1789998054254745300,3.019745361328125,-0.11159097403287888,-0.11247461289167404,-0.0833984836935997
1789998054264816400,3.02981640625,-0.07131572812795639,-0.09958437830209732,0.048466600477695465
1789998054274887400,3.039887451171875,-0.041374869644641876,-0.08709841966629028,0.07572538405656815
1789998054284958500,3.04995849609375,-0.05319797247648239,-0.06067879498004913,0.12282045930624008
1789998054295029200,3.060029296875,-0.08281179517507553,-0.029647374525666237,0.05579295754432678
1789998054305100300,3.070100341796875,-0.0987180545926094,0.0012069445801898837,-0.024291757494211197
1789998054315171300,3.08017138671875,-0.07880932837724686,0.0196679774671793,-0.06132913753390312
1789998054325242400,3.090242431640625,-0.0010314423125237226,0.026203639805316925,-0.06669700145721436
1789998054335313200,3.100313232421875,0.051782503724098206,0.030171217396855354,-0.050036270171403885
1789998054345384200,3.11038427734375,0.10117135941982269,0.04139750823378563,-0.03554787486791611
1789998054355455200,3.120455322265625,0.0831843689084053,0.058097656816244125,-0.1581379771232605
1789998054365526300,3.1305263671875,0.053521282970905304,0.07920800149440765,-0.15090295672416687
1789998054375597300,3.140597412109375,0.03965793177485466,0.09264684468507767,0.01593635603785515
1789998054385668400,3.15066845703125,0.03193476423621178,0.07491205632686615,0.028195418417453766
1789998054395739100,3.1607392578125,0.0006095975404605269,0.058881424367427826,0.0263567715883255
1789998054405810200,3.17081005859375,0.023185480386018753,0.08461874723434448,0.13679327070713043
1789998054415881200,3.180881103515625,0.03524880111217499,0.10006215423345566,0.10265687108039856
1789998054425952300,3.1909521484375,-0.01519812736660242,0.09439787268638611,0.0201654564589262
1789998054436022300,3.201022216796875,-0.027296070009469986,0.09824267774820328,-0.04397597908973694
1789998054446093000,3.211093017578125,-0.000806138850748539,0.11344267427921295,-0.10875391215085983
1789998054456164000,3.2211640625,0.0375676155090332,0.13617168366909027,-0.06417153030633926
1789998054466235100,3.231235107421875,0.014822621829807758,0.12576724588871002,-0.0665486678481102
1789998054476306200,3.24130615234375,0.03951331973075867,0.11528744548559189,-0.018975822255015373
1789998054486377200,3.251377197265625,0.0390549898147583,0.11734607070684433,-0.005140966270118952
1789998054496448300,3.2614482421875,0.036730848252773285,0.10911290347576141,0.09412037581205368
1789998054506519000,3.27151904296875,-0.035844285041093826,0.09044041484594345,0.06458591669797897
1789998054516590000,3.281590087890625,-0.11023756116628647,0.09766504168510437,0.0027662254869937897
1789998054526661000,3.2916611328125,-0.10497621446847916,0.08206850290298462,0.03740968927741051
1789998054536732200,3.301732177734375,-0.07102597504854202,0.06312011182308197,0.07489767670631409
1789998054546803200,3.31180322265625,-0.1220627948641777,0.03032008931040764,0.027830032631754875
1789998054556874200,3.321874267578125,-0.15771612524986267,-0.03169853985309601,0.017973141744732857
1789998054566945000,3.331945068359375,-0.14653991162776947,-0.05235162004828453,0.03828373923897743
1789998054577016000,3.34201611328125,-0.15193387866020203,-0.06370814144611359,0.018576880916953087
1789998054587087000,3.352087158203125,-0.20844562351703644,-0.08426933735609055,-0.020495155826210976
1789998054597158100,3.362158203125,-0.2240900844335556,-0.10168561339378357,-0.017891649156808853
1789998054607229200,3.372229248046875,-0.23275016248226166,-0.11740918457508087,0.04801439866423607
1789998054617300200,3.38230029296875,-0.2581404745578766,-0.15873372554779053,0.025317607447504997
1789998054627371000,3.39237109375,-0.31089767813682556,-0.1976688653230667,0.020377710461616516
1789998054637442000,3.402442138671875,-0.3236377239227295,-0.20992687344551086,-0.033493511378765106
1789998054647513000,3.41251318359375,-0.2475125938653946,-0.22005966305732727,0.037517815828323364
1789998054657584000,3.422584228515625,-0.15026620030403137,-0.22513538599014282,0.08700813353061676
1789998054667655200,3.4326552734375,-0.12399811297655106,-0.23810310661792755,0.08451434969902039
1789998054677726200,3.442726318359375,-0.15656937658786774,-0.25496676564216614,0.13638047873973846
1789998054687797000,3.452796875,-0.18125607073307037,-0.25295689702033997,0.04910149797797203
1789998054697868000,3.462867919921875,-0.24392345547676086,-0.230913907289505,-0.07778853923082352
1789998054707939000,3.47293896484375,-0.22121894359588623,-0.18744659423828125,-0.0075426045805215836
1789998054718010000,3.483010009765625,-0.20337708294391632,-0.14744751155376434,-0.0034999263007193804
1789998054728081200,3.4930810546875,-0.2660450041294098,-0.14582911133766174,-0.114990234375
1789998054738152200,3.503152099609375,-0.261770099401474,-0.12724024057388306,-0.05732427537441254
1789998054748222200,3.51322216796875,-0.1467798501253128,-0.06953459978103638,0.028871595859527588
1789998054758293200,3.523293212890625,-0.11305731534957886,-0.07457064092159271,-0.003849599277600646
1789998054768364300,3.5333642578125,-0.16266560554504395,-0.08189886063337326,-0.041485127061605453
1789998054778435300,3.543435302734375,-0.22827844321727753,-0.06719820946455002,-0.043288085609674454
1789998054788506400,3.55350634765625,-0.2498420625925064,-0.05018008127808571,-0.09501732885837555
1789998054798577200,3.5635771484375,-0.25878655910491943,-0.04316691309213638,-0.12416056543588638
1789998054808648200,3.573648193359375,-0.20621229708194733,-0.047028228640556335,-0.06293129175901413
1789998054818719200,3.58371923828125,-0.17605412006378174,-0.06986749917268753,-0.0177606213837862
1789998054828790300,3.593790283203125,-0.13996508717536926,-0.09471239149570465,0.0718904361128807
1789998054838861300,3.603861328125,-0.15605324506759644,-0.07268805056810379,0.04032744839787483
1789998054848932400,3.613932373046875,-0.20108890533447266,-0.0676506832242012,-0.03141411393880844
1789998054859003100,3.624003173828125,-0.22973226010799408,-0.08357319235801697,-0.10491043329238892
1789998054869074200,3.63407421875,-0.21797813475131989,-0.11278992891311646,-0.02376764640212059
1789998054879145200,3.644145263671875,-0.21209654211997986,-0.15824396908283234,-0.06852606683969498
1789998054889216300,3.65421630859375,-0.2457732856273651,-0.17601843178272247,-0.05466031655669212
1789998054899287300,3.664287353515625,-0.27375298738479614,-0.17195124924182892,-0.08431967347860336
1789998054909358300,3.6743583984375,-0.27638179063796997,-0.19523313641548157,-0.036564670503139496
1789998054919429400,3.684429443359375,-0.3246382772922516,-0.22428743541240692,0.04493764787912369
1789998054929500200,3.694500244140625,-0.40700557827949524,-0.248023122549057,0.053527671843767166
1789998054939571200,3.7045712890625,-0.46456342935562134,-0.29636350274086,0.0018967032665386796
1789998054949642200,3.714642333984375,-0.43966764211654663,-0.32673177123069763,-0.0991300418972969
1789998054959713300,3.72471337890625,-0.41342246532440186,-0.3519495129585266,-0.016163790598511696
1789998054969784300,3.734784423828125,-0.3768002688884735,-0.40213465690612793,0.1199631541967392
1789998054979855400,3.74485546875,-0.36440032720565796,-0.45099887251853943,0.2708706557750702
1789998054989926100,3.754926025390625,-0.4030151069164276,-0.4608437716960907,0.11626242846250534
1789998054999997200,3.7649970703125,-0.4465987980365753,-0.48969778418540955,-0.00398781755939126
1789998055010068200,3.775068115234375,-0.5028823018074036,-0.5067249536514282,-0.0036402747500687838
1789998055020139300,3.78513916015625,-0.4829016625881195,-0.5074392557144165,0.022965770214796066
1789998055030209300,3.795209228515625,-0.4735497236251831,-0.5442012548446655,-0.03563496097922325
1789998055040280000,3.805280029296875,-0.4714871048927307,-0.5508333444595337,-0.03322027251124382
1789998055050351000,3.81535107421875,-0.436083048582077,-0.5383571982383728,-0.05578257143497467
1789998055060422100,3.825422119140625,-0.37633901834487915,-0.5342268943786621,0.003962783608585596
1789998055070493200,3.8354931640625,-0.31369534134864807,-0.5466825366020203,-0.03754311427474022
1789998055080564200,3.845564208984375,-0.2908637821674347,-0.5336441993713379,-0.03834046423435211
1789998055090635300,3.85563525390625,-0.31824082136154175,-0.5135048627853394,0.008354336023330688
1789998055100706000,3.8657060546875,-0.33586081862449646,-0.492724746465683,-0.001457548001781106
1789998055110777000,3.875777099609375,-0.325847864151001,-0.45045825839042664,-0.04074237123131752
1789998055120848100,3.88584814453125,-0.2831653952598572,-0.4229866862297058,0.0049074068665504456
1789998055130919200,3.895919189453125,-0.20990049839019775,-0.4243358373641968,0.0922846570611
1789998055140990200,3.905990234375,-0.1883571296930313,-0.4152906835079193,0.03266393765807152
1789998055151061200,3.916061279296875,-0.17088119685649872,-0.41327333450317383,-0.05119927227497101
1789998055161132000,3.926132080078125,-0.17327085137367249,-0.38012468814849854,-0.011362642981112003
1789998055171203000,3.936203125,-0.16717460751533508,-0.36503922939300537,0.041124798357486725
1789998055181274000,3.946274169921875,-0.14917510747909546,-0.3530941307544708,-0.0011385013349354267
1789998055191345200,3.95634521484375,-0.15164172649383545,-0.2958982288837433,0.07726868987083435
1789998055201416200,3.966416259765625,-0.15246491134166718,-0.29157590866088867,0.08214600384235382
1789998055211487200,3.9764873046875,-0.08251911401748657,-0.3102995455265045,0.07753606885671616
1789998055221558000,3.98655810546875,0.0032581111881881952,-0.26484179496765137,0.15477998554706573
1789998055231629000,3.996629150390625,-0.035901010036468506,-0.22997301816940308,0.14587783813476562
1789998055241700000,4.0067001953125,-0.07670196890830994,-0.27552878856658936,0.08151376992464066
1789998055251771100,4.016771240234375,-0.08166690170764923,-0.2765383720397949,0.030719563364982605
1789998055261842200,4.02684228515625,0.006136189214885235,-0.2451580911874771,0.09935774654150009
1789998055271913200,4.036913330078125,0.0755259171128273,-0.22457905113697052,0.0887162834405899
1789998055281984000,4.04698388671875,0.0713609978556633,-0.19248023629188538,-0.04711851105093956
1789998055292054300,4.05705419921875,0.03834712132811546,-0.1854713261127472,-0.08647097647190094
1789998055302125300,4.067125244140625,0.022123144939541817,-0.1774914264678955,0.01606924831867218
1789998055312196400,4.0771962890625,0.026619626209139824,-0.1659969538450241,0.051182761788368225
1789998055322267100,4.08726708984375,0.06258082389831543,-0.13955655694007874,0.03537982702255249
1789998055332338200,4.097338134765625,0.09355658292770386,-0.14421044290065765,0.07692354172468185
1789998055342409200,4.1074091796875,0.1180235743522644,-0.13724680244922638,-0.002734267385676503
1789998055352480000,4.11747998046875,0.19137687981128693,-0.13228267431259155,-0.1276751309633255
1789998055362551000,4.127551025390625,0.22059442102909088,-0.10386115312576294,-0.02748888172209263
1789998055372622000,4.1376220703125,0.19085650146007538,-0.08300114423036575,-0.0016277240356430411
1789998055382693000,4.147693115234375,0.15214213728904724,-0.05781269818544388,-0.057909104973077774
1789998055392764200,4.15776416015625,0.14895619451999664,-0.03116138093173504,0.023495739325881004
1789998055402835200,4.167835205078125,0.13439056277275085,-0.034262631088495255,0.009247294627130032
1789998055412906000,4.177906005859375,0.12663543224334717,-0.04862372949719429,0.06864936649799347
1789998055422977000,4.18797705078125,0.1460600048303604,-0.02863510698080063,0.12889832258224487
1789998055433048000,4.198048095703125,0.16764545440673828,-0.005554554983973503,-0.025347966700792313
1789998055443119000,4.208119140625,0.20369134843349457,-0.01647990755736828,-0.018965700641274452
1789998055453190100,4.218190185546875,0.22016406059265137,-0.05047542601823807,0.0568275973200798
1789998055463261200,4.22826123046875,0.1782168745994568,-0.06334381550550461,0.04151228815317154
1789998055473332000,4.23833203125,0.1115931048989296,-0.08447600156068802,0.004799549002200365
1789998055483403000,4.248403076171875,0.06154724955558777,-0.14332041144371033,-0.005185174755752087
1789998055493474000,4.25847412109375,0.01654648594558239,-0.188625305891037,0.08328583836555481
1789998055503545000,4.268545166015625,-0.02491893246769905,-0.21381880342960358,0.12531131505966187
1789998055513616100,4.2786162109375,0.002871420234441757,-0.24174445867538452,0.08761347085237503
1789998055523686000,4.288685791015625,0.029436718672513962,-0.23446203768253326,0.07223105430603027
1789998055533757000,4.2987568359375,0.06078718230128288,-0.23998357355594635,-0.010909905657172203
1789998055543828000,4.308827880859375,0.045466549694538116,-0.2660388648509979,-0.003498594742268324
1789998055553899000,4.31889892578125,-0.001073786523193121,-0.25748640298843384,-0.030464164912700653
1789998055563970000,4.328969970703125,-0.04713661968708038,-0.2681882977485657,0.025665415450930595
1789998055574041000,4.339041015625,-0.08493433147668839,-0.27124935388565063,-0.041727740317583084
1789998055584111900,4.34911181640625,-0.0895029827952385,-0.2837156057357788,0.018217353150248528
1789998055594183000,4.359182861328125,-0.13368110358715057,-0.3022938072681427,0.047508928924798965
1789998055604254000,4.36925390625,-0.0747581273317337,-0.30339664220809937,-0.011859589256346226
1789998055614325000,4.379324951171875,0.027358386665582657,-0.2792670726776123,-0.005898369010537863
1789998055624396000,4.38939599609375,0.06676890701055527,-0.2767881751060486,0.002590989461168647
1789998055634467000,4.399467041015625,0.08303523063659668,-0.27394792437553406,-0.03508554771542549
1789998055644537900,4.409537841796875,0.10855763405561447,-0.25509780645370483,-0.05772082135081291
1789998055654609000,4.41960888671875,0.11984704434871674,-0.24887746572494507,-0.07702447474002838
1789998055664680000,4.429679931640625,0.13699354231357574,-0.2536943256855011,0.012585300020873547
1789998055674751000,4.4397509765625,0.16638951003551483,-0.2269202321767807,0.03868135064840317
1789998055684822000,4.449822021484375,0.144465833902359,-0.18832942843437195,0.015088139101862907
1789998055694893000,4.45989306640625,0.1575765758752823,-0.15997634828090668,-0.00045060686534270644
1789998055704963800,4.4699638671875,0.20899343490600586,-0.1508299857378006,0.09398721158504486
1789998055715035000,4.480034912109375,0.2812305986881256,-0.11888164281845093,0.06091315299272537
1789998055725106000,4.49010595703125,0.30199554562568665,-0.08728484064340591,-0.037348970770835876
1789998055735177000,4.500177001953125,0.33194971084594727,-0.07226620614528656,-0.01128194946795702
1789998055745248000,4.510248046875,0.301639199256897,-0.011948272585868835,-0.08468452841043472
1789998055755318000,4.520318115234375,0.3255288302898407,0.036680251359939575,-0.0975867435336113
1789998055765389000,4.53038916015625,0.40108218789100647,0.07458528876304626,0.010124539025127888
1789998055775460000,4.540460205078125,0.41423898935317993,0.12455018609762192,0.03176645189523697
1789998055785531100,4.55053125,0.41733384132385254,0.16832642257213593,0.017775535583496094
1789998055795602200,4.560602294921875,0.4477047920227051,0.2169879674911499,-0.05390238016843796
1789998055805673200,4.570673095703125,0.45829805731773376,0.29139935970306396,-0.030908115208148956
1789998055815744000,4.580743896484375,0.49586302042007446,0.3355942368507385,-0.016716130077838898
1789998055825815000,4.59081494140625,0.5295413732528687,0.38795146346092224,-0.020905015990138054
1789998055835886000,4.600885986328125,0.5482662916183472,0.45995721220970154,-0.04105289280414581
1789998055845957000,4.61095703125,0.5596275925636292,0.4975988566875458,-0.018875153735280037
1789998055856028200,4.621028076171875,0.5772503018379211,0.5344117283821106,-0.05491464585065842
1789998055866099200,4.63109912109375,0.5897125601768494,0.6199074387550354,-0.1015940010547638
1789998055876170000,4.641169921875,0.629931628704071,0.6341716051101685,-0.0376317985355854
1789998055886241000,4.651240966796875,0.6971138119697571,0.6284146904945374,-0.02353328838944435
1789998055896312000,4.66131201171875,0.7026068568229675,0.6715730428695679,-0.006060821935534477
1789998055906383000,4.671383056640625,0.6746844053268433,0.6743946671485901,-0.002344913315027952
1789998055916454100,4.6814541015625,0.6377946138381958,0.665061891078949,-0.015358183532953262
1789998055926525200,4.691525146484375,0.6186933517456055,0.6868523955345154,-0.0530104860663414
1789998055936596000,4.701595947265625,0.5761805176734924,0.644953191280365,-0.03117016889154911
1789998055946667000,4.7116669921875,0.524068295955658,0.5980466604232788,-0.05890699103474617
1789998055956737000,4.721737060546875,0.47595030069351196,0.576593279838562,-0.04186675697565079
1789998055966808000,4.73180810546875,0.4517006278038025,0.5055260062217712,0.021634988486766815
1789998055976879000,4.741879150390625,0.4464634954929352,0.43907085061073303,0.05136784911155701
1789998055986950000,4.751949951171875,0.4007790982723236,0.42345646023750305,0.011920042335987091
1789998055997021000,4.76202099609375,0.27333885431289673,0.383640855550766,0.05556073039770126
1789998056007092000,4.772092041015625,0.17516621947288513,0.3016032576560974,-0.08350741118192673
1789998056017163000,4.7821630859375,0.07808122038841248,0.24660632014274597,-0.13887639343738556
1789998056027234000,4.792234130859375,0.014454040676355362,0.18006697297096252,0.023307187482714653
1789998056037305000,4.80230517578125,-0.06070569157600403,0.06807918846607208,0.11560595780611038
1789998056047376000,4.8123759765625,-0.15670917928218842,-0.02508724294602871,0.0421847365796566
1789998056057447000,4.822447021484375,-0.23209474980831146,-0.07993584126234055,0.10837787389755249
1789998056067518000,4.83251806640625,-0.2587524652481079,-0.15291018784046173,0.15012718737125397
1789998056077589000,4.842589111328125,-0.3428974449634552,-0.19373618066310883,-0.02208053506910801
1789998056087660000,4.852659912109375,-0.38935333490371704,-0.25364959239959717,-0.02448803186416626
1789998056097731000,4.86273095703125,-0.3740209937095642,-0.28031501173973083,-0.022279739379882812
1789998056107801900,4.8728017578125,-0.39971357583999634,-0.2946729063987732,0.027842549607157707
1789998056117873000,4.882872802734375,-0.4900512099266052,-0.3488897979259491,0.18679624795913696
1789998056127944000,4.89294384765625,-0.5290369391441345,-0.392373651266098,0.19799217581748962
1789998056138015000,4.903014892578125,-0.5756348371505737,-0.42504504323005676,0.09677820652723312
1789998056148086000,4.9130859375,-0.6201136112213135,-0.4876575469970703,-0.000636761833447963
1789998056158157000,4.923156982421875,-0.6004072427749634,-0.48751747608184814,-0.07986687123775482
1789998056168227000,4.93322705078125,-0.571743369102478,-0.4951053559780121,-0.016707073897123337
1789998056178298000,4.943298095703125,-0.5185344815254211,-0.5253812074661255,0.037513554096221924
1789998056188369200,4.953369140625,-0.42172539234161377,-0.4982824921607971,-0.03460964187979698
1789998056198440200,4.963440185546875,-0.3732271194458008,-0.4827014207839966,-0.052801962941884995
1789998056208511200,4.97351123046875,-0.319563627243042,-0.47385305166244507,-0.01637151651084423
1789998056218582000,4.98358203125,-0.33639585971832275,-0.45926105976104736,-0.024221183732151985
1789998056228653000,4.993653076171875,-0.32132261991500854,-0.47102344036102295,0.03905285894870758
1789998056238724000,5.00372412109375,-0.29151201248168945,-0.4272834062576294,0.07153410464525223
1789998056248795100,5.013795166015625,-0.2926188111305237,-0.36076804995536804,0.03074193373322487
1789998056258866200,5.0238662109375,-0.2357989400625229,-0.3184354901313782,-0.0024373249616473913
1789998056268937200,5.033937255859375,-0.09808235615491867,-0.24745826423168182,-0.0359358973801136
1789998056279008000,5.044008056640625,0.02269066497683525,-0.17203567922115326,0.019412314519286156
1789998056289079000,5.0540791015625,0.11435852944850922,-0.14500166475772858,0.055623047053813934
1789998056299150000,5.064150146484375,0.20932365953922272,-0.09750578552484512,0.024887772276997566
1789998056309221000,5.07422119140625,0.23001909255981445,-0.028880650177598,-0.032396554946899414
1789998056319292400,5.08429248046875,0.23173576593399048,0.008141017518937588,-0.00866059958934784
1789998056329363500,5.094363525390625,0.2324841022491455,0.05459826439619064,-0.03085937909781933
1789998056339434500,5.1044345703125,0.2407231330871582,0.09102551639080048,-0.029744846746325493
1789998056349505300,5.11450537109375,0.26054903864860535,0.12865544855594635,-0.03291001170873642
1789998056359576300,5.124576416015625,0.31884774565696716,0.17854657769203186,-0.11843077093362808
1789998056369646300,5.134646240234375,0.36972346901893616,0.2217840552330017,-0.04472725838422775
1789998056379717400,5.14471728515625,0.4695853292942047,0.24276897311210632,0.09581627696752548
1789998056389788200,5.1547880859375,0.5473818778991699,0.30116117000579834,-0.008919458836317062
1789998056399859200,5.164859130859375,0.5914270877838135,0.3396025598049164,-0.10135431587696075
1789998056409930200,5.17493017578125,0.6078265905380249,0.34820351004600525,-0.047767523676157
1789998056420001300,5.185001220703125,0.6164791584014893,0.3916487395763397,-0.052863214164972305
1789998056430072300,5.195072265625,0.6070609092712402,0.4590429365634918,-0.07849134504795074
1789998056440143400,5.205143310546875,0.5993446707725525,0.49789100885391235,-0.06733190268278122
1789998056450214400,5.21521435546875,0.6081847548484802,0.5307341814041138,-0.07700663059949875
1789998056460285200,5.22528515625,0.5939610600471497,0.5521814227104187,-0.012026568874716759
1789998056470356200,5.235356201171875,0.6042746901512146,0.5698397755622864,-0.041723478585481644
1789998056480427300,5.24542724609375,0.6308298707008362,0.6282559633255005,-0.10112741589546204
1789998056490498300,5.255498291015625,0.7079179883003235,0.6222542524337769,0.0011193265672773123
1789998056500569300,5.2655693359375,0.7681222558021545,0.6224744915962219,0.023972976952791214
1789998056510640400,5.275640380859375,0.740002453327179,0.6753100156784058,-0.04346465319395065
1789998056520711200,5.285711181640625,0.6920176148414612,0.6862931251525879,0.007570834364742041
1789998056530782200,5.2957822265625,0.6248947381973267,0.71175616979599,-0.04318715259432793
1789998056540853200,5.305853271484375,0.5554520487785339,0.7113659977912903,-0.12513315677642822
1789998056550924300,5.31592431640625,0.4980963468551636,0.6903557777404785,0.00941880140453577
1789998056560994300,5.325994384765625,0.4768587052822113,0.6526739597320557,0.0008527441532351077
1789998056571065000,5.336065185546875,0.44294947385787964,0.6326869130134583,-0.046727024018764496
1789998056581136100,5.34613623046875,0.40444496273994446,0.606779158115387,-0.0041641187854111195
1789998056591207200,5.356207275390625,0.33721956610679626,0.5965669751167297,0.003123621689155698
1789998056601278200,5.3662783203125,0.2927951216697693,0.5803395509719849,-0.07458075881004333
1789998056611349200,5.376349365234375,0.282803475856781,0.5351787209510803,-0.032946765422821045
1789998056621420300,5.386420166015625,0.2740062475204468,0.48183774948120117,-0.011999671347439289
1789998056631491000,5.396490966796875,0.2222442477941513,0.4250117540359497,-0.012089685536921024
1789998056641562000,5.40656201171875,0.18809427320957184,0.4030337333679199,0.06950051337480545
1789998056651633200,5.416633056640625,0.16152657568454742,0.37325534224510193,0.16604650020599365
1789998056661704200,5.4267041015625,0.09967146813869476,0.36114275455474854,0.049858901649713516
1789998056671775200,5.436775146484375,0.06596489995718002,0.3752029240131378,0.058335743844509125
1789998056681846300,5.44684619140625,0.09208225458860397,0.34380316734313965,0.2316819578409195
1789998056691917000,5.4569169921875,0.11619611084461212,0.3429911732673645,0.23252113163471222
1789998056701988000,5.466988037109375,0.09130781143903732,0.3403296172618866,0.1408471316099167
1789998056712059100,5.47705908203125,0.056605223566293716,0.3288894593715668,0.16084454953670502
1789998056722130200,5.487130126953125,0.020422717556357384,0.35106560587882996,0.1272500902414322
1789998056732201200,5.497201171875,-0.024458205327391624,0.34201592206954956,0.0507313534617424
1789998056742272300,5.507272216796875,-0.03214675188064575,0.37715500593185425,-0.0051683965139091015
1789998056752342300,5.51734228515625,-0.054189469665288925,0.37406495213508606,0.012592490762472153
1789998056762413300,5.527413330078125,-0.0768716111779213,0.3249964714050293,0.16542038321495056
1789998056772484400,5.537484375,-0.11087485402822495,0.28795722126960754,0.24578845500946045
1789998056782555400,5.547555419921875,-0.1591678112745285,0.25902891159057617,0.21510832011699677
1789998056792626400,5.55762646484375,-0.1801266223192215,0.22448237240314484,0.08216970413923264
1789998056802697200,5.567697265625,-0.20437151193618774,0.2124592661857605,0.06565357744693756
1789998056812768300,5.577768310546875,-0.2116137146949768,0.19192363321781158,0.13573838770389557
1789998056822839300,5.58783935546875,-0.19886915385723114,0.14699983596801758,0.14139866828918457
1789998056832910300,5.597910400390625,-0.19429756700992584,0.10207603126764297,0.10970279574394226
1789998056842981400,5.6079814453125,-0.2111644446849823,0.07832090556621552,0.17791832983493805
1789998056853052400,5.618052490234375,-0.24573466181755066,0.06549591571092606,0.09882058948278427
1789998056863123200,5.628123291015625,-0.306263267993927,0.06848745048046112,0.06245938315987587
1789998056873194200,5.6381943359375,-0.33877086639404297,0.08025089651346207,-0.014021809212863445
1789998056883265300,5.648265380859375,-0.3225998878479004,0.07883622497320175,-0.06034243479371071
1789998056893336300,5.65833642578125,-0.28832048177719116,0.09719312936067581,0.07642713189125061
1789998056903407400,5.668407470703125,-0.24917787313461304,0.10005176812410355,0.21770569682121277
1789998056913478400,5.678478515625,-0.2725188732147217,0.03674789518117905,0.2201286405324936
1789998056923548200,5.688548095703125,-0.30515405535697937,0.036985982209444046,0.12086037546396255
1789998056933619200,5.698619140625,-0.3324842154979706,0.04982428252696991,0.036730583757162094
1789998056943690200,5.708690185546875,-0.35567155480384827,0.04240098595619202,-0.006659500766545534
1789998056953761300,5.71876123046875,-0.3588641583919525,0.013946974650025368,0.022011026740074158
1789998056963832300,5.728832275390625,-0.37820670008659363,-0.02665398083627224,0.05747874081134796
1789998056973903000,5.738903076171875,-0.4122418761253357,-0.07257752865552902,0.051052797585725784
1789998056983974100,5.74897412109375,-0.47103461623191833,-0.12379917502403259,0.017495369538664818
1789998056994045200,5.759045166015625,-0.5316260457038879,-0.16321688890457153,0.09085986763238907
1789998057004116200,5.7691162109375,-0.5530450940132141,-0.18820905685424805,0.05127996578812599
1789998057014187300,5.779187255859375,-0.5818802118301392,-0.22710904479026794,0.009369000792503357
1789998057024258300,5.78925830078125,-0.5695130228996277,-0.2682519555091858,0.0798540860414505
1789998057034329000,5.7993291015625,-0.5846578478813171,-0.3021388053894043,0.0995580181479454
1789998057044400000,5.809400146484375,-0.6184214353561401,-0.36169135570526123,0.03942650184035301
1789998057054471200,5.81947119140625,-0.6172893047332764,-0.41490477323532104,-0.08637643605470657
1789998057064542200,5.829542236328125,-0.6681708693504333,-0.44205889105796814,-0.12099619209766388
1789998057074613200,5.83961328125,-0.69666987657547,-0.42859208583831787,-0.08815382421016693
1789998057084684300,5.849684326171875,-0.7138363718986511,-0.4416740834712982,-0.04753609374165535
1789998057094754300,5.85975439453125,-0.7325839400291443,-0.48012372851371765,-0.019839217886328697
1789998057104825300,5.869825439453125,-0.7440317869186401,-0.5193105340003967,0.023806795477867126
1789998057114896400,5.879896484375,-0.7353573441505432,-0.5495374202728271,-0.10603269189596176
1789998057124967400,5.889967529296875,-0.7149596810340881,-0.5765149593353271,-0.13876880705356598
1789998057135038500,5.90003857421875,-0.6745544672012329,-0.6207628846168518,0.06029529869556427
1789998057145109200,5.910109130859375,-0.627393364906311,-0.5989958047866821,0.023503728210926056
1789998057155180300,5.92018017578125,-0.573009192943573,-0.5650380849838257,0.032575786113739014
1789998057165251300,5.930251220703125,-0.5698996782302856,-0.6223783493041992,0.11940842121839523
1789998057175322400,5.940322265625,-0.5537526607513428,-0.6335923671722412,0.03063460811972618
1789998057185393400,5.950393310546875,-0.4750000834465027,-0.5914771556854248,0.06807918846607208
1789998057195464400,5.96046435546875,-0.45393288135528564,-0.6012791991233826,0.05800391361117363
1789998057205535200,5.97053515625,-0.548865795135498,-0.6102138161659241,0.03494280204176903
1789998057215606300,5.980606201171875,-0.5694333910942078,-0.5501041412353516,-0.06070302799344063
1789998057225677300,5.99067724609375,-0.5122033953666687,-0.5189600586891174,-0.0938684418797493
1789998057235748400,6.000748291015625,-0.4829261898994446,-0.5453530550003052,0.06660379469394684
1789998057245819400,6.0108193359375,-0.45000365376472473,-0.5743623375892639,0.014259896241128445
1789998057255890400,6.020890380859375,-0.36104127764701843,-0.5337989330291748,-0.042510706931352615
1789998057265960200,6.030960205078125,-0.2554357647895813,-0.5463498830795288,0.059841763228178024
1789998057276031200,6.04103125,-0.29372137784957886,-0.5648005604743958,0.02395513467490673
1789998057286102300,6.051102294921875,-0.3220062553882599,-0.5686855316162109,-0.008922388777136803
1789998057296173300,6.06117333984375,-0.31168705224990845,-0.5696570873260498,0.05485925450921059
1789998057306244400,6.071244384765625,-0.26585882902145386,-0.5568763017654419,0.08887101709842682
1789998057316314600,6.081314697265625,-0.2100059688091278,-0.49479934573173523,0.017825068905949593
1789998057326385700,6.0913857421875,-0.18638958036899567,-0.46222996711730957,-0.08683609217405319
1789998057336456700,6.101456787109375,-0.1624392420053482,-0.4770938456058502,-0.04676404222846031
1789998057346527700,6.11152783203125,-0.12004943937063217,-0.4389081299304962,-0.022338328883051872
1789998057356598800,6.121598876953125,-0.03128495067358017,-0.3766830861568451,-0.03230733796954155
1789998057366669600,6.131669677734375,-0.00210602767765522,-0.34959661960601807,-0.05659962818026543
1789998057376740600,6.14174072265625,0.026865435764193535,-0.30158939957618713,-0.10788492113351822
1789998057386811600,6.151811767578125,0.1304062157869339,-0.24666863679885864,-0.03195420280098915
1789998057396882700,6.161882568359375,0.21846149861812592,-0.18416237831115723,0.03761794790625572
1789998057406953700,6.17195361328125,0.24721857905387878,-0.11283280700445175,-0.07935341447591782
1789998057417024800,6.182024658203125,0.26782530546188354,-0.07527424395084381,-0.1418287754058838
1789998057427094800,6.1920947265625,0.3019116520881653,-0.03515612334012985,-0.14926192164421082
1789998057437165800,6.202165771484375,0.34980887174606323,-0.0043779704719781876,-0.08519558608531952
1789998057447236900,6.21223681640625,0.3950421214103699,0.05637672170996666,-0.021799305453896523
1789998057457308000,6.222307861328125,0.41725021600723267,0.107387974858284,-0.030059631913900375
1789998057467379000,6.23237890625,0.4528905153274536,0.12069312483072281,-0.04488837718963623
1789998057477449700,6.24244970703125,0.5000918507575989,0.151247039437294,0.03834818676114082
1789998057487520800,6.252520751953125,0.5199046730995178,0.1847594678401947,-0.02225923351943493
1789998057497591800,6.262591796875,0.5486668348312378,0.21310748159885406,-0.011803396046161652
1789998057507662800,6.272662841796875,0.598557710647583,0.205287367105484,-0.07425478845834732
1789998057517734000,6.28273388671875,0.6050843000411987,0.22012969851493835,-0.13703881204128265
1789998057527805000,6.292804931640625,0.6133872270584106,0.22731810808181763,-0.16644330322742462
1789998057537875700,6.302875732421875,0.6222089529037476,0.22814609110355377,-0.09231048822402954
1789998057547946800,6.31294677734375,0.6136370301246643,0.27548855543136597,-0.009668339975178242
1789998057558017800,6.323017822265625,0.6012368202209473,0.29153838753700256,0.05150100588798523
1789998057568088800,6.3330888671875,0.6137049794197083,0.3798466622829437,-0.07119987905025482
1789998057578159900,6.343159912109375,0.5779547095298767,0.46206483244895935,-0.20600590109825134
1789998057588229600,6.353229736328125,0.5209792852401733,0.39075711369514465,-0.15340793132781982
1789998057598300700,6.36330078125,0.6147403717041016,0.36990615725517273,-0.030647391453385353
1789998057608371700,6.373371826171875,0.724311113357544,0.413372665643692,0.16364219784736633
1789998057618442800,6.38344287109375,0.7414248585700989,0.43061158061027527,0.16914960741996765
1789998057628513800,6.393513671875,0.6495359539985657,0.48010241985321045,-0.08907954394817352
1789998057638584800,6.403584716796875,0.5665486454963684,0.4848679006099701,-0.19045808911323547
1789998057648655600,6.413655517578125,0.49576687812805176,0.452862024307251,-0.0565120130777359
1789998057658726700,6.4237265625,0.47407543659210205,0.44380274415016174,-0.004072505980730057
1789998057668797700,6.433797607421875,0.4363323152065277,0.4344446659088135,-0.045149367302656174
1789998057678868700,6.44386865234375,0.45380929112434387,0.4311007857322693,-0.10725028812885284
1789998057688939800,6.453939697265625,0.5208205580711365,0.4087156057357788,-0.006897587329149246
1789998057699010800,6.4640107421875,0.49519217014312744,0.413972407579422,0.07488489151000977
1789998057709081900,6.474081787109375,0.4296536445617676,0.3838038444519043,0.17065297067165375
1789998057719152600,6.484152587890625,0.4030963182449341,0.3997599184513092,0.09358401596546173
1789998057729223700,6.4942236328125,0.3787377178668976,0.40837711095809937,-0.015484151430428028
1789998057739293700,6.504293701171875,0.39235979318618774,0.3784988522529602,-0.0762375146150589
1789998057749364700,6.51436474609375,0.3496014177799225,0.3543298542499542,0.04529451206326485
1789998057759435800,6.524435791015625,0.33216729760169983,0.35531389713287354,0.006983607076108456
1789998057769506800,6.5345068359375,0.3139038681983948,0.3793981969356537,-0.04061027616262436
1789998057779577900,6.544577880859375,0.332341730594635,0.38785240054130554,-0.0007542071980424225
1789998057789649000,6.55464892578125,0.3362107574939728,0.37095916271209717,0.04181455820798874
1789998057799720000,6.564719970703125,0.3297797739505768,0.36955806612968445,0.023199329152703285
1789998057809791000,6.574791015625,0.37299036979675293,0.3646799623966217,0.07162971049547195
1789998057819861800,6.58486181640625,0.37903785705566406,0.40988364815711975,0.07126832008361816
1789998057829932800,6.594932861328125,0.3517492413520813,0.4565294682979584,-0.003866909770295024
1789998057840003800,6.60500390625,0.3119666874408722,0.4867376983165741,0.005797967780381441
1789998057850075000,6.615074951171875,0.3024173974990845,0.48493605852127075,0.05571146681904793
1789998057860146000,6.62514599609375,0.2889127731323242,0.44352099299430847,0.03181891515851021
1789998057870217000,6.635217041015625,0.28891488909721375,0.4471561908721924,0.05384538695216179
1789998057880288000,6.6452880859375,0.2919524908065796,0.4614959955215454,0.09650203585624695
1789998057890358800,6.65535888671875,0.2603343725204468,0.4563102722167969,0.013192234560847282
1789998057900428800,6.6654287109375,0.20861420035362244,0.43360230326652527,-0.07393228262662888
1789998057910499800,6.675499755859375,0.19374097883701324,0.40297460556030273,-0.04241909459233284
1789998057920571000,6.68557080078125,0.17040902376174927,0.3568931519985199,0.0406680665910244
1789998057930641700,6.6956416015625,0.12939368188381195,0.3082800805568695,0.05794639140367508
1789998057940712700,6.705712646484375,0.10313144326210022,0.29346704483032227,0.08432340621948242
1789998057950783700,6.71578369140625,0.07510620355606079,0.2800881266593933,0.08066289126873016
1789998057960854800,6.725854736328125,0.022911706939339638,0.2753210663795471,0.00977593194693327
1789998057970925800,6.73592578125,-0.07453202456235886,0.2465093731880188,0.06512574106454849
1789998057980996900,6.745996826171875,-0.16462357342243195,0.16632719337940216,0.15941601991653442
1789998057991068000,6.75606787109375,-0.2028239518404007,0.11216302216053009,0.14210520684719086
1789998058001138700,6.766138671875,-0.22624458372592926,0.09151047468185425,0.10582896322011948
1789998058011209700,6.776209716796875,-0.27358973026275635,0.052630987018346786,0.12086037546396255
1789998058021280800,6.78628076171875,-0.29791131615638733,0.019590478390455246,0.061344850808382034
1789998058031351800,6.796351806640625,-0.2531830072402954,0.002198705682530999,0.14284104108810425
1789998058041421600,6.806421630859375,-0.2065822035074234,-0.01714649610221386,0.13209038972854614
1789998058051492600,6.81649267578125,-0.20015625655651093,-0.041010551154613495,0.10276046395301819
1789998058061563600,6.826563720703125,-0.27875280380249023,-0.061225008219480515,0.06898519396781921
1789998058071634700,6.836634765625,-0.3012098968029022,-0.06511855125427246,0.02046905644237995
1789998058081705700,6.846705810546875,-0.2767695486545563,-0.06801073998212814,-0.0007360977469943464
1789998058091776800,6.85677685546875,-0.25904354453086853,-0.08381287753582001,-0.004805674310773611
1789998058101847800,6.866847900390625,-0.23403167724609375,-0.08484857529401779,0.004518585279583931
1789998058111918600,6.876918701171875,-0.2129250466823578,-0.08075929433107376,0.053406499326229095
1789998058121989600,6.88698974609375,-0.1787542998790741,-0.08322085440158844,0.14206260442733765
1789998058132060700,6.897060791015625,-0.20812736451625824,-0.0864613875746727,0.10570885241031647
1789998058142131700,6.907131591796875,-0.17318668961524963,-0.07638371735811234,0.1607835590839386
1789998058152202800,6.91720263671875,-0.14476278424263,-0.09006544202566147,0.21491336822509766
1789998058162273800,6.927273681640625,-0.11327888816595078,-0.0611773356795311,0.23355203866958618
1789998058172344600,6.937344482421875,-0.12473314255475998,-0.06041380763053894,0.09570042788982391
1789998058182415600,6.94741552734375,-0.13643240928649902,-0.06352624297142029,0.07094021886587143
1789998058192486000,6.95748583984375,-0.09088649600744247,-0.06850582361221313,0.06425754725933075
1789998058202557000,6.967556884765625,-0.054076019674539566,-0.05825185403227806,0.0123618608340621
1789998058212628000,6.9776279296875,-0.057425208389759064,-0.05044932663440704,-0.005221393425017595
1789998058222698800,6.98769873046875,-0.049070607870817184,-0.021025655791163445,-0.06534012407064438
1789998058232769800,6.997769775390625,-0.06421307474374771,-0.0038778288289904594,-0.10398045927286148
1789998058242840800,7.0078408203125,-0.03284343332052231,0.042690206319093704,-0.04920696094632149
1789998058252911900,7.017911865234375,-0.025854500010609627,0.08314602077007294,0.002394448034465313
1789998058262983000,7.02798291015625,-0.00141041015740484,0.12476696819067001,0.04547587037086487
1789998058273054000,7.038053955078125,0.01443806104362011,0.17338962852954865,-0.031307853758335114
1789998058283124700,7.048124755859375,0.07921865582466125,0.22092919051647186,-0.12627963721752167
1789998058293195800,7.05819580078125,0.1600000560283661,0.2715721130371094,-0.10916483402252197
1789998058303266800,7.068266845703125,0.18939761817455292,0.30407920479774475,-0.011366371065378189
1789998058313337900,7.078337890625,0.1737731248140335,0.322519451379776,-0.02226828783750534
1789998058323409700,7.08840966796875,0.1402713507413864,0.34732121229171753,-0.13044536113739014
1789998058333479700,7.098479736328125,0.1651865541934967,0.3689846992492676,-0.091546431183815
1789998058343550500,7.108550537109375,0.17222848534584045,0.37035250663757324,0.005562278442084789
1789998058353621500,7.11862158203125,0.15861867368221283,0.3514285981655121,0.08800256252288818
1789998058363692500,7.128692626953125,0.19756367802619934,0.3413280248641968,0.10396474599838257
1789998058373763600,7.138763671875,0.17237363755702972,0.35152819752693176,0.02123205177485943
1789998058383834600,7.148834716796875,0.16158276796340942,0.3408265709877014,0.04451127350330353
1789998058393905700,7.15890576171875,0.14194196462631226,0.3337460160255432,0.033067937940359116
1789998058403976700,7.168976806640625,0.06569992005825043,0.3414992690086365,0.08736473321914673
1789998058414047500,7.179047607421875,0.0705263614654541,0.3181910216808319,0.037701573222875595
1789998058424118500,7.189118408203125,0.027544543147087097,0.33516308665275574,-0.03405197709798813
1789998058434189600,7.199189453125,0.08265839517116547,0.3126513957977295,-0.01997637189924717
1789998058444260600,7.209260498046875,0.1041884571313858,0.2884208858013153,0.03285541757941246
1789998058454331600,7.21933154296875,0.046187736093997955,0.2648811936378479,0.020145481452345848
1789998058464402700,7.229402587890625,0.00008708536915946752,0.24325153231620789,-0.12393233180046082
1789998058474472400,7.239472412109375,-0.04518665373325348,0.23327933251857758,-0.133651003241539
1789998058484543500,7.24954345703125,-0.06991063803434372,0.18206194043159485,0.03556385263800621
1789998058494614500,7.259614501953125,-0.14987577497959137,0.14003673195838928,0.07016843557357788
1789998058504685600,7.269685546875,-0.2460947185754776,0.05621666833758354,0.0041151163168251514
1789998058514756600,7.279756591796875,-0.2937168478965759,0.02664945460855961,0.014419951476156712
1789998058524827400,7.289827392578125,-0.32553336024284363,0.0033830134198069572,0.06328070163726807
1789998058534898400,7.2998984375,-0.35948386788368225,-0.06350946426391602,-0.02129410393536091
1789998058544969500,7.309969482421875,-0.3518342077732086,-0.11246529221534729,-0.01864452473819256
1789998058555040500,7.32004052734375,-0.3678280711174011,-0.16569656133651733,0.08447946608066559
1789998058565111600,7.330111572265625,-0.43064379692077637,-0.2053571492433548,0.08529651910066605
1789998058575182600,7.3401826171875,-0.44064557552337646,-0.23461543023586273,0.0536951869726181
1789998058585253400,7.35025341796875,-0.432092547416687,-0.24973420798778534,0.10769956558942795
1789998058595324400,7.360324462890625,-0.4572160243988037,-0.2875007688999176,0.1824835240840912
1789998058605395500,7.3703955078125,-0.4842090308666229,-0.33075928688049316,0.1763952672481537
1789998058615465700,7.3804658203125,-0.49567338824272156,-0.35631176829338074,0.15874063968658447
1789998058625536500,7.39053662109375,-0.48464152216911316,-0.3808259069919586,0.04701651260256767
1789998058635607600,7.400607666015625,-0.4785412847995758,-0.371086984872818,-0.021677864715456963
1789998058645678600,7.4106787109375,-0.45911991596221924,-0.3824842572212219,0.020132431760430336
1789998058655749600,7.42074951171875,-0.38676050305366516,-0.3967726528644562,0.060080911964178085
1789998058665820700,7.430820556640625,-0.3731898367404938,-0.3513321876525879,0.05461637303233147
1789998058675891700,7.4408916015625,-0.4062782824039459,-0.3514975905418396,-0.0507020577788353
1789998058685962800,7.450962646484375,-0.4041847586631775,-0.3028687834739685,0.017117202281951904
1789998058696033500,7.461033447265625,-0.42079728841781616,-0.29299113154411316,-0.08296705782413483
1789998058706104600,7.4711044921875,-0.40712887048721313,-0.3037170171737671,-0.08310074359178543
1789998058716175600,7.481175537109375,-0.35076841711997986,-0.28655773401260376,-0.018864767625927925
1789998058726246700,7.49124658203125,-0.2781067192554474,-0.26926368474960327,0.04597601294517517
1789998058736317700,7.501317626953125,-0.1908397227525711,-0.23199647665023804,0.049800045788288116
1789998058746388700,7.511388671875,-0.14598090946674347,-0.22886939346790314,0.002674879040569067
1789998058756458500,7.52145849609375,-0.17858944833278656,-0.24271224439144135,-0.04164624586701393
1789998058766529500,7.531529541015625,-0.161353200674057,-0.22438064217567444,-0.10117056220769882
1789998058776600600,7.5416005859375,-0.14793939888477325,-0.23366788029670715,-0.09487351775169373
1789998058786671600,7.551671630859375,-0.1187833771109581,-0.22984011471271515,-0.0428025908768177
1789998058796742700,7.56174267578125,-0.06232995167374611,-0.22389674186706543,0.048880722373723984
1789998058806813400,7.5718134765625,-0.05530613288283348,-0.20544210076332092,0.15828470885753632
1789998058816884500,7.581884521484375,-0.03280721604824066,-0.20061112940311432,0.1286485195159912
1789998058826955500,7.59195556640625,0.0018141453620046377,-0.17763976752758026,0.033252496272325516
1789998058837026600,7.602026611328125,0.013333648443222046,-0.17714042961597443,-0.07751796394586563
1789998058847097600,7.61209765625,0.04315758869051933,-0.1912413239479065,-0.014615161344408989
1789998058857168600,7.622168701171875,0.051239486783742905,-0.18946020305156708,0.013332583010196686
1789998058867239400,7.632239501953125,0.02521187998354435,-0.1748458445072174,0.043663591146469116
1789998058877310500,7.642310546875,0.022289326414465904,-0.16870513558387756,0.05530586466193199
1789998058887380500,7.65238037109375,0.03737666830420494,-0.15082412958145142,-0.0026695525739341974
1789998058897451500,7.662451416015625,0.07145900279283524,-0.09229584038257599,0.03256113827228546
1789998058907522600,7.6725224609375,0.11610236763954163,-0.07339831441640854,0.03777774050831795
1789998058917593600,7.682593505859375,0.16449759900569916,-0.045457229018211365,0.03994155675172806
1789998058927664600,7.69266455078125,0.1745089590549469,-0.00018748654110822827,0.03976179286837578
1789998058937735700,7.702735595703125,0.1967972218990326,0.016765663400292397,0.04380793496966362
1789998058947806700,7.712806640625,0.2124353051185608,0.03851490095257759,0.06425035744905472
1789998058957877800,7.722877685546875,0.24748249351978302,0.06697504222393036,0.040762875229120255
1789998058967948800,7.73294873046875,0.2505840063095093,0.10993102937936783,-0.015627961605787277
1789998058978019600,7.74301953125,0.25831863284111023,0.1281806081533432,0.0046845003962516785
1789998058988090600,7.753090576171875,0.27530401945114136,0.16247838735580444,-0.019161710515618324
1789998058998161700,7.76316162109375,0.28429803252220154,0.19394975900650024,-0.040463268756866455
1789998059008232700,7.773232666015625,0.313852459192276,0.22010493278503418,-0.08300194144248962
1789998059018302700,7.783302734375,0.3412318825721741,0.2218860536813736,-0.09867624193429947
1789998059028373500,7.79337353515625,0.360549658536911,0.23388466238975525,-0.043472643941640854
1789998059038444500,7.803444580078125,0.3412899374961853,0.2571351230144501,0.08315160870552063
1789998059048515600,7.813515625,0.29087579250335693,0.28831595182418823,0.024879250675439835
1789998059058586600,7.823586669921875,0.32157695293426514,0.27921727299690247,0.12319862842559814
1789998059068657700,7.83365771484375,0.33154305815696716,0.2859092354774475,-0.006850715726613998
1789998059078728700,7.843728759765625,0.3364158272743225,0.30118247866630554,-0.0062128882855176926
1789998059088799500,7.853799560546875,0.30602675676345825,0.2579364776611328,-0.024440361186861992
1789998059098870500,7.86387060546875,0.26034849882125854,0.20996229350566864,-0.018629077821969986
1789998059108941600,7.873941650390625,0.24825268983840942,0.2086176574230194,-0.004230164922773838
1789998059119012600,7.8840126953125,0.18218179047107697,0.18760478496551514,-0.0367705300450325
1789998059129083600,7.894083740234375,0.13586488366127014,0.10967989265918732,0.014420750550925732
1789998059139154700,7.90415478515625,0.1407424658536911,0.08289408683776855,-0.08044557273387909
1789998059149224400,7.914224365234375,0.14233183860778809,0.11599025130271912,-0.06521175801753998
1789998059159295500,7.92429541015625,0.17927680909633636,0.0965459793806076,-0.06063591688871384
1789998059169366500,7.934366455078125,0.19392766058444977,0.0989082008600235,-0.09578351676464081
1789998059179437600,7.9444375,0.20149902999401093,0.1300581395626068,-0.1123608946800232
1789998059189508600,7.954508544921875,0.1712372601032257,0.14254090189933777,-0.088251031935215
1789998059199579400,7.964579345703125,0.1747686117887497,0.160978764295578,-0.10790702700614929
1789998059209650400,7.974650390625,0.1942400485277176,0.1840182989835739,-0.021326327696442604
1789998059219721500,7.984721435546875,0.24352051317691803,0.21933874487876892,0.07149602472782135
1789998059229792500,7.99479248046875,0.24880129098892212,0.24097347259521484,0.04396506026387215
1789998059239863600,8.004863525390626,0.25295981764793396,0.2610933780670166,0.03326874226331711
1789998059249934600,8.0149345703125,0.25117602944374084,0.29113197326660156,-0.023503728210926056
1789998059260005400,8.02500537109375,0.24896322190761566,0.2852839529514313,-0.021439511328935623
1789998059270076400,8.035076416015626,0.289225697517395,0.30902254581451416,0.05856024846434593
1789998059280146700,8.045146728515626,0.2413329929113388,0.3211681842803955,0.028051873669028282
1789998059290217700,8.0552177734375,0.25745630264282227,0.3182448148727417,0.04162600636482239
1789998059300288800,8.065288818359376,0.22709333896636963,0.34872204065322876,-0.04875049367547035
1789998059310359600,8.075359619140626,0.20700937509536743,0.3444175720214844,-0.08259501308202744
1789998059320429800,8.085429931640626,0.24666863679885864,0.33901429176330566,-0.0051838429644703865
1789998059330500900,8.0955009765625,0.25289538502693176,0.3434969186782837,0.0870392918586731
1789998059340572000,8.105572021484376,0.24578632414340973,0.35492852330207825,0.08902068436145782
1789998059350642700,8.115642578125,0.18941333889961243,0.3471622169017792,0.05572211742401123
1789998059360713700,8.125713623046876,0.15809190273284912,0.33154597878456116,0.06324049085378647
1789998059370784800,8.13578466796875,0.10496476292610168,0.34444206953048706,0.09996601194143295
1789998059380855800,8.145855712890626,0.061220746487379074,0.347698837518692,-0.03712819516658783
1789998059390926800,8.1559267578125,0.07654377818107605,0.34649455547332764,-0.0012301141396164894
1789998059400996600,8.16599658203125,0.07434693723917007,0.32615360617637634,0.08533034473657608
1789998059411067600,8.176067626953126,0.031192274764180183,0.2900978624820709,0.08943667262792587
1789998059421138700,8.186138671875,0.011302988044917583,0.27077504992485046,0.11048789322376251
1789998059431209700,8.196209716796876,-0.02840128168463707,0.25366130471229553,0.0918031558394432
1789998059441280800,8.20628076171875,-0.0566779263317585,0.20669378340244293,0.13028210401535034
1789998059451351800,8.216351806640626,-0.049254629760980606,0.19063067436218262,0.13928678631782532
1789998059461422600,8.226422607421876,-0.06919025629758835,0.1561102420091629,0.12022440880537033
1789998059471493600,8.23649365234375,-0.12597870826721191,0.11134330183267593,0.11296836286783218
1789998059481564700,8.246564697265624,-0.1815788447856903,0.08772079646587372,0.05777940899133682
1789998059491635700,8.2566357421875,-0.21327073872089386,0.07288459688425064,-0.0415133535861969
1789998059501706800,8.266706787109374,-0.2238999456167221,0.04104836657643318,-0.11631888896226883
1789998059511777800,8.27677783203125,-0.20317921042442322,0.038554318249225616,-0.006665625609457493
1789998059521848600,8.2868486328125,-0.1370910108089447,0.01883813552558422,0.18389686942100525
1789998059531918800,8.2969189453125,-0.16718925535678864,-0.029500899836421013,0.0785621851682663
1789998059541990000,8.306989990234374,-0.2183043658733368,-0.09563757479190826,0.007797203026711941
1789998059552061000,8.31706103515625,-0.2648734748363495,-0.106285959482193,0.10471336543560028
1789998059562132000,8.327132080078124,-0.30681905150413513,-0.13055481016635895,0.03570260480046272
1789998059572202800,8.33720263671875,-0.3005822002887726,-0.15410274267196655,0.06892580538988113
1789998059582273800,8.347273681640624,-0.3335105776786804,-0.16925054788589478,0.10962103307247162
1789998059592344800,8.3573447265625,-0.3910641670227051,-0.21086004376411438,0.03675401955842972
1789998059602415900,8.367415771484374,-0.4136781394481659,-0.25934848189353943,0.06627995520830154
1789998059612487000,8.37748681640625,-0.4059504270553589,-0.2555593252182007,0.008325307630002499
1789998059622558000,8.387557861328125,-0.3546600937843323,-0.22408582270145416,-0.018426677212119102
1789998059632628700,8.397628662109375,-0.2879934310913086,-0.2426730990409851,0.05603929981589317
1789998059642699800,8.40769970703125,-0.280937135219574,-0.26362019777297974,0.05188290402293205
1789998059652769800,8.417769775390624,-0.34323540329933167,-0.2834985554218292,-0.03250174969434738
1789998059662840800,8.4278408203125,-0.33876925706863403,-0.2478068768978119,-0.004778776317834854
1789998059672912000,8.437911865234375,-0.2892022430896759,-0.20667514204978943,0.1362808793783188
1789998059682982700,8.447982666015625,-0.27763134241104126,-0.22934210300445557,0.18562738597393036
1789998059693053700,8.4580537109375,-0.28811487555503845,-0.21672937273979187,0.09318800270557404
1789998059703124700,8.468124755859375,-0.29339566826820374,-0.15266543626785278,-0.03255314752459526
1789998059713195800,8.47819580078125,-0.27568191289901733,-0.12451023608446121,-0.059537630528211594
1789998059723266800,8.488266845703125,-0.20700058341026306,-0.0990821123123169,-0.032582178711891174
1789998059733337900,8.498337890625,-0.16091644763946533,-0.05425764620304108,0.0557684563100338
1789998059743408600,8.50840869140625,-0.12438533455133438,-0.06281331926584244,0.1262548714876175
1789998059753479700,8.518479736328125,-0.11335159093141556,-0.05333113297820091,0.04385587200522423
1789998059763550700,8.52855078125,-0.07388727366924286,-0.03021356277167797,0.15007445216178894
1789998059773620700,8.538620849609375,-0.04553073272109032,0.007674963679164648,0.17860542237758636
1789998059783691800,8.54869189453125,-0.1084790751338005,-0.0020815266761928797,0.0223202183842659
1789998059793762600,8.558762451171875,-0.10047893971204758,0.0006815029191784561,0.0036245621740818024
1789998059803833600,8.56883349609375,-0.05392847955226898,0.04020920395851135,-0.020622720941901207
1789998059813904600,8.578904541015625,-0.031746476888656616,0.04464230313897133,-0.17086069285869598
1789998059823975700,8.5889755859375,0.013224192894995213,0.05608643963932991,-0.05620308592915535
1789998059834046700,8.599046630859375,0.025316808372735977,0.09687647968530655,-0.06866481155157089
1789998059844117800,8.60911767578125,0.02442571520805359,0.10328218340873718,-0.12328491359949112
1789998059854188800,8.619188720703125,0.07363773882389069,0.16087916493415833,-0.07910334318876266
1789998059864259800,8.629259765625,0.08192629367113113,0.17928160727024078,0.018748920410871506
1789998059874331000,8.639330810546875,0.06179625540971756,0.15734781324863434,0.13888704776763916
1789998059884402000,8.64940185546875,0.026164758950471878,0.16010472178459167,0.06631404161453247
1789998059894472000,8.659471923828125,0.007389472797513008,0.16491518914699554,0.036623790860176086
1789998059904542700,8.669542724609375,0.017899638041853905,0.16049087047576904,-0.045517683029174805
1789998059914613800,8.67961376953125,0.04511368274688721,0.17434170842170715,0.007926899008452892
1789998059924684800,8.689684814453125,0.04152613878250122,0.15624846518039703,0.005934588145464659
1789998059934755800,8.699755859375,0.012679309584200382,0.14323092997074127,-0.03634602203965187
1789998059944827000,8.709826904296875,-0.016802681609988213,0.13937786221504211,-0.02076227031648159
1789998059954898000,8.71989794921875,-0.03764884173870087,0.1435808688402176,-0.007470433134585619
1789998059964968700,8.72996875,-0.10489951819181442,0.10462600737810135,-0.05133669078350067
1789998059975039700,8.740039794921875,-0.12200899422168732,0.08984227478504181,-0.10683909803628922
1789998059985110800,8.75011083984375,-0.10585080087184906,0.09871964901685715,-0.008077367208898067
1789998059995181800,8.760181884765625,-0.10814910382032394,0.06449244171380997,0.03142423555254936
1789998060005252900,8.7702529296875,-0.13358549773693085,-0.001740375766530633,0.0096259955316782
1789998060015322600,8.780322509765625,-0.1651460826396942,-0.007224889472126961,-0.1073424369096756
1789998060025393700,8.7903935546875,-0.19369623064994812,-0.007950334809720516,-0.05520200356841087
1789998060035464700,8.800464599609375,-0.1890045404434204,-0.05074493587017059,0.12391741573810577
1789998060045535700,8.81053564453125,-0.1966100037097931,-0.08147089183330536,0.023087475448846817
1789998060055606800,8.820606689453125,-0.29774725437164307,-0.12849672138690948,-0.07183424383401871
1789998060065677800,8.830677734375,-0.34004706144332886,-0.12185240536928177,-0.0035382758360356092
1789998060075748600,8.84074853515625,-0.31388548016548157,-0.11169856786727905,-0.015179218724370003
1789998060085819600,8.850819580078126,-0.29623380303382874,-0.13692723214626312,0.058757856488227844
1789998060095890700,8.860890625,-0.27551546692848206,-0.17122182250022888,0.12693557143211365
1789998060105961700,8.870961669921876,-0.3206062316894531,-0.18874648213386536,-0.0486154742538929
1789998060116032800,8.88103271484375,-0.410537451505661,-0.2074514627456665,-0.14777134358882904
1789998060126103800,8.891103759765626,-0.4064713418483734,-0.20405486226081848,-0.14965394139289856
1789998060136173800,8.901173828125,-0.3898516297340393,-0.2079039365053177,-0.07415252178907394
1789998060146244900,8.911244873046876,-0.4215347170829773,-0.2630111277103424,-0.06327244639396667
1789998060156316000,8.92131591796875,-0.44369861483573914,-0.2835478186607361,-0.11330951750278473
1789998060166387000,8.931386962890626,-0.41909047961235046,-0.27030712366104126,-0.0744052603840828
1789998060176458000,8.9414580078125,-0.38553544878959656,-0.28459790349006653,0.037091176956892014
1789998060186528800,8.95152880859375,-0.38551199436187744,-0.3253061771392822,0.010309629142284393
1789998060196599800,8.961599853515626,-0.444191038608551,-0.3227524757385254,-0.043477967381477356
1789998060206670800,8.9716708984375,-0.47194355726242065,-0.32650116086006165,-0.05355004221200943
1789998060216742000,8.981741943359374,-0.4476635158061981,-0.3486272394657135,-0.015006912872195244
1789998060226813000,8.99181298828125,-0.44040802121162415,-0.37907060980796814,0.04629053175449371
1789998060236884000,9.001884033203124,-0.44533005356788635,-0.4097971022129059,-0.03562643751502037
1789998060246953700,9.01195361328125,-0.4675738513469696,-0.43015217781066895,0.03128867968916893
1789998060257024800,9.022024658203126,-0.4779340922832489,-0.4639117419719696,0.14181865751743317
1789998060267095800,9.032095703125,-0.4267771542072296,-0.5231257677078247,0.0869668573141098
1789998060277166800,9.042166748046874,-0.4343029856681824,-0.5358530282974243,0.018425079062581062
1789998060287238000,9.05223779296875,-0.4399014711380005,-0.5548413991928101,-0.009811618365347385
1789998060297308700,9.06230859375,-0.4115944802761078,-0.5734952092170715,-0.04460368677973747
1789998060307379700,9.072379638671874,-0.3403352200984955,-0.5687153935432434,0.06502560526132584
1789998060317450800,9.08245068359375,-0.29974862933158875,-0.5797576308250427,0.1418604701757431
1789998060327521300,9.092521240234374,-0.3237072229385376,-0.5688056349754333,0.02178838662803173
1789998060337592300,9.10259228515625,-0.34825757145881653,-0.556049644947052,0.004348409362137318
1789998060347663000,9.1126630859375,-0.31821098923683167,-0.5609075427055359,0.013790912926197052
1789998060357733400,9.1227333984375,-0.2568379044532776,-0.5569798946380615,0.012226305902004242
1789998060367804400,9.132804443359374,-0.19919273257255554,-0.5432619452476501,-0.010538660921156406
1789998060377875500,9.14287548828125,-0.18784525990486145,-0.5165736079216003,-0.05301208421587944
1789998060387946200,9.1529462890625,-0.17301438748836517,-0.495976984500885,-0.02118358202278614
1789998060398017300,9.163017333984374,-0.09905681014060974,-0.4519328474998474,-0.004201669245958328
1789998060408088300,9.17308837890625,0.010876350104808807,-0.39431828260421753,0.0910220518708229
1789998060418159400,9.183159423828124,0.04121934249997139,-0.33498865365982056,-0.002017344580963254
1789998060428230400,9.19323046875,0.05185600742697716,-0.3147890865802765,0.046854857355356216
1789998060438301400,9.203301513671875,0.09757769107818604,-0.2659107744693756,0.20598672330379486
1789998060448372500,9.21337255859375,0.12963388860225677,-0.24169917404651642,0.3179667890071869
1789998060458443300,9.223443359375,0.1581997573375702,-0.13723242282867432,0.19575858116149902
1789998060468513300,9.23351318359375,0.13250984251499176,-0.0637132003903389,0.04878484830260277
1789998060478584300,9.243584228515624,0.06027985364198685,-0.11089242994785309,-0.05810990929603577
1789998060488655400,9.2536552734375,0.11399926990270615,-0.071505606174469,-0.015963520854711533
1789998060498726400,9.263726318359375,0.26900535821914673,0.023558588698506355,0.25952425599098206
1789998060508797200,9.273797119140625,0.2773570418357849,0.04742983356118202,0.1948200911283493
1789998060518868200,9.2838681640625,0.23707246780395508,0.016456738114356995,0.12546338140964508
1789998060528939300,9.293939208984375,0.25025537610054016,0.040462203323841095,0.12593209743499756
1789998060539010300,9.30401025390625,0.30371567606925964,0.08646111935377121,0.15006965398788452
1789998060549081300,9.314081298828125,0.32948121428489685,0.10577090084552765,0.2084277719259262
1789998060559152400,9.32415234375,0.31126734614372253,0.10511230677366257,0.2938518524169922
1789998060569223200,9.33422314453125,0.2895694971084595,0.07649850100278854,0.2776859402656555
1789998060579293200,9.344293212890625,0.30096516013145447,0.09553104639053345,0.14646613597869873
1789998060589364200,9.3543642578125,0.362606942653656,0.15510037541389465,0.21656346321105957
1789998060599435300,9.364435302734375,0.30582836270332336,0.16396576166152954,0.1779462993144989
1789998060609506300,9.37450634765625,0.25239551067352295,0.12519067525863647,0.09120554476976395
1789998060619577000,9.3845771484375,0.30391860008239746,0.12839072942733765,0.1823495626449585
1789998060629648100,9.394648193359375,0.33277690410614014,0.1273832619190216,0.24741990864276886
1789998060639719200,9.40471923828125,0.3159971237182617,0.13405899703502655,0.20899716019630432
1789998060649790200,9.414790283203125,0.24750353395938873,0.15275971591472626,0.2214951068162918
1789998060659861200,9.424861328125,0.2380772829055786,0.15731479227542877,0.22892612218856812
1789998060669932300,9.434932373046875,0.255013108253479,0.17583946883678436,0.3105376362800598
1789998060680003000,9.445003173828125,0.2480316460132599,0.17554998397827148,0.3283621668815613
1789998060690073300,9.4550732421875,0.20737050473690033,0.15228407084941864,0.13732457160949707
1789998060700144400,9.465144287109375,0.13362383842468262,0.1269233226776123,0.0392182432115078
1789998060710215400,9.47521533203125,0.13999198377132416,0.1279108226299286,0.10045869648456573
1789998060720286500,9.485286376953125,0.1420878916978836,0.12862615287303925,0.20922112464904785
1789998060730357200,9.495357177734375,0.09883443266153336,0.08297184854745865,0.22411298751831055
1789998060740428300,9.50542822265625,0.027098728343844414,0.05000218003988266,0.15808656811714172
1789998060750499300,9.515499267578125,-0.0022330605424940586,0.03641766309738159,0.030830349773168564
1789998060760570400,9.5255703125,-0.037037111818790436,0.010190851986408234,-0.030284402891993523
1789998060770641400,9.535641357421875,-0.10011248290538788,-0.07391656935214996,-0.05770697072148323
1789998060780712400,9.54571240234375,-0.09448283165693283,-0.11909496784210205,-0.07766416668891907
1789998060790783200,9.555783203125,-0.10042168200016022,-0.08925265073776245,-0.042093124240636826
1789998060800853200,9.565853271484375,-0.1656491458415985,-0.13462118804454803,-0.07844047993421555
1789998060810924300,9.57592431640625,-0.22881241142749786,-0.24218174815177917,-0.055504802614450455
1789998060820995300,9.585995361328125,-0.2411969006061554,-0.25607067346572876,-0.1974366456270218
1789998060831066400,9.59606640625,-0.24575038254261017,-0.23400317132472992,-0.3327332139015198
1789998060841137200,9.60613720703125,-0.2410576194524765,-0.24108532071113586,-0.3834182322025299
1789998060851208200,9.616208251953125,-0.2126006782054901,-0.238385409116745,-0.4359586536884308
1789998060861279200,9.626279296875,-0.13334926962852478,-0.21061262488365173,-0.3099557161331177
1789998060871350300,9.636350341796875,-0.09396697580814362,-0.2568424344062805,-0.252618670463562
1789998060881421300,9.64642138671875,-0.12216798961162567,-0.27606433629989624,-0.4544338285923004
1789998060891492400,9.656492431640626,-0.13465873897075653,-0.24483105540275574,-0.34856438636779785
1789998060901563100,9.666563232421876,-0.13839516043663025,-0.245278462767601,-0.23125319182872772
1789998060911633200,9.676633056640625,-0.14469300210475922,-0.2575681507587433,-0.15187793970108032
1789998060921704200,9.6867041015625,-0.13515248894691467,-0.27963244915008545,-0.19815702736377716
1789998060931775200,9.696775146484375,-0.15759894251823425,-0.20538511872291565,-0.4892972707748413
1789998060941846300,9.70684619140625,-0.2128629982471466,-0.1667623519897461,-0.5863449573516846
1789998060951917000,9.7169169921875,-0.24030394852161407,-0.20589031279087067,-0.43227124214172363
1789998060961988000,9.726988037109376,-0.10543641448020935,-0.205921471118927,-0.3125288784503937
1789998060972059100,9.73705908203125,0.021796641871333122,-0.20261915028095245,-0.15997475385665894
1789998060982130200,9.747130126953126,-0.013197827152907848,-0.22029295563697815,-0.2109535187482834
1789998060992201200,9.757201171875,-0.08707205206155777,-0.20188412070274353,-0.3766213059425354
1789998061002272300,9.767272216796876,-0.06799742579460144,-0.18192559480667114,-0.4168968200683594
1789998061012343300,9.77734326171875,-0.03448687121272087,-0.1582607477903366,-0.366753488779068
1789998061022413300,9.787413330078126,-0.06546103209257126,-0.1542995572090149,-0.3736678659915924
1789998061032484400,9.797484375,-0.12355149537324905,-0.17858251929283142,-0.4871571362018585
1789998061042555400,9.807555419921876,-0.16990461945533752,-0.18006883561611176,-0.5640881657600403
1789998061052626400,9.81762646484375,-0.14273451268672943,-0.17533773183822632,-0.3886875510215759
1789998061062697200,9.827697265625,-0.10538660734891891,-0.18268752098083496,-0.1543712019920349
1789998061072768300,9.837768310546876,-0.07685483247041702,-0.19659560918807983,-0.1662939041852951
1789998061082839300,9.84783935546875,-0.05927717313170433,-0.15027791261672974,-0.2692312002182007
1789998061092910300,9.857910400390624,0.020967865362763405,-0.11532606184482574,-0.2630454897880554
1789998061102981400,9.8679814453125,0.07618531584739685,-0.12538935244083405,-0.1642715036869049
1789998061113052400,9.878052490234374,0.09682480990886688,-0.15874703228473663,-0.035584092140197754
1789998061123122200,9.8881220703125,0.08118406683206558,-0.14280907809734344,-0.13841086626052856
1789998061133193200,9.898193115234376,0.08138114213943481,-0.09723387658596039,-0.1289513260126114
1789998061143264300,9.90826416015625,0.10430456697940826,-0.08644673973321915,-0.06784376502037048
1789998061153335300,9.918335205078124,0.10275167971849442,-0.06629939377307892,0.005693039391189814
1789998061163406300,9.92840625,0.11505495011806488,-0.06051980331540108,0.06102713569998741
1789998061173477000,9.93847705078125,0.15109044313430786,-0.03638783469796181,-0.07544362545013428
1789998061183548200,9.948548095703124,0.18209949135780334,0.0037358824629336596,-0.08503899723291397
1789998061193619200,9.958619140625,0.18221481144428253,0.022547919303178787,-0.005654689855873585
1789998061203690200,9.968690185546874,0.10621564835309982,0.02558099292218685,-0.03580407053232193
1789998061213761300,9.97876123046875,0.08495616912841797,0.033194705843925476,0.032877255231142044
1789998061223831300,9.988831298828124,0.13887345790863037,0.04950816556811333,0.0893905982375145
1789998061233902300,9.99890234375,0.18172931671142578,0.08340274542570114,0.030119020491838455
1789998061243973400,10.008973388671874,0.19841055572032928,0.06366925686597824,0.1043863296508789
1789998061254044400,10.01904443359375,0.20071792602539062,0.06880729645490646,0.049371011555194855
1789998061264115500,10.029115478515624,0.20147904753684998,0.09490946680307388,0.06380747258663177
1789998061274186500,10.0391865234375,0.12668123841285706,0.09888290613889694,-0.06514384597539902
1789998061284257300,10.04925732421875,0.13188320398330688,0.06541362404823303,0.07018015533685684
1789998061294328300,10.059328369140625,0.18241241574287415,0.063397616147995,0.2595252990722656
1789998061304399400,10.0693994140625,0.17805255949497223,0.052871737629175186,0.24747051298618317
1789998061314470400,10.079470458984375,0.18919815123081207,0.01702159456908703,0.2030298113822937
1789998061324541700,10.089541748046875,0.1938227266073227,0.02358735166490078,0.30376654863357544
1789998061334611700,10.09961181640625,0.16546086966991425,0.017957162111997604,0.264947772026062
1789998061344682800,10.109682861328125,0.10759010910987854,0.03353319317102432,0.1855940967798233
1789998061354753800,10.11975390625,0.041000429540872574,-0.008984173648059368,0.14530393481254578
1789998061364824800,10.129824951171875,-0.00651595601812005,-0.05385737121105194,0.19117288291454315
1789998061374895600,10.1398955078125,0.04695392772555351,-0.05720336735248566,0.19402407109737396
1789998061384966700,10.149966552734375,0.054124753922224045,-0.05832642316818237,0.2380860596895218
1789998061395037700,10.16003759765625,0.00845340546220541,-0.10296899080276489,0.14529433846473694
1789998061405108700,10.170108642578125,-0.009548231028020382,-0.1265353113412857,0.00929176900535822
1789998061415179800,10.1801796875,-0.005438175052404404,-0.11177340149879456,0.04664633050560951
1789998061425250800,10.190250732421875,-0.026272617280483246,-0.10903620719909668,0.16596899926662445
1789998061435320600,10.200320556640625,-0.034097250550985336,-0.1196100190281868,0.21463321149349213
1789998061445391600,10.2103916015625,-0.030796527862548828,-0.098215252161026,0.15260285139083862
1789998061455462700,10.220462646484375,0.047807734459638596,-0.07277700304985046,0.08102800697088242
1789998061465533700,10.23053369140625,0.15847033262252808,-0.07487423717975616,0.15578533709049225
1789998061475604700,10.240604736328125,0.20234325528144836,-0.06837373226881027,0.3333180546760559
1789998061485675500,10.250675537109375,0.20403622090816498,0.012909406796097755,0.29218870401382446
1789998061495746600,10.26074658203125,0.19718363881111145,0.09834867715835571,0.10103233903646469
1789998061505817600,10.270817626953125,0.26959073543548584,0.14408659934997559,0.03881610557436943
1789998061515888600,10.280888671875,0.37094852328300476,0.20793135464191437,0.11922119557857513
1789998061525959700,10.290959716796875,0.40155088901519775,0.25507116317749023,0.21149013936519623
1789998061536029700,10.30102978515625,0.4222598969936371,0.27654531598091125,0.1663873791694641
1789998061546100700,10.311100830078125,0.41463661193847656,0.33847498893737793,0.22884969413280487
1789998061556171800,10.321171875,0.4297226071357727,0.32884472608566284,0.08300726860761642
1789998061566242800,10.331242919921875,0.4109233617782593,0.3581722676753998,0.1376231163740158
1789998061576313900,10.34131396484375,0.3557181656360626,0.3661004900932312,0.0237058624625206
1789998061586385000,10.351385009765625,0.31364235281944275,0.32267844676971436,-0.11628266423940659
1789998061596455700,10.36145556640625,0.32155752182006836,0.30458173155784607,-0.09217973053455353
1789998061606526700,10.371526611328125,0.2605556845664978,0.2553260326385498,-0.1156373843550682
1789998061616597800,10.38159765625,0.19696420431137085,0.22025033831596375,-0.04541515186429024
1789998061626668800,10.391668701171875,0.1197836622595787,0.1992686241865158,-0.02875920943915844
1789998061636738800,10.40173876953125,0.09215469658374786,0.1728237122297287,-0.10349789261817932
1789998061646809600,10.4118095703125,0.08814876526594162,0.13063177466392517,-0.043583694845438004
1789998061656880600,10.421880615234375,0.08688429743051529,0.10998216271400452,0.01091816183179617
1789998061666951700,10.43195166015625,0.054602526128292084,0.0607573576271534,0.005380384158343077
1789998061677022700,10.442022705078125,0.029141107574105263,0.04300925135612488,-0.013827931135892868
1789998061687093800,10.45209375,0.03190040960907936,0.039195071905851364,-0.016830379143357277
1789998061697164800,10.462164794921875,0.046056441962718964,0.05366109684109688,-0.06581736356019974
1789998061707235600,10.472235595703125,0.049920689314603806,0.05817302688956261,-0.0795946940779686
1789998061717306600,10.482306640625,0.0714600682258606,0.07265236228704453,-0.038592398166656494
1789998061727377700,10.492377685546876,0.025189775973558426,0.10579993575811386,-0.016515327617526054
1789998061737447700,10.50244775390625,-0.017540378496050835,0.11919190734624863,-0.002144643571227789
1789998061747518700,10.512518798828125,-0.06088492274284363,0.1304059475660324,-0.03941212221980095
1789998061757589500,10.522589599609375,-0.08119472116231918,0.1438370645046234,-0.07342574745416641
1789998061767660500,10.53266064453125,-0.10703244060277939,0.1380806416273117,-0.10560844838619232
1789998061777731600,10.542731689453126,-0.09567566215991974,0.12000124156475067,-0.05263684689998627
1789998061787802600,10.552802734375,-0.06768450140953064,0.09492278099060059,0.04411473125219345
1789998061797873700,10.562873779296876,-0.05187385156750679,0.05300329625606537,0.08422619849443436
1789998061807944700,10.57294482421875,-0.05030258372426033,0.021461082622408867,0.10109998285770416
1789998061818015500,10.583015380859376,-0.0839843824505806,0.05386429652571678,0.07180281728506088
1789998061828086500,10.59308642578125,-0.14477822184562683,0.03881903365254402,0.014372813515365124
1789998061838156800,10.60315673828125,-0.2553936839103699,-0.027116039767861366,0.012688631191849709
1789998061848227800,10.613227783203126,-0.2533678114414215,-0.037578266113996506,0.059779711067676544
1789998061858299000,10.623298828125,-0.22439928352832794,-0.02267921343445778,0.06701285392045975
1789998061868369700,10.63336962890625,-0.23283670842647552,-0.0252800565212965,-0.031616780906915665
1789998061878440700,10.643440673828126,-0.23862296342849731,-0.04216502979397774,-0.037403032183647156
1789998061888511700,10.65351171875,-0.23452408611774445,-0.02869662642478943,-0.023963123559951782
1789998061898582800,10.663582763671876,-0.2319440245628357,-0.04277143254876137,0.03206579014658928
1789998061908653800,10.67365380859375,-0.1982198804616928,-0.06675399839878082,0.07858268916606903
1789998061918724900,10.683724853515624,-0.18698826432228088,-0.07691927999258041,0.022958045825362206
1789998061928795600,10.693795654296874,-0.1892538070678711,-0.09733161330223083,-0.007873103022575378
1789998061938865700,10.70386572265625,-0.20330677926540375,-0.10533760488033295,-0.0762721374630928
1789998061948936700,10.713936767578126,-0.23339837789535522,-0.11487066000699997,-0.062485214322805405
1789998061959007700,10.7240078125,-0.18596374988555908,-0.12656086683273315,-0.04319780319929123
1789998061969078800,10.734078857421874,-0.18163317441940308,-0.16997918486595154,0.10714642703533173
1789998061979149600,10.744149658203124,-0.24830354750156403,-0.211394801735878,0.1975271850824356
1789998061989220600,10.754220703125,-0.2569604218006134,-0.1826329231262207,0.17483066022396088
1789998061999291600,10.764291748046874,-0.19998422265052795,-0.17416061460971832,0.08938127756118774
1789998062009362700,10.77436279296875,-0.16593916714191437,-0.15451127290725708,-0.0238182470202446
1789998062019433700,10.784433837890624,-0.1250431388616562,-0.18488356471061707,0.10974913090467453
1789998062029504800,10.7945048828125,-0.14638596773147583,-0.17330333590507507,0.04562607407569885
1789998062039574500,10.804574462890624,-0.20730072259902954,-0.14219015836715698,-0.03891757130622864
1789998062049645600,10.8146455078125,-0.21923914551734924,-0.1458355039358139,-0.08406001329421997
1789998062059716600,10.824716552734374,-0.2465682327747345,-0.1471140831708908,0.005031776614487171
1789998062069787600,10.83478759765625,-0.2617914080619812,-0.15032958984375,-0.01920352131128311
1789998062079858700,10.844858642578124,-0.23606500029563904,-0.14524002373218536,-0.10875790566205978
1789998062089929500,10.854929443359374,-0.18233758211135864,-0.12752573192119598,-0.012379970401525497
1789998062100000500,10.86500048828125,-0.1431792676448822,-0.1268482208251953,-0.010162622667849064
1789998062110071600,10.875071533203124,-0.13554558157920837,-0.146614208817482,-0.060020726174116135
1789998062120142600,10.885142578125,-0.12337173521518707,-0.1413363516330719,-0.03648583963513374
1789998062130213600,10.895213623046875,-0.11644218862056732,-0.13284726440906525,0.03435877338051796
1789998062140283600,10.90528369140625,-0.14961105585098267,-0.14066071808338165,0.06796973198652267
1789998062150354700,10.915354736328124,-0.1674254834651947,-0.13926681876182556,0.060222327709198
1789998062160425700,10.92542578125,-0.18673153221607208,-0.12278051674365997,-0.03882782161235809
1789998062170496800,10.935496826171875,-0.15562820434570312,-0.16181740164756775,-0.10494399070739746
1789998062180567800,10.94556787109375,-0.11905501782894135,-0.17188334465026855,-0.041314151138067245
1789998062190638800,10.955638916015625,-0.09738700836896896,-0.14084845781326294,-0.04814622551202774
1789998062200709600,10.965709716796875,-0.05482383444905281,-0.15928685665130615,0.013362410478293896
1789998062210780700,10.97578076171875,-0.06454383581876755,-0.19006846845149994,0.1592210829257965
1789998062220851700,10.985851806640625,-0.10445237159729004,-0.18936672806739807,0.13023923337459564
1789998062230921700,10.995921630859375,-0.1548769325017929,-0.19991284608840942,0.08040323108434677
1789998062240992800,11.00599267578125,-0.1665349155664444,-0.20836065709590912,-0.05182564631104469
1789998062251063600,11.0160634765625,-0.17601683735847473,-0.21036416292190552,-0.017918014898896217
1789998062261134600,11.026134521484375,-0.20911221206188202,-0.1991242915391922,-0.06024842709302902
1789998062271205600,11.03620556640625,-0.2575196921825409,-0.18721969425678253,-0.04743516072630882
1789998062281276700,11.046276611328125,-0.2692357301712036,-0.21794778108596802,-0.04582900553941727
1789998062291347700,11.05634765625,-0.22857804596424103,-0.2411537617444992,-0.08105197548866272
1789998062301418800,11.066418701171875,-0.18981626629829407,-0.25708505511283875,-0.0390094518661499
1789998062311489500,11.076489501953125,-0.17821447551250458,-0.3021356165409088,-0.1527027189731598
1789998062321561300,11.086561279296875,-0.12412061542272568,-0.33430156111717224,-0.19898714125156403
1789998062331631000,11.096631103515625,-0.12457628548145294,-0.2998884618282318,-0.11789973825216293
1789998062341702100,11.1067021484375,-0.13721245527267456,-0.31784480810165405,-0.007334079127758741
1789998062351773200,11.116773193359375,-0.1679312139749527,-0.33957648277282715,0.04009468853473663
1789998062361844200,11.12684423828125,-0.1740516871213913,-0.29605934023857117,0.05498389154672623
1789998062371915300,11.136915283203125,-0.14025351405143738,-0.2941666543483734,0.05540573596954346
1789998062381986300,11.146986328125,-0.11825713515281677,-0.29511791467666626,0.05697806552052498
1789998062392057000,11.15705712890625,-0.06752338260412216,-0.29681649804115295,0.07711156457662582
1789998062402128100,11.167128173828125,-0.008447812870144844,-0.2895843982696533,0.04691557586193085
1789998062412199200,11.17719921875,-0.020603811368346214,-0.3035620152950287,0.0025387913919985294
1789998062422269400,11.18726953125,-0.05630854517221451,-0.34321463108062744,-0.009956227615475655
1789998062432340500,11.197340576171875,0.007616107817739248,-0.3116723895072937,-0.005489307455718517
1789998062442411300,11.207411376953125,0.07637093961238861,-0.2726120948791504,-0.014632205478847027
1789998062452482300,11.217482421875,0.09561680257320404,-0.2572730779647827,-0.010091249831020832
1789998062462553300,11.22755322265625,0.053770020604133606,-0.2390328198671341,-0.02701803483068943
1789998062472624400,11.237624267578125,0.02359107881784439,-0.19991125166416168,-0.16354791820049286
1789998062482695400,11.2476953125,0.06170278042554855,-0.17280453443527222,-0.14737507700920105
1789998062492766500,11.257766357421875,0.03472841903567314,-0.1487111747264862,-0.1707102209329605
1789998062502837200,11.267837158203125,0.08972775191068649,-0.1368558555841446,-0.12295494973659515
1789998062512907300,11.2779072265625,0.13528990745544434,-0.09067344665527344,-0.1451673060655594
1789998062522978300,11.287978271484375,0.14291134476661682,-0.06498592346906662,-0.09496326744556427
1789998062533049300,11.29804931640625,0.17672842741012573,-0.058702994138002396,0.026165824383497238
1789998062543120400,11.308120361328125,0.2071089744567871,-0.02528218738734722,0.10190372914075851
1789998062553191200,11.318191162109375,0.22915169596672058,-0.007249124348163605,0.12185932695865631
1789998062563262200,11.32826220703125,0.2506258189678192,0.03303970769047737,0.045769087970256805
1789998062573333200,11.338333251953125,0.2820631265640259,0.06852792948484421,-0.03115871734917164
1789998062583404300,11.348404296875,0.3072930872440338,0.07593178004026413,-0.03580540046095848
1789998062593475300,11.358475341796876,0.3359822630882263,0.07273571938276291,-0.06556356698274612
1789998062603546400,11.36854638671875,0.3510211408138275,0.09473290294408798,0.06499604135751724
1789998062613616000,11.3786162109375,0.3672131597995758,0.10208029299974442,0.05729125067591667
1789998062623687200,11.388687255859375,0.38943538069725037,0.1298227161169052,-0.02913018874824047
1789998062633758200,11.39875830078125,0.4031980633735657,0.15360766649246216,-0.04843837395310402
1789998062643829200,11.408829345703126,0.3554880619049072,0.14745204150676727,-0.10657624155282974
1789998062653900300,11.418900390625,0.33433911204338074,0.1538657248020172,-0.112906314432621
1789998062663971000,11.42897119140625,0.3597126305103302,0.1628222018480301,-0.08039151132106781
1789998062674042000,11.4390419921875,0.37456586956977844,0.1688382923603058,-0.11123651266098022
1789998062684113200,11.449113037109376,0.4109153747558594,0.18879947066307068,-0.06169745326042175
1789998062694184200,11.45918408203125,0.4336100220680237,0.18940827250480652,0.07946792989969254
1789998062704254200,11.469254150390626,0.4325072169303894,0.22662462294101715,0.12097755074501038
1789998062714325200,11.4793251953125,0.3990589678287506,0.2651405930519104,-0.04136049002408981
1789998062724396300,11.489396240234376,0.4118613302707672,0.27063387632369995,-0.045764293521642685
1789998062734467300,11.49946728515625,0.4399819076061249,0.28897881507873535,0.07968177646398544
1789998062744538400,11.509538330078126,0.47400858998298645,0.26897794008255005,0.24404782056808472
1789998062754609400,11.519609375,0.4350137710571289,0.3177278935909271,0.1672489047050476
1789998062764680400,11.529680419921876,0.42504557967185974,0.3057370185852051,0.1137542650103569
1789998062774751200,11.539751220703126,0.410350501537323,0.2935037910938263,0.036551088094711304
1789998062784822300,11.549822265625,0.3926663100719452,0.3299672603607178,-0.02544490620493889
1789998062794892300,11.559892333984376,0.4307418167591095,0.31503117084503174,0.02834295853972435
1789998062804963300,11.56996337890625,0.4020286500453949,0.35328802466392517,0.0037819549906998873
1789998062815034000,11.5800341796875,0.311798632144928,0.323752760887146,-0.046418096870183945
1789998062825105200,11.590105224609376,0.3534075915813446,0.2833390235900879,-0.023986293002963066
1789998062835176200,11.60017626953125,0.3072563409805298,0.32019343972206116,0.136320561170578
1789998062845247200,11.610247314453124,0.23411768674850464,0.31890207529067993,0.10751686990261078
1789998062855318300,11.620318359375,0.14800651371479034,0.2339903861284256,0.051297541707754135
1789998062865389300,11.630389404296874,0.12669216096401215,0.20284126698970795,-0.02690112218260765
1789998062875460400,11.64046044921875,0.11731943488121033,0.19800256192684174,0.023325029760599136
1789998062885530000,11.650530029296876,0.12199541181325912,0.21246884763240814,-0.03671300783753395
1789998062895601200,11.66060107421875,0.10992436856031418,0.2250882387161255,-0.010421748273074627
1789998062905672200,11.670672119140624,0.03453187644481659,0.1621449589729309,-0.06414729356765747
1789998062915743200,11.6807431640625,0.04803330451250076,0.12420796602964401,-0.0911373645067215
1789998062925814300,11.690814208984374,0.029385318979620934,0.12147369980812073,-0.13490775227546692
1789998062935885300,11.70088525390625,-0.01774251088500023,0.11145089566707611,0.05993231013417244
1789998062945956400,11.710956298828124,-0.051106858998537064,0.06473478674888611,0.041070472449064255
1789998062956027400,11.72102734375,-0.08293509483337402,0.041608963161706924,-0.014733405783772469
1789998062966098400,11.731098388671874,-0.0970916599035263,0.037581995129585266,0.01182470191270113
1789998062976168200,11.741168212890624,-0.12867514789104462,0.02859009988605976,-0.14100372791290283
1789998062986239200,11.7512392578125,-0.1617225855588913,-0.039199333637952805,-0.16289624571800232
1789998062996310300,11.761310302734374,-0.1598072350025177,-0.05555646866559982,-0.11610530316829681
1789998063006381300,11.77138134765625,-0.13636450469493866,-0.07729265838861465,-0.08679161965847015
1789998063016452400,11.781452392578124,-0.1193450391292572,-0.10684415698051453,-0.06712044775485992
1789998063026523400,11.7915234375,-0.06827066838741302,-0.10623961687088013,0.06446128338575363
1789998063036594200,11.80159423828125,-0.05338333174586296,-0.12195919454097748,0.09186521172523499
1789998063046665200,11.811665283203125,-0.09696542471647263,-0.07203558087348938,-0.13638314604759216
1789998063056736300,11.821736328125,-0.037089310586452484,-0.0659334734082222,-0.10939866304397583
1789998063066806300,11.83180615234375,-0.03760676458477974,-0.10130984336137772,-0.1631159484386444
1789998063076877300,11.841877197265624,-0.04712916165590286,-0.10711553692817688,0.0318191833794117
1789998063086948000,11.851947998046874,-0.09660270810127258,-0.1662805825471878,0.17047852277755737
1789998063097019100,11.86201904296875,-0.09078902751207352,-0.0824756994843483,0.2193632423877716
1789998063107090200,11.872090087890625,0.029214877635240555,0.046788543462753296,0.1529165804386139
1789998063117161200,11.8821611328125,0.07095327228307724,0.05203257501125336,0.011988486163318157
1789998063127232300,11.892232177734375,-0.021893048658967018,0.0505707673728466,0.012253737077116966
1789998063137303300,11.90230322265625,-0.01847701147198677,0.061480406671762466,0.20257574319839478
1789998063147374000,11.9123740234375,-0.001398425898514688,0.11891520023345947,0.08789097517728806
1789998063157444400,11.9224443359375,0.03791569173336029,0.1981375813484192,0.10095670819282532
1789998063167515400,11.932515380859375,0.04616909474134445,0.2606198787689209,-0.05103655159473419
1789998063177586400,11.94258642578125,0.04683621600270271,0.277835875749588,0.09283246845006943
1789998063187657500,11.952657470703125,0.05970807000994682,0.33098191022872925,0.05645342171192169
1789998063197728300,11.962728271484375,0.07420365512371063,0.3426814377307892,0.022495189681649208
1789998063207799300,11.97279931640625,0.16671600937843323,0.29513177275657654,0.006082393694669008
1789998063217870300,11.982870361328125,0.25152066349983215,0.32110345363616943,0.08677138388156891
1789998063227941400,11.99294140625,0.25983691215515137,0.30655914545059204,0.20912392437458038
1789998063238012400,12.003012451171875,0.23993296921253204,0.3021385669708252,0.17970451712608337
1789998063248082200,12.013082275390625,0.13387177884578705,0.2612401247024536,-0.024204671382904053
1789998063258153200,12.0231533203125,0.0558246485888958,0.20488177239894867,-0.14248524606227875
1789998063268224300,12.033224365234375,0.010273676365613937,0.16854692995548248,-0.10011328756809235
1789998063278295300,12.04329541015625,-0.02395113930106163,0.09313660115003586,0.13384169340133667
1789998063288366300,12.053366455078125,-0.06310094147920609,0.01835157722234726,0.13367390632629395
1789998063298437400,12.063437255859375,-0.03465278446674347,-0.00612287363037467,0.10168508440256119
1789998063308508200,12.073508056640625,-0.06822699308395386,-0.010160225443542004,-0.05398546904325485
1789998063318579200,12.0835791015625,-0.1204499825835228,-0.07489608228206635,-0.09184949845075607
1789998063328650200,12.093650146484375,-0.1426013559103012,-0.07343453913927078,-0.10342758893966675
1789998063338720000,12.103719970703125,-0.1120128184556961,-0.11277315020561218,0.03211479261517525
1789998063348791000,12.113791015625,-0.14997351169586182,-0.18589237332344055,0.012434032745659351
1789998063358862000,12.123862060546875,-0.15051573514938354,-0.20953884720802307,-0.07237379997968674
1789998063368933000,12.13393310546875,-0.1571427434682846,-0.18572698533535004,-0.10212583839893341
1789998063379004200,12.144004150390625,-0.17318803071975708,-0.2001591920852661,-0.10235194116830826
1789998063389075000,12.154074951171875,-0.19663849472999573,-0.21838027238845825,-0.0024466461036354303
1789998063399146000,12.16414599609375,-0.2103298008441925,-0.22692155838012695,0.023372966796159744
1789998063409217000,12.174217041015625,-0.22904330492019653,-0.2115631103515625,0.015281750820577145
1789998063419288000,12.1842880859375,-0.3086385428905487,-0.18431924283504486,0.1129973903298378
1789998063429358300,12.1943583984375,-0.28583335876464844,-0.20438535511493683,0.036505281925201416
1789998063439429000,12.20442919921875,-0.18471525609493256,-0.18522392213344574,-0.01997690461575985
1789998063449500200,12.214500244140625,-0.11871839314699173,-0.12200260162353516,-0.229009747505188
1789998063459571200,12.2245712890625,-0.09316829591989517,-0.10040649771690369,-0.12489639222621918
1789998063469642200,12.234642333984375,-0.05781536176800728,-0.07293146848678589,-0.07662101089954376
1789998063479713300,12.24471337890625,-0.04830601438879967,-0.038430213928222656,0.08162535727024078
1789998063489784300,12.254784423828125,-0.031083084642887115,0.01883467473089695,0.16930221021175385
1789998063499855000,12.264855224609375,-0.026690732687711716,0.06707410514354706,0.09496699273586273
1789998063509925000,12.274925048828125,-0.008744489401578903,0.11056645959615707,-0.041187915951013565
1789998063519996200,12.28499609375,0.0957142785191536,0.16579030454158783,-0.04079962894320488
1789998063530067200,12.295067138671875,0.16541452705860138,0.21190239489078522,0.010300574824213982
1789998063540138200,12.30513818359375,0.20590975880622864,0.1886836290359497,0.10094765573740005
1789998063550209000,12.315208984375,0.20220422744750977,0.1688409447669983,0.22626696527004242
1789998063560280000,12.325280029296875,0.14045538008213043,0.12011095881462097,0.3463515639305115
1789998063570351000,12.33535107421875,0.13054069876670837,0.17222316563129425,0.08893732726573944
1789998063580422100,12.345422119140625,0.14267964661121368,0.24925535917282104,-0.040721595287323
