time,seconds_elapsed,z,y,x
1789998052832217900,1.5972177734375,-0.23418330316446181,0.017331717097926334,0.15473542497390122
1789998052842289000,1.607288818359375,-0.24257291011404286,0.013481996236150524,0.057412048530887445
1789998052852359000,1.61735888671875,-0.28649045190619227,-0.03143490027915547,0.12217150176349872
1789998052862431000,1.627430908203125,-0.37679176058128444,-0.1257551035758908,0.1667308630186772
1789998052872501800,1.637501708984375,-0.41293188446955237,-0.1657155843282389,0.14425370147157865
1789998052882572000,1.647572021484375,-0.42024862308442956,-0.19504434360254425,0.14473143743485573
1789998052892643000,1.65764306640625,-0.42894895276773276,-0.2390122270108814,0.11426812608556286
1789998052902714000,1.667714111328125,-0.5054639507338607,-0.31737496284076316,0.06696336296045141
1789998052912785200,1.67778515625,-0.5091328725632884,-0.3632789471158416,0.17817809265589601
1789998052922856000,1.68785595703125,-0.5053713233259816,-0.3644052816825435,0.1227851248325091
1789998052932927000,1.697927001953125,-0.5334287141492318,-0.412186736139896,0.04071858801579395
1789998052942998000,1.707998046875,-0.5331157575391915,-0.3985000848947278,0.13611316619652356
1789998052953069000,1.718069091796875,-0.5591188349607447,-0.40977678697209735,0.1561513869239257
1789998052963140000,1.72814013671875,-0.6014689117271595,-0.46855632532201813,-0.017201166245509717
1789998052973211100,1.738211181640625,-0.5793220413305494,-0.47814290547217675,0.03480257419438141
1789998052983282000,1.748281982421875,-0.5192082159469131,-0.4240307485431765,0.042069890770916205
1789998052993353000,1.75835302734375,-0.4938061470509092,-0.43014025295990727,-0.002071538488678117
1789998053003424000,1.768424072265625,-0.4983805466913783,-0.4238520741212795,0.0067590915009324935
1789998053013495000,1.7784951171875,-0.47184799341622696,-0.4095719295403739,-0.018220284886387706
1789998053023566000,1.788566162109375,-0.4063866857150544,-0.40216313932894565,-0.01206975987779293
1789998053033637000,1.79863720703125,-0.358928706143741,-0.37254781036514895,0.014036205849730773
1789998053043708000,1.8087080078125,-0.40421697059073686,-0.4021913369175434,-0.014495655989612784
1789998053053779000,1.818779052734375,-0.41495686353004774,-0.4014630666980274,0.038325460102344666
1789998053063850000,1.82885009765625,-0.4064107001328512,-0.3571449837307356,0.12069552358509958
1789998053073921000,1.838921142578125,-0.40947657027764456,-0.38085407215858136,0.0661246120363496
1789998053083992000,1.848991943359375,-0.3977065929365343,-0.39631226439575945,0.05087497284119171
1789998053094063000,1.85906298828125,-0.39592587711316607,-0.3492420292416949,0.07023690148841169
1789998053104134000,1.8691337890625,-0.35694195769045717,-0.2926218794291956,0.08376138224270528
1789998053114205000,1.879204833984375,-0.3150671506713922,-0.2733540763922546,-0.016735541835151427
1789998053124276000,1.88927587890625,-0.2460825975323761,-0.22970195766291315,0.05823991413491961
1789998053134347000,1.899346923828125,-0.2001525570071908,-0.18359376908669933,0.09387886299554603
1789998053144418000,1.90941796875,-0.20540903294900195,-0.18232894286403079,-0.0033262452794142246
1789998053154489000,1.919489013671875,-0.2278744314174155,-0.17708712561312207,-0.03604776144410629
1789998053164560000,1.929559814453125,-0.20757106388000005,-0.15103614791005868,0.0647653322827407
1789998053174631000,1.939630859375,-0.17880670580437102,-0.12944546229408105,0.02609339900787332
1789998053184702000,1.949701904296875,-0.17667623727773732,-0.1340339114655464,0.10137999375301131
1789998053194773000,1.95977294921875,-0.18947442838011522,-0.1498674212910462,0.058207182334358495
1789998053204844000,1.969843994140625,-0.1641160398345377,-0.14712125704567927,-0.08405273775435604
1789998053214915000,1.9799150390625,-0.14706291691510223,-0.1176655630678498,-0.02199474577403968
1789998053224985900,1.98998583984375,-0.11987478451639073,-0.12179876434797031,0.08266457511152957
1789998053235057000,2.000056884765625,-0.12034681196559138,-0.1478995744341078,0.003968245870147571
1789998053245128000,2.0101279296875,-0.14490877408666478,-0.15071101581964377,0.002828408536740975
1789998053255199000,2.020198974609375,-0.1590067158588473,-0.1703003339078592,-0.022226857519511062
1789998053265270000,2.03027001953125,-0.17031177730191158,-0.19745732204912478,0.04517944669479964
1789998053275341000,2.040341064453125,-0.21583608277091243,-0.21576322566329403,0.06390658138878318
1789998053285411800,2.050411865234375,-0.24726714778074566,-0.25763826101514276,-0.048852121899552785
1789998053295483000,2.06048291015625,-0.2344755043359338,-0.3070984242890424,-0.07526572275495462
1789998053305554000,2.070553955078125,-0.22215289897280882,-0.33998743614813604,0.02351900166980176
1789998053315625200,2.080625244140625,-0.21615483154665263,-0.40856051549945693,0.020651920391896457
1789998053325696300,2.0906962890625,-0.2590939353893232,-0.5061853298834379,0.023974453207650678
1789998053335767300,2.100767333984375,-0.32778499535660877,-0.5507397149181033,0.008704839696769355
1789998053345838300,2.11083837890625,-0.37295678159938134,-0.5795352693988696,0.0034388245345327
1789998053355909400,2.120909423828125,-0.40594884434945144,-0.63203604488388,0.03488210780655626
1789998053365980400,2.13098046875,-0.449827294019084,-0.690749193644227,0.07423064343730915
1789998053376051200,2.14105126953125,-0.4562580233520481,-0.7221186983595314,0.15040204918364475
1789998053386122200,2.151122314453125,-0.46002056209434583,-0.7402545219248969,0.054515759082988405
1789998053396193300,2.161193359375,-0.4837867648778617,-0.7686115137063833,-0.04219473213260777
1789998053406264300,2.171264404296875,-0.4555157142253215,-0.8026060945059486,-0.00621891009839172
1789998053416335400,2.18133544921875,-0.4183771043538633,-0.8024070509864991,0.04847972872616787
1789998053426406400,2.191406494140625,-0.4423113333382058,-0.8544314005608371,-0.003402547824196579
1789998053436477200,2.201477294921875,-0.44107314437909634,-0.9128556827346457,0.11240112491847704
1789998053446548200,2.21154833984375,-0.425754902255736,-0.9214885845554865,0.12534718003992074
1789998053456619300,2.221619384765625,-0.45315672156669395,-0.956168988060926,0.059895611960990275
1789998053466689300,2.231689208984375,-0.5192762251727397,-0.9788490903381365,0.03993529051020108
1789998053476760300,2.24176025390625,-0.5219857766148488,-0.9748159529043141,0.10289636588836058
1789998053486831000,2.2518310546875,-0.44445255252718124,-0.9544021507586197,0.06331492064020378
1789998053496902100,2.261902099609375,-0.4064325950901754,-0.9150819339926096,0.025239489767018595
1789998053506973200,2.27197314453125,-0.3648488843051571,-0.9056412113948611,-0.000764750967226189
1789998053517044200,2.282044189453125,-0.31720357709661035,-0.8840793529293021,-0.008881130187004078
1789998053527115300,2.292115234375,-0.23210832252130592,-0.8678549990920251,-0.055274801926895885
1789998053537186300,2.302186279296875,-0.1271655987164705,-0.8085651376436802,0.0219445874782357
1789998053547257000,2.312257080078125,-0.05579836550489391,-0.7235738818557622,0.16794981157050137
1789998053557328100,2.322328125,-0.028061897578011852,-0.6463878660922893,0.1503096068286396
1789998053567399200,2.332399169921875,-0.007732447779782403,-0.5599353939448698,0.15217160707713484
1789998053577470200,2.34247021484375,0.01676745713953182,-0.4805802533889849,0.11852316696893908
1789998053587541200,2.352541259765625,0.085361812320714,-0.41263705593405503,0.057558490709800084
1789998053597612300,2.3626123046875,0.15318713088316135,-0.35094850812201484,0.12517844506123388
1789998053607683000,2.37268310546875,0.207530279731852,-0.28511345460603177,0.2149400526151528
1789998053617754000,2.382754150390625,0.32905219563680854,-0.20370175060871684,0.247764107583324
1789998053627825200,2.3928251953125,0.3806726393791961,-0.09761498870982585,0.13135059083955106
1789998053637896200,2.402896240234375,0.32252056390389905,-0.08801710024569705,0.08136554466406393
1789998053647967200,2.41296728515625,0.33360705300369636,-0.10034637432195556,0.005611162032516585
1789998053658038300,2.423038330078125,0.38911722798705406,-0.052633001794491784,0.010240206316898974
1789998053668109000,2.433109130859375,0.39273111350318723,-0.046667487961734935,0.04382804185875694
1789998053678180000,2.44318017578125,0.38267629506640305,-0.06477424722746807,-0.05362514221106619
1789998053688251100,2.453251220703125,0.3990838849591435,-0.08612391678279151,-0.05310117156884517
1789998053698322200,2.463322265625,0.4187606186474832,-0.06480312657189616,0.00846132242239592
1789998053708393200,2.473393310546875,0.4211836911117608,0.0007331149558977457,0.018356821197948313
1789998053718464300,2.48346435546875,0.33785089378813205,-0.007450471609912152,-0.00920299210410987
1789998053728535300,2.493535400390625,0.25126179331708803,-0.06661720987438875,-0.020733920439149216
1789998053738606300,2.5036064453125,0.25848167751146506,-0.038882376646461804,0.0436402541168567
1789998053748677400,2.513677490234375,0.29622099341595165,-0.008276721833599284,0.1260355581410309
1789998053758748400,2.52374853515625,0.3131212815588328,-0.01318064096794385,-0.022289301786187217
1789998053768819500,2.5338193359375,0.2362278166429733,-0.041121300804019524,-0.06545310330934466
1789998053778890500,2.543890380859375,0.25938090439050837,-0.04979602345111301,-0.061368511666788104
1789998053788961300,2.553961181640625,0.3799821922407023,0.04058268192505211,0.07122882629520544
1789998053799032300,2.5640322265625,0.41858873659167706,0.09102716665111907,0.006126953214511618
1789998053809103400,2.574103271484375,0.37184761791124576,0.07277120938076341,0.07750238604034052
1789998053819174400,2.58417431640625,0.25167211912777915,0.059024709390826026,0.0456354606086499
1789998053829245400,2.594245361328125,0.18095669996441088,0.06140741698341245,-0.0005259954383145248
1789998053839316500,2.60431640625,0.2600856601301478,0.08411771537746371,-0.03085982774988645
1789998053849387300,2.61438720703125,0.32568403213172,0.18793521085701198,-0.0025171686472094212
1789998053859458300,2.624458251953125,0.2883224794459179,0.22218434890549066,-0.033093699354718675
1789998053869529300,2.634529296875,0.25298407892172614,0.18572839268778404,-0.18892299377431243
1789998053879600400,2.644600341796875,0.3004053484716539,0.17005221911830357,-0.12282786931243346
1789998053889671400,2.65467138671875,0.37425756561053286,0.20347826982456868,0.01406904709676168
1789998053899742500,2.664742431640625,0.3680397414903205,0.2498152049387999,0.024573635239129865
1789998053909813200,2.674813232421875,0.25352291380301323,0.25026177500767954,-0.16273998421142466
1789998053919884300,2.68488427734375,0.1959189198462552,0.24395996304051634,-0.15866937282206375
1789998053929954300,2.694954345703125,0.2381799265199775,0.2784025620591809,-0.08423426373992088
1789998053940025300,2.705025390625,0.2694159739973746,0.30850461999516493,-0.07812905027231025
1789998053950096400,2.715096435546875,0.20998005941325815,0.2902154859550142,-0.17640714482561654
1789998053960167200,2.725167236328125,0.23174642432055562,0.2794589410398442,-0.25156139875860495
1789998053970238200,2.73523828125,0.35626586372535773,0.3451639516581429,-0.021563582118932004
1789998053980309200,2.745309326171875,0.4277705026613142,0.3765056308259357,0.044575520800866436
1789998053990380300,2.75538037109375,0.43954750272333587,0.40638397407384996,0.03319362146941671
1789998054000451300,2.765451416015625,0.35568418098839644,0.41095213926822116,-0.08982052095590662
1789998054010522400,2.7755224609375,0.3184751880647947,0.3882709781284793,0.006476800719039498
1789998054020593200,2.78559326171875,0.37845413695246144,0.37573439750778054,0.07892838363226314
1789998054030664200,2.795664306640625,0.3921392756605976,0.43162200454053645,0.030880739349633732
1789998054040735200,2.8057353515625,0.3675546058276378,0.46561920507189714,0.020121712446650623
1789998054050806300,2.81580615234375,0.34811743621851343,0.48540148170582087,0.025421830732063375
1789998054060877300,2.825877197265625,0.362233982182324,0.4867106288667478,0.05543571371492361
1789998054070948400,2.8359482421875,0.29655277955274056,0.4693831973049797,0.051711200828607806
1789998054081019100,2.84601904296875,0.19437132261842768,0.4918520764929828,-0.0065788681959258796
1789998054091090200,2.856090087890625,0.11830408234429694,0.4772324637968825,-0.05930620678498155
1789998054101161200,2.8661611328125,0.12661080525219032,0.4425973171868971,0.07295008935373441
1789998054111232300,2.876232177734375,0.1965234302342038,0.38757298613781743,0.19818677017059277
1789998054121303300,2.88630322265625,0.15932070092725317,0.27623461871189237,0.09496663524430399
1789998054131374300,2.896374267578125,0.052667788124189194,0.1565033139330268,0.040305433673645294
1789998054141445000,2.906445068359375,0.011404840155548513,0.07670491268734955,0.019333981728438532
1789998054151516200,2.91651611328125,-0.01320813699272478,0.04577211428281699,0.07297885811069525
1789998054161587200,2.926587158203125,-0.0511744685420844,-0.034800341587781745,0.07201351242261109
1789998054171658200,2.936658203125,-0.08404246380022705,-0.12524110344045145,0.06058692422717499
1789998054181729300,2.946729248046875,-0.09622136861477826,-0.14742976395283147,0.05232605923983105
1789998054191800300,2.95680029296875,-0.11167772062354094,-0.1741608125578668,0.09896331503347125
1789998054201871000,2.96687109375,-0.1149645691681955,-0.20881661782533645,0.109997270829662
1789998054211942100,2.976942138671875,-0.1279456437789517,-0.21811186773134564,0.13364778224691845
1789998054222013200,2.98701318359375,-0.1632600560361595,-0.2247176993461071,0.04878060687041386
1789998054232084200,2.997084228515625,-0.15773645512804135,-0.21573522833245765,-0.04012908150236645
1789998054242155300,3.0071552734375,-0.14863238233249068,-0.19036147927959518,-0.092880754718439
1789998054252226300,3.017226318359375,-0.11492777148451039,-0.16225496271042933,-0.06476283114095267
1789998054262297000,3.027297119140625,-0.09988803278762441,-0.14099416483864993,-0.01575625571076688
1789998054272368000,3.0373681640625,-0.07059078043846537,-0.09765549506127594,-0.004823196559425517
1789998054282438400,3.0474384765625,-0.07120459676998865,-0.07419750087237263,0.03128420297176126
1789998054292509400,3.057509521484375,-0.04069485466448071,-0.04283152002073696,0.06947533770932449
1789998054302580500,3.06758056640625,-0.05383085208464337,-0.02511508719281131,0.00041628026691885924
1789998054312651300,3.0776513671875,-0.032277948019156184,0.004929120237320949,-0.05077350888400723
1789998054322722300,3.087722412109375,0.03274459082812272,0.0210834265274839,-0.047704144861409704
1789998054332793300,3.09779345703125,0.07736717824774657,0.02627099447007462,-0.017242696857520102
1789998054342864400,3.107864501953125,0.10749041676919414,0.05016813046884261,0.038878432066379476
1789998054352935200,3.11793505859375,0.06194739392670605,0.06415511353372755,-0.08448119938910684
1789998054363006200,3.128006103515625,-0.010743077650126952,0.07055303807665407,-0.15369091594625048
1789998054373077200,3.1380771484375,-0.046144129104160415,0.07973378616391463,-0.055765583728909184
1789998054383148300,3.148148193359375,-0.022213317984141136,0.07851871649332069,-0.018444641458105072
1789998054393219300,3.15821923828125,-0.03961064973968922,0.05374497163460631,-0.034920977448267235
1789998054403290400,3.168290283203125,0.0037484592716539606,0.06423001486687838,0.05581776072729997
1789998054413361200,3.178361083984375,0.04677851045952324,0.10190309880500638,0.14201293946898644
1789998054423432200,3.18843212890625,0.01759384076340368,0.09080570553681967,0.060822020886946056
1789998054433503200,3.198503173828125,-0.010554063486727959,0.07258461300297239,-0.030097396399388417
1789998054443574300,3.20857421875,-0.018004096907497588,0.1033230515299205,-0.10686732393098948
1789998054453645300,3.218645263671875,-0.0012645697799725272,0.13932874859145888,-0.07540122276661176
1789998054463716400,3.22871630859375,-0.03380405082854971,0.13086976927475738,-0.06482559583561759
1789998054473787100,3.238787109375,-0.030329737001555106,0.12576063378679422,-0.05567212934483328
1789998054483858200,3.248858154296875,-0.04344423031380877,0.13634995888839876,-0.040739657709541854
1789998054493929200,3.25892919921875,-0.020362733938543733,0.11566540488011513,0.030168246943508763
1789998054504000300,3.269000244140625,-0.06829216776173899,0.08852752515900789,0.0700744350789508
1789998054514071300,3.2790712890625,-0.10114221244023786,0.06472664417220787,-0.006005553634682822
1789998054524142300,3.289142333984375,-0.08656782051241023,0.03390415645422751,0.03601929312396584
1789998054534213400,3.29921337890625,-0.0335693573634265,0.02827890560529814,0.10900591551739527
1789998054544284200,3.3092841796875,-0.04954434472167314,-0.006937076598449705,0.04875068637594419
1789998054554355200,3.319355224609375,-0.11262581585154216,-0.07253610799472444,0.009555800936871238
1789998054564426200,3.32942626953125,-0.1299260515865607,-0.08606855282177316,0.03713367726540205
1789998054574497300,3.339497314453125,-0.1576143749768203,-0.09873345967859246,0.025247456216155244
1789998054584568300,3.349568359375,-0.18555128072275723,-0.13936355931342398,0.003173033840788495
1789998054594639400,3.359639404296875,-0.2160292228264201,-0.16876304339727508,0.056784733966088186
1789998054604709000,3.369709228515625,-0.2090835646511928,-0.19230665567063893,0.10761769193978321
1789998054614780200,3.3797802734375,-0.19393593643414989,-0.22944743434013115,0.03671659816655428
1789998054624851200,3.389851318359375,-0.21269163345497447,-0.2691535970648898,-0.007184699935813982
1789998054634922200,3.399922119140625,-0.20775549877031257,-0.2786420555676261,0.0022125995247639983
1789998054644993300,3.4099931640625,-0.17018606892542404,-0.28648663113672473,-0.010620802205094352
1789998054655064000,3.42006396484375,-0.0845978046428773,-0.2641958755374485,0.012908007388982264
1789998054665135000,3.430135009765625,-0.08994645075937038,-0.25699672113614985,0.08073452570679597
1789998054675206100,3.4402060546875,-0.13603582722228996,-0.28677247060555766,0.1506199408591629
1789998054685277200,3.450277099609375,-0.18085763105424676,-0.30876174130117506,0.09256942525393817
1789998054695348200,3.46034814453125,-0.2262034162081402,-0.31042896396285075,-0.08476131112368665
1789998054705419300,3.470419189453125,-0.21035760181176658,-0.2539686488854762,-0.012502225848663078
1789998054715490000,3.480489990234375,-0.16455865549706877,-0.196801823786218,0.008062405511525844
1789998054725561000,3.49056103515625,-0.17846312496923386,-0.20695897135508082,-0.09931913653907738
1789998054735632100,3.500632080078125,-0.19756145670913625,-0.20596803246202836,-0.12871545393843883
1789998054745703200,3.510703125,-0.11667970087151683,-0.11637666500781364,0.01468919936817773
1789998054755774200,3.520774169921875,-0.06409044601790284,-0.09308597469242354,0.036175215632643434
1789998054765845200,3.53084521484375,-0.12293513283796426,-0.12703376632653166,0.028628352659677704
1789998054775916000,3.540916015625,-0.20087235532069891,-0.14161907572473872,-0.018835788977189367
1789998054785987000,3.550987060546875,-0.22078227277948848,-0.14787284811206972,-0.04486327642158838
1789998054796058000,3.56105810546875,-0.22329433205485252,-0.1594659522593826,-0.096747944622069
1789998054806129200,3.571129150390625,-0.18578516303046624,-0.13650960990058283,-0.06891660861029426
1789998054816200200,3.5812001953125,-0.15438317745953148,-0.13404203843012824,-0.06083086691688564
1789998054826271200,3.591271240234375,-0.1343246396657886,-0.1429759754167419,-0.015172077130574604
1789998054836342000,3.601342041015625,-0.14703298169168022,-0.11885978914704377,0.007423613542635279
1789998054846413000,3.6114130859375,-0.18557554751184221,-0.12573101316510923,-0.0028301300495607914
1789998054856484000,3.621484130859375,-0.20591693209474488,-0.13348093531454913,-0.05606071708583105
1789998054866555100,3.63155517578125,-0.1885996703466845,-0.14338719233549183,-0.08908254601960852
1789998054876626200,3.641626220703125,-0.1725270604472285,-0.17078077055768653,-0.13665750574227983
1789998054886696200,3.6516962890625,-0.19351932786164208,-0.20851766538766706,-0.09800657695659884
1789998054896767200,3.661767333984375,-0.22144145519979228,-0.21709004420708974,0.02717164050431144
1789998054906838300,3.67183837890625,-0.226583553571123,-0.25125419685789,0.04109251697897185
1789998054916909300,3.681909423828125,-0.24621895276279795,-0.2932533805398138,0.04614029667820905
1789998054926980400,3.69198046875,-0.28006776622993484,-0.3302077938637807,0.08177690969455687
1789998054937051400,3.702051513671875,-0.31253187306024144,-0.3871521346753933,0.05758933223897688
1789998054947122200,3.7121220703125,-0.2958493363356023,-0.4134809587458778,-0.04340085548607258
1789998054957193200,3.722193115234375,-0.32636815904193117,-0.443326376063254,-0.06356678216946998
1789998054967264300,3.73226416015625,-0.31437691741922696,-0.47984476330623255,0.00785419337320118
1789998054977335300,3.742335205078125,-0.2994206726199031,-0.5190872748176191,0.17216907949194457
1789998054987406300,3.75240625,-0.30829289586293657,-0.5398534952976164,0.1596289908265839
1789998054997477400,3.762477294921875,-0.33553009194659966,-0.5769364294603169,0.07906322293257174
1789998055007548200,3.772548095703125,-0.3656247849289285,-0.5968128737232453,0.04964634191554755
1789998055017619200,3.782619140625,-0.33962508195688096,-0.6019407541291835,0.0871037064887185
1789998055027690200,3.792690185546875,-0.2636805090020311,-0.6371435047268038,0.007675384240833193
1789998055037761300,3.80276123046875,-0.23842169500647545,-0.6294154150772208,0.004135680870604802
1789998055047832300,3.812832275390625,-0.22834551396463318,-0.6168597367793439,-0.0032644634933695583
1789998055057903400,3.8229033203125,-0.2038393105312026,-0.6059963331333684,-0.0005271654506984712
1789998055067974100,3.83297412109375,-0.181194640966283,-0.5821700238712783,0.0073435678249440415
1789998055078045200,3.843045166015625,-0.19200224213981248,-0.5851170992486621,0.011158649860619404
1789998055088116200,3.8531162109375,-0.23796513174022638,-0.5877082793910181,0.04489194123771574
1789998055098187300,3.863187255859375,-0.2721152189784792,-0.6064518039048127,0.013602663732483153
1789998055108258300,3.87325830078125,-0.2625272596999403,-0.576337900957163,-0.01975536558881137
1789998055118329300,3.883329345703125,-0.21857271946731868,-0.5319887447128051,-0.10000417287293693
1789998055128400100,3.893400146484375,-0.10460396216887595,-0.4737323324786099,-0.025938058241743746
1789998055138471200,3.90347119140625,-0.030590054684380783,-0.4214971566178281,0.05273273286796145
1789998055148542200,3.913542236328125,-0.018607907022664252,-0.4123508800390509,-0.013918798220864068
1789998055158612200,3.9236123046875,-0.03478523685766271,-0.3953488646883549,0.03132578332987034
1789998055168683300,3.933683349609375,-0.07065219734041815,-0.38583594554212064,0.0885600860113085
1789998055178754000,3.943754150390625,-0.07829747318539118,-0.3839845430114044,0.06280210091485172
1789998055188825000,3.9538251953125,-0.09151868480649965,-0.35135720549582067,0.12785952741341058
1789998055198896000,3.963896240234375,-0.08417016531086381,-0.34920382772846015,0.16212239575510984
1789998055208967200,3.97396728515625,-0.012712728278831839,-0.34848846246500104,0.057199093509961524
1789998055219038200,3.9840380859375,0.09541924681364973,-0.279258039932856,0.11630471473497216
1789998055229109200,3.994109130859375,0.08492007077076862,-0.2312830364953455,0.17306439599562076
1789998055239180000,4.004179931640625,0.027595072620042942,-0.27666609030975287,0.07639843498662312
1789998055249251000,4.0142509765625,-0.01703257202907846,-0.2834428174360062,0.08985465170367386
1789998055259322000,4.024322021484375,0.013605883149519655,-0.2666279838699055,0.13055979622198952
1789998055269393200,4.03439306640625,0.06005003919651451,-0.23283511360805817,0.0901085201849668
1789998055279464200,4.044464111328125,0.05616813208563864,-0.1959906423556086,-0.02956279042452893
1789998055289535200,4.05453515625,0.05170074249680748,-0.19773152731811372,-0.024936602347472126
1789998055299606000,4.06460595703125,0.06463609338204898,-0.1960107731273413,0.053451584227257216
1789998055309677000,4.074677001953125,0.09061213386017061,-0.17568942661195905,0.04299483716259729
1789998055319747800,4.084747802734375,0.1363976570264836,-0.13913497280959464,-0.0590408126767836
1789998055329819000,4.09481884765625,0.15771512139268581,-0.10940988814810333,-0.015008857944532945
1789998055339890000,4.104889892578125,0.15933246155795433,-0.098327407107524,0.009118203889278633
1789998055349961000,4.1149609375,0.20251756380199132,-0.08234706110392294,-0.09681047917679232
1789998055360032000,4.125031982421875,0.20735415337999247,-0.04571183466031569,0.00747065398594394
1789998055370103000,4.13510302734375,0.18229502290129837,-0.03142930331776307,0.034631291738853535
1789998055380173800,4.145173828125,0.1471949525616426,-0.021835610002225624,-0.051117829828378585
1789998055390244900,4.155244873046875,0.153434745665095,0.018051781153282157,0.04109361500732168
1789998055400316000,4.16531591796875,0.173696838398795,0.010984549597393629,0.0193893853361408
1789998055410386200,4.17538623046875,0.19020442789893888,0.0022435237240124003,-0.03300685142935425
1789998055420457200,4.185457275390625,0.22113420663646258,0.026146282128719795,0.10166476143489801
1789998055430528000,4.195528076171875,0.23168942307271267,0.035786109795957886,0.086293701558585
1789998055440599000,4.20559912109375,0.22761520677479327,0.0478513610515156,-0.004307566440606341
1789998055450670000,4.215670166015625,0.20235539032673258,0.05214770747099724,0.04257603918636409
1789998055460741000,4.2257412109375,0.1699937207039198,0.017152812652226457,0.0756074251629254
1789998055470812200,4.235812255859375,0.12090197122970132,-0.02337095046101402,0.060823834512864876
1789998055480883200,4.24588330078125,0.08639916492763475,-0.0658801167122655,0.02148288035275925
1789998055490954000,4.2559541015625,0.08403115639922867,-0.13684868355599666,-0.012155572641956226
1789998055501025000,4.26602490234375,0.07637848113044274,-0.1731963303063843,0.03679241088451161
1789998055511096000,4.276095947265625,0.12344683164490647,-0.20253541244799794,0.07685861848302164
1789998055521167000,4.2861669921875,0.15218701991062736,-0.20821412194702765,0.09073222353231869
1789998055531238100,4.296238037109375,0.15068590014835737,-0.20205704179206974,0.028213968170977786
1789998055541309200,4.30630908203125,0.0833103725132906,-0.22545122767549483,0.01234856454268382
1789998055551380000,4.3163798828125,0.030943413966160665,-0.26349812135641953,-0.0099516075938126
1789998055561451000,4.326450927734375,-0.029947481866822678,-0.28352190346992856,0.05586826048318375
1789998055571522000,4.33652197265625,-0.037492783495990424,-0.29010951940468477,0.03184705101960919
1789998055581593000,4.346593017578125,0.02611962020295033,-0.31202544480550615,0.0004820051106341026
1789998055591664000,4.3566640625,0.0447116571750923,-0.3050717864982171,0.09247142350686378
1789998055601735200,4.366735107421875,0.11278277737619719,-0.2935459052413362,0.01812237210984425
1789998055611806000,4.376805908203125,0.18567441255417366,-0.2669089867676128,0.038321006052186586
1789998055621877000,4.386876953125,0.18628229943461827,-0.24899575670235527,0.008798863376028936
1789998055631948000,4.396947998046875,0.13990083214239263,-0.2573933095609992,-0.052376802161549475
1789998055642018000,4.40701806640625,0.137439481347421,-0.2622893054277354,-0.04231489390653303
1789998055652089000,4.417089111328125,0.13181512303615842,-0.23396976350568086,0.05381534174857465
1789998055662160000,4.427159912109375,0.1620492935750272,-0.23244074942149,0.07549424799660831
1789998055672231000,4.43723095703125,0.21699154702511267,-0.1985952629956885,0.0885446119650109
1789998055682302000,4.447302001953125,0.21771939756311703,-0.1556516776187928,0.009431857548826732
1789998055692373000,4.457373046875,0.23945213367741222,-0.13587707614314834,-0.027077071298774485
1789998055702444000,4.467444091796875,0.2841495857316783,-0.12238141948579229,0.014857246190389533
1789998055712515000,4.47751513671875,0.3553099218656705,-0.0804955163055842,0.1312381593882613
1789998055722585900,4.4875859375,0.3695924301999821,-0.03670145908305559,0.05247492347154372
1789998055732657000,4.497656982421875,0.3685398818065109,-0.0033697965100588636,0.02083110026816145
1789998055742728000,4.50772802734375,0.32570982134652493,0.038069975137147896,0.04000628061682615
1789998055752799000,4.517799072265625,0.31637978348311074,0.08554448307433114,-0.08315484992817376
1789998055762870000,4.5278701171875,0.35737008063580133,0.1434191248478947,-0.014769133252455685
1789998055772941000,4.537941162109375,0.36289097063199843,0.1840121882982802,0.0008636650098859684
1789998055783011800,4.54801171875,0.3778090768818263,0.22687486384794417,0.015068904560343486
1789998055793083000,4.558082763671875,0.3964312878226076,0.29228953914517786,0.05419458732765097
1789998055803154000,4.56815380859375,0.39588777755081034,0.35475606530147996,-0.0032429667643298615
1789998055813225000,4.578224853515625,0.4161907466586262,0.4164697797377247,-0.08655753681568115
1789998055823296000,4.5882958984375,0.4198367609721971,0.484006298436405,-0.05685160889300677
1789998055833367000,4.598366943359375,0.42877636992174095,0.5597908277817587,-0.05639588967206314
1789998055843437800,4.608437744140625,0.43744378207572826,0.6036796676147056,-0.04549894553158253
1789998055853508000,4.618508056640625,0.4583374297223784,0.6516284900006772,-0.00289165726608198
1789998055863579100,4.6285791015625,0.4562918167096044,0.7346098294206145,-0.053555265628074986
1789998055873650200,4.638650146484375,0.46216608735179027,0.8031344992463096,-0.1355017120722283
1789998055883721200,4.64872119140625,0.4879196456117358,0.8261596338994005,-0.13697594049272704
1789998055893792000,4.6587919921875,0.5316177216414502,0.8454886590506207,-0.07904614241660415
1789998055903863000,4.668863037109375,0.5281879690007844,0.8634038212139551,0.004490983756301242
1789998055913934000,4.67893408203125,0.509216889626874,0.8321791828447345,-0.02211302060599585
1789998055924005000,4.689005126953125,0.5269549589641073,0.8208719562103823,-0.06467986241797287
1789998055934076200,4.699076171875,0.5007043198482466,0.808597672214459,0.006338368372769107
1789998055944147200,4.709147216796875,0.4559238059815748,0.7778723666610835,-0.05499960441242264
1789998055954218000,4.719218017578125,0.41077172765813963,0.7256228196229736,-0.10400651023431236
1789998055964289000,4.7292890625,0.37635506838821653,0.6383812109610628,-0.0038966597179979
1789998055974360000,4.739360107421875,0.3417806245625454,0.5534474613429053,0.018419590827685038
1789998055984431000,4.74943115234375,0.3016840081847326,0.49868944264441706,0.011601364762581529
1789998055994502100,4.759502197265625,0.185073499719321,0.42775379107514716,0.06245357171691843
1789998056004573200,4.7695732421875,0.08906082218459463,0.3309230113098876,-0.006159655586959099
1789998056014644000,4.77964404296875,0.014138943679779751,0.24254608563977736,-0.09364172841725896
1789998056024715000,4.789715087890625,-0.03672536859208249,0.16736087426334476,0.012948472738256486
1789998056034786000,4.7997861328125,-0.05246034185612991,0.07126395636193866,0.07283145305087162
1789998056044857000,4.809857177734375,-0.10804190697504844,-0.04165314094571115,-0.002976349655902471
1789998056054928100,4.81992822265625,-0.1621700716550386,-0.10080827825498866,0.026970775818324612
1789998056064998000,4.829997802734375,-0.1685412575807844,-0.1642506431930975,0.15026129964539842
1789998056075069000,4.84006884765625,-0.2273462007896398,-0.24612220325897713,0.03876684221522494
1789998056085140000,4.850139892578125,-0.3133371938260514,-0.34052250475171014,0.050777428774393195
1789998056095211000,4.8602109375,-0.3717453709747357,-0.39528567974006423,0.03549472390059096
1789998056105282000,4.870281982421875,-0.4067468591408257,-0.4339944034995765,-0.03047193065882821
1789998056115353000,4.88035302734375,-0.48115671344835753,-0.4828516066617475,0.06313283049767425
1789998056125423900,4.890423828125,-0.460184675202874,-0.48985377592013535,0.13590633630178295
1789998056135495000,4.900494873046875,-0.42088035323197925,-0.5037643900802146,0.17209720464057165
1789998056145566000,4.91056591796875,-0.41329775858775714,-0.5654100336616872,0.16475345641605404
1789998056155637000,4.920636962890625,-0.35217855567686746,-0.612396765199866,0.0790540028886408
1789998056165708000,4.9307080078125,-0.33381420660940675,-0.6337267981021977,0.04731468201786723
1789998056175779000,4.940779052734375,-0.31837359701579304,-0.681475868858527,-0.03507967898701917
1789998056185849900,4.950849853515625,-0.2847714690093745,-0.6494097702580648,-0.0425002171328595
1789998056195921000,4.9609208984375,-0.3145894209846262,-0.5945893557251535,-0.09763352882515157
1789998056205992000,4.970991943359375,-0.30079415426985323,-0.564122227762689,0.00203746482348553
1789998056216063000,4.98106298828125,-0.3233921530068604,-0.5290436942413534,0.05394174564193851
1789998056226134000,4.991134033203125,-0.2795498370599418,-0.5202497494945869,0.07241653051574846
1789998056236205000,5.001205078125,-0.2162929241795658,-0.49011021582855335,0.1157174297375948
1789998056246275800,5.01127587890625,-0.14125201604551693,-0.4021900376039041,0.06875114597789943
1789998056256347000,5.021346923828125,-0.04721935354432708,-0.33104623699912517,0.0181367262517342
1789998056266417200,5.031417236328125,0.06747113249032617,-0.2599353076338389,-0.05202391754023949
1789998056276488200,5.04148828125,0.12728147440878468,-0.17248027043631117,-0.08380516454161872
1789998056286559200,5.051559326171875,0.1459007789546597,-0.12336209899935029,-0.00642592159412712
1789998056296630000,5.061630126953125,0.16161195392598274,-0.06751892207955053,0.0320959330834123
1789998056306701000,5.071701171875,0.1560280159398711,0.019003842537820493,-0.015286555439298456
1789998056316772000,5.081772216796875,0.14103220911501227,0.049285982640431915,0.01572625998194725
1789998056326843100,5.091843017578125,0.15114790407652617,0.07521923435586916,0.0176464162652337
1789998056336914200,5.1019140625,0.19367052143925303,0.12866783107049715,-0.08981337365833202
1789998056346985200,5.111985107421875,0.24491443297855237,0.17320360905310814,-0.03287214300172995
1789998056357056300,5.12205615234375,0.3310943388687912,0.23218838436293074,-0.040087293180854786
1789998056367127300,5.132127197265625,0.3874346067768885,0.2926933802896583,-0.05205819856030882
1789998056377198300,5.1421982421875,0.4448530882356011,0.33621179746682267,0.04277047647750053
1789998056387269400,5.152269287109375,0.4823901776241333,0.40923063807895055,-0.03308520934761084
1789998056397340400,5.16234033203125,0.4769888406497938,0.4739458919976206,-0.08771091172254734
1789998056407411500,5.172411376953125,0.48379314082960273,0.46815125272469116,-0.022945677562913065
1789998056417482500,5.182482421875,0.48792226959482615,0.49909522334022854,-0.023154555434010432
1789998056427553300,5.19255322265625,0.48712401900198915,0.5637413259746055,-0.03203640011030282
1789998056437624300,5.202624267578125,0.5009913703629836,0.6031451763535755,-0.030172026056133127
1789998056447695400,5.2126953125,0.5228717370141922,0.6574957883750514,-0.08526308170309507
1789998056457766400,5.222766357421875,0.5326244920372515,0.7058791858991239,-0.11838875697852813
1789998056467836400,5.23283642578125,0.5407506516073826,0.7249277364089107,-0.05055800927430643
1789998056477907200,5.2429072265625,0.5541717243463983,0.7563408210513549,-0.10045763068215358
1789998056487978200,5.252978271484375,0.5546516813120571,0.7760296857463322,-0.07299763608774719
1789998056498049300,5.26304931640625,0.5701620572617058,0.7688802509992787,-0.0037668107678525335
1789998056508120300,5.273120361328125,0.5235775584596547,0.7600083071881752,-0.04438260709415408
1789998056518191400,5.28319140625,0.45134070510278457,0.7627262316151867,0.019370757975649876
1789998056528262400,5.293262451171875,0.3834410709454045,0.7809746312525421,-0.022587392260692233
1789998056538333200,5.303333251953125,0.3031310620070488,0.7572280610143176,-0.15679967231592162
1789998056548404200,5.313404296875,0.28653597045957874,0.7254371212318739,-0.0891520131312768
1789998056558475300,5.323475341796875,0.3111003408201292,0.7150174275452608,0.0005257885311304829
1789998056568546300,5.33354638671875,0.3189310776569502,0.7029759207109378,0.006168043571624085
1789998056578617300,5.343617431640625,0.32444846601364535,0.6593948469375105,-0.06048360815672458
1789998056588688400,5.3536884765625,0.27189730827418607,0.6320095546144097,-0.033227445772093786
1789998056598759200,5.36375927734375,0.22115615675597977,0.5833700262161982,-0.06519010083581624
1789998056608830200,5.373830322265625,0.1945164484867955,0.5489230969803374,0.027594785642804445
1789998056618901200,5.3839013671875,0.14095813291538378,0.5478714984010319,0.05429431286500045
1789998056628972300,5.39397216796875,0.05977580786548701,0.4834282389008218,-0.017211435193358677
1789998056639043300,5.404043212890625,0.02996227877237905,0.4504538370539464,-0.025785698661496066
1789998056649114400,5.4141142578125,0.03725368714772365,0.4147646715865783,0.08954079736175036
1789998056659184000,5.42418408203125,0.013989237496349336,0.38714365186249267,0.08032902620473215
1789998056669255200,5.434255126953125,-0.022957875011553004,0.38670318479919136,0.036479505207895085
1789998056679326200,5.444326171875,0.01047645341977763,0.3612620400352392,0.08689528648528733
1789998056689397200,5.454397216796875,0.0550934905251447,0.3853066316791213,0.1265270133225523
1789998056699468300,5.46446826171875,0.03463161219233328,0.3776862516565111,0.08074744459910708
1789998056709539000,5.4745390625,0.013825727381461534,0.33603262471090783,0.16760597512781272
1789998056719610000,5.484610107421875,-0.009648663855168679,0.3222859331018439,0.18045784201638687
1789998056729681200,5.49468115234375,-0.07213586243347055,0.3089212049570932,0.12043876897882574
1789998056739752200,5.504752197265625,-0.11455516438605857,0.32065962191649094,0.1687857329272929
1789998056749823200,5.5148232421875,-0.17813443045930302,0.31443139748843046,0.0411141568191448
1789998056759894300,5.524894287109375,-0.22049944278044645,0.286688762783312,0.017401168242818718
1789998056769965000,5.534965087890625,-0.24486904570151058,0.2579277035260326,0.11760880032724391
1789998056780036000,5.5450361328125,-0.25059526215211264,0.2065986862435639,0.17735493788995313
1789998056790107100,5.555107177734375,-0.22104823572951815,0.17391752488596446,0.10492873975975948
1789998056800178200,5.56517822265625,-0.22791320031745832,0.1627787710709824,0.021400227832718412
1789998056810249200,5.575249267578125,-0.21728512549445778,0.13970133979886776,0.06355706836773078
1789998056820320300,5.5853203125,-0.18957603586766358,0.11732478099949642,0.1105301389432023
1789998056830390300,5.595390380859375,-0.19505066360030843,0.08479101988444288,0.08144175458335663
1789998056840461300,5.60546142578125,-0.23012569521927137,0.05447039044302986,0.16849888495091522
1789998056850532400,5.615532470703125,-0.26789940203690954,0.011438118653369704,0.16590996536376848
1789998056860603400,5.625603271484375,-0.3068799771072319,-0.023468100755617508,0.13719590249595762
1789998056870674400,5.63567431640625,-0.33178586197877713,-0.028553462759501044,0.13827093682904248
1789998056880745200,5.6457451171875,-0.337131249907282,-0.03606138238694423,0.020836468932603564
1789998056890816300,5.655816162109375,-0.3116828744079379,-0.009730080366462265,-0.02619100830424605
1789998056900887300,5.66588720703125,-0.26744864389664214,0.02814980890323802,0.08626295634910526
1789998056910958300,5.675958251953125,-0.2504573075229204,-0.0037545047305406723,0.13853545926414074
1789998056921029400,5.686029296875,-0.266592614955084,-0.021849664375992874,0.15962645116773427
1789998056931100400,5.696100341796875,-0.338760964383979,-0.04470454822169088,0.11607288949958071
1789998056941171200,5.706171142578125,-0.3759982140260245,-0.05836485059867871,0.02000599127458558
1789998056951242200,5.7162421875,-0.40733685101248873,-0.09155549026824636,-0.01438224531582502
1789998056961313300,5.726313232421875,-0.4201315955797414,-0.11917852243758838,-0.015108780803927213
1789998056971384300,5.73638427734375,-0.38954186738406177,-0.13935930181205292,-0.010776223401003098
1789998056981455400,5.746455322265625,-0.4006777753230065,-0.19036262423122702,0.06803374387235418
1789998056991526400,5.7565263671875,-0.40600582518034406,-0.23698856254463224,0.1693622461950514
1789998057001597200,5.76659716796875,-0.3834289206759748,-0.3077262080050091,0.11123569405675299
1789998057011667200,5.776667236328125,-0.4284955853690118,-0.3622031559569756,0.04405933190313355
1789998057021738200,5.78673828125,-0.4630559857536508,-0.4154679140700099,0.09084312853673618
1789998057031809300,5.796809326171875,-0.500461318571137,-0.4632927867162896,0.0855629562816991
1789998057041880300,5.80688037109375,-0.5189662074032456,-0.4961160623319334,0.01281479936895963
1789998057051951000,5.816951171875,-0.5225682614913915,-0.5354013414138479,0.04023245451070909
1789998057062022100,5.827022216796875,-0.5775205086327817,-0.5826372745529489,-0.008802485037773275
1789998057072093200,5.83709326171875,-0.6067859916839023,-0.612924247711104,-0.042403841196835566
1789998057082164200,5.847164306640625,-0.6059704555693446,-0.6316924928319478,-0.11196710962349897
1789998057092235300,5.8572353515625,-0.5807560445937869,-0.6201788348206504,-0.12638500650758008
1789998057102306300,5.867306396484375,-0.5408188008099002,-0.6175161454959032,0.015713215774849996
1789998057112377000,5.877377197265625,-0.46107590553714073,-0.6498933688774714,0.07276628855850989
1789998057122448100,5.8874482421875,-0.4475553003591572,-0.6694399008451569,-0.04391282902151031
1789998057132519200,5.897519287109375,-0.4554481747238288,-0.7202932284321661,0.049820286142721694
1789998057142590200,5.907590087890625,-0.466957270826009,-0.7490735242955349,0.032358117314414445
1789998057152661200,5.9176611328125,-0.47960676841930316,-0.7058285281266674,0.0019721179745730787
1789998057162732300,5.927732177734375,-0.4613265475940499,-0.729990194881474,0.12157542461085091
1789998057172803000,5.937802978515625,-0.4649914945659586,-0.7728483048865291,0.05275561129458705
1789998057182873300,5.947873291015625,-0.4277415838299129,-0.7087570491420907,0.009536422665217705
1789998057192944400,5.9579443359375,-0.3517601148285008,-0.6962896728495429,0.07755837927688881
1789998057203015400,5.968015380859375,-0.3671115189992032,-0.7354655172396386,0.1347403197692291
1789998057213086500,5.97808642578125,-0.35217662315588794,-0.7376093580887919,0.03278307108543866
1789998057223157200,5.9881572265625,-0.3095488402119382,-0.7030206371827438,-0.04203061916103089
1789998057233228300,5.998228271484375,-0.28804126940492847,-0.6973534767110933,0.016744401304095213
1789998057243299300,6.00829931640625,-0.3111787024108361,-0.7008397753172847,0.0006007248141016301
1789998057253370400,6.018370361328125,-0.2809423601401918,-0.6393483885227303,-0.026399691221043572
1789998057263441400,6.02844140625,-0.1853533024085534,-0.5843475745367098,0.08915529872350944
1789998057273512400,6.038512451171875,-0.18389754905747566,-0.6034213231306891,0.011231833297453954
1789998057283583200,6.048583251953125,-0.1787327612988757,-0.6164038886552607,-0.018045295407926643
1789998057293654300,6.058654296875,-0.14901739896137792,-0.5946238532836486,0.08084625940950313
1789998057303725300,6.068725341796875,-0.09200040944052604,-0.5837708285061979,0.13598831351825888
1789998057313796400,6.07879638671875,-0.055392454223955695,-0.5335607045353088,0.09646834325261285
1789998057323867000,6.088866943359375,-0.018956750517706927,-0.47401029507624987,-0.0061415890788327765
1789998057333938000,6.09893798828125,-0.013666405056381404,-0.4886460326737873,0.019168116788909666
1789998057344007700,6.109007568359375,0.025711032933664647,-0.4432080869313912,0.015253960288986181
1789998057354078700,6.11907861328125,0.1252525056701515,-0.37016834823694955,0.03117868028723018
1789998057364149800,6.129149658203125,0.1522986335404173,-0.32250801377353366,0.04699904956265524
1789998057374220800,6.139220703125,0.14582263086906985,-0.29363623969987623,-0.04180773932875966
1789998057384291800,6.149291748046875,0.1975793133452443,-0.2429455821122683,-0.09021549453651533
1789998057394362600,6.159362548828125,0.25841894525976866,-0.14457302188000987,0.002144390156394865
1789998057404433700,6.16943359375,0.2645312189068411,-0.07199258643187464,-0.08007254987595579
1789998057414504700,6.179504638671875,0.273269920669375,-0.03853640562441592,-0.08202464891072123
1789998057424575700,6.18957568359375,0.29054218526643977,0.010715557396836217,-0.06699466793199362
1789998057434646800,6.199646728515625,0.3130055780664406,0.06583808053056561,-0.11380530020408978
1789998057444717800,6.2097177734375,0.3477113332635316,0.11995237959865522,-0.010230714720220385
1789998057454788600,6.21978857421875,0.35828791076291283,0.17411130600533414,-0.04567486814936653
1789998057464859600,6.229859619140625,0.38737808845266314,0.21630753613824616,-0.09894715963403761
1789998057474930700,6.2399306640625,0.46996871821324143,0.23906863193047936,-0.003008008120935021
1789998057485001700,6.250001708984375,0.519449686633319,0.28403873762442156,0.02611747470417385
1789998057495072800,6.26007275390625,0.5525927835483533,0.3310971665202437,0.04219513932997076
1789998057505143800,6.270143798828125,0.553118403615008,0.3556893849304449,-0.03641093565591078
1789998057515213800,6.2802138671875,0.5186282717527203,0.3695086129635195,-0.15071823584417793
1789998057525284900,6.290284912109375,0.4937610900712173,0.360940904791689,-0.19549741049681923
1789998057535356000,6.30035595703125,0.5038308278296959,0.3318392065201742,-0.15981969784072542
1789998057545427000,6.310427001953125,0.5059455766639286,0.3807133945392616,-0.01840961145088236
1789998057555498000,6.320498046875,0.48706978896676245,0.4063685928718494,0.05511325276858111
1789998057565568800,6.33056884765625,0.5366892457344317,0.44196401263972807,-0.01743703555376143
1789998057575639800,6.340639892578125,0.5351589867201068,0.540540222451403,-0.134739680869458
1789998057585710800,6.3507109375,0.49627537286478757,0.5449522018110483,-0.16213664561281796
1789998057595782000,6.360781982421875,0.5344758586505651,0.5287623181779723,-0.131125574604226
1789998057605853000,6.37085302734375,0.6213182072079502,0.5775894998673495,0.03934644730346808
1789998057615924000,6.380924072265625,0.6474442256770667,0.6067331324635,0.19500685646937252
1789998057625994800,6.390994873046875,0.5382664679611687,0.6220200661373253,0.015078042420342065
1789998057636065800,6.401065673828125,0.434919130172896,0.5970102858028282,-0.17862338580028916
1789998057646136800,6.41113671875,0.3476973158418212,0.5482337755433205,-0.09605809642771306
1789998057656208000,6.421207763671875,0.34708093615237845,0.5484313298994584,-0.02919055620527309
1789998057666278000,6.43127783203125,0.3464704131526767,0.5497172895422118,-0.02162156512621838
1789998057676348700,6.4413486328125,0.36972661736933854,0.5359318704192034,-0.09673971534161074
1789998057686419700,6.451419677734375,0.40618579125264814,0.5253008289874532,-0.08652447116557545
1789998057696490800,6.46149072265625,0.37634474765241205,0.5383818887713829,-0.031432633420748736
1789998057706561800,6.471561767578125,0.3297534378101445,0.4926687290714819,0.0789858287212413
1789998057716632800,6.4816328125,0.3202549590287705,0.5078807382724454,0.1678387804009582
1789998057726703900,6.491703857421875,0.3051014703805018,0.5049027889134204,0.027604713319922352
1789998057736774700,6.501774658203125,0.3194556472968353,0.47496449342436853,-0.04773230491380255
1789998057746845700,6.511845703125,0.2861029668705167,0.4283360980284166,-0.006043078001394233
1789998057756916700,6.521916748046875,0.2755530635540018,0.41809960487160985,0.0735734403135962
1789998057766987800,6.53198779296875,0.27237838347971666,0.41953823393370543,0.06654147835488781
1789998057777058800,6.542058837890625,0.2946461118945071,0.45055491122321223,0.0011666599187535342
1789998057787129900,6.5521298828125,0.2737968620651175,0.48034834118768877,-0.013606672651838488
1789998057797200600,6.56220068359375,0.23959034268776808,0.47183437314984245,-0.08534590518372787
1789998057807271700,6.572271728515625,0.24330978649259447,0.46571542641221503,0.02743351036701659
1789998057817341700,6.582341796875,0.26573518981261013,0.48001311535949015,0.06806448324280073
1789998057827412700,6.592412841796875,0.20861891202130772,0.508910460414637,0.011183914369497087
1789998057837483800,6.60248388671875,0.140685339990093,0.5404672557354414,-0.0018452457239023837
1789998057847554600,6.612554443359375,0.12219330138611853,0.5500040147482854,-0.0368276460264753
1789998057857625600,6.62262548828125,0.10551541708060039,0.5330972645660987,-0.06305872980395408
1789998057867696600,6.632696533203125,0.13023566077015247,0.5296330426876373,-0.04062447802404174
1789998057877767700,6.642767578125,0.16745958172138975,0.5223145164973799,0.052566856330945336
1789998057887838700,6.652838623046875,0.16859702521053518,0.5126245221537398,0.03258844336919438
1789998057897909800,6.66290966796875,0.13937306014073195,0.47528421100290547,-0.07913037145553808
1789998057907980800,6.672980712890625,0.1263940336243437,0.4543402743725143,-0.09000911548235638
1789998057918051800,6.6830517578125,0.09998343312856563,0.4161682274543843,-0.048753900861846285
1789998057928123000,6.693122802734375,0.06267132903603428,0.35179347846926357,-0.012008018084124392
1789998057938194000,6.70319384765625,0.03456676235524808,0.30800788701951753,0.06722993979961445
1789998057948265000,6.713264892578125,0.006247819624868083,0.28146164657430733,0.13405293108261063
1789998057958336000,6.7233359375,-0.03677260057972148,0.2663671182946234,0.08925902468534057
1789998057968406800,6.73340673828125,-0.12944738474159634,0.21248981465482641,0.012488456025753334
1789998057978476800,6.743476806640625,-0.21018580753410512,0.12630249902157176,0.07222054284505933
1789998057988547800,6.7535478515625,-0.2412188644233454,0.06878111908553525,0.16462479777052821
1789998057998619000,6.763618896484375,-0.2352079922592367,0.03298402595071518,0.12513521912352324
1789998058008690000,6.77368994140625,-0.23500026561385962,-0.024784328921394427,0.13683114592644371
1789998058018760700,6.7837607421875,-0.21981896475896615,-0.050264647663319534,0.1109134952187978
1789998058028831700,6.793831787109375,-0.20646343604497816,-0.06930177949102057,0.08500080743557484
1789998058038902800,6.80390283203125,-0.1859127883517417,-0.07402693907157404,0.11763826956092635
1789998058048973800,6.813973876953125,-0.18476945009899892,-0.08176122101346393,0.07843870567943927
1789998058059044900,6.824044921875,-0.25925472115666476,-0.08971335261867636,0.048447336172294554
1789998058069116000,6.834115966796875,-0.2767517779202188,-0.11895633709459426,0.07140078855694604
1789998058079186700,6.844186767578125,-0.2554515817845835,-0.12942299326042309,0.07225363926176398
1789998058089257700,6.8542578125,-0.23304065339259875,-0.14291905777420857,-0.007718984948295508
1789998058099328800,6.864328857421875,-0.2065804994056355,-0.14835131327189607,-0.04536097178872346
1789998058109399800,6.87439990234375,-0.18640786875950088,-0.1264289991002579,0.0013880734803351858
1789998058119469800,6.8844697265625,-0.1469051572047193,-0.129747345183132,0.14596125161542461
1789998058129540600,6.89454052734375,-0.16399976231154126,-0.13766430925539122,0.1231702818566411
1789998058139611600,6.904611572265625,-0.15778010828441927,-0.12066134827709757,0.11005609198798068
1789998058149682700,6.9146826171875,-0.1387058518808449,-0.112197841082469,0.1114745852636858
1789998058159753700,6.924753662109375,-0.09369942680836016,-0.08162182316996124,0.2600711064724418
1789998058169824800,6.93482470703125,-0.075867606794826,-0.09015345579925485,0.2692842352332912
1789998058179895800,6.944895751953125,-0.07806442938576301,-0.10408875131508412,0.15573567989108258
1789998058189966600,6.954966552734375,-0.056117119485083425,-0.08402700006846203,0.05887180858682943
1789998058200037600,6.96503759765625,-0.04140836804815335,-0.06683062080766586,-0.03464965245576156
1789998058210108700,6.975108642578125,-0.03123788192404037,-0.05554647364024851,-0.047578500304624245
1789998058220179700,6.9851796875,-0.045088967806622006,-0.02825780948206818,-0.02185579975622991
1789998058230250800,6.995250732421875,-0.09246975734879695,-0.02338759761455479,-0.10003841309693876
1789998058240321800,7.00532177734375,-0.07711296954769901,0.014970203465378725,-0.1191529582472316
1789998058250392600,7.015392578125,-0.08691068163561672,0.06640806522531914,-0.08348362821773594
1789998058260463600,7.025463623046875,-0.04100451079627798,0.1214367901420412,0.005584219817058514
1789998058270534000,7.035533935546875,-0.011354093243753294,0.16278605427597911,-0.010377564072341514
1789998058280605000,7.04560498046875,0.022313968734207084,0.21161217398820384,-0.07862354686987595
1789998058290676000,7.055676025390625,0.0689313142834025,0.2795323411555052,-0.16060273795478913
1789998058300746800,7.065746826171875,0.08186523166820565,0.2961068549487304,-0.08199601915456887
1789998058310817800,7.07581787109375,0.10870860464580345,0.312221314540622,0.036962564695292056
1789998058320889600,7.0858896484375,0.07834192052559684,0.3332531466812982,-0.01851354486350389
1789998058330960600,7.095960693359375,0.08131367077469974,0.36540614576454833,-0.03985364839048071
1789998058341031400,7.106031494140625,0.06256653579222052,0.37185055750220336,-0.058188666196770794
1789998058351102500,7.1161025390625,0.05046780962787512,0.364715502879445,-0.035356440788476544
1789998058361173500,7.126173583984375,0.08821430300415319,0.35901875486784035,0.0295594479373
1789998058371244500,7.13624462890625,0.06213067426984489,0.3738790859516823,0.06084081872730621
1789998058381315600,7.146315673828125,0.04956230596974787,0.34972059997859894,-0.0009320800754215833
1789998058391386600,7.15638671875,0.015856885079098562,0.34064824432392493,-0.036151166234388264
1789998058401457700,7.166457763671875,-0.012907860299785598,0.31401639387119823,0.026041694819327787
1789998058411527700,7.176527587890625,0.017977822064651743,0.284617351564814,0.06635087149389013
1789998058421598700,7.1865986328125,-0.0008549431858241614,0.3091385023740075,0.02301030267288608
1789998058431669500,7.19666943359375,0.014515876981719546,0.31761588912011346,-0.06659569104550217
1789998058441740500,7.206740478515625,0.014809063426291878,0.30112119390241465,-0.07947635952877997
1789998058451811600,7.2168115234375,-0.03470977667964464,0.28157661810468937,-0.05450193668575576
1789998058461882600,7.226882568359375,-0.10821337741666844,0.24501975256745412,-0.040670953163041
1789998058471953700,7.23695361328125,-0.1378064500812913,0.19454019047888477,-0.14915088573429017
1789998058482024700,7.247024658203125,-0.13425447961386672,0.14672997652403982,-0.08063467950681578
1789998058492095500,7.257095458984375,-0.15703473236315807,0.10869182009391672,0.11406800564615711
1789998058502166500,7.26716650390625,-0.21358477461860836,0.008665248013472456,0.05678205351162855
1789998058512237600,7.277237548828125,-0.25213504989837787,-0.05647577366392232,-0.009584177908355194
1789998058522308600,7.28730859375,-0.2838976697579888,-0.08313632808028507,0.04033453788094637
1789998058532379600,7.297379638671875,-0.3073089114133743,-0.15283411754365067,0.05087317954663537
1789998058542450700,7.30745068359375,-0.3009174547281935,-0.21531333386318563,0.05983555565419342
1789998058552520400,7.3175205078125,-0.3236011366060065,-0.2666417325523868,0.06192824929496078
1789998058562591500,7.327591552734375,-0.3707353791956056,-0.31734488775958664,0.046268088102837536
1789998058572662500,7.33766259765625,-0.384015278548788,-0.34118284790759873,0.09623862573929505
1789998058582733600,7.347733642578125,-0.3675176242934944,-0.35176189953221026,0.11738465191115427
1789998058592804600,7.3578046875,-0.38214834145200766,-0.3896125823981463,0.10790997308870033
1789998058602875400,7.36787548828125,-0.4144032135906026,-0.4097474941065417,0.10492568805582615
1789998058612946400,7.377946533203125,-0.40475457451908103,-0.4245987627038175,0.11216542967220444
1789998058623017500,7.388017578125,-0.36082498743338515,-0.4406181024426977,0.06418043435398535
1789998058633088500,7.398088623046875,-0.35309694600373664,-0.46152066656906626,0.04905022486511285
1789998058643159600,7.40815966796875,-0.3703654387343833,-0.47980557476083274,0.037072917575622207
1789998058653230600,7.418230712890625,-0.3347883632331309,-0.4864397138684168,0.01887383268335504
1789998058663301400,7.42830126953125,-0.3229684990110766,-0.47350046230515963,0.0806708905005926
1789998058673372400,7.438372314453125,-0.3554207305598147,-0.4746210764855338,-0.03107467314992558
1789998058683442700,7.448442626953125,-0.34675962902932816,-0.42241542461691867,0.0864588499162074
1789998058693513700,7.458513671875,-0.3172272951774723,-0.4185942400026419,0.05856066150340754
1789998058703584800,7.468584716796875,-0.2848163005773133,-0.4235923038310309,-0.00923574157320857
1789998058713655600,7.478655517578125,-0.22196391401442608,-0.39459344771059013,-0.06238126231262073
1789998058723726600,7.4887265625,-0.1706429976875285,-0.3519696592754379,-0.018211890331969814
1789998058733797600,7.498797607421875,-0.10908088219558784,-0.30044110756854187,0.031837968658834585
1789998058743868700,7.50886865234375,-0.11596982714262191,-0.2648661895579996,0.01707293057504171
1789998058753939700,7.518939697265625,-0.17361609663766794,-0.2791401031489406,-0.015127347672724967
1789998058764010800,7.5290107421875,-0.13725371656909355,-0.28171674893364534,-0.014913157523541614
1789998058774081500,7.53908154296875,-0.10042468610877546,-0.2810824712607856,-0.07165769557763577
1789998058784152600,7.549152587890625,-0.036346369170850344,-0.27283102339914683,-0.02007868351268083
1789998058794223600,7.5592236328125,0.02422454810125969,-0.26780701090572534,0.06722070875602638
1789998058804294700,7.569294677734375,0.03994776408169135,-0.23751784844814477,0.1204217810855093
1789998058814365700,7.57936572265625,0.059823002111327406,-0.21914404220231154,0.0493731541549691
1789998058824435500,7.589435546875,0.0921990266636299,-0.2044296891408594,0.09181010926197632
1789998058834506500,7.599506591796875,0.06358581010608617,-0.19816338930280358,0.04721416718254439
1789998058844577500,7.60957763671875,0.044128201305250095,-0.21454266293309834,-0.00472551456316365
1789998058854648600,7.619648681640625,0.05396862206037015,-0.20526611931942718,0.03428927840630891
1789998058864719600,7.6297197265625,0.04705985529747309,-0.18600760361822183,0.06686210397140267
1789998058874790700,7.639790771484375,0.05919798925269371,-0.17960312248018312,0.07395457196985368
1789998058884861400,7.649861328125,0.06767732034373049,-0.16265103865281938,-0.03786353513794319
1789998058894932500,7.659932373046875,0.09454262908128025,-0.11107554313773967,-0.03142001902276693
1789998058905003500,7.67000341796875,0.11902825299140114,-0.06857964795086857,0.03134612326015503
1789998058915074600,7.680074462890625,0.17373601692194804,-0.03584925654557944,0.04890152731029499
1789998058925145600,7.6901455078125,0.1805533257737336,0.015305503232714974,0.04723538158331163
1789998058935216600,7.700216552734375,0.19643607151546896,0.05032521782499318,0.024045643855932882
1789998058945287400,7.710287353515625,0.21175595664848715,0.08599113161062885,0.04823727457126531
1789998058955357400,7.720357421875,0.22148823195010575,0.119200133700678,0.09760732136109704
1789998058965428500,7.730428466796875,0.21072113039044654,0.14600678670126963,0.014189384936649646
1789998058975499500,7.74049951171875,0.1966664284105785,0.17211768064899008,-0.023774161955763786
1789998058985570600,7.750570556640625,0.2010255458421185,0.2103637514217125,-0.03380674847524476
1789998058995641300,7.760641357421875,0.22659036864953225,0.24071404093457496,-0.13182353941708475
1789998059005712400,7.77071240234375,0.25579190728510415,0.27567285101739925,-0.055196797826892456
1789998059015783400,7.780783447265625,0.2761740715048062,0.2848735757230271,-0.01857315751858325
1789998059025854500,7.7908544921875,0.26313557322237635,0.31180140906900977,-0.10348674844507175
1789998059035925500,7.800925537109375,0.25026100309739935,0.3245343939103183,-0.009153116702819092
1789998059045996500,7.81099658203125,0.2326388370353208,0.33778780601963676,0.05688126968897793
1789998059056067600,7.821067626953125,0.2513548878350223,0.34033567554862654,0.1479103598781179
1789998059066138600,7.831138671875,0.25984147191242224,0.35863131704127,-0.05851889568539444
1789998059076209700,7.841209716796875,0.24654859637467325,0.35409808636660084,-0.05869151845412267
1789998059086279700,7.85127978515625,0.23837061866498796,0.3378763235875589,-0.04366277936353081
1789998059096350700,7.861350830078125,0.179495540458463,0.29827054524863716,0.020093207793975856
1789998059106421500,7.87142138671875,0.19260828570196215,0.25845167697718796,0.07895351883967557
1789998059116492500,7.881492431640625,0.1606877042598642,0.256521347916619,0.010464574320081441
1789998059126563600,7.8915634765625,0.1311384181121518,0.1988361336533648,-0.08043944884895145
1789998059136634600,7.901634521484375,0.15803520379070676,0.15678948550917646,-0.158093715032324
1789998059146705700,7.91170556640625,0.1704613543171075,0.16174276885433725,-0.09267134592448158
1789998059156776700,7.921776611328125,0.19334303067738548,0.15772014378480095,-0.046719613763422776
1789998059166847500,7.931847412109375,0.19226837692305665,0.15743655721519986,-0.12527844796806947
1789998059176918500,7.94191845703125,0.17212636131882136,0.17016697502291955,-0.08438065647039127
1789998059186989600,7.951989501953125,0.14478043924598835,0.1786377893261561,-0.013663673754283689
1789998059197060600,7.962060546875,0.14797886427704365,0.19153198665037982,-0.08551575168989896
1789998059207131600,7.972131591796875,0.16511781775897466,0.2143697485684959,-0.038256989647547916
1789998059217201400,7.982201416015625,0.22083355353497167,0.24956279026202963,0.042348470855648884
1789998059227272400,7.9922724609375,0.2255800225201088,0.2791993171473619,0.021331018053452982
1789998059237343500,8.002343505859375,0.22612494245948184,0.29897161151115725,0.0265268416144263
1789998059247414500,8.01241455078125,0.198634372547699,0.3247257024068878,0.04834838464409275
1789998059257485600,8.022485595703126,0.14974304772226932,0.33585566565174185,0.0011408340447799236
1789998059267556600,8.032556640625,0.17253428267926538,0.35080547554749386,-0.012059411080458536
1789998059277627400,8.04262744140625,0.16347689705993365,0.37239870759224764,-0.02476967395109032
1789998059287698400,8.052698486328126,0.1964197572696695,0.36686431562743604,0.040751567485282573
1789998059297769500,8.06276953125,0.1695194564098024,0.39860435889589696,-0.03231586825336382
1789998059307840500,8.072840576171876,0.11553866648951704,0.3941435888614229,-0.09151373815658173
1789998059317911600,8.08291162109375,0.12673937720836306,0.3735309228662153,-0.10899941186557467
1789998059327981800,8.09298193359375,0.13471049150843992,0.38142142375708343,-0.040465004179237755
1789998059338052900,8.103052978515626,0.1419570250556303,0.40632058580483926,0.09969027436170565
1789998059348123000,8.113122802734376,0.09478941616501169,0.390270581506044,0.09262021251702338
1789998059358194000,8.12319384765625,0.0685375590604804,0.3763285710925472,0.031017734975149515
1789998059368264700,8.1332646484375,0.00920728614172054,0.35422283355273787,0.0346407838236164
1789998059378335700,8.143335693359376,-0.009373921438996742,0.3509866040792102,-0.035659771394785655
1789998059388406800,8.15340673828125,-0.025576416630347466,0.35811686943829396,-0.031012450960757526
1789998059398477800,8.163477783203126,-0.022038899821479645,0.34511021127697833,-0.01400643623834366
1789998059408548900,8.173548828125,-0.03258949671439233,0.2979982884981005,-0.012587054307789267
1789998059418620000,8.183619873046876,-0.05915603761604508,0.26638457226378753,0.07766764180460481
1789998059428690700,8.193690673828126,-0.10182689303494116,0.258262963345503,0.0937661350167572
1789998059438761700,8.20376171875,-0.10928613967594909,0.20841900704314645,0.0792062214434226
1789998059448832800,8.213832763671874,-0.09074058035116818,0.19269515527601064,0.0972424973215925
1789998059458903800,8.22390380859375,-0.09328178510143535,0.1639495906480278,0.12652752270296103
1789998059468973800,8.233973876953126,-0.12601750211429597,0.09025027846992138,0.1031377429079881
1789998059479044600,8.244044677734376,-0.1887191027136203,0.046614810346923934,0.06844148228773901
1789998059489115600,8.25411572265625,-0.19046468490613416,0.015635370657553636,-0.013114188745691101
1789998059499186700,8.264186767578124,-0.20870900422243735,-0.025573534162130353,-0.10335354831860964
1789998059509257700,8.2742578125,-0.20013266421369735,-0.027010874674934304,-0.09331172073572253
1789998059519328800,8.284328857421874,-0.13340550967425358,-0.021421916050353734,0.07431719365360748
1789998059529399800,8.29439990234375,-0.12020573541734592,-0.041823614657175406,0.1603311426669349
1789998059539470600,8.304470703125,-0.17730349212911473,-0.12330049755537631,0.06040380512213131
1789998059549541600,8.314541748046874,-0.25133032160608815,-0.168043129758391,0.05085802237618624
1789998059559612700,8.32461279296875,-0.31012711460129117,-0.18422954005139291,0.019186454046588426
1789998059569683700,8.33468359375,-0.3046495867250612,-0.22456786149031788,0.0713666089543071
1789998059579754800,8.344754638671875,-0.2906482712160197,-0.25234287169884434,0.12177171653724894
1789998059589824800,8.35482470703125,-0.3047850510504452,-0.2845959771381063,0.03030855701444947
1789998059599895800,8.364895751953124,-0.3175787432334584,-0.3556158847112923,-0.031144548227276855
1789998059609966800,8.374966796875,-0.2867698189760013,-0.332816149893088,-0.009534533032888117
1789998059620038000,8.385037841796875,-0.23218118944740976,-0.28187967480892817,0.0060451120242879085
1789998059630109000,8.39510888671875,-0.18212712276308332,-0.28290657101951794,0.07330197834831621
1789998059640180000,8.405179931640625,-0.19208957875690513,-0.3149612324717067,0.07852655994803635
1789998059650250800,8.415250732421875,-0.29012292237548065,-0.34439338645147616,-0.04164196161748894
1789998059660321800,8.42532177734375,-0.3349013038443552,-0.31911551500128776,-0.015717808566656846
1789998059670392800,8.435392822265625,-0.3070467554470991,-0.28200795067686896,0.08471266497721568
1789998059680464000,8.4454638671875,-0.27573567788117426,-0.2915027243263975,0.15047288305161347
1789998059690535000,8.455534912109375,-0.24656258273232634,-0.28089513474884964,0.07206461012067887
1789998059700606000,8.46560595703125,-0.2311815401711533,-0.21476913549968274,0.0499785317552195
1789998059710676700,8.4756767578125,-0.22832105283206144,-0.1856320579989689,-0.022608270138430663
1789998059720746800,8.485746826171875,-0.1774733719752623,-0.16585695761037442,-0.04140719047474891
1789998059730817800,8.49581787109375,-0.14102900555711664,-0.11034027880375119,-0.005070587402215839
1789998059740888800,8.505888916015625,-0.09020535951769837,-0.09925192691349778,0.130048045271995
1789998059750959900,8.5159599609375,-0.08667758112221925,-0.0826902955004152,0.08653842076531047
1789998059761030700,8.52603076171875,-0.07965635636136444,-0.055822539895125166,0.10889734015720466
1789998059771101700,8.536101806640625,-0.05471575794405184,-0.009584786703703371,0.2172494443849365
1789998059781172700,8.5461728515625,-0.07935988289782014,-0.017940604321844803,0.09631846980585708
1789998059791243800,8.556243896484375,-0.07892534431567981,-0.03176173524061398,-0.0025809671640321563
1789998059801314800,8.566314697265625,-0.009927959117589745,0.02107384083922656,0.06217551847847134
1789998059811385900,8.5763857421875,0.02265510521022714,0.0481661392283284,-0.04806013476540715
1789998059821456600,8.58645654296875,0.027834745730722286,0.048119687548127545,-0.06724474713318276
1789998059831527700,8.596527587890625,0.0074588191609933,0.07634637605028484,-0.05060997927624575
1789998059841597700,8.60659765625,-0.01930292424537348,0.07756029450194843,-0.12083200750670645
1789998059851668700,8.616668701171875,0.020210518526506384,0.13974562456849032,-0.04975993517841475
1789998059861739800,8.62673974609375,0.022649710293329406,0.18095494670950144,-0.040309409622883735
1789998059871810600,8.636810546875,0.018499783045706028,0.15160228715709276,0.07664465665535944
1789998059881881600,8.646881591796875,0.014952167168760392,0.1498967400845428,0.0866231353019866
1789998059891952600,8.65695263671875,-0.006255193045811693,0.16922822585712038,0.02063544161829004
1789998059902023700,8.667023681640625,0.003126218555271868,0.15686662610612173,-0.0413833862036569
1789998059912094700,8.6770947265625,-0.00046154531644269854,0.15731965888114913,0.012884405625567662
1789998059922165800,8.687165771484375,0.0008806240813657796,0.14551489683572214,0.028865690980902508
1789998059932236500,8.697236572265625,-0.031079644467165306,0.12308307253226015,-0.021224924470544977
1789998059942307600,8.7073076171875,-0.05223455160003405,0.10490802433527029,-0.07260633410589916
1789998059952377900,8.7173779296875,-0.06356371454455331,0.10154772999154947,0.004437070507692196
1789998059962449000,8.727448974609375,-0.08582213807070173,0.08509930714033342,-0.08063255077706878
1789998059972520000,8.73752001953125,-0.10156362935131442,0.07311802685430946,-0.08203967720889928
1789998059982590700,8.7475908203125,-0.09114226911373355,0.07388746488264035,-0.015899964987430487
1789998059992661800,8.757661865234375,-0.08804202390514049,0.05314037997753531,-0.010917240166518637
1789998060002732800,8.76773291015625,-0.1286168583191615,-0.006611434128700117,0.06808615170021956
1789998060012803800,8.777803955078125,-0.17209539032401486,-0.029753012062815318,-0.09527760370640098
1789998060022875000,8.787875,-0.2386465375502891,-0.056964232965296985,-0.11686737803689706
1789998060032946000,8.79794580078125,-0.22984315052783036,-0.09441947436006634,0.03806825607111713
1789998060043016700,8.8080166015625,-0.192003865344376,-0.1043531367612613,0.08052768616837015
1789998060053087700,8.818087646484376,-0.2636480370710301,-0.17600355706743875,-0.013950873861502866
1789998060063158800,8.82815869140625,-0.3036972507430277,-0.22346744564950455,0.007171267918554694
1789998060073228800,8.838228759765625,-0.27256110822472907,-0.20918561998965246,-0.05176038679527024
1789998060083299800,8.8482998046875,-0.22999949720587357,-0.21802316419508866,0.012805570182141277
1789998060093370600,8.85837060546875,-0.20175948630556284,-0.25132368644050856,0.16021860472807561
1789998060103441700,8.868441650390626,-0.21433670936595012,-0.2773567714331383,0.05039165540069058
1789998060113512700,8.8785126953125,-0.2999548798788549,-0.32917361002992307,-0.08079287248128175
1789998060123583700,8.888583740234376,-0.34669726935661815,-0.33045767684955474,-0.08515100781906794
1789998060133654800,8.89865478515625,-0.32772542840513147,-0.3185802780515727,-0.11221828843282883
1789998060143725800,8.908725830078126,-0.3352362010489838,-0.3502582512502959,-0.08456428299338078
1789998060153796600,8.918796630859376,-0.3416555073224994,-0.39364957681676993,-0.06495025643285013
1789998060163867600,8.92886767578125,-0.32394834740961365,-0.3909387097274235,-0.05337940634300894
1789998060173938700,8.938938720703124,-0.2964649822059419,-0.37431041096965795,0.06836853002019434
1789998060184009000,8.949009033203126,-0.2745813180188932,-0.3995467569857897,0.005855205052381977
1789998060194080000,8.959080078125,-0.33039077638862857,-0.4406766417235204,-0.0064766675054890085
1789998060204150800,8.96915087890625,-0.3697563959048844,-0.46301487408458203,-0.05876748799670527
1789998060214221800,8.979221923828124,-0.35544705509232916,-0.4726239802543831,-0.0155141835104273
1789998060224292900,8.98929296875,-0.3497851971287582,-0.4824933020749761,0.1127874899981569
1789998060234364000,8.999364013671874,-0.3363899983384365,-0.5100841171861294,0.04063437039502043
1789998060244435000,9.00943505859375,-0.3613324849486402,-0.5479609759785371,0.002543839057487192
1789998060254506000,9.019506103515624,-0.339502078424934,-0.5645850532476141,0.08097467124304732
1789998060264576800,9.02957666015625,-0.25823485438705157,-0.5746089642970911,0.11147454662435563
1789998060274647800,9.039647705078124,-0.2381887171312206,-0.5921589985445234,0.11018634210343214
1789998060284718800,9.04971875,-0.2317247332791935,-0.6527213644071517,0.0685400351289538
1789998060294790000,9.059789794921874,-0.2409357545754082,-0.6899236266121536,-0.010310928686074767
1789998060304860000,9.06985986328125,-0.2117670330257993,-0.6582442968899741,0.13471770722517526
1789998060314930700,9.0799306640625,-0.18672233103303604,-0.6761688240821937,0.20592891467482313
1789998060325001200,9.090001220703124,-0.21487662136382474,-0.6691089762953724,0.038193625353410705
1789998060335072300,9.100072265625,-0.2533761528394769,-0.6432709994738466,-0.041990347180713934
1789998060345143300,9.110143310546874,-0.21208705081032073,-0.6406681849603253,-0.0025778796774173544
1789998060355214300,9.12021435546875,-0.12517490498743253,-0.6229447025359792,0.005240443810447636
1789998060365285000,9.13028515625,-0.03446090048749502,-0.5697527829023876,0.03805932985948591
1789998060375356200,9.140356201171874,-0.0021127142688592494,-0.5339367887323111,0.013226985466065308
1789998060385427200,9.15042724609375,0.00210924686310573,-0.5152731965361081,-0.001996912687623532
1789998060395498200,9.160498291015625,0.015936431333977066,-0.4799865179566972,-0.030201063085959278
1789998060405569300,9.1705693359375,0.08890477410099432,-0.41652484608017015,0.048749182388115764
1789998060415639000,9.18063916015625,0.11496193768010607,-0.3292054856392348,0.10111140646973293
1789998060425710000,9.1907099609375,0.1000160364462609,-0.30867860555154647,0.08053988720676442
1789998060435781000,9.200781005859374,0.14019966160653574,-0.2624381475789834,0.21028557253887678
1789998060445852200,9.21085205078125,0.18712265843987774,-0.20677738747368735,0.3309127461900161
1789998060455923200,9.220923095703125,0.23150487864390001,-0.10728293148536498,0.2619545952461721
1789998060465994200,9.230994140625,0.2393218220291848,-0.036287486297502315,0.13603765835827691
1789998060476065300,9.241065185546876,0.15481403921428905,-0.10129719093610653,0.10169433369517503
1789998060486136300,9.25113623046875,0.1369292384629321,-0.1120732856180164,0.03408975124797511
1789998060496207400,9.261207275390625,0.23843982205492137,0.021934791289644442,0.15446194950360148
1789998060506278400,9.2712783203125,0.2727010481958052,0.09966894863030817,0.22316447723374724
1789998060516349400,9.281349365234377,0.22212436665954643,0.08092919243031178,0.14937520712002264
1789998060526420500,9.29142041015625,0.18693096408654997,0.09699310546859743,0.06150559526899377
1789998060536490200,9.301490234375,0.19853206262049228,0.14052111026348216,0.06451768660606268
1789998060546561300,9.311561279296876,0.24458642111042014,0.1864508546773359,0.1586703777763584
1789998060556632300,9.32163232421875,0.2657680262579981,0.2092874614492191,0.3422968924802703
1789998060566703400,9.331703369140625,0.2773178740544804,0.16785176490376047,0.4215823973053342
1789998060576774400,9.3417744140625,0.28971685646876105,0.17021633234931285,0.1715439792280957
1789998060586845200,9.35184521484375,0.3618640463709289,0.24311360716123537,0.16083040810928123
1789998060596916200,9.361916259765623,0.3358979636736738,0.2443457873427891,0.14785377647231146
1789998060606987300,9.3719873046875,0.27118072935714216,0.19119351861831543,0.1514826132758317
1789998060617058300,9.382058349609377,0.24782495445910355,0.20860575744140136,0.17971201960817018
1789998060627129300,9.39212939453125,0.23505286932731184,0.22749454022840454,0.16202133656406056
1789998060637199000,9.40219921875,0.2441667494859486,0.19150972926860543,0.24858630121109745
1789998060647270100,9.412270263671877,0.1828698339249903,0.20749957858280396,0.24826826195190374
1789998060657341200,9.422341064453123,0.17449377706329464,0.2239340748767679,0.18122152901554608
1789998060667412200,9.432412109375,0.1848761976472075,0.23617537746609946,0.22028249726056173
1789998060677483300,9.442483154296877,0.21180923216602257,0.24280024173497597,0.28292758621380915
1789998060687554300,9.45255419921875,0.1756236023978512,0.21283528393835702,0.18498171356912227
1789998060697625000,9.462625,0.09754480089911402,0.16190464737667432,-0.011029697498916163
1789998060707696000,9.472696044921875,0.09617831586287337,0.16265883423907757,0.05687615259777134
1789998060717767200,9.48276708984375,0.08869538493454193,0.1733051896059042,0.1570392769162954
1789998060727838200,9.492838134765623,0.07217353417227051,0.14308921140635433,0.16487262595567007
1789998060737909200,9.5029091796875,-0.00914542378649499,0.06441237506451235,0.16350970214714391
1789998060747980300,9.512980224609375,-0.06836794240967127,0.02836678746953559,0.017459089852958916
1789998060758050300,9.52305029296875,-0.07660299362008216,-0.006391771830746537,-0.020276316800951478
1789998060768121300,9.533121337890623,-0.09516632094205311,-0.09549850148926906,-0.12152788925674156
1789998060778192400,9.5431923828125,-0.08739524034668016,-0.15449451093288438,-0.08783380735379517
1789998060788263400,9.553263427734375,-0.08621191046550208,-0.11536942329761839,0.01232676378873013
1789998060798334500,9.56333447265625,-0.09546008859126244,-0.14187995515871551,-0.02833443953739627
1789998060808405200,9.5734052734375,-0.09847810296306184,-0.27417182248606425,-0.043333699083011525
1789998060818476300,9.583476318359375,-0.07137530516850196,-0.330805850620273,-0.1072880262473567
1789998060828547300,9.59354736328125,-0.07259301275385993,-0.31756080063037656,-0.23985867394976257
1789998060838618400,9.603618408203126,-0.07712288087860744,-0.31736380481014936,-0.30081663104681283
1789998060848689400,9.613689453125,-0.08532650592823444,-0.32372447241090097,-0.3952663118684039
1789998060858759200,9.62375927734375,-0.07375711763194526,-0.29621897442146955,-0.29147894131821367
1789998060868830200,9.633830322265624,-0.06169155293494158,-0.31971139958816686,-0.1996814413327796
1789998060878901200,9.6439013671875,-0.10285641817805453,-0.3499181512825775,-0.41135513847282196
1789998060888972300,9.65397216796875,-0.15703151973634957,-0.3451445421669679,-0.4353336178471905
1789998060899043300,9.664043212890626,-0.14417282197673187,-0.32502457475257224,-0.3633510161398092
1789998060909114400,9.6741142578125,-0.10086099582820222,-0.31110093644986053,-0.15289374887501636
1789998060919185200,9.68418505859375,-0.04142975852195532,-0.29547557773872046,-0.08784348002267678
1789998060929256200,9.694256103515626,-0.03755681381068143,-0.26850794050066173,-0.3014892665284505
1789998060939327200,9.7043271484375,-0.10744040540909085,-0.2511119524503958,-0.5557018510299625
1789998060949398300,9.714398193359376,-0.158119486280277,-0.28385981678948685,-0.4936043029101245
1789998060959468300,9.72446826171875,-0.07432825190378176,-0.26598257637914463,-0.3431608747928563
1789998060969539000,9.7345390625,0.03622843761512267,-0.2009713237066965,-0.2463807050966271
1789998060979610000,9.744610107421876,0.012413977289077057,-0.2235640101509762,-0.2709825549224578
1789998060989681200,9.75468115234375,-0.07411813745751994,-0.26151541590094635,-0.40576152640977187
1789998060999752200,9.764752197265626,-0.08524735490337848,-0.23953352106654247,-0.46598528831068037
1789998061009823200,9.7748232421875,-0.04863233641225835,-0.1919752628155471,-0.3549137451455911
1789998061019894300,9.784894287109376,-0.043113084512520744,-0.18363738393431886,-0.3329288974547186
1789998061029965000,9.794965087890626,-0.05892373035726424,-0.21932757464279815,-0.43704370070349113
1789998061040036000,9.8050361328125,-0.08226446267056282,-0.24214780973853606,-0.48221778625180833
1789998061050107100,9.815107177734374,-0.05024914340661931,-0.21691603636652126,-0.357796611285306
1789998061060178200,9.82517822265625,0.006602120304261492,-0.19064439146144888,-0.2312577954364343
1789998061070248400,9.83524853515625,0.04170904344001941,-0.19226066571422193,-0.17812558485490873
1789998061080319200,9.8453193359375,0.039470990058758586,-0.16549074711293915,-0.20442740595846956
1789998061090390300,9.855390380859374,0.04820519470882954,-0.13380615990273304,-0.2387021143474412
1789998061100461300,9.86546142578125,0.05357441304606777,-0.1300434931053958,-0.21295053592222443
1789998061110532400,9.875532470703124,0.06626976944561477,-0.167493071299164,-0.11583277567193209
1789998061120603400,9.885603271484374,0.04248817218752986,-0.15299098036159203,-0.10422430282258058
1789998061130674400,9.89567431640625,0.04205637628696342,-0.11430368155725851,-0.12138728728864674
1789998061140745200,9.9057451171875,0.09059264514276859,-0.10157869232382914,-0.09289588074081687
1789998061150816300,9.915816162109374,0.11949289676031476,-0.06062006325876807,-0.04696706565415766
1789998061160887300,9.92588720703125,0.1319113613712391,-0.02798686285139502,0.028382833149463625
1789998061170958300,9.935958251953124,0.14714774682377452,0.0023432703085097414,-0.05470516575441185
1789998061181028400,9.9460283203125,0.16588465491125667,0.0327563491006373,-0.1350799339400029
1789998061191099100,9.95609912109375,0.1990266978295252,0.04407088830965974,-0.017966047368166805
1789998061201170200,9.966170166015624,0.16415137366260424,0.04470247698094856,0.022454189567754506
1789998061211241200,9.9762412109375,0.1278929903399414,0.05520062188866348,0.025172027113702658
1789998061221312300,9.986312255859374,0.14084415342954248,0.09435724707661727,0.02143084195968388
1789998061231383300,9.99638330078125,0.17007072304043164,0.12706250406200847,0.04179903995565835
1789998061241454300,10.006454345703125,0.18197944717367096,0.1072340482036046,0.21367121716381024
1789998061251525000,10.016525146484376,0.19826172670604864,0.10674428607031045,0.06844248989174376
1789998061261596200,10.02659619140625,0.19915486790396036,0.14916452097211755,0.0953780638442706
1789998061271667200,10.036667236328125,0.11015672219250734,0.14125888233564218,-0.05496812224276731
1789998061281737200,10.0467373046875,0.06287015256936017,0.06988494064165632,-0.010105118236363397
1789998061291808300,10.056808349609376,0.10621510825230641,0.08715329797984864,0.0996377686989218
1789998061301879000,10.066879150390625,0.14039079270056415,0.09221601693054665,0.23843149747808898
1789998061311950000,10.0769501953125,0.17889246480907953,0.06816881083552472,0.2578158990245992
1789998061322021600,10.087021728515625,0.17604418930346064,0.08466969173234985,0.30288822375518887
1789998061332092700,10.0970927734375,0.14985032939942466,0.07053523061286408,0.20369810823293336
1789998061342163700,10.107163818359377,0.10755170676738826,0.07481705780807853,0.14352213107748762
1789998061352234500,10.117234375,0.04988572609384445,0.05019369201795914,0.1831561368809817
1789998061362305500,10.127305419921877,-0.012363855454598805,-0.00711001967004322,0.11899988955988562
1789998061372376600,10.13737646484375,0.01657351288522487,-0.01315183787284706,0.04853525536985366
1789998061382447600,10.147447509765623,0.03896356119829245,-0.018534266765736756,0.20362767446597652
1789998061392517600,10.157517578125,0.03146125427409257,-0.0552181617243151,0.29795179220111195
1789998061402588700,10.167588623046877,-0.003734803917528587,-0.11616461380273564,0.09050314668373058
1789998061412659700,10.17765966796875,-0.00873166451684917,-0.12207280061217758,0.01003327726984507
1789998061422730800,10.187730712890623,0.007338910825760924,-0.11685143403372483,0.12524162368543776
1789998061432801800,10.1978017578125,0.04670597665394671,-0.1484110937218736,0.23602195081500457
1789998061442872800,10.207872802734377,0.054579656433029956,-0.12684665408099854,0.2543163984259028
1789998061452944000,10.21794384765625,0.09411526548933424,-0.05844984692829656,0.11145810414620001
1789998061463014700,10.2280146484375,0.16972340651767995,-0.02539514031058884,0.07587937520228782
1789998061473085700,10.238085693359375,0.2062702784442933,-0.010655491953501019,0.19926791741559774
1789998061483156700,10.24815673828125,0.19692577205626455,0.05127950121964354,0.2944888799483383
1789998061493226800,10.258226806640623,0.15947076933301363,0.12395631967398556,0.20587614312371735
1789998061503297500,10.268297607421877,0.19565332795118495,0.1734923533192622,0.12232181711305816
1789998061513368600,10.27836865234375,0.26577611506213883,0.259340422606893,0.10588171339506545
1789998061523439600,10.288439697265623,0.31424320186358956,0.31641626241096715,0.0810751153571674
1789998061533510700,10.2985107421875,0.3567218587867459,0.3488870117940479,0.10515453922388987
1789998061543581700,10.308581787109375,0.3670549706171842,0.39129773033172355,0.24695376864923385
1789998061553652700,10.31865283203125,0.3477436002045807,0.4029779488175594,0.1222346330780337
1789998061563723800,10.328723876953124,0.29731418371067825,0.391643793830314,0.1151411356038512
1789998061573794600,10.338794677734375,0.25176124093982777,0.37787245381974177,0.07832617655076614
1789998061583865600,10.348865478515624,0.22147925382110595,0.3464888277388934,-0.034732349964101024
1789998061593935600,10.358935546875,0.21811695154297348,0.3351477550307269,-0.04708455606292461
1789998061604006700,10.369006591796875,0.19650886829935504,0.2750887943773114,-0.13300102710098044
1789998061614077700,10.37907763671875,0.12892257109923447,0.232909664759261,-0.1095787099976948
1789998061624148500,10.3891484375,0.10989307883075541,0.20317978319140373,-0.041596148021889094
1789998061634219500,10.399219482421875,0.11015566593088426,0.187287604374822,-0.03430773358723434
1789998061644290600,10.40929052734375,0.09917737193212367,0.1581314611825497,-0.049512309219179144
1789998061654361600,10.419361572265624,0.1354020905213332,0.14492840963715006,0.03375868848176612
1789998061664432600,10.4294326171875,0.14719869853056397,0.11687763887636436,-0.008451446927879282
1789998061674503700,10.439503662109376,0.11934410926348271,0.0936021851308111,-0.009599703054051726
1789998061684574700,10.44957470703125,0.09548309987924479,0.07901791647203159,-0.05557898204247954
1789998061694644700,10.459644775390624,0.05315478610228474,0.08373993409244618,-0.051335167589759194
1789998061704715800,10.4697158203125,-0.024963639255686676,0.07078921766090707,-0.06240148572468789
1789998061714786800,10.479786865234376,-0.07561681077371406,0.06626279525728461,-0.03985764891666915
1789998061724857600,10.489857666015626,-0.11048865738006572,0.06624588943897514,-0.07962221441914757
1789998061734928600,10.4999287109375,-0.12357966117631845,0.08618871846569755,-0.07183037920925332
1789998061744999700,10.509999755859376,-0.08651014095220784,0.08595714755388462,-0.09134726643316246
1789998061755070700,10.52007080078125,-0.057289063595217286,0.09894723717393704,-0.05222666346650461
1789998061765141800,10.530141845703126,-0.04230720461766431,0.11855445319886576,-0.09825684460164232
1789998061775212800,10.540212890625,-0.035970464050607526,0.11294946724924111,-0.04602966969932334
1789998061785282600,10.550282470703126,-0.03125118934508944,0.10126318801295736,0.02162428245706091
1789998061795353600,10.560353515625,-0.0428790740629721,0.061429119363674255,0.06496649194241866
1789998061805424600,10.570424560546876,-0.0931831282613387,0.0004611853951293177,0.17547522662566192
1789998061815495700,10.58049560546875,-0.13192971247127722,0.0060726642572865065,0.11177856562996613
1789998061825566700,10.590566650390626,-0.17813377695214738,-0.014234491105615298,0.08441992448225173
1789998061835637500,10.600637451171876,-0.2303610384739921,-0.09592882702332012,0.04626366000525116
1789998061845708500,10.61070849609375,-0.21677506697291624,-0.11756448606977643,-0.010548402960083893
1789998061855779600,10.620779541015626,-0.16151615818757042,-0.09151448358548685,0.019259132481479254
1789998061865850600,10.6308505859375,-0.15785611682240225,-0.09206942423431286,0.08030818766102968
1789998061875921700,10.640921630859374,-0.1949130332785626,-0.11633609151821331,0.0067824787383140486
1789998061885992700,10.65099267578125,-0.2427041565679781,-0.10508237661238223,-0.03663714444112052
1789998061896062700,10.661062744140626,-0.2471314723937354,-0.11786763087283912,0.009167102671075891
1789998061906133800,10.6711337890625,-0.19054861745715937,-0.12027871987205101,0.04218749137919569
1789998061916204800,10.681204833984374,-0.16456297617574503,-0.10016389308760895,0.04436515724353363
1789998061926275800,10.69127587890625,-0.14847926320192462,-0.11061786201411057,-0.05607137250967165
1789998061936347000,10.701346923828124,-0.1649226650785212,-0.13686334112617624,-0.0630513826069208
1789998061946417700,10.711417724609374,-0.19918764099514835,-0.1709429369004115,-0.08365097113299091
1789998061956488700,10.72148876953125,-0.1634940933284083,-0.17819919317514799,-0.02212932860014676
1789998061966559700,10.731559814453124,-0.16779270529242502,-0.19302299988746524,0.028269945153220632
1789998061976630800,10.741630859375,-0.2150761433133411,-0.22987677609667087,0.056834441125825794
1789998061986700800,10.75170068359375,-0.2166119679743515,-0.23331015342429093,0.14259579700560485
1789998061996771600,10.761771484375,-0.14883462355681748,-0.1890385585852538,0.1362618947141916
1789998062006842600,10.771842529296874,-0.09491274211961609,-0.16805736917988603,0.010186828534007849
1789998062016913700,10.78191357421875,-0.07124836430243041,-0.20987625019111386,0.04377926905131598
1789998062026984700,10.791984619140624,-0.09607718203067023,-0.19433029047244946,0.13341630314921973
1789998062037055700,10.8020556640625,-0.1767899076146587,-0.19717768076030798,0.13851616321413152
1789998062047126800,10.812126708984374,-0.18639713959035736,-0.20429147002917528,-0.020435412252246543
1789998062057197600,10.822197509765624,-0.1853929882831726,-0.20628658891409013,-0.016096219432190285
1789998062067268600,10.8322685546875,-0.17254429644835134,-0.20388191012221102,0.01582208415520798
1789998062077339600,10.842339599609376,-0.1606876121385169,-0.20383786560950073,-0.09204662432116038
1789998062087409700,10.85240966796875,-0.12643146857176726,-0.18825738618106203,-0.05074333426685475
1789998062097480700,10.862480712890624,-0.09414428916563725,-0.17723420305864673,-0.04505717604014779
1789998062107551500,10.872551513671874,-0.10149814292091476,-0.1860375496735637,-0.06771655979567084
1789998062117622500,10.88262255859375,-0.10113280670253687,-0.18794451263455164,-0.028649410431416812
1789998062127693600,10.892693603515625,-0.1085735564471239,-0.18264177694917522,0.04830435761588568
1789998062137764600,10.9027646484375,-0.14881152616151208,-0.19062741339092823,0.05571028300197542
1789998062147835600,10.912835693359376,-0.13474411156096014,-0.2024670687165461,0.0837782777739965
1789998062157906700,10.92290673828125,-0.11619269639167516,-0.187703143226515,0.058760697659919654
1789998062167977500,10.9329775390625,-0.07082460521662137,-0.20051007629455134,-0.08266390784181901
1789998062178048500,10.943048583984377,-0.024461426263637707,-0.2020052107540812,-0.12305008154598063
1789998062188118800,10.953118896484376,-0.03023810671047205,-0.1609483906956148,-0.06599820587202919
1789998062198189800,10.96318994140625,-0.03151438258910147,-0.15492503888667014,-0.01747639378677811
1789998062208260900,10.9732607421875,-0.06602253596474815,-0.171675963536861,0.1477944878050401
1789998062218331600,10.98333154296875,-0.09525305388369626,-0.19170422292066766,0.20409289825607793
1789998062228402700,10.993402587890625,-0.13563412119212273,-0.22537148294478734,0.12022528943683862
1789998062238473700,11.0034736328125,-0.11316578078083095,-0.23067279339767235,-0.004697653759481108
1789998062248544800,11.013544677734377,-0.11795423813888517,-0.25740172376278686,-0.034795826478483
1789998062258615800,11.02361572265625,-0.13711686532448655,-0.26654770619321905,-0.02631263076230515
1789998062268686800,11.033686767578123,-0.1688901477466779,-0.2754627167444779,0.00395439457570907
1789998062278756600,11.043756591796877,-0.17042817765655435,-0.30503408289157413,0.02151992925181395
1789998062288827600,11.05382763671875,-0.13363966344801784,-0.32224882563113666,-0.05324392510282565
1789998062298898700,11.063898681640625,-0.1097192958085738,-0.3288407860012473,-0.06444099381068887
1789998062308969700,11.0739697265625,-0.10234734721756883,-0.3508930560846534,-0.1378984133799366
1789998062319040800,11.084040771484377,-0.07169310215839585,-0.3737228095582641,-0.24345417550621745
1789998062329112300,11.0941123046875,-0.08871675113155227,-0.3329758129156384,-0.1857455572320216
1789998062339183400,11.104183349609375,-0.08301017717447429,-0.34196885355921575,0.005265231991215918
1789998062349254400,11.11425439453125,-0.09077955490605107,-0.37209721204719703,0.03351854259127968
1789998062359325200,11.1243251953125,-0.10762795349507868,-0.33632043405160894,0.0713529660131615
1789998062369396200,11.134396240234375,-0.07151027135780148,-0.3240262833769414,0.057329019510875316
1789998062379466200,11.14446630859375,-0.030686044362479042,-0.3047371779127468,0.11492226729045577
1789998062389537300,11.154537353515623,0.019071211939942358,-0.2873106316005259,0.06078181613042921
1789998062399608300,11.1646083984375,0.08435542702368083,-0.2701067318748947,0.07279131459663674
1789998062409679000,11.17467919921875,0.07956002449567358,-0.2745611909249229,-0.0009735057517804354
1789998062419750100,11.184750244140623,0.05040057497561025,-0.3141775826271622,-0.01963546327827292
1789998062429821200,11.1948212890625,0.07966025003009293,-0.30100169446789715,0.026725662579612203
1789998062439892200,11.204892333984375,0.10625211030602676,-0.24409984156853237,0.00013324147804816597
1789998062449963300,11.21496337890625,0.14354328332865365,-0.2315278165122297,-0.027588501928507758
1789998062460034300,11.225034423828124,0.12190709201477991,-0.2331603664004337,-0.012162852147853327
1789998062470104300,11.235104248046875,0.10167822757470417,-0.1943779866536213,-0.08229841024870847
1789998062480175400,11.24517529296875,0.11699681328153183,-0.15939979747138214,-0.19091193553532182
1789998062490246400,11.255246337890624,0.10652236333978983,-0.128007641040239,-0.24346543708049467
1789998062500317400,11.2653173828125,0.14292922700595692,-0.07872072389759789,-0.12433978284327911
1789998062510388500,11.275388427734375,0.16782804354554354,-0.0325091460868442,-0.03635159194941871
1789998062520459300,11.285459228515624,0.16081654915897206,-0.03878513693208757,-0.02897483525921693
1789998062530530300,11.2955302734375,0.18878333064612957,-0.027446276355315494,-0.06849400216475822
1789998062540601300,11.305601318359376,0.22691239228582896,0.025070546964471595,0.0689752570000201
1789998062550672400,11.31567236328125,0.2474015665388145,0.034711112338946075,0.15072688401093717
1789998062560742400,11.325742431640624,0.26418821922868035,0.055574558958454,0.0924000522557222
1789998062570813200,11.335813232421875,0.2833404533821249,0.10489573193187185,0.017629129612271324
1789998062580884200,11.34588427734375,0.2821681139132947,0.136214232026575,0.023598310705094307
1789998062590955300,11.355955322265626,0.3080825799883129,0.13671681992733478,-0.09146532899255362
1789998062601026300,11.3660263671875,0.3138150016580965,0.1518698994611399,0.04102668599932511
1789998062611097300,11.376097412109376,0.34419811793173727,0.1621286137270956,0.08964972044643019
1789998062621168400,11.38616845703125,0.35416352078465074,0.2018246479017976,-0.02880248481588648
1789998062631239200,11.3962392578125,0.3551316563451171,0.2479477334246899,-0.017693036630848112
1789998062641310200,11.406310302734376,0.30854619510273346,0.2295688381247513,-0.09744194989574548
1789998062651381200,11.41638134765625,0.29641312367630446,0.23015268120941762,-0.16711565225387884
1789998062661451300,11.426451171875,0.2978615124830781,0.24533043620318126,-0.07744492233315499
1789998062671522300,11.436522216796876,0.3212922424158293,0.254035513470769,-0.11565112833572046
1789998062681593000,11.446593017578126,0.32285360376203515,0.2688211309371499,-0.1281528131024711
1789998062691664100,11.4566640625,0.3540193300902264,0.27272191857506706,-0.01458359364314873
1789998062701735200,11.466735107421876,0.37052873691182586,0.30502161717366694,0.07067935311345867
1789998062711806200,11.47680615234375,0.32515308605562,0.324247961006127,0.024497825946066223
1789998062721877200,11.486877197265626,0.3231779765972812,0.3041298617776333,0.012056544929664894
1789998062731948300,11.4969482421875,0.3254710234540511,0.34511222039469963,0.02420693606558856
1789998062742019000,11.50701904296875,0.3811229424684862,0.31556550713414044,0.14875882451584851
1789998062752089300,11.51708935546875,0.39595321725960264,0.36405685870301985,0.1803795366313999
1789998062762160400,11.527160400390626,0.35428479028924414,0.3864579850257721,0.11474099796146865
1789998062772231400,11.5372314453125,0.3469282046473982,0.35740527182919973,0.00851832391360527
1789998062782302500,11.547302490234374,0.3215164411815093,0.3529271533277995,-0.035264187539114686
1789998062792373200,11.557373291015624,0.29524373595672787,0.3520587087686449,0.002860954305175422
1789998062802444300,11.5674443359375,0.27954403980727466,0.3602731425582188,0.09081399239526249
1789998062812515300,11.577515380859374,0.16287099161399413,0.33227528321001215,-0.00616161171993029
1789998062822586400,11.58758642578125,0.21159061840175752,0.29069152946813676,-0.026803743428681297
1789998062832657400,11.597657470703124,0.19560315597749192,0.3284218851448547,0.029068258973535592
1789998062842727200,11.60772705078125,0.1844061641961039,0.3364457466284526,0.09746979542090338
1789998062852798200,11.617798095703124,0.13487688795158292,0.2736137429801236,0.033253005402289926
1789998062862869200,11.627869140625,0.10785892184107967,0.2643764448375882,-0.038650691986686934
1789998062872940300,11.637940185546874,0.0730549335587965,0.2404442925356165,-0.0649314245718195
1789998062883011300,11.64801123046875,0.08156750701637688,0.21130921295921284,-0.09234187733108622
1789998062893082400,11.658082275390624,0.06153765181383572,0.20134999299850756,0.013088389458624335
1789998062903153200,11.668153076171874,-0.00013185751966130648,0.14939221978755884,0.0038890512577228185
1789998062913224200,11.67822412109375,0.002509586280795961,0.1101424213321503,-0.020378636782301448
1789998062923295200,11.688295166015624,-0.02739603430081419,0.10806520237614686,-0.22512087791016608
1789998062933365200,11.698365234375,-0.08086190731655096,0.10322889807202304,-0.04394168346018387
1789998062943436300,11.708436279296874,-0.07356451248220372,0.036900768451173606,0.05071945737694758
1789998062953507000,11.718507080078124,-0.08682461503118845,-0.013605111265208811,0.02406394071894623
1789998062963578000,11.728578125,-0.10306532267184229,-0.03242803056473932,0.0351439411598994
1789998062973649200,11.738649169921874,-0.10167340886257888,-0.04222334759519725,-0.07577602915153829
1789998062983720200,11.74872021484375,-0.10007869187971642,-0.1001379823457319,-0.18738577695015618
1789998062993791200,11.758791259765625,-0.07891197080559284,-0.10155714809637581,-0.025784406712401706
1789998063003862300,11.7688623046875,-0.07594880572169078,-0.09895607272237551,-0.06747999833842941
1789998063013933000,11.77893310546875,-0.09222917983014482,-0.1207947727517728,-0.12100309084268866
1789998063024003300,11.78900341796875,-0.07538888672391089,-0.1204704272938473,-0.029623080837986582
1789998063034074400,11.799074462890625,-0.04802335922647517,-0.1255144529407325,0.1305420232571723
1789998063044145400,11.8091455078125,-0.11212827611815777,-0.10094479858311117,-0.15893068668276084
1789998063054216400,11.819216552734376,-0.06738267508915279,-0.05991096647190915,-0.15056241935122158
1789998063064287200,11.829287353515625,-0.027296834859978823,-0.0729567061621216,-0.10110394709496903
1789998063074358300,11.839358154296876,-0.03352726423389341,-0.09531330155355257,-0.026097761819106297
1789998063084429300,11.84942919921875,-0.04568068446673614,-0.13848870672081473,0.12650535925631176
1789998063094500400,11.859500244140625,-0.07395481460311616,-0.13015103337758943,0.19164102897604027
1789998063104571400,11.8695712890625,-0.006939823008035743,0.021070188242101433,0.12725181261254412
1789998063114641200,11.87964111328125,0.09674964087294939,0.08693202521421028,0.07079889176453048
1789998063124712200,11.889712158203125,0.04783898630582754,0.06843327387525502,0.0020987344499257114
1789998063134783200,11.899783203125,0.03653629736760539,0.06560323419786131,0.20926629995981302
1789998063144854300,11.909854248046877,0.013991423153268547,0.12442234855986456,0.203096421060806
1789998063154925300,11.91992529296875,-0.006977380379622869,0.17006073782950673,0.2096918864833596
1789998063164996400,11.929996337890625,-0.010778859344831542,0.229440477979257,0.05092461151078377
1789998063175067100,11.940067138671877,-0.03573246939945792,0.2618975266086316,-0.009462293163460141
1789998063185138200,11.95013818359375,0.002868310877594817,0.2996151822453988,0.009156065901805658
1789998063195209200,11.960209228515623,0.009223697059782855,0.32695233820749814,-0.009474505394453237
1789998063205279200,11.970279296875,0.07627311609772677,0.3246849797410777,-0.06659281243873155
1789998063215350300,11.980350341796877,0.13518196466589252,0.36312581181451015,0.02484397287837028
1789998063225421300,11.99042138671875,0.1281897703570659,0.37797133984980924,0.07811673776016623
1789998063235492400,12.000492431640623,0.11066145286532099,0.3558550413771787,0.1540888068872549
1789998063245563400,12.0105634765625,0.03940810697081363,0.3021343113841751,-0.03457013108003678
1789998063255634400,12.020634521484377,-0.00459988335670699,0.21528901671648476,-0.055883786927781766
1789998063265705500,12.03070556640625,-0.05233579697533082,0.17468393280538372,-0.16541510183766142
1789998063275776500,12.040776611328123,-0.016069046399409783,0.11088317258135862,0.09505498338292348
1789998063285847300,12.050847412109375,0.018619932500766663,0.02421415171131324,0.19977851716357045
1789998063295917300,12.060917236328123,0.05614742159760986,0.008765184835589928,0.19019315115931446
1789998063305988400,12.07098828125,0.014325152662424656,0.012327403666240194,-0.045169095495211226
1789998063316059400,12.081059326171877,-0.0793151160727075,-0.08224122724936721,-0.10902789457653364
1789998063326130200,12.091130126953123,-0.16411627091357556,-0.10642755357129079,-0.22214044023581903
1789998063336201200,12.101201171875,-0.15632903372193854,-0.115743017958791,-0.060898104479175326
1789998063346272300,12.111272216796875,-0.15054508637070235,-0.19653632281161362,-0.06581277472454103
1789998063356343000,12.121343017578123,-0.13770933461909393,-0.21286688759281405,-0.041987699284334684
1789998063366414000,12.1314140625,-0.1355380690581946,-0.1964182788349905,-0.14593279592796599
1789998063376484000,12.141484130859377,-0.17142372230392436,-0.2216486309577643,-0.11878088592602984
1789998063386555100,12.15155517578125,-0.18459391921095894,-0.25791389221735644,-0.029171364119479473
1789998063396626200,12.161626220703123,-0.16387474319766623,-0.25003120659597566,-0.004292555800868242
1789998063406697000,12.171697021484375,-0.13953986357794607,-0.2701939548865289,0.0783492972080546
1789998063416768000,12.18176806640625,-0.18434015690689823,-0.2753765311842014,0.1229425856344124
1789998063426839000,12.191839111328123,-0.18427189640306416,-0.2661096153013081,0.026365839166735645
1789998063436910000,12.20191015625,-0.12133274179041204,-0.25142180089969696,0.006756924839341117
1789998063446981000,12.211981201171875,-0.0715283292275954,-0.20788194268608134,-0.146437695897708
1789998063457052200,12.22205224609375,-0.09039703330665938,-0.14801419538738853,-0.07697100347742851
1789998063467122200,12.2321220703125,-0.031582387713158064,-0.10593421530191309,-0.07186672992548454
1789998063477193200,12.242193115234375,-0.04666736306469365,-0.08099014433717203,0.036283202870029924
1789998063487264300,12.25226416015625,-0.03456314676267824,-0.023454126479630997,0.16240289559384716
1789998063497335300,12.262335205078124,-0.018457502204114337,0.026150223618739886,0.11866114188879276
1789998063507406300,12.27240625,0.011930815039378507,0.09141467668242761,0.059116113281297046
1789998063517477000,12.28247705078125,0.09298470520161355,0.16267185602002315,-0.016764802006761725
1789998063527548200,12.292548095703124,0.13866114447438346,0.22102449438631233,-0.0667324467494481
1789998063537619200,12.302619140625,0.1457259642742134,0.23043496051726226,-0.05889868747926948
1789998063547690200,12.312690185546876,0.1427535750678319,0.23644895170787594,0.08432127286550928
1789998063557760300,12.32276025390625,0.07341666946538197,0.2066736621659524,0.3147271620567124
1789998063567831000,12.3328310546875,0.05517056746139926,0.19838710084147504,0.2623869413115663
1789998063577902000,12.342902099609375,0.042384873883924166,0.27008144317782923,0.06056315919639243
1789998063587973000,12.35297314453125,0.06541471107959315,0.2578981183018188,-0.022849341605753196
1789998063598044200,12.363044189453126,0.07188758491752388,0.17436871178414637,0.11590825342943485
1789998063608115200,12.373115234375,0.05770353751312205,0.12371327471969666,0.2678959138265304
1789998063618186200,12.383186279296876,0.07538405912754256,0.11755643380901594,0.15001659293377154
1789998063628257000,12.393257080078126,0.07619598876543683,0.1721827230721467,-0.039745659813832115
1789998063638328000,12.403328125,0.08876016052071026,0.18616561065237533,-0.03688071487620296
1789998063648398000,12.413398193359376,0.061037826401476036,0.09321204151114336,0.036437222262818855
1789998063658469000,12.42346923828125,0.02471642270937807,0.004178162195555503,0.0814702662779497
1789998063668540200,12.4335400390625,0.047770668471086276,0.033120756267542656,0.04129881308217786
1789998063678611000,12.44361083984375,0.07128065981487834,0.0841772998416304,-0.111425167384796
1789998063688682000,12.453681884765626,0.06216793896722341,0.0524165557902393,-0.08314929899337632
1789998063698753000,12.4637529296875,0.02866173280946996,0.03417926015135836,0.07625902756655904
1789998063708824000,12.473823974609376,0.06357075559781557,0.05154588876325632,0.20278649331828516
1789998063718895000,12.48389501953125,0.09977436131054059,0.08411787728929301,0.13819847977128932
1789998063728965000,12.493965087890626,0.07696720365688203,0.12344659385767365,0.00013859212837275168
1789998063739036200,12.5040361328125,0.05151882586967688,0.11996874080849107,-0.09063802680021016
1789998063749107200,12.514107177734376,0.1305626018786629,0.13765203745957624,-0.1265041119711122
1789998063759178200,12.52417822265625,0.17863855246235688,0.1708132495346685,0.05212796509807879
1789998063769249300,12.534249267578126,0.2259557596037701,0.19174180145038913,0.03854662590332843
1789998063779320300,12.5443203125,0.23430702678476364,0.21286669147932047,-0.01296125903812286
1789998063789391000,12.55439111328125,0.19891868316948963,0.2548762180257476,-0.07672244938994967
1789998063799462100,12.564462158203124,0.17182828142162399,0.21647153494306504,-0.04951085353847085
1789998063809533200,12.574533203125,0.10171169417829015,0.223341269557391,-0.021625001484925434
1789998063819603200,12.584603271484376,0.05831168128811365,0.22837822215602155,-0.05132334883590758
1789998063829674200,12.59467431640625,0.04840232128893496,0.24913991707634053,-0.09209835805489892
1789998063839745000,12.6047451171875,0.12459869741562636,0.2808743669397482,-0.018020910209859332
1789998063849816000,12.614816162109374,0.15316084464684998,0.3366931171989537,-0.007305381228111657
1789998063859887000,12.62488720703125,0.16863400549769308,0.32848548185453785,-0.031566843398486755
1789998063869958100,12.634958251953124,0.1729277823350932,0.3174597701380956,0.027452120122099178
1789998063880029200,12.645029296875,0.14716463140290156,0.31931269791563766,0.0055664160629120005
1789998063890100200,12.655100341796874,0.10065118850702907,0.3105871717409039,-0.026876069626747934
1789998063900170000,12.665169921875,-0.01496608861374421,0.26657921701883974,-0.06266696099168881
1789998063910241000,12.675240966796874,-0.07086614517001924,0.23766479775823104,-0.034231551586561326
1789998063920312000,12.68531201171875,-0.12159966400264124,0.22857302995221884,0.05920947885519591
1789998063930383000,12.695383056640624,-0.14825046887732268,0.17286478484039985,0.09369620983307918
1789998063940454100,12.7054541015625,-0.19437386416230223,0.08077856469269476,0.028738797633012892
1789998063950525000,12.71552490234375,-0.20842257719737334,0.04347638701578529,-0.034808130849455096
1789998063960596000,12.725595947265624,-0.20943445667924115,0.04474452469608279,-0.09232493034858918
1789998063970667000,12.7356669921875,-0.153045269469107,0.04415909131150785,0.00951739585821909
1789998063980738000,12.745738037109374,-0.18180582260549202,-0.03348531670797325,0.16380203443098393
1789998063990808300,12.755808349609374,-0.22695891395881984,-0.13992890148318876,0.16508434847741002
1789998064000879000,12.765879150390624,-0.255240293220985,-0.1166678194241741,-0.041152483990947106
1789998064010950100,12.7759501953125,-0.19486119293250367,-0.07512865105617074,-0.12979454855042138
1789998064021021200,12.786021240234374,-0.17664145670777018,-0.15175134377617674,-0.10947225586555562
1789998064031092200,12.79609228515625,-0.19900561039848566,-0.19056240127485635,0.12667814957969506
1789998064041163300,12.806163330078125,-0.1807581693250988,-0.2122963042814889,0.24806554899227543
1789998064051234300,12.816234375,-0.2071336806193726,-0.23744812447643215,0.2322055998416045
1789998064061305000,12.82630517578125,-0.12309867839494704,-0.1617153251231132,0.010619105810260921
1789998064071375000,12.836375,-0.051386776738582565,-0.10870547699294693,-0.11417509346676276
1789998064081446100,12.846446044921874,-0.02950304948575767,-0.12850552443230803,-0.046859558266602354
1789998064091517200,12.85651708984375,-0.058006430533301706,-0.1355650402633384,0.03269660619244652
1789998064101588200,12.866588134765625,-0.13384943856533543,-0.11496055927766362,-0.010152826196055592
1789998064111659000,12.876658935546876,-0.15525223899186083,-0.104352695102722,9.126260672539599e-05
1789998064121730000,12.88672998046875,-0.17051823732839708,-0.05842372002510702,0.09094452728531965
1789998064131801000,12.896801025390625,-0.15623795524129352,0.023675897124363396,0.07516258073752664
1789998064141872000,12.9068720703125,-0.1414811773500874,0.05292194858215094,0.05319842308807285
1789998064151943200,12.916943115234377,-0.08282073815510976,0.07317656460364738,0.05607759970043211
1789998064162013000,12.927012939453125,0.004840618953885788,0.11488769017386036,0.007965044596113304
1789998064172084000,12.937083984375,0.07316422120666617,0.14019633979252083,0.046501728533261955
1789998064182155000,12.947155029296876,0.04640808067176196,0.13973024407994686,0.028258857626649495
1789998064192226000,12.95722607421875,-0.016631500183756944,0.12030259374815692,-0.03817486978749943
1789998064202297000,12.967297119140625,-0.057027277732288786,0.09294437824807726,-0.06508389675024329
1789998064212368100,12.9773681640625,-0.07493292076399262,0.0816866643262634,-0.10353671199975441
1789998064222439200,12.987439208984377,-0.11772344193918662,0.06472319609507407,-0.04469148618086219
1789998064232510200,12.99751025390625,-0.1270642945991401,0.013058845299768656,0.03385345123343934
1789998064242580200,13.007580322265625,-0.1173106684776438,-0.018732024561775654,0.027167018596421594
1789998064252651300,13.0176513671875,-0.1052143758780323,-0.04785439950208188,0.06488541406317362
1789998064262722300,13.027722412109377,-0.11562280488411143,-0.05920155136271906,0.041184445177322816
1789998064272793000,13.03779296875,-0.11051945688590963,-0.08276649764238321,0.003172229482406273
1789998064282864000,13.047864013671877,-0.13217784329387344,-0.13356938045008718,-0.08950673265344926
1789998064292935200,13.05793505859375,-0.16243769571156333,-0.19546534954587902,-0.1912492059417941
1789998064303006200,13.068006103515623,-0.1523742231795335,-0.19689500410677413,-0.08216696045556855
1789998064313077200,13.0780771484375,-0.11831276366844365,-0.1619246096251567,0.08471414216183878
1789998064323147000,13.08814697265625,-0.11599645423026965,-0.18372370946315097,0.2225325505673628
1789998064333218300,13.09821826171875,-0.17482365139689654,-0.18144482024177921,0.16871400676814916
1789998064343289300,13.108289306640623,-0.21742407085524512,-0.216986700688007,-0.06638564371274358
1789998064353360100,13.118360107421877,-0.1801885021809558,-0.20690709665556384,0.05748474766362444
1789998064363431200,13.12843115234375,-0.17231877359319767,-0.19201586807427617,0.1612659541716158
1789998064373502200,13.138502197265623,-0.1160659339340202,-0.1997653104775836,0.0851971182346074
1789998064383573200,13.1485732421875,-0.11734213873110957,-0.2615500343492795,-0.09716414981217923
1789998064393644300,13.158644287109375,-0.08146203216308984,-0.24209009991014346,-0.23473748177605708
1789998064403714300,13.16871435546875,-0.026788223861196062,-0.18484306903737374,-0.24690116701888554
1789998064413785300,13.178785400390623,0.04863024127424786,-0.14493654471121054,-0.17871027527420744
1789998064423856400,13.1888564453125,0.06366790123711455,-0.09345779357525828,0.02712505891297651
1789998064433927400,13.198927490234375,0.04545540891691208,-0.06139377699791748,0.2229920981819188
1789998064443998500,13.20899853515625,0.015048470419585324,-0.02466467336988679,0.20000924771500345
1789998064454069200,13.2190693359375,-0.04357175091850442,0.011632718063929187,-0.1214863741302472
1789998064464140300,13.229140380859375,-0.059739299842971695,0.09742054719943583,-0.28523865983092866
1789998064474211300,13.23921142578125,-0.05103786463196089,0.11219344785423065,-0.07796676464423136
1789998064484281300,13.24928125,-0.01884306828844618,0.08843220666236358,-0.01160577269411779
1789998064494352400,13.259352294921875,0.027679089025346364,0.113707621667361,-0.014287653953583989
1789998064504423400,13.26942333984375,0.1281037184092808,0.16819273657546255,0.0980048510044442
1789998064514494200,13.279494140625,0.1368064533483009,0.22228022908144948,-0.0092455016412562
1789998064524565200,13.289565185546875,0.06250806256569034,0.19737041866942057,-0.007173450955963629
1789998064534636300,13.29963623046875,0.07103001147148855,0.18717825738541571,0.06744930939452157
1789998064544707300,13.309707275390624,0.08389748417758908,0.20952497548700488,0.0811988969730527
1789998064554778400,13.3197783203125,0.06498815602154973,0.22959192865287434,-0.11653309815327165
1789998064564848000,13.32984814453125,0.05455072521680929,0.21462072206096744,-0.08296906737754273
1789998064574919200,13.339919189453123,0.021850283808687643,0.1925451815314172,0.00530243333867514
1789998064584990200,13.349990234375,-0.013403675237322336,0.16913900635912335,0.015458346082355834
1789998064595061200,13.360061279296875,-0.035100585645254825,0.10899018914647124,-0.017858125577775663
1789998064605132300,13.37013232421875,-0.05214408813392384,0.08988005984926369,0.009764585375080093
1789998064615203300,13.380203369140624,-0.05899409897012646,0.08436582921371678,-0.04496756564293196
1789998064625274000,13.390274169921875,-0.07468505150007855,0.052565424054137576,-0.05521865323443225
1789998064635345200,13.40034521484375,-0.1068691877273109,0.006372058611422534,0.038489422224897075
1789998064645416200,13.410416259765626,-0.12673441990337556,-0.03634277206957017,0.06195164592794401
1789998064655486500,13.420486572265624,-0.12090424491419222,-0.10841952653840409,0.18889608024943885
1789998064665557500,13.4305576171875,-0.13051128531060174,-0.14503026449012416,0.22712036608670702
1789998064675628300,13.440628173828124,-0.21269905182926296,-0.2179520133224215,0.0198655006470333
1789998064685699300,13.45069921875,-0.2395543536306421,-0.31256039301456384,-0.0944195274379669
1789998064695770400,13.460770263671876,-0.26544075925536653,-0.391222654192404,0.07807810173376198
1789998064705841400,13.47084130859375,-0.2775011505563564,-0.40711742434696824,0.02174395717793482
1789998064715912400,13.480912353515626,-0.21034873124253828,-0.401985248071871,0.01428306103647616
1789998064725983500,13.4909833984375,-0.13445704408591846,-0.40994356252341463,0.02807568902005048
1789998064736053200,13.50105322265625,-0.09740973102153251,-0.37573003338800415,0.10108167418092893
1789998064746124300,13.511124267578126,-0.10998791616113611,-0.3711440788161627,0.07076538063267533
1789998064756195300,13.5211953125,-0.13695579917689257,-0.3635437991361645,-0.029317551122855355
1789998064766266400,13.531266357421876,-0.10701479996766196,-0.3448283125076186,-0.07252528601707081
1789998064776337400,13.54133740234375,-0.048317634762802195,-0.32020588194845206,-0.019736811570975475
1789998064786408200,13.551408203125,-0.012033350571965383,-0.31147381056294027,0.0446417919029189
1789998064796479200,13.561479248046876,-0.03053154922962637,-0.2789153570031059,0.016542950392948633
1789998064806550300,13.57155029296875,-0.07506953123166092,-0.2568217138031126,-0.027551328430650515
1789998064816620300,13.581620361328126,-0.06469216642540564,-0.25333748326347405,-0.1042167872374608
1789998064826691000,13.591691162109376,0.004601855834450291,-0.18780810631819378,-0.07982714746814401
1789998064836762000,13.60176220703125,0.04325859280987959,-0.12550039603406535,-0.0904743217577421
1789998064846833200,13.611833251953126,0.09201175409998658,-0.12412029267333696,-0.03276705122424681
1789998064856904200,13.621904296875,0.11077954228412015,-0.09209943760311219,0.01940259463961319
1789998064866975200,13.631975341796876,0.13612247209311182,-0.03966813176848526,0.03446534740240731
1789998064877046300,13.64204638671875,0.1864101283475312,-0.0025854341817992932,0.010709096054125768
1789998064887117300,13.652117431640624,0.22648324086936375,0.04457052685174175,0.03196270597500626
1789998064897187300,13.662187255859376,0.2510863745884839,0.10694226132009033,0.06591587517384881
1789998064907258400,13.67225830078125,0.2441894798862467,0.1564006007177421,-0.064981736251329
1789998064917329400,13.682329345703126,0.22230690431412004,0.20222280255385675,-0.07866855007511238
1789998064927400400,13.692400390625,0.2072464100222014,0.22889468883610117,-0.09362635400817329
1789998064937471200,13.70247119140625,0.1917947503586376,0.2708430523251842,-0.030475059365072117
1789998064947542300,13.712542236328124,0.19714901392924547,0.3048207930477667,-0.010525631885976132
1789998064957613300,13.72261328125,0.21292618965751042,0.33871591170974275,-0.11866065435155254
1789998064967684400,13.732684326171874,0.16204734196281134,0.38410403548950084,-0.12854435797112695
1789998064977754400,13.74275439453125,0.1383478935159288,0.3906431849131805,-0.08047614223377952
1789998064987825200,13.7528251953125,0.137642532155262,0.4028917021511277,-0.01668274272472399
1789998064997896200,13.762896240234374,0.15086479097541214,0.39474241235278434,0.06657043652785558
1789998065007967200,13.77296728515625,0.14021975994144437,0.3860812511974395,-0.07169602261188421
1789998065018038300,13.783038330078124,0.12655963681678167,0.4129091457744862,-0.1331009709587793
1789998065028109300,13.793109375,0.11122651034119899,0.40116836127138183,-0.07469925736088733
1789998065038180400,13.803180419921874,0.0709496327044843,0.37621525745754364,-0.009844677565163842
1789998065048250000,13.81325,0.03529806645198815,0.3146980931041513,0.09349635185194251
1789998065058321200,13.823321044921874,-0.014129991502268496,0.23786635654684526,0.1180155609001257
1789998065068392200,13.83339208984375,-0.02390943372069302,0.21024782651037988,0.026341794852454546
1789998065078463200,13.843463134765624,-0.014179236958473375,0.16942836829487892,0.01854142006525865
1789998065088534300,13.8535341796875,-0.032944357222911724,0.1079012326036493,0.20045049454374225
1789998065098605000,13.86360498046875,-0.07355242520260673,0.003497040936135768,0.17427194180947134
