time,seconds_elapsed,z,y,x
1791103681354415000,0.0344150390625,-0.3762359619140625,-0.9348907470703125,-0.008026123046875
1791103681364387300,0.04438720703125,-0.3890533447265625,-0.8055419921875,0.0007781982421875
1791103681374359000,0.054359130859375,-0.3920745849609375,-0.8648223876953125,-0.0533905029296875
1791103681384331300,0.064331298828125,-0.39910888671875,-0.8610687255859375,-0.0271148681640625
1791103681394303200,0.07430322265625,-0.38873291015625,-0.870452880859375,-0.1396026611328125
1791103681404275200,0.084275146484375,-0.445892333984375,-0.8253936767578125,-0.1159210205078125
1791103681414247200,0.0942470703125,-0.4497222900390625,-0.9405364990234375,-0.0407562255859375
1791103681424219100,0.10421923828125,-0.546112060546875,-0.8856353759765625,-0.03125
1791103681434191000,0.114191162109375,-0.6307220458984375,-0.91668701171875,0.013702392578125
1791103681444163300,0.124163330078125,-0.635894775390625,-0.9920654296875,0.071380615234375
1791103681454135300,0.13413525390625,-0.696197509765625,-0.9394073486328125,0.022491455078125
1791103681464107300,0.144107177734375,-0.659637451171875,-0.830169677734375,0.0265960693359375
1791103681474079200,0.154079345703125,-0.527740478515625,-0.8617706298828125,0.0409088134765625
1791103681484051200,0.16405126953125,-0.4167938232421875,-0.8722686767578125,0.0626068115234375
1791103681494023400,0.1740234375,-0.3246917724609375,-0.8947906494140625,0.0646820068359375
1791103681503995100,0.1839951171875,-0.5028076171875,-0.74896240234375,0.003021240234375
1791103681513967400,0.19396728515625,-0.38897705078125,-0.9244537353515625,-0.0306854248046875
1791103681523939000,0.20393896484375,-0.35968017578125,-0.9758148193359375,0.04437255859375
1791103681533911300,0.213911376953125,-0.69146728515625,-0.7719268798828125,-0.034576416015625
1791103681543883300,0.22388330078125,-0.744903564453125,-0.6734771728515625,-0.14678955078125
1791103681553855200,0.233855224609375,-0.513427734375,-0.843963623046875,-0.0431671142578125
1791103681563827200,0.2438271484375,-0.5042572021484375,-0.8729400634765625,0.158294677734375
1791103681573799200,0.253799072265625,-0.525390625,-0.8043365478515625,0.0469970703125
1791103681583771100,0.263771240234375,-0.4568634033203125,-0.8797760009765625,0.088623046875
1791103681593743400,0.273743408203125,-0.5161590576171875,-0.755035400390625,-0.0542755126953125
1791103681603715000,0.283715087890625,-0.47369384765625,-0.83660888671875,-0.0446929931640625
1791103681613687300,0.293687255859375,-0.5295257568359375,-0.9497528076171875,0.039764404296875
1791103681623659000,0.303658935546875,-0.6688079833984375,-0.9023895263671875,0.039642333984375
1791103681633631200,0.31363134765625,-0.6482086181640625,-0.8446502685546875,0.0399627685546875
1791103681643603200,0.323603271484375,-0.4653472900390625,-0.9718017578125,0.0234375
1791103681653575200,0.3335751953125,-0.5211639404296875,-0.8986663818359375,0.0439300537109375
1791103681663547400,0.34354736328125,-0.4487152099609375,-0.8955841064453125,0.0266571044921875
1791103681673519000,0.35351904296875,-0.525970458984375,-0.882843017578125,0.143890380859375
1791103681683491300,0.3634912109375,-0.4025421142578125,-1.0316619873046875,0.0184478759765625
1791103681693463300,0.37346337890625,-0.5739593505859375,-0.8955535888671875,0.017242431640625
1791103681703435300,0.383435302734375,-0.3946990966796875,-1.0230560302734375,-0.001220703125
1791103681713407200,0.3934072265625,-0.3499908447265625,-1.0421295166015625,0.058074951171875
1791103681723379200,0.403379150390625,-0.3802947998046875,-0.922393798828125,-0.1378326416015625
1791103681733351200,0.41335107421875,-0.3347625732421875,-0.8837738037109375,-0.020111083984375
1791103681743323400,0.423323486328125,-0.347991943359375,-0.8945159912109375,-0.0592193603515625
1791103681753295000,0.433295166015625,-0.4090728759765625,-0.81982421875,0.005279541015625
1791103681763267300,0.443267333984375,-0.54119873046875,-0.8541107177734375,0.0127716064453125
1791103681773239000,0.453239013671875,-0.7682037353515625,-0.924652099609375,0.0272674560546875
1791103681783211300,0.463211181640625,-0.867218017578125,-0.908477783203125,-0.086517333984375
1791103681793183000,0.473182861328125,-0.880706787109375,-0.8896636962890625,-0.0714874267578125
1791103681803155200,0.4831552734375,-0.683258056640625,-0.960693359375,-0.0681610107421875
1791103681813127200,0.493127197265625,-0.4737396240234375,-0.9766845703125,0.02081298828125
1791103681823099100,0.50309912109375,-0.1978912353515625,-0.8988494873046875,0.0262298583984375
1791103681833071000,0.513071044921875,-0.05670166015625,-0.8439483642578125,-0.015228271484375
1791103681843043000,0.52304296875,-0.1138763427734375,-0.7288970947265625,-0.1618804931640625
1791103681853015300,0.533015380859375,-0.2136993408203125,-0.7014923095703125,-0.197540283203125
1791103681862987300,0.5429873046875,-0.3547210693359375,-0.744842529296875,-0.138916015625
1791103681872959200,0.552959228515625,-0.58349609375,-0.8197021484375,-0.21075439453125
1791103681882931200,0.56293115234375,-0.83038330078125,-0.743011474609375,-0.1718902587890625
1791103681892903200,0.572903076171875,-0.737396240234375,-0.981109619140625,0.041656494140625
1791103681902875100,0.582875244140625,-0.886077880859375,-0.9667510986328125,0.011932373046875
1791103681912847400,0.592847412109375,-0.777069091796875,-1.0142364501953125,0.0702362060546875
1791103681922819000,0.602819091796875,-0.5984344482421875,-0.9267425537109375,0.0908050537109375
1791103681932791300,0.612791259765625,-0.4324493408203125,-0.9286651611328125,0.1766815185546875
1791103681942763000,0.622762939453125,-0.2334442138671875,-0.8985748291015625,0.18585205078125
1791103681952735200,0.6327353515625,-0.295745849609375,-0.8346405029296875,0.195281982421875
1791103681962707200,0.642707275390625,-0.4383697509765625,-0.8029327392578125,0.1367340087890625
1791103681972679200,0.65267919921875,-0.4368133544921875,-0.955902099609375,0.04522705078125
1791103681982651100,0.662651123046875,-0.595611572265625,-0.9170074462890625,0.0134735107421875
1791103681992623000,0.672623046875,-0.8173980712890625,-0.819854736328125,-0.0419158935546875
1791103682002595000,0.682594970703125,-0.651947021484375,-0.9196319580078125,0.02685546875
1791103682012567300,0.6925673828125,-0.2269287109375,-1.1697998046875,0.084564208984375
1791103682022539300,0.702539306640625,-0.3462371826171875,-0.966033935546875,0.06573486328125
1791103682032511200,0.71251123046875,-0.4066162109375,-0.830230712890625,-0.0635833740234375
1791103682042483200,0.722483154296875,-0.32257080078125,-0.79583740234375,-0.0667724609375
1791103682052455200,0.732455078125,-0.427154541015625,-0.7237548828125,-0.08837890625
1791103682062427400,0.742427490234375,-0.528961181640625,-0.7229766845703125,-0.1137542724609375
1791103682072399000,0.752399169921875,-0.5521392822265625,-0.872528076171875,-0.04351806640625
1791103682082371300,0.762371337890625,-0.628204345703125,-0.9007110595703125,-0.177520751953125
1791103682092343000,0.772343017578125,-0.6436920166015625,-0.8832244873046875,-0.1478424072265625
1791103682102315300,0.782315185546875,-0.58258056640625,-0.9135284423828125,-0.107452392578125
1791103682112287200,0.792287353515625,-0.5439605712890625,-0.875396728515625,-0.2484283447265625
1791103682122259200,0.80225927734375,-0.5270843505859375,-0.8256072998046875,-0.08453369140625
1791103682132231200,0.812231201171875,-0.4895172119140625,-0.8264007568359375,-0.0370941162109375
1791103682142203100,0.822203125,-0.471221923828125,-0.8491973876953125,-0.0286102294921875
1791103682152175000,0.832175048828125,-0.5434417724609375,-0.8114013671875,-0.001983642578125
1791103682162147300,0.842147216796875,-0.477264404296875,-0.859039306640625,-0.0169677734375
1791103682172119000,0.852119140625,-0.4250335693359375,-0.8871307373046875,-0.0854034423828125
1791103682182091300,0.86209130859375,-0.4873199462890625,-0.8604888916015625,-0.0313262939453125
1791103682192063000,0.87206298828125,-0.524169921875,-0.84722900390625,-0.0694580078125
1791103682202035200,0.88203515625,-0.4940948486328125,-0.8449554443359375,-0.072021484375
1791103682212007200,0.892007080078125,-0.62860107421875,-0.8067169189453125,-0.019866943359375
1791103682221979100,0.901979248046875,-0.5819091796875,-0.90423583984375,0.0005340576171875
1791103682231951400,0.911951416015625,-0.5222320556640625,-0.9408416748046875,-0.0240325927734375
1791103682241923000,0.921923095703125,-0.5907440185546875,-0.8742523193359375,-0.1320343017578125
1791103682251895300,0.931895263671875,-0.561279296875,-0.9004058837890625,-0.056640625
1791103682261867300,0.9418671875,-0.50250244140625,-0.934173583984375,-0.1089324951171875
1791103682271839000,0.9518388671875,-0.6315155029296875,-0.8652801513671875,-0.1027374267578125
1791103682281810700,0.961810791015625,-0.5366668701171875,-0.9364471435546875,-0.0800018310546875
1791103682291783000,0.971782958984375,-0.5059051513671875,-0.928619384765625,-0.0085296630859375
1791103682301754600,0.981754638671875,-0.4531097412109375,-0.8534698486328125,-0.0697021484375
1791103682311726800,0.991726806640625,-0.35247802734375,-0.79644775390625,-0.03070068359375
1791103682321698800,1.00169873046875,-0.265716552734375,-0.771209716796875,-0.0645904541015625
1791103682331670800,1.0116708984375,-0.3420562744140625,-0.7624053955078125,0.03912353515625
1791103682341642800,1.021642822265625,-0.4887542724609375,-0.7971649169921875,0.02764892578125
1791103682351614700,1.03161474609375,-0.536651611328125,-0.8125762939453125,0.0216522216796875
1791103682361586700,1.041586669921875,-0.70361328125,-0.836517333984375,-0.0333404541015625
1791103682371559000,1.051558837890625,-0.7485504150390625,-0.911834716796875,0.0791778564453125
1791103682381529900,1.06152978515625,-0.8336334228515625,-0.915679931640625,0.007720947265625
1791103682391501800,1.071501708984375,-0.7335357666015625,-0.91094970703125,-0.0289306640625
1791103682401473800,1.081473876953125,-0.635101318359375,-0.9108428955078125,0.045135498046875
1791103682411445800,1.09144580078125,-0.627593994140625,-0.90765380859375,0.0157318115234375
1791103682421417700,1.101417724609375,-0.4560546875,-0.86517333984375,-0.03997802734375
1791103682431389700,1.1113896484375,-0.3330535888671875,-0.937408447265625,0.0034942626953125
1791103682441362000,1.12136181640625,-0.2851715087890625,-0.948699951171875,-0.1300201416015625
1791103682451334000,1.131333984375,-0.445220947265625,-0.85626220703125,-0.176025390625
1791103682461305900,1.141305908203125,-0.4670867919921875,-0.7905731201171875,-0.0988616943359375
1791103682471277800,1.15127783203125,-0.606414794921875,-0.84625244140625,-0.0262908935546875
1791103682481249800,1.161249755859375,-0.5395660400390625,-0.9504241943359375,-0.1009521484375
1791103682491222000,1.171221923828125,-0.7153472900390625,-0.8753662109375,-0.0066375732421875
1791103682501193700,1.18119384765625,-0.5058746337890625,-0.8826141357421875,-0.1812591552734375
1791103682511166000,1.191166015625,-0.4065093994140625,-0.8637847900390625,-0.1009979248046875
1791103682521137700,1.2011376953125,-0.1355743408203125,-0.965789794921875,-0.0236968994140625
1791103682531110000,1.21110986328125,-0.230712890625,-0.912750244140625,-0.1092529296875
1791103682541081900,1.221081787109375,-0.3475799560546875,-0.7960662841796875,-0.1163482666015625
1791103682551053800,1.2310537109375,-0.416259765625,-0.7422943115234375,-0.1455230712890625
1791103682561025800,1.24102587890625,-0.6047210693359375,-0.6527099609375,-0.252105712890625
1791103682570997800,1.250997802734375,-0.5869598388671875,-0.7322540283203125,-0.1890716552734375
1791103682580969700,1.2609697265625,-0.48956298828125,-0.7829437255859375,-0.1013336181640625
1791103682590942000,1.27094189453125,-0.72021484375,-0.73223876953125,-0.142547607421875
1791103682600913700,1.28091357421875,-0.6927032470703125,-0.7234344482421875,-0.0557403564453125
1791103682610886000,1.290885986328125,-0.6732025146484375,-0.9722137451171875,0.1074371337890625
1791103682620857600,1.300857666015625,-0.71771240234375,-1.0818939208984375,0.2355499267578125
1791103682630829800,1.310829833984375,-0.611083984375,-1.0492401123046875,0.1036376953125
1791103682640801800,1.3208017578125,-0.497344970703125,-0.956146240234375,0.0630340576171875
1791103682650773800,1.330773681640625,-0.5329132080078125,-0.8487396240234375,0.0345611572265625
1791103682660746000,1.34074609375,-0.3436737060546875,-0.8849334716796875,-0.095489501953125
1791103682670717700,1.3507177734375,-0.375732421875,-0.7987213134765625,-0.13800048828125
1791103682680690000,1.36068994140625,-0.1303558349609375,-0.8992462158203125,-0.1840972900390625
1791103682690662000,1.370661865234375,-0.3743743896484375,-0.78961181640625,-0.200286865234375
1791103682700633900,1.3806337890625,-0.41351318359375,-0.8109893798828125,-0.2362060546875
1791103682710605800,1.390605712890625,-0.346221923828125,-0.8562469482421875,-0.2529296875
1791103682720577800,1.400577880859375,-0.558563232421875,-0.8634185791015625,-0.3275299072265625
1791103682730549800,1.4105498046875,-0.6422882080078125,-0.90106201171875,-0.26123046875
1791103682740522000,1.42052197265625,-0.59320068359375,-0.9699859619140625,-0.1100006103515625
1791103682750493700,1.43049365234375,-0.69384765625,-0.948638916015625,-0.0074462890625
1791103682760466000,1.4404658203125,-0.5767822265625,-0.9449920654296875,0.0829315185546875
1791103682770437600,1.450437744140625,-0.5354766845703125,-0.8658599853515625,0.0344085693359375
1791103682780409900,1.460409912109375,-0.4417266845703125,-0.7774810791015625,0.035552978515625
1791103682790381800,1.4703818359375,-0.3390350341796875,-0.7339324951171875,-0.01690673828125
1791103682800353800,1.480353759765625,-0.2835235595703125,-0.74066162109375,-0.0177001953125
1791103682810325800,1.49032568359375,-0.2617340087890625,-0.7944488525390625,-0.040985107421875
1791103682820297700,1.500297607421875,-0.40081787109375,-0.7085418701171875,0.0915679931640625
1791103682830269700,1.510269775390625,-0.6138153076171875,-0.6302490234375,0.120147705078125
1791103682840242000,1.520241943359375,-0.5594329833984375,-0.688446044921875,0.1851959228515625
1791103682850214000,1.5302138671875,-0.7307586669921875,-0.6990966796875,0.0683135986328125
1791103682860185900,1.540185791015625,-0.748687744140625,-0.780029296875,0.079620361328125
1791103682870157800,1.55015771484375,-0.602020263671875,-0.93603515625,0.0289306640625
1791103682880129800,1.5601298828125,-0.4492034912109375,-0.9934844970703125,-0.003570556640625
1791103682890102000,1.57010205078125,-0.451324462890625,-0.96929931640625,-0.0843963623046875
1791103682900073700,1.58007373046875,-0.41265869140625,-0.88690185546875,-0.059112548828125
1791103682910046000,1.5900458984375,-0.238067626953125,-0.8666229248046875,-0.17083740234375
1791103682920017700,1.600017578125,-0.2883453369140625,-0.8592529296875,-0.2468109130859375
1791103682929990000,1.609989990234375,-0.4070281982421875,-0.8688812255859375,-0.298675537109375
1791103682939961600,1.619961669921875,-0.595306396484375,-0.793548583984375,-0.39495849609375
1791103682949933800,1.629933837890625,-0.4717864990234375,-0.818695068359375,-0.317779541015625
1791103682959905800,1.63990576171875,-0.5611114501953125,-0.8599395751953125,-0.2537841796875
1791103682969877800,1.649877685546875,-0.5137481689453125,-0.9819488525390625,-0.227783203125
1791103682979849700,1.659849609375,-0.554168701171875,-0.943115234375,-0.1293182373046875
1791103682989821700,1.66982177734375,-0.442291259765625,-0.9696502685546875,-0.0746612548828125
1791103682999793700,1.679793701171875,-0.318145751953125,-0.977508544921875,-0.0838623046875
1791103683009766000,1.689765869140625,-0.3531036376953125,-0.9190826416015625,-0.0056304931640625
1791103683019737600,1.699737548828125,-0.3835296630859375,-0.83856201171875,0.015960693359375
1791103683029709800,1.709709716796875,-0.311065673828125,-0.781524658203125,0.10394287109375
1791103683039681800,1.719681884765625,-0.41131591796875,-0.7086029052734375,0.10205078125
1791103683049653800,1.72965380859375,-0.4575347900390625,-0.7022552490234375,0.0930938720703125
1791103683059626000,1.7396259765625,-0.579803466796875,-0.7403717041015625,0.13946533203125
1791103683069597700,1.74959765625,-0.6444549560546875,-0.790679931640625,0.1285247802734375
1791103683079570000,1.75956982421875,-0.863067626953125,-0.7700958251953125,0.1066741943359375
1791103683089541600,1.769541748046875,-0.8573150634765625,-0.844085693359375,0.1857147216796875
1791103683099513900,1.779513916015625,-0.804168701171875,-0.889739990234375,0.1255645751953125
1791103683109485800,1.78948583984375,-0.6371917724609375,-0.9091339111328125,0.079986572265625
1791103683119457800,1.799457763671875,-0.560302734375,-0.932830810546875,0.13922119140625
1791103683129429800,1.8094296875,-0.3949127197265625,-0.9327392578125,0.0324554443359375
1791103683139401700,1.819401611328125,-0.2949066162109375,-0.8275604248046875,-0.1362762451171875
1791103683149373700,1.829373779296875,-0.284698486328125,-0.7876434326171875,-0.0781402587890625
1791103683159346000,1.839345947265625,-0.41259765625,-0.81103515625,-0.1580352783203125
1791103683169317600,1.849317626953125,-0.4180755615234375,-0.790069580078125,-0.1656036376953125
1791103683179289900,1.859289794921875,-0.496826171875,-0.8117218017578125,-0.1801605224609375
1791103683189261600,1.869261474609375,-0.630706787109375,-0.8924407958984375,-0.19879150390625
1791103683199233800,1.87923388671875,-0.653778076171875,-0.9927215576171875,-0.11944580078125
1791103683209205800,1.889205810546875,-0.7685089111328125,-0.918975830078125,-0.136993408203125
1791103683219176700,1.8991767578125,-0.7047882080078125,-0.960174560546875,-0.026336669921875
1791103683229149000,1.90914892578125,-0.4515228271484375,-1.0078125,0.0214691162109375
1791103683239120600,1.91912060546875,-0.4777374267578125,-0.9380340576171875,0.1377410888671875
1791103683249092900,1.9290927734375,-0.414215087890625,-0.8833465576171875,0.058837890625
1791103683259064600,1.939064697265625,-0.252044677734375,-0.9134368896484375,0.1345367431640625
1791103683269036800,1.949036865234375,-0.393463134765625,-0.7992095947265625,0.0362396240234375
1791103683279008500,1.959008544921875,-0.44573974609375,-0.792236328125,-0.035675048828125
1791103683288980500,1.96898046875,-0.466949462890625,-0.8220977783203125,-0.0859527587890625
1791103683298952700,1.97895263671875,-0.51947021484375,-0.849090576171875,-0.1027984619140625
1791103683308924400,1.98892431640625,-0.617828369140625,-0.8981475830078125,-0.069580078125
1791103683318896600,1.998896728515625,-0.63671875,-0.974639892578125,-0.0685577392578125
1791103683328868600,2.00886865234375,-0.524688720703125,-1.014862060546875,0.018402099609375
1791103683338840600,2.018840576171875,-0.5331268310546875,-0.984832763671875,-0.1011962890625
1791103683348812500,2.0288125,-0.4151763916015625,-0.9892425537109375,-0.07427978515625
1791103683358784500,2.038784423828125,-0.510986328125,-0.8673858642578125,-0.0885772705078125
1791103683368756500,2.048756591796875,-0.4376220703125,-0.8542938232421875,-0.0394287109375
1791103683378728700,2.058728759765625,-0.42584228515625,-0.8950653076171875,-0.053558349609375
1791103683388700400,2.068700439453125,-0.46563720703125,-0.8907470703125,0.0308074951171875
1791103683398672600,2.078672607421875,-0.463592529296875,-0.916107177734375,-0.0188751220703125
1791103683408644400,2.088644287109375,-0.4102325439453125,-0.9841766357421875,-0.0258331298828125
1791103683418616600,2.098616455078125,-0.5638580322265625,-0.881927490234375,-0.0636444091796875
1791103683428588500,2.108588623046875,-0.5808563232421875,-0.841461181640625,-0.0970916748046875
1791103683438560500,2.118560546875,-0.60986328125,-0.84796142578125,-0.0592041015625
1791103683448532500,2.128532470703125,-0.473388671875,-0.9790496826171875,0.0304412841796875
1791103683458504400,2.13850439453125,-0.612945556640625,-0.8898468017578125,0.0340118408203125
1791103683468476400,2.148476318359375,-0.5375823974609375,-0.894683837890625,0.05389404296875
1791103683478448600,2.15844873046875,-0.4544830322265625,-0.8862457275390625,0.028778076171875
1791103683488420600,2.168420654296875,-0.4322662353515625,-0.851593017578125,0.1227569580078125
1791103683498392600,2.178392578125,-0.45135498046875,-0.883331298828125,0.0496063232421875
1791103683508364500,2.188364501953125,-0.45794677734375,-0.82537841796875,0.0809783935546875
1791103683518336500,2.19833642578125,-0.5290679931640625,-0.78155517578125,0.0833587646484375
1791103683528308700,2.208308837890625,-0.51611328125,-0.8163299560546875,0.092742919921875
1791103683538280400,2.218280517578125,-0.48236083984375,-0.9031524658203125,0.01910400390625
1791103683548252700,2.228252685546875,-0.554046630859375,-0.87274169921875,0.03985595703125
1791103683558224400,2.238224365234375,-0.5464630126953125,-0.8717041015625,0.0598907470703125
1791103683568196600,2.248196533203125,-0.639434814453125,-0.7593536376953125,0.1582794189453125
1791103683578168600,2.25816845703125,-0.5916748046875,-0.755157470703125,0.1091461181640625
1791103683588140500,2.268140625,-0.58795166015625,-0.754913330078125,0.0126190185546875
1791103683598112500,2.278112548828125,-0.48724365234375,-0.853424072265625,0.0652618408203125
1791103683608084500,2.28808447265625,-0.4866180419921875,-0.884033203125,0.064483642578125
1791103683618056400,2.298056396484375,-0.3736419677734375,-0.89013671875,0.06591796875
1791103683628028700,2.308028564453125,-0.4239959716796875,-0.7550506591796875,0.0688018798828125
1791103683638000400,2.31800048828125,-0.427886962890625,-0.7500457763671875,-0.0048370361328125
1791103683647972600,2.32797265625,-0.39630126953125,-0.7578125,-0.0692901611328125
1791103683657944300,2.3379443359375,-0.4599151611328125,-0.7768096923828125,-0.0850067138671875
1791103683667916500,2.34791650390625,-0.547882080078125,-0.79595947265625,-0.1981048583984375
1791103683677888500,2.357888427734375,-0.5972900390625,-0.8798065185546875,-0.2188873291015625
1791103683687860500,2.367860595703125,-0.72802734375,-0.9068603515625,-0.06036376953125
1791103683697832700,2.377832763671875,-0.675689697265625,-1.0102996826171875,-0.1311798095703125
1791103683707804400,2.387804443359375,-0.638946533203125,-1.0205841064453125,-0.1141204833984375
1791103683717776600,2.397776611328125,-0.6082000732421875,-0.9684295654296875,-0.0149688720703125
1791103683727748600,2.40774853515625,-0.6168212890625,-0.9243011474609375,0.028594970703125
1791103683737720600,2.417720458984375,-0.5118408203125,-0.9613800048828125,0.0050811767578125
1791103683747692500,2.427692626953125,-0.5085601806640625,-0.9867706298828125,-0.007659912109375
1791103683757664500,2.43766455078125,-0.6879119873046875,-0.93817138671875,-0.0755767822265625
1791103683767636500,2.447636474609375,-0.5023345947265625,-0.966400146484375,-0.06719970703125
1791103683777608700,2.457608642578125,-0.431427001953125,-0.9549713134765625,-0.1103668212890625
1791103683787580400,2.467580322265625,-0.386993408203125,-0.901641845703125,-0.046417236328125
1791103683797552600,2.477552734375,-0.36492919921875,-0.866729736328125,-0.1151123046875
1791103683807524400,2.4875244140625,-0.33416748046875,-0.8349761962890625,-0.0242462158203125
1791103683817496600,2.49749658203125,-0.3549957275390625,-0.840484619140625,-0.101043701171875
1791103683827468500,2.507468505859375,-0.4932403564453125,-0.841796875,-0.1420135498046875
1791103683837440500,2.5174404296875,-0.5718994140625,-0.875091552734375,-0.099395751953125
1791103683847412500,2.52741259765625,-0.565460205078125,-0.932403564453125,-0.1081390380859375
1791103683857384400,2.537384521484375,-0.6232757568359375,-0.918670654296875,-0.0969696044921875
1791103683867355600,2.547355712890625,-0.5458831787109375,-0.9192657470703125,-0.0755157470703125
1791103683877327400,2.557327392578125,-0.4813232421875,-0.8710784912109375,-0.036346435546875
1791103683887299600,2.567299560546875,-0.4221038818359375,-0.886962890625,-0.1096038818359375
1791103683897271600,2.577271484375,-0.4234161376953125,-0.8336639404296875,-0.050079345703125
1791103683907243500,2.587243408203125,-0.5049285888671875,-0.74554443359375,-0.0972900390625
1791103683917215500,2.597215576171875,-0.4356231689453125,-0.81646728515625,0.015838623046875
1791103683927187500,2.6071875,-0.476318359375,-0.929840087890625,0.052154541015625
1791103683937159400,2.617159423828125,-0.4786224365234375,-0.9925384521484375,0.09930419921875
1791103683947131600,2.627131591796875,-0.6031341552734375,-0.9340972900390625,0.0602569580078125
1791103683957103600,2.637103515625,-0.652435302734375,-0.8984222412109375,0.096435546875
1791103683967075600,2.64707568359375,-0.4993438720703125,-0.9146270751953125,0.1167449951171875
1791103683977047600,2.657047607421875,-0.5705413818359375,-0.90484619140625,0.15838623046875
1791103683987019500,2.66701953125,-0.3633880615234375,-0.928558349609375,0.24755859375
1791103683996991700,2.67699169921875,-0.3326263427734375,-0.9037322998046875,0.291107177734375
1791103684006963500,2.68696337890625,-0.224365234375,-0.9124298095703125,0.1481781005859375
1791103684016935700,2.696935791015625,-0.238006591796875,-0.8439178466796875,0.0275115966796875
1791103684026907400,2.706907470703125,-0.64434814453125,-0.6722869873046875,-0.0113525390625
1791103684036879600,2.716879638671875,-0.624176025390625,-0.7906494140625,-0.095672607421875
1791103684046851600,2.7268515625,-0.5329132080078125,-0.8692169189453125,-0.100372314453125
1791103684056823600,2.736823486328125,-1.12457275390625,-0.8826141357421875,-0.0832061767578125
1791103684066795500,2.74679541015625,-1.249267578125,-1.0018463134765625,-0.13519287109375
1791103684076767500,2.756767578125,-1.1997833251953125,-1.1591796875,-0.247467041015625
1791103684086739500,2.766739501953125,-1.11358642578125,-1.2220001220703125,-0.3308563232421875
1791103684096711700,2.776711669921875,-0.9758148193359375,-1.144866943359375,-0.3891754150390625
1791103684106683400,2.786683349609375,-0.590301513671875,-1.0779266357421875,-0.330902099609375
1791103684116655600,2.796655517578125,-0.301605224609375,-1.012664794921875,-0.2386627197265625
1791103684126627300,2.80662744140625,0.0044403076171875,-0.9992828369140625,-0.223876953125
1791103684136599600,2.816599609375,0.06549072265625,-0.97052001953125,-0.0235443115234375
1791103684146571500,2.826571533203125,-0.03887939453125,-0.8658905029296875,-0.03302001953125
1791103684156543500,2.83654345703125,-0.3453369140625,-0.8202667236328125,-0.1013031005859375
1791103684166515700,2.846515625,-0.6439971923828125,-0.84051513671875,-0.07061767578125
1791103684176487400,2.8564873046875,-0.64697265625,-0.9285888671875,-0.0994720458984375
1791103684186459600,2.866459716796875,-0.7052001953125,-0.9240264892578125,-0.02197265625
1791103684196431600,2.876431640625,-0.887786865234375,-0.9286956787109375,0.18072509765625
1791103684206403600,2.886403564453125,-1.03277587890625,-0.8994598388671875,0.310943603515625
1791103684216375600,2.89637548828125,-0.785247802734375,-0.9610443115234375,0.435302734375
1791103684226347500,2.906347412109375,-0.7077484130859375,-0.832183837890625,0.4864959716796875
1791103684236319500,2.916319580078125,-0.466339111328125,-0.7858123779296875,0.4122772216796875
1791103684246291700,2.926291748046875,-0.471649169921875,-0.716094970703125,0.47760009765625
1791103684256263400,2.936263427734375,-0.4733428955078125,-0.6823883056640625,0.3900604248046875
1791103684266235600,2.946235595703125,-0.3907318115234375,-0.773681640625,0.1776275634765625
1791103684276207400,2.956207275390625,-0.317535400390625,-0.90673828125,0.16693115234375
1791103684286179300,2.966179443359375,-0.2500152587890625,-1.1764984130859375,0.0972747802734375
1791103684296151300,2.9761513671875,-0.2722320556640625,-1.308746337890625,-0.1472930908203125
1791103684306123500,2.98612353515625,-0.4301605224609375,-1.1954803466796875,-0.0856781005859375
1791103684316095200,2.99609521484375,-0.4050750732421875,-1.065887451171875,-0.2245941162109375
1791103684326067500,3.0060673828125,-0.35205078125,-1.03472900390625,-0.2733917236328125
1791103684336039400,3.016039306640625,-0.404144287109375,-0.9723358154296875,-0.2166595458984375
1791103684346011400,3.026011474609375,-0.5243988037109375,-1.0490875244140625,-0.127410888671875
1791103684355983600,3.035983642578125,-0.713348388671875,-0.9831695556640625,-0.1398773193359375
1791103684365955300,3.045955322265625,-0.73602294921875,-0.93878173828125,-0.113433837890625
1791103684375927600,3.055927490234375,-0.696807861328125,-0.9989776611328125,-0.0866241455078125
1791103684385899300,3.065899169921875,-0.7132568359375,-1.075347900390625,-0.0878753662109375
1791103684395871500,3.07587158203125,-0.6417388916015625,-1.1480560302734375,-0.0581817626953125
1791103684405842400,3.085842529296875,-0.5721435546875,-1.09466552734375,-0.047882080078125
1791103684415814400,3.095814453125,-0.46826171875,-1.0202484130859375,-0.0245819091796875
1791103684425786400,3.105786376953125,-0.4769134521484375,-0.8627777099609375,0.0164337158203125
1791103684435758300,3.11575830078125,-0.50836181640625,-0.8549041748046875,0.015838623046875
1791103684445730600,3.12573046875,-0.5520172119140625,-0.833648681640625,0.052093505859375
1791103684455702300,3.135702392578125,-0.63336181640625,-0.825653076171875,0.1319427490234375
1791103684465674500,3.145674560546875,-0.71990966796875,-0.8510284423828125,0.1065521240234375
1791103684475646500,3.155646484375,-0.6278228759765625,-0.9430389404296875,0.027008056640625
1791103684485618400,3.165618408203125,-0.70831298828125,-0.823516845703125,0.129058837890625
1791103684495590400,3.17559033203125,-0.5922698974609375,-0.7515869140625,0.116729736328125
1791103684505562400,3.185562255859375,-0.53985595703125,-0.7312469482421875,-0.00848388671875
1791103684515534300,3.195534423828125,-0.38531494140625,-0.8521881103515625,0.1422119140625
1791103684525506600,3.205506591796875,-0.515625,-0.8330078125,0.149078369140625
1791103684535478300,3.215478271484375,-0.4828643798828125,-0.8567047119140625,0.091522216796875
1791103684545450500,3.225450439453125,-0.582916259765625,-0.796783447265625,0.08782958984375
1791103684555422200,3.235422119140625,-0.560791015625,-0.8030242919921875,0.1027984619140625
1791103684565394400,3.24539453125,-0.584381103515625,-0.8463134765625,0.0068817138671875
1791103684575366400,3.255366455078125,-0.6256561279296875,-0.9010772705078125,0.0825958251953125
1791103684585338400,3.26533837890625,-0.4965972900390625,-0.9402923583984375,0.0518035888671875
1791103684595310300,3.275310302734375,-0.6066741943359375,-0.8970947265625,0.0115203857421875
1791103684605282300,3.2852822265625,-0.47418212890625,-0.9592437744140625,0.057952880859375
1791103684615254500,3.295254638671875,-0.5686492919921875,-0.927825927734375,0.012847900390625
1791103684625226500,3.3052265625,-0.4456329345703125,-1.00933837890625,0.001251220703125
1791103684635198500,3.315198486328125,-0.49322509765625,-0.9578094482421875,0.030181884765625
1791103684645170400,3.32517041015625,-0.4710845947265625,-0.9171142578125,0.019683837890625
1791103684655142400,3.335142333984375,-0.4626312255859375,-0.9254913330078125,-0.02850341796875
1791103684665114400,3.3451142578125,-0.58270263671875,-0.887237548828125,-0.0180816650390625
1791103684675086600,3.355086669921875,-0.4805145263671875,-0.9908447265625,-0.01153564453125
1791103684685058300,3.365058349609375,-0.5855865478515625,-1.0120391845703125,-0.066558837890625
1791103684695030500,3.375030517578125,-0.46844482421875,-1.0545806884765625,-0.081573486328125
1791103684705002200,3.385002197265625,-0.5403594970703125,-1.0406341552734375,-0.0652618408203125
1791103684714974500,3.394974365234375,-0.491302490234375,-1.0009765625,-0.1173858642578125
1791103684724946400,3.404946533203125,-0.5583953857421875,-0.8429107666015625,-0.0622100830078125
1791103684734918400,3.41491845703125,-0.5437164306640625,-0.8528289794921875,0.055816650390625
1791103684744890400,3.424890380859375,-0.5019683837890625,-0.8712005615234375,0.05224609375
1791103684754862300,3.4348623046875,-0.5385894775390625,-0.80181884765625,0.0428009033203125
1791103684764834300,3.444834228515625,-0.46136474609375,-0.8417816162109375,0.015655517578125
1791103684774806500,3.454806640625,-0.5107879638671875,-0.85009765625,0.0618743896484375
1791103684784778200,3.4647783203125,-0.5025787353515625,-0.86529541015625,0.0252532958984375
1791103684794750500,3.47475048828125,-0.53369140625,-0.8818511962890625,0.0226287841796875
1791103684804722400,3.484722412109375,-0.5202789306640625,-0.8758697509765625,0.1440887451171875
1791103684814694400,3.4946943359375,-0.465789794921875,-0.915679931640625,0.1090545654296875
1791103684824666600,3.50466650390625,-0.4517669677734375,-0.934906005859375,0.090301513671875
1791103684834638300,3.514638427734375,-0.4952850341796875,-0.8183746337890625,0.0787200927734375
1791103684844610600,3.524610595703125,-0.50115966796875,-0.703125,0.1350250244140625
1791103684854582300,3.534582275390625,-0.48382568359375,-0.757568359375,0.0427093505859375
1791103684864554500,3.544554443359375,-0.3088226318359375,-0.921356201171875,0.1688079833984375
1791103684874526500,3.5545263671875,-0.5014495849609375,-0.9258270263671875,0.0562286376953125
1791103684884497400,3.564497314453125,-0.6108245849609375,-0.810150146484375,0.068328857421875
1791103684894469400,3.574469482421875,-0.5640411376953125,-0.8459625244140625,0.1105194091796875
1791103684904441300,3.58444140625,-0.4835052490234375,-0.9286956787109375,0.0623931884765625
1791103684914413600,3.59441357421875,-0.473052978515625,-0.9886932373046875,0.0444183349609375
1791103684924385300,3.60438525390625,-0.510650634765625,-0.93536376953125,0.0593719482421875
1791103684934357500,3.614357421875,-0.3696441650390625,-0.95343017578125,-0.044281005859375
1791103684944329500,3.62432958984375,-0.37890625,-0.897369384765625,-0.036712646484375
1791103684954301400,3.634301513671875,-0.4730987548828125,-0.8715972900390625,0.0382843017578125
1791103684964273400,3.6442734375,-0.5826568603515625,-0.8067474365234375,0.0625457763671875
1791103684974245400,3.654245361328125,-0.5272979736328125,-0.8515625,0.1078643798828125
1791103684984217300,3.66421728515625,-0.65631103515625,-0.8916168212890625,0.006103515625
1791103684994189600,3.674189453125,-0.6330718994140625,-0.94073486328125,0.1053619384765625
1791103685004161300,3.684161376953125,-0.757965087890625,-0.8450927734375,0.0567169189453125
1791103685014133500,3.694133544921875,-0.65478515625,-0.8763275146484375,-0.0334930419921875
1791103685024105200,3.704105224609375,-0.4589691162109375,-0.9126739501953125,-0.001922607421875
1791103685034077400,3.714077392578125,-0.550811767578125,-0.853912353515625,0.023651123046875
1791103685044049400,3.72404931640625,-0.36102294921875,-0.8731536865234375,-0.1131744384765625
1791103685054021400,3.734021484375,-0.4698638916015625,-0.821136474609375,-0.0946807861328125
1791103685063993300,3.743993408203125,-0.4384918212890625,-0.87786865234375,-0.1515350341796875
1791103685073965300,3.75396533203125,-0.5544586181640625,-0.9052276611328125,-0.1566925048828125
1791103685083937300,3.763937255859375,-0.5294342041015625,-0.9278717041015625,-0.170501708984375
1791103685093909500,3.773909423828125,-0.6912078857421875,-0.8620452880859375,-0.08648681640625
1791103685103881500,3.783881591796875,-0.574127197265625,-0.854949951171875,-0.1009979248046875
1791103685113853400,3.793853515625,-0.5994110107421875,-0.8489227294921875,-0.01763916015625
1791103685123825400,3.803825439453125,-0.4962005615234375,-0.8993377685546875,-0.0871734619140625
1791103685133797400,3.81379736328125,-0.4311065673828125,-0.888824462890625,0.005706787109375
1791103685143769600,3.82376953125,-0.413909912109375,-0.9076080322265625,0.0264434814453125
1791103685153741300,3.8337412109375,-0.319580078125,-0.8782196044921875,0.0535125732421875
1791103685163713500,3.843713623046875,-0.48651123046875,-0.821990966796875,0.0724945068359375
1791103685173685200,3.853685302734375,-0.383544921875,-0.9316864013671875,0.0966949462890625
1791103685183657500,3.863657470703125,-0.467681884765625,-0.8408203125,0.0778961181640625
1791103685193629400,3.87362939453125,-0.552398681640625,-0.831451416015625,0.108734130859375
1791103685203601400,3.883601318359375,-0.4943695068359375,-0.913665771484375,0.1683349609375
1791103685213573400,3.893573486328125,-0.447540283203125,-0.907379150390625,0.1126708984375
1791103685223545300,3.90354541015625,-0.460357666015625,-0.849090576171875,0.1127166748046875
1791103685233517300,3.913517333984375,-0.430450439453125,-0.8821868896484375,0.04290771484375
1791103685243489500,3.923489501953125,-0.446441650390625,-0.8968048095703125,0.14691162109375
1791103685253461200,3.933461181640625,-0.632904052734375,-0.92333984375,0.11529541015625
1791103685263433500,3.94343359375,-0.76885986328125,-0.9139404296875,0.07403564453125
1791103685273405400,3.953405517578125,-0.5718994140625,-0.9493560791015625,0.1331787109375
1791103685283376600,3.963376708984375,-0.592529296875,-0.946685791015625,0.09637451171875
1791103685293348900,3.973348876953125,-0.280426025390625,-0.9766845703125,0.0220489501953125
1791103685303320800,3.98332080078125,-0.4671783447265625,-0.822845458984375,0.0235443115234375
1791103685313292800,3.993292724609375,-0.1839447021484375,-0.994476318359375,0.0213775634765625
1791103685323264800,4.0032646484375,-0.2650299072265625,-0.9460601806640625,-0.0487060546875
1791103685333236700,4.01323681640625,-0.5067291259765625,-0.8588714599609375,-0.0704193115234375
1791103685343208700,4.023208740234375,-0.6158599853515625,-0.90533447265625,-0.0064544677734375
1791103685353181000,4.033180908203125,-0.569366455078125,-0.9285888671875,-0.0338592529296875
1791103685363152600,4.043152587890625,-0.5604248046875,-0.9863433837890625,-0.0941619873046875
1791103685373124900,4.053124755859375,-0.6254730224609375,-0.964569091796875,-0.08184814453125
1791103685383096600,4.0630966796875,-0.6044158935546875,-0.94171142578125,-0.102508544921875
1791103685393068800,4.07306884765625,-0.4658355712890625,-0.9288482666015625,-0.072906494140625
1791103685403040800,4.083040771484375,-0.4846343994140625,-0.929168701171875,-0.008697509765625
1791103685413012700,4.0930126953125,-0.378631591796875,-0.9234161376953125,0.100311279296875
1791103685422985000,4.10298486328125,-0.4305572509765625,-0.9370574951171875,0.08856201171875
1791103685432956700,4.112956787109375,-0.3514404296875,-0.9576568603515625,0.047027587890625
1791103685442929000,4.122928955078125,-0.3272705078125,-0.952239990234375,-0.0244598388671875
1791103685452900900,4.13290087890625,-0.45770263671875,-0.9561004638671875,0.0252838134765625
1791103685462872800,4.142872802734375,-0.555999755859375,-0.9124298095703125,-0.102020263671875
1791103685472844800,4.1528447265625,-0.5017547607421875,-0.888458251953125,-0.0299835205078125
1791103685482816800,4.162816650390625,-0.59393310546875,-0.8667449951171875,-0.0940093994140625
1791103685492788700,4.172788818359375,-0.54034423828125,-0.92266845703125,0.033294677734375
1791103685502761000,4.182760986328125,-0.6284027099609375,-0.823577880859375,0.025634765625
1791103685512732700,4.192732666015625,-0.6605224609375,-0.90814208984375,0.106536865234375
1791103685522705000,4.202704833984375,-0.50811767578125,-1.12725830078125,0.0881805419921875
1791103685532676600,4.212676513671875,-0.572906494140625,-1.0944366455078125,0.097869873046875
1791103685542648800,4.22264892578125,-0.76171875,-0.8047943115234375,-0.016357421875
1791103685552620800,4.232620849609375,-0.621368408203125,-0.7722015380859375,0.0257720947265625
1791103685562592800,4.2425927734375,-0.333740234375,-0.7673187255859375,0.0911102294921875
1791103685572564700,4.252564697265625,-0.467681884765625,-0.69482421875,0.052642822265625
1791103685582536700,4.26253662109375,-0.392730712890625,-0.760894775390625,0.1041259765625
1791103685592508700,4.2725087890625,-0.28009033203125,-0.898681640625,0.2227935791015625
1791103685602481000,4.28248095703125,-0.329376220703125,-0.842620849609375,0.153778076171875
1791103685612452900,4.292452880859375,-0.450164794921875,-0.8474884033203125,0.12255859375
1791103685622424800,4.3024248046875,-0.50994873046875,-0.842315673828125,0.094970703125
1791103685632396800,4.312396728515625,-0.4491424560546875,-0.883941650390625,0.002349853515625
1791103685642368800,4.32236865234375,-0.45977783203125,-0.8567352294921875,0.084320068359375
1791103685652341000,4.332341064453125,-0.5173187255859375,-0.8645477294921875,0.071929931640625
1791103685662312700,4.342312744140625,-0.5095977783203125,-0.8699493408203125,-0.10821533203125
1791103685672285000,4.352284912109375,-0.4805908203125,-0.9288787841796875,-0.003387451171875
1791103685682256000,4.362255859375,-0.5041656494140625,-0.9448699951171875,0.04534912109375
1791103685692227800,4.372227783203125,-0.671173095703125,-0.8255462646484375,-0.09014892578125
1791103685702199800,4.38219970703125,-0.5538177490234375,-0.8876495361328125,-0.016754150390625
1791103685712171800,4.392171875,-0.4500885009765625,-0.907806396484375,0.083984375
1791103685722144000,4.40214404296875,-0.43853759765625,-0.8998565673828125,0.151824951171875
1791103685732115700,4.41211572265625,-0.4825439453125,-0.884185791015625,0.1226348876953125
1791103685742088000,4.422087890625,-0.3920440673828125,-0.851531982421875,0.1964111328125
1791103685752059600,4.4320595703125,-0.56103515625,-0.7693634033203125,0.020660400390625
1791103685762031900,4.442031982421875,-0.4044952392578125,-0.90496826171875,0.084136962890625
1791103685772003800,4.45200390625,-0.536895751953125,-0.880645751953125,0.09521484375
1791103685781975800,4.461975830078125,-0.48358154296875,-1.0193939208984375,0.0480499267578125
1791103685791947800,4.47194775390625,-0.4669189453125,-0.9539794921875,-0.0858001708984375
1791103685801919700,4.481919677734375,-0.4184417724609375,-0.96783447265625,-0.04150390625
1791103685811891700,4.4918916015625,-0.3861541748046875,-0.9093780517578125,-0.0358123779296875
1791103685821864000,4.501864013671875,-0.3974609375,-0.945098876953125,-0.0613861083984375
1791103685831835600,4.511835693359375,-0.3926544189453125,-0.9487457275390625,-0.1475982666015625
1791103685841808000,4.521807861328125,-0.4910888671875,-0.9073638916015625,-0.06842041015625
1791103685851779600,4.531779541015625,-0.687744140625,-0.7554931640625,-0.0386962890625
1791103685861751800,4.541751708984375,-0.49627685546875,-0.881591796875,-0.0640106201171875
1791103685871723800,4.551723876953125,-0.377471923828125,-0.9782867431640625,-0.116607666015625
1791103685881695700,4.56169580078125,-0.4755859375,-0.8236236572265625,-0.0431060791015625
1791103685891668000,4.57166796875,-0.3971405029296875,-0.804718017578125,-0.0540008544921875
1791103685901639700,4.5816396484375,-0.3889007568359375,-0.7577972412109375,-0.0765838623046875
1791103685911612000,4.59161181640625,-0.395355224609375,-0.7679595947265625,0.017242431640625
1791103685921583900,4.601583984375,-0.478729248046875,-0.6949920654296875,0.0822601318359375
1791103685931555800,4.611555908203125,-0.344512939453125,-0.8849334716796875,0.049560546875
1791103685941527800,4.62152783203125,-0.4937896728515625,-0.851715087890625,0.0831756591796875
1791103685951499800,4.631499755859375,-0.4756927490234375,-0.870208740234375,0.1302490234375
1791103685961471700,4.6414716796875,-0.53125,-0.7829742431640625,0.184356689453125
1791103685971444000,4.65144384765625,-0.3236541748046875,-0.9611968994140625,0.1418609619140625
1791103685981415700,4.661415771484375,-0.322418212890625,-0.871337890625,0.1251983642578125
1791103685991388000,4.671387939453125,-0.4124908447265625,-0.8504791259765625,0.15594482421875
1791103686001359600,4.681359619140625,-0.3723602294921875,-0.798675537109375,0.1660308837890625
1791103686011331800,4.691331787109375,-0.4207611083984375,-0.7998199462890625,0.148101806640625
1791103686021303800,4.7013037109375,-0.5252227783203125,-0.8183441162109375,0.1613616943359375
1791103686031274800,4.711274658203125,-0.5193939208984375,-0.9542083740234375,0.0986480712890625
1791103686041247000,4.7212470703125,-0.544525146484375,-0.9911956787109375,0.066162109375
1791103686051218700,4.73121875,-0.65118408203125,-0.9342803955078125,0.1028594970703125
1791103686061191000,4.74119091796875,-0.5867919921875,-0.9566192626953125,0.00616455078125
1791103686071162600,4.75116259765625,-0.4976654052734375,-0.8581085205078125,-0.0004425048828125
1791103686081134800,4.761134765625,-0.3267059326171875,-0.9276580810546875,-0.0869598388671875
1791103686091106800,4.77110693359375,-0.4726715087890625,-0.8001251220703125,-0.084197998046875
1791103686101078800,4.781078857421875,-0.31231689453125,-0.853179931640625,-0.0194091796875
1791103686111050800,4.79105078125,-0.5202789306640625,-0.7857513427734375,-0.067596435546875
1791103686121022700,4.801022705078125,-0.4363250732421875,-0.931243896484375,-0.0308074951171875
1791103686130994700,4.81099462890625,-0.4942169189453125,-0.908477783203125,-0.0947265625
1791103686140967000,4.820966796875,-0.6474609375,-0.867706298828125,-0.089935302734375
1791103686150938600,4.830938720703125,-0.7191314697265625,-0.835052490234375,-0.0199127197265625
1791103686160910800,4.840910888671875,-0.574859619140625,-0.8975982666015625,-0.0525360107421875
1791103686170882800,4.8508828125,-0.6595001220703125,-0.8216400146484375,-0.0097503662109375
1791103686180854800,4.860854736328125,-0.4424591064453125,-0.8780670166015625,-0.04119873046875
1791103686190827000,4.870826904296875,-0.5957489013671875,-0.7646636962890625,0.003082275390625
1791103686200798700,4.880798828125,-0.414154052734375,-0.792144775390625,-0.038055419921875
1791103686210771000,4.89077099609375,-0.4394989013671875,-0.7272491455078125,-0.0405731201171875
1791103686220742700,4.90074267578125,-0.2728729248046875,-0.7967071533203125,-0.1561126708984375
1791103686230715000,4.91071484375,-0.4203033447265625,-0.7836761474609375,-0.024566650390625
1791103686240686800,4.920686767578125,-0.4482421875,-0.8192291259765625,0.0011138916015625
1791103686250658800,4.930658935546875,-0.554840087890625,-0.7661590576171875,0.02777099609375
1791103686260630800,4.940630859375,-0.65313720703125,-0.7923736572265625,0.0829925537109375
1791103686270602800,4.950602783203125,-0.6533660888671875,-0.8985595703125,0.1045379638671875
1791103686280574700,4.96057470703125,-0.703887939453125,-0.9153900146484375,0.0463714599609375
1791103686290547000,4.970546875,-0.69342041015625,-0.9298553466796875,0.1053619384765625
1791103686300518700,4.9805185546875,-0.433441162109375,-0.926116943359375,-0.0265350341796875
1791103686310491000,4.990490966796875,-0.528656005859375,-0.838409423828125,-0.0640716552734375
1791103686320462600,5.000462646484375,-0.421295166015625,-0.8497467041015625,-0.0417327880859375
1791103686330434800,5.010434814453125,-0.2628173828125,-0.8813018798828125,0.005279541015625
1791103686340406800,5.02040673828125,-0.405426025390625,-0.868316650390625,-0.0025787353515625
1791103686350378800,5.030378662109375,-0.3331146240234375,-0.9644622802734375,-0.039825439453125
1791103686360350000,5.040349853515625,-0.3998870849609375,-0.891326904296875,-0.106689453125
1791103686370321700,5.05032177734375,-0.6304473876953125,-0.7562408447265625,-0.1504364013671875
1791103686380294000,5.0602939453125,-0.465545654296875,-0.8939971923828125,-0.1167144775390625
1791103686390265600,5.070265625,-0.512786865234375,-0.89434814453125,-0.092041015625
1791103686400237800,5.08023779296875,-0.3705902099609375,-1.04010009765625,-0.111968994140625
1791103686410209800,5.090209716796875,-0.4976806640625,-0.851165771484375,-0.1197509765625
1791103686420181800,5.100181640625,-0.451141357421875,-0.8354949951171875,-0.175262451171875
1791103686430153700,5.11015380859375,-0.3696746826171875,-0.870635986328125,-0.18634033203125
1791103686440125700,5.120125732421875,-0.3957061767578125,-0.868072509765625,-0.0334625244140625
1791103686450098000,5.130097900390625,-0.4735870361328125,-0.8737640380859375,-0.09893798828125
1791103686460070000,5.14006982421875,-0.4944610595703125,-0.9364166259765625,-0.12579345703125
1791103686470041900,5.150041748046875,-0.519989013671875,-0.9717559814453125,-0.0560150146484375
1791103686480013800,5.160013916015625,-0.5189056396484375,-0.835235595703125,-0.1346588134765625
1791103686489985800,5.16998583984375,-0.4561614990234375,-0.900115966796875,-0.1582794189453125
1791103686499957800,5.179957763671875,-0.5136566162109375,-0.902069091796875,0.03533935546875
1791103686509930000,5.189929931640625,-0.29541015625,-0.9504241943359375,-0.0964813232421875
1791103686519901700,5.199901611328125,-0.6003875732421875,-0.8017120361328125,-0.028839111328125
1791103686529874000,5.2098740234375,-0.310943603515625,-0.958343505859375,-0.0339508056640625
1791103686539845600,5.219845703125,-0.57568359375,-0.81121826171875,0.00018310546875
1791103686549817900,5.22981787109375,-0.4894561767578125,-0.797821044921875,0.029327392578125
1791103686559789800,5.239789794921875,-0.371246337890625,-0.929107666015625,-0.1054840087890625
1791103686569761800,5.24976171875,-0.48614501953125,-0.880889892578125,-0.0808563232421875
1791103686579733800,5.259733642578125,-0.5718231201171875,-0.901519775390625,-0.074920654296875
1791103686589705700,5.269705810546875,-0.5828094482421875,-0.9314422607421875,-0.0367889404296875
1791103686599677700,5.279677734375,-0.557769775390625,-0.8947906494140625,-0.039093017578125
1791103686609650000,5.28964990234375,-0.4771575927734375,-0.8885040283203125,-0.03271484375
1791103686619621600,5.29962158203125,-0.5660247802734375,-0.8678131103515625,-0.12274169921875
1791103686629593900,5.30959375,-0.3107147216796875,-0.8925628662109375,-0.042205810546875
1791103686639565800,5.31956591796875,-0.3088531494140625,-0.873138427734375,-0.1327972412109375
1791103686649537800,5.329537841796875,-0.343170166015625,-0.8226470947265625,-0.0293731689453125
1791103686659510000,5.339510009765625,-0.6871337890625,-0.8167877197265625,-0.101165771484375
1791103686669480700,5.349480712890625,-0.5679779052734375,-0.8868865966796875,-0.0576171875
1791103686679453000,5.359452880859375,-0.634521484375,-0.894134521484375,-0.0658111572265625
1791103686689424600,5.369424560546875,-0.673370361328125,-0.9129638671875,0.0249176025390625
1791103686699396900,5.37939697265625,-0.672882080078125,-0.9219970703125,-0.092315673828125
1791103686709368800,5.389368896484375,-0.4301605224609375,-0.8707122802734375,0.065704345703125
1791103686719340800,5.3993408203125,-0.443389892578125,-0.8708343505859375,0.016998291015625
1791103686729313000,5.40931298828125,-0.3080596923828125,-0.9729766845703125,-0.0844879150390625
1791103686739284700,5.41928466796875,-0.4982757568359375,-0.84124755859375,-0.061187744140625
1791103686749257000,5.429257080078125,-0.4931640625,-0.8242645263671875,-0.0306396484375
1791103686759228700,5.439228759765625,-0.62713623046875,-0.7793426513671875,-0.07391357421875
1791103686769201000,5.449200927734375,-0.5264129638671875,-0.9100189208984375,-0.0265960693359375
1791103686779172900,5.4591728515625,-0.464691162109375,-0.8801116943359375,-0.1161651611328125
1791103686789144800,5.469144775390625,-0.67291259765625,-0.8148040771484375,0.012176513671875
1791103686799116800,5.47911669921875,-0.41571044921875,-0.861358642578125,0.0089111328125
1791103686809088800,5.4890888671875,-0.37451171875,-0.8537750244140625,0.0287017822265625
1791103686819060700,5.499060791015625,-0.653106689453125,-0.7626953125,-0.0012969970703125
1791103686829033000,5.509032958984375,-0.3558349609375,-0.93255615234375,0.0012359619140625
1791103686839004700,5.519004638671875,-0.5679931640625,-0.8419647216796875,-0.0162353515625
1791103686848977000,5.528976806640625,-0.7458648681640625,-0.6951446533203125,-0.0262298583984375
1791103686858948600,5.538948486328125,-0.317657470703125,-1.019622802734375,-0.0484771728515625
1791103686868920800,5.5489208984375,-0.4339752197265625,-1.03253173828125,0.0341949462890625
1791103686878892800,5.558892822265625,-0.4966278076171875,-0.8799285888671875,-0.0113372802734375
1791103686888864800,5.56886474609375,-0.542388916015625,-0.6985015869140625,0.024505615234375
1791103686898836700,5.578836669921875,-0.385040283203125,-0.8011016845703125,0.013458251953125
1791103686908808700,5.58880859375,-0.340118408203125,-0.820709228515625,0.0667724609375
1791103686918781000,5.598781005859375,-0.5752410888671875,-0.740966796875,0.0552825927734375
1791103686928753000,5.6087529296875,-0.41912841796875,-0.997344970703125,-0.0774993896484375
1791103686938724900,5.618724853515625,-0.536956787109375,-0.979095458984375,-0.1054534912109375
1791103686948696800,5.62869677734375,-0.732666015625,-0.902435302734375,-0.060028076171875
1791103686958668800,5.638668701171875,-0.509735107421875,-0.9646148681640625,0.033905029296875
1791103686968640800,5.648640869140625,-0.2579193115234375,-0.9377899169921875,-0.15167236328125
1791103686978611700,5.65861181640625,-0.430511474609375,-0.785247802734375,0.0233917236328125
1791103686988583700,5.668583740234375,-0.3207244873046875,-0.7866058349609375,-0.0683441162109375
1791103686998556000,5.678555908203125,-0.221343994140625,-0.9740142822265625,-0.1284332275390625
1791103687008528000,5.68852783203125,-0.409759521484375,-0.826904296875,0.0294189453125
1791103687018499800,5.698499755859375,-0.473175048828125,-0.896636962890625,0.0153656005859375
1791103687028471800,5.708471923828125,-0.633880615234375,-0.9026947021484375,-0.178558349609375
1791103687038443800,5.71844384765625,-0.6353912353515625,-0.914886474609375,0.0477752685546875
1791103687048416000,5.728416015625,-0.5675201416015625,-0.94342041015625,-0.028411865234375
1791103687058387700,5.7383876953125,-0.7593841552734375,-0.826934814453125,-0.0902252197265625
1791103687068360000,5.74835986328125,-0.60797119140625,-0.90740966796875,0.1582183837890625
1791103687078331600,5.75833154296875,-0.6234130859375,-0.93695068359375,0.12957763671875
1791103687088303900,5.768303955078125,-0.3475189208984375,-1.0131683349609375,0.0421142578125
1791103687098275800,5.77827587890625,-0.4818115234375,-0.8956146240234375,0.095947265625
1791103687108247800,5.788247802734375,-0.486572265625,-0.8717193603515625,-0.027008056640625
1791103687118219800,5.7982197265625,-0.2797698974609375,-0.956573486328125,-0.030548095703125
1791103687128191700,5.808191650390625,-0.6673126220703125,-0.8343353271484375,-0.089874267578125
1791103687138163700,5.818163818359375,-0.3689727783203125,-0.93829345703125,0.0342254638671875
1791103687148136000,5.828135986328125,-0.555816650390625,-0.807861328125,0.045928955078125
1791103687158107600,5.838107666015625,-0.263275146484375,-0.8834381103515625,0.035125732421875
1791103687168080000,5.848079833984375,-0.510528564453125,-0.711822509765625,0.0481719970703125
1791103687178051600,5.858051513671875,-0.497314453125,-0.7837066650390625,-0.00286865234375
1791103687188023800,5.86802392578125,-0.3797607421875,-0.9499664306640625,0.0525970458984375
1791103687197995800,5.877995849609375,-0.501495361328125,-0.9444732666015625,0.00421142578125
1791103687207967700,5.8879677734375,-0.618682861328125,-1.020782470703125,0.03125
1791103687217940000,5.89793994140625,-0.9915008544921875,-0.8003387451171875,-0.039886474609375
1791103687227911700,5.90791162109375,-0.58819580078125,-0.9987640380859375,-0.0157623291015625
1791103687237884000,5.9178837890625,-0.5952911376953125,-0.8019866943359375,0.0199432373046875
1791103687247854600,5.9278544921875,-0.4019927978515625,-0.8659210205078125,0.094207763671875
1791103687257826800,5.937826904296875,-0.0639190673828125,-0.89178466796875,-0.08990478515625
1791103687267798800,5.947798828125,-0.3046112060546875,-0.75750732421875,0.038055419921875
1791103687277770500,5.9577705078125,-0.4561920166015625,-0.7845458984375,0.062957763671875
1791103687287742700,5.96774267578125,-0.2501678466796875,-0.9299774169921875,-0.1038360595703125
1791103687297714400,5.97771435546875,-0.5475616455078125,-0.871917724609375,0.0130615234375
1791103687307686700,5.987686767578125,-0.839691162109375,-0.8650970458984375,-0.0003509521484375
1791103687317658600,5.99765869140625,-0.73712158203125,-0.9174346923828125,-0.084991455078125
1791103687327630600,6.007630615234375,-0.4575653076171875,-0.9660797119140625,0.0148162841796875
1791103687337602600,6.0176025390625,-0.4699249267578125,-0.8847808837890625,0.006195068359375
1791103687347574500,6.027574462890625,-0.3027496337890625,-0.95947265625,-0.0486602783203125
1791103687357546500,6.03754638671875,-0.6319122314453125,-0.7323760986328125,0.0501861572265625
1791103687367518700,6.047518798828125,-0.4436187744140625,-0.8525238037109375,-0.1344146728515625
1791103687377490400,6.057490478515625,-0.2950897216796875,-1.009185791015625,-0.0955657958984375
1791103687387462700,6.067462646484375,-0.7021331787109375,-0.8500213623046875,-0.002410888671875
1791103687397434400,6.077434326171875,-0.5928955078125,-0.9742431640625,-0.0304718017578125
1791103687407406600,6.087406494140625,-0.8127899169921875,-0.8189849853515625,0.0108642578125
1791103687417378600,6.097378662109375,-0.3337554931640625,-0.971893310546875,-0.0389556884765625
1791103687427350500,6.1073505859375,-0.7455902099609375,-0.621978759765625,-0.030853271484375
1791103687437322500,6.117322509765625,-0.2136077880859375,-0.928009033203125,0.037994384765625
1791103687447294500,6.12729443359375,-0.62127685546875,-0.8223724365234375,0.0393524169921875
1791103687457266700,6.1372666015625,-0.3202362060546875,-0.9589080810546875,0.0406036376953125
1791103687467238700,6.14723876953125,-0.3092498779296875,-0.92401123046875,0.041229248046875
1791103687477210600,6.157210693359375,-0.6534423828125,-0.7098846435546875,0.0118865966796875
1791103687487182600,6.1671826171875,-0.211944580078125,-0.9943695068359375,-0.0399932861328125
1791103687497154600,6.177154541015625,-0.4819183349609375,-0.875823974609375,0.01654052734375
1791103687507126500,6.18712646484375,-0.5476837158203125,-0.843475341796875,-0.0477752685546875
1791103687517098800,6.1970986328125,-0.5650787353515625,-0.7553863525390625,-0.0936126708984375
1791103687527069700,6.207069580078125,-0.6938629150390625,-0.77056884765625,0.10888671875
1791103687537041700,6.217041748046875,-0.42706298828125,-0.8682098388671875,-0.0836334228515625
1791103687547013600,6.227013671875,-0.4517364501953125,-0.8982391357421875,0.15606689453125
1791103687556985600,6.236985595703125,-0.5126953125,-0.87872314453125,0.0969696044921875
1791103687566957600,6.24695751953125,-0.2659759521484375,-1.052490234375,-0.2352294921875
1791103687576929500,6.256929443359375,-0.3959197998046875,-0.9571990966796875,-0.0606231689453125
1791103687586901800,6.26690185546875,-0.8023529052734375,-0.69683837890625,0.1078338623046875
1791103687596873500,6.27687353515625,-0.53692626953125,-0.896728515625,-0.2157135009765625
1791103687606845700,6.286845703125,-0.392364501953125,-1.0017547607421875,0.012847900390625
1791103687616817400,6.2968173828125,-0.53594970703125,-0.92547607421875,0.0772552490234375
1791103687626789600,6.30678955078125,-0.5391998291015625,-0.8475189208984375,-0.140289306640625
1791103687636761600,6.31676171875,-0.449493408203125,-0.9977569580078125,-0.0972747802734375
1791103687646733600,6.326733642578125,-0.259490966796875,-0.946563720703125,0.029296875
1791103687656705500,6.33670556640625,-0.627471923828125,-0.810089111328125,-0.16375732421875
1791103687666677500,6.346677490234375,-0.4754638671875,-0.9012603759765625,-0.141204833984375
1791103687676649500,6.3566494140625,-0.4715576171875,-0.9081268310546875,0.095001220703125
1791103687686621700,6.36662158203125,-0.2869110107421875,-0.9380340576171875,-0.0447540283203125
1791103687696593400,6.376593505859375,-0.8253173828125,-0.73223876953125,-0.02972412109375
1791103687706565600,6.386565673828125,-0.3690948486328125,-0.9529266357421875,0.07940673828125
1791103687716537600,6.39653759765625,-0.47015380859375,-0.9571685791015625,0.01007080078125
1791103687726509600,6.406509521484375,-0.5513458251953125,-0.830810546875,-0.0049285888671875
1791103687736481800,6.416481689453125,-0.345916748046875,-0.920745849609375,0.0809783935546875
1791103687746453500,6.42645361328125,-0.4820709228515625,-0.822509765625,-0.0259552001953125
1791103687756425700,6.43642578125,-0.464691162109375,-0.8189239501953125,-0.029998779296875
1791103687766397400,6.4463974609375,-0.473297119140625,-0.8541107177734375,-0.067047119140625
1791103687776369700,6.45636962890625,-0.6110076904296875,-0.8169708251953125,0.0871734619140625
1791103687786340400,6.46634033203125,-0.2959442138671875,-1.008575439453125,-0.0533905029296875
1791103687796312600,6.4763125,-0.3659515380859375,-0.94903564453125,-0.05230712890625
1791103687806284500,6.486284423828125,-0.5739593505859375,-0.7574920654296875,-0.0416107177734375
1791103687816256500,6.496256591796875,-0.3845977783203125,-0.866668701171875,-0.05596923828125
1791103687826228700,6.506228759765625,-0.4879150390625,-0.8104400634765625,-0.1002960205078125
1791103687836200400,6.516200439453125,-0.540283203125,-0.8246002197265625,-0.1010894775390625
1791103687846172700,6.526172607421875,-0.5498046875,-0.8904571533203125,-0.1445159912109375
1791103687856144600,6.53614453125,-0.340240478515625,-1.0522918701171875,0.04193115234375
1791103687866116600,6.54611669921875,-0.47528076171875,-0.869537353515625,-0.073272705078125
1791103687876088600,6.556088623046875,-0.37945556640625,-0.9307098388671875,-0.10113525390625
1791103687886060500,6.566060546875,-0.65142822265625,-0.74951171875,0.0106201171875
1791103687896032500,6.576032470703125,-0.4732513427734375,-0.896728515625,-0.0539703369140625
1791103687906004700,6.586004638671875,-0.4250640869140625,-0.8184661865234375,0.010345458984375
1791103687915976400,6.5959765625,-0.5864715576171875,-0.8142242431640625,0.026123046875
1791103687925948700,6.60594873046875,-0.5577850341796875,-0.7887725830078125,-0.0272064208984375
1791103687935920400,6.61592041015625,-0.5052642822265625,-0.887481689453125,-0.02880859375
1791103687945892600,6.625892578125,-0.644378662109375,-0.7893829345703125,-0.0510406494140625
1791103687955864600,6.635864501953125,-0.8755340576171875,-0.825286865234375,-0.00372314453125
1791103687965836500,6.64583642578125,-0.6307220458984375,-1.003021240234375,0.005950927734375
1791103687975808500,6.65580859375,-0.6382904052734375,-0.9659881591796875,0.0046844482421875
1791103687985780500,6.665780517578125,-0.536468505859375,-0.7965240478515625,-0.0849761962890625
1791103687995752400,6.67575244140625,-0.1730804443359375,-0.82672119140625,-0.0931396484375
1791103688005724700,6.685724609375,-0.09759521484375,-0.914031982421875,-0.001129150390625
1791103688015696600,6.695696533203125,-0.3691253662109375,-0.7722625732421875,0.0519866943359375
1791103688025668600,6.705668701171875,-0.3702239990234375,-0.754119873046875,0.01947021484375
1791103688035639600,6.7156396484375,-0.281005859375,-0.8025054931640625,-0.078857421875
1791103688045611500,6.725611572265625,-0.7362060546875,-0.7327880859375,-0.0142669677734375
1791103688055583500,6.73558349609375,-0.743011474609375,-0.7932891845703125,-0.0476226806640625
1791103688065555500,6.745555419921875,-0.5271148681640625,-1.0629730224609375,-0.04925537109375
1791103688075527700,6.755527587890625,-0.72003173828125,-0.9529266357421875,-0.07916259765625
1791103688085499600,6.765499755859375,-0.679443359375,-1.0244903564453125,0.05792236328125
1791103688095471600,6.7754716796875,-0.5867767333984375,-0.9160308837890625,0.237548828125
1791103688105443600,6.785443603515625,-0.5036468505859375,-0.9076690673828125,0.1700439453125
1791103688115415600,6.79541552734375,-0.3413543701171875,-0.7779083251953125,0.0219268798828125
1791103688125387800,6.8053876953125,-0.413787841796875,-0.7891998291015625,-0.0575408935546875
1791103688135359500,6.815359375,-0.324127197265625,-0.88018798828125,-0.0371246337890625
1791103688145331700,6.825331787109375,-0.1742401123046875,-0.8911895751953125,-0.133544921875
1791103688155303400,6.835303466796875,-0.428741455078125,-0.7662506103515625,-0.0067138671875
1791103688165275600,6.845275634765625,-0.616241455078125,-0.83721923828125,-0.1061248779296875
1791103688175247600,6.85524755859375,-0.7655487060546875,-0.7898406982421875,0.0266265869140625
1791103688185219600,6.865219482421875,-0.3628692626953125,-1.0505218505859375,-0.0927581787109375
1791103688195191600,6.875191650390625,-0.6812744140625,-0.8804779052734375,-0.0212554931640625
1791103688205163500,6.88516357421875,-0.6808624267578125,-0.9003753662109375,0.12408447265625
1791103688215135500,6.895135498046875,-0.5049591064453125,-0.9518585205078125,0.04095458984375
1791103688225107700,6.905107666015625,-0.3466339111328125,-1.01666259765625,0.141693115234375
1791103688235079400,6.915079345703125,-0.209930419921875,-0.928924560546875,0.100341796875
1791103688245051600,6.9250517578125,-0.5629425048828125,-0.7218475341796875,0.0289764404296875
1791103688255023400,6.9350234375,-0.4134979248046875,-0.8478240966796875,-0.0714111328125
1791103688264995600,6.94499560546875,-0.4122772216796875,-0.7454681396484375,-0.0382843017578125
1791103688274966500,6.954966552734375,-0.4576416015625,-0.7376251220703125,-0.0570526123046875
1791103688284938800,6.964938720703125,-0.4627227783203125,-0.8927764892578125,-0.1064300537109375
1791103688294911000,6.974910888671875,-0.545654296875,-0.97894287109375,-0.00677490234375
1791103688304882700,6.984882568359375,-0.490509033203125,-1.0124969482421875,-0.086639404296875
1791103688314855000,6.99485498046875,-0.776519775390625,-0.7949676513671875,-0.0755615234375
1791103688324826600,7.00482666015625,-0.5036773681640625,-0.7898712158203125,0.03875732421875
1791103688334798800,7.014798828125,-0.60418701171875,-0.8822784423828125,0.0596771240234375
1791103688344770800,7.024770751953125,-0.3418426513671875,-0.9220733642578125,0.0192108154296875
1791103688354742800,7.03474267578125,-0.500701904296875,-0.9031219482421875,0.0380096435546875
1791103688364714800,7.04471484375,-0.3579254150390625,-1.07080078125,0.100250244140625
1791103688374686700,7.054686767578125,-0.2348480224609375,-0.965667724609375,-0.1560821533203125
1791103688384658700,7.06465869140625,-0.43511962890625,-0.7182159423828125,-0.0536041259765625
1791103688394631000,7.074630859375,-0.858184814453125,-0.644134521484375,-0.0811614990234375
1791103688404603000,7.084602783203125,-0.502288818359375,-0.7874908447265625,-0.0386505126953125
1791103688414574800,7.094574951171875,-0.5309600830078125,-1.0409393310546875,0.0734405517578125
1791103688424546800,7.104546875,-0.9679718017578125,-0.854461669921875,0.1082611083984375
1791103688434518800,7.114518798828125,-0.6460113525390625,-1.1316070556640625,-0.1121063232421875
1791103688444491000,7.124490966796875,-0.6209716796875,-0.911865234375,-0.1024169921875
1791103688454462700,7.134462646484375,-0.3982391357421875,-1.0015106201171875,0.001312255859375
1791103688464435000,7.14443505859375,-0.310882568359375,-0.87872314453125,0.0299530029296875
1791103688474406700,7.15440673828125,-0.301788330078125,-0.76947021484375,0.006103515625
1791103688484379000,7.16437890625,-0.411285400390625,-0.660797119140625,0.0226593017578125
1791103688494350600,7.1743505859375,-0.430450439453125,-0.851898193359375,-0.205780029296875
1791103688504322800,7.18432275390625,-0.3733978271484375,-0.8616790771484375,-0.10870361328125
1791103688514294000,7.1942939453125,-0.8546295166015625,-0.601776123046875,-0.1101226806640625
1791103688524265700,7.204265625,-0.5393524169921875,-0.9690704345703125,-0.174224853515625
1791103688534238000,7.214238037109375,-0.4578399658203125,-0.9496917724609375,0.05877685546875
1791103688544209700,7.224209716796875,-0.5193328857421875,-0.9040374755859375,-0.016815185546875
1791103688554182000,7.234181884765625,-0.7873077392578125,-0.7105255126953125,-0.1672210693359375
1791103688564153900,7.24415380859375,-0.1922149658203125,-0.937164306640625,0.037078857421875
1791103688574125800,7.254125732421875,-0.185455322265625,-0.915740966796875,-0.0181884765625
1791103688584097800,7.264097900390625,-0.408538818359375,-0.896697998046875,-0.168426513671875
1791103688594069800,7.27406982421875,-0.698333740234375,-0.897369384765625,0.03155517578125
1791103688604041700,7.284041748046875,-0.6806793212890625,-0.9400177001953125,-0.0614166259765625
1791103688614013700,7.294013671875,-0.498260498046875,-0.9109344482421875,0.0150909423828125
1791103688623985700,7.303985595703125,-0.74005126953125,-0.852935791015625,0.0740509033203125
1791103688633958000,7.3139580078125,-0.4801025390625,-0.9847564697265625,0.00921630859375
1791103688643929600,7.3239296875,-0.376861572265625,-0.8988494873046875,0.028656005859375
1791103688653901800,7.33390185546875,-0.0892486572265625,-0.9395294189453125,0.108551025390625
1791103688663873800,7.343873779296875,-0.1550750732421875,-0.93682861328125,0.0034027099609375
1791103688673845800,7.353845703125,-0.4540252685546875,-0.7342071533203125,-0.044769287109375
1791103688683818000,7.36381787109375,-0.106109619140625,-1.000885009765625,-0.06805419921875
1791103688693789700,7.373789794921875,-0.4801788330078125,-0.74151611328125,-0.1217041015625
1791103688703762000,7.383761962890625,-0.6872711181640625,-0.7609100341796875,0.019073486328125
1791103688713733600,7.393733642578125,-0.527923583984375,-1.03594970703125,0.0234832763671875
1791103688723705900,7.403705810546875,-0.7144927978515625,-0.9498748779296875,0.101348876953125
1791103688733677800,7.413677734375,-0.724639892578125,-0.9052276611328125,-0.0505828857421875
1791103688743648800,7.423648681640625,-0.505096435546875,-0.9946746826171875,0.0524139404296875
1791103688753620700,7.433620849609375,-0.53045654296875,-0.8761749267578125,-0.0089569091796875
1791103688763592700,7.4435927734375,-0.188812255859375,-1.000091552734375,-0.0380706787109375
1791103688773565000,7.45356494140625,-0.3031005859375,-0.915008544921875,0.0245819091796875
1791103688783536600,7.46353662109375,-0.3815155029296875,-0.787261962890625,-0.1438446044921875
1791103688793508900,7.4735087890625,-0.591796875,-0.6665496826171875,-0.0503692626953125
1791103688803480800,7.483480712890625,-0.3909912109375,-0.9044647216796875,-0.18377685546875
1791103688813452800,7.493452880859375,-0.4334716796875,-0.8615875244140625,-0.1595306396484375
1791103688823424800,7.5034248046875,-0.7006072998046875,-0.770782470703125,-0.033599853515625
1791103688833396700,7.513396728515625,-0.3744049072265625,-0.9141998291015625,-0.0830230712890625
1791103688843368700,7.52336865234375,-0.5591583251953125,-0.86700439453125,-0.0336151123046875
1791103688853341000,7.5333408203125,-0.482818603515625,-0.8741912841796875,0.02496337890625
1791103688863312600,7.543312744140625,-0.4769287109375,-0.983245849609375,-0.0356903076171875
1791103688873284900,7.553284912109375,-0.435516357421875,-0.9695587158203125,-0.0303955078125
1791103688883256600,7.563256591796875,-0.6841888427734375,-0.732177734375,0.0293121337890625
1791103688893228800,7.573228759765625,-0.4022064208984375,-0.88568115234375,-0.1151275634765625
1791103688903200800,7.58320068359375,-0.371185302734375,-0.9344024658203125,-0.025146484375
1791103688913172700,7.5931728515625,-0.403961181640625,-0.977935791015625,-0.1529541015625
1791103688923144700,7.603144775390625,-0.5662689208984375,-0.7773895263671875,-0.05865478515625
1791103688933116700,7.61311669921875,-0.5373077392578125,-0.8733673095703125,-0.0850830078125
1791103688943089000,7.6230888671875,-0.4825592041015625,-0.836029052734375,-0.012847900390625
1791103688953060900,7.633060791015625,-0.4730682373046875,-0.848480224609375,-0.1088104248046875
1791103688963032800,7.64303271484375,-0.2533721923828125,-0.9074554443359375,-0.0699462890625
1791103688973003800,7.653003662109375,-0.3121490478515625,-0.9054107666015625,-0.05023193359375
1791103688982975700,7.662975830078125,-0.5584259033203125,-0.7675933837890625,0.015228271484375
1791103688992947700,7.67294775390625,-0.5436248779296875,-0.8714447021484375,-0.1166839599609375
1791103689002919700,7.682919677734375,-0.6005706787109375,-0.816253662109375,-0.06842041015625
1791103689012891600,7.6928916015625,-0.89056396484375,-0.819183349609375,0.0282745361328125
1791103689022864000,7.70286376953125,-0.4712371826171875,-0.917572021484375,-0.043609619140625
1791103689032835800,7.7128359375,-0.439697265625,-0.908935546875,-0.015594482421875
1791103689042807800,7.722807861328125,-0.4698638916015625,-0.8311614990234375,0.036224365234375
1791103689052779800,7.73277978515625,-0.557281494140625,-0.9077301025390625,0.0286865234375
1791103689062751700,7.742751708984375,-0.363739013671875,-0.8932952880859375,0.0174102783203125
1791103689072724000,7.752723876953125,-0.5800933837890625,-0.888885498046875,-0.0514068603515625
1791103689082695700,7.76269580078125,-0.7736663818359375,-0.8764190673828125,-0.0505828857421875
1791103689092668000,7.77266796875,-0.559326171875,-0.91387939453125,-0.0934295654296875
1791103689102639600,7.7826396484375,-0.671478271484375,-0.8909912109375,-0.037353515625
1791103689112611800,7.79261181640625,-0.375274658203125,-0.8361968994140625,-0.02093505859375
1791103689122583800,7.802583740234375,-0.39898681640625,-1.091461181640625,-0.00775146484375
1791103689132555800,7.8125556640625,-0.33343505859375,-0.8216705322265625,-0.02178955078125
1791103689142527700,7.82252783203125,-0.4520111083984375,-0.9194488525390625,-0.04571533203125
1791103689152499700,7.832499755859375,-0.504547119140625,-0.8186492919921875,-0.18280029296875
1791103689162471700,7.8424716796875,-0.4169464111328125,-0.8343963623046875,-0.2030792236328125
1791103689172444000,7.85244384765625,-0.4532623291015625,-0.7926177978515625,-0.05621337890625
1791103689182415600,7.86241552734375,-0.46234130859375,-0.7911376953125,0.0352325439453125
1791103689192386800,7.87238671875,-0.3135986328125,-0.8788604736328125,0.023681640625
1791103689202358800,7.88235888671875,-0.4776458740234375,-0.6829071044921875,0.041961669921875
1791103689212330800,7.892330810546875,-0.4683990478515625,-0.8184814453125,0.0310821533203125
1791103689222302700,7.902302734375,-0.6439666748046875,-0.784515380859375,-0.02252197265625
1791103689232274700,7.912274658203125,-0.534759521484375,-1.02313232421875,-0.0796356201171875
1791103689242247000,7.922246826171875,-0.6510162353515625,-0.8939666748046875,-0.092681884765625
1791103689252218600,7.932218505859375,-0.791015625,-0.826873779296875,0.0316314697265625
1791103689262190800,7.94219091796875,-0.4108123779296875,-0.98101806640625,-0.004302978515625
1791103689272162600,7.95216259765625,-0.337554931640625,-0.8814239501953125,-0.0835113525390625
1791103689282135300,7.96213525390625,-0.499725341796875,-0.6982574462890625,-0.0648345947265625
1791103689292107000,7.97210693359375,-0.2581329345703125,-0.754150390625,-0.033172607421875
1791103689302079200,7.982079345703125,-0.30682373046875,-0.921356201171875,-0.0478515625
1791103689312051200,7.99205126953125,-0.47216796875,-0.9281463623046875,0.011199951171875
1791103689322023200,8.002023193359374,-0.772735595703125,-0.9870147705078125,0.126068115234375
1791103689331995100,8.0119951171875,-0.9171142578125,-0.944244384765625,0.12872314453125
1791103689341967000,8.021967041015625,-0.8200531005859375,-1.004058837890625,-0.0828857421875
1791103689351939300,8.031939208984374,-0.58685302734375,-0.9204864501953125,-0.1124267578125
1791103689361911300,8.041911376953125,-0.469940185546875,-0.9534912109375,-0.0086517333984375
1791103689371883300,8.05188330078125,-0.0489959716796875,-1.0143280029296875,0.07666015625
1791103689381855200,8.061855224609374,-0.1726531982421875,-0.882659912109375,-0.0096588134765625
1791103689391827200,8.0718271484375,-0.319854736328125,-0.8007659912109375,0.0118560791015625
1791103689401799200,8.081799072265625,-0.5896453857421875,-0.7120361328125,-0.0870361328125
1791103689411770000,8.09177001953125,-0.528839111328125,-0.786376953125,-0.14697265625
1791103689421742000,8.1017421875,-0.7438812255859375,-0.8702545166015625,-0.0985107421875
1791103689431714300,8.11171435546875,-0.7906036376953125,-0.987030029296875,-0.1619415283203125
1791103689441686300,8.121686279296876,-0.83795166015625,-0.8999786376953125,-0.01861572265625
1791103689451658200,8.131658203125,-0.44244384765625,-0.871063232421875,0.0084228515625
1791103689461630200,8.141630126953125,-0.3448028564453125,-0.789398193359375,0.0356597900390625
1791103689471602200,8.151602294921876,-0.2095184326171875,-0.8748016357421875,0.10400390625
1791103689481574400,8.161574462890625,-0.324371337890625,-0.78857421875,0.2032012939453125
1791103689491546000,8.171546142578125,-0.136016845703125,-0.8708648681640625,0.0621490478515625
1791103689501518300,8.181518310546876,-0.6516876220703125,-0.6310272216796875,-0.02337646484375
1791103689511490000,8.191489990234375,-0.4962158203125,-0.81707763671875,-0.155426025390625
1791103689521462300,8.201462158203125,-0.7344512939453125,-0.7784576416015625,-0.0422515869140625
1791103689531434200,8.211434326171876,-0.71026611328125,-0.979736328125,-0.06634521484375
1791103689541406200,8.22140625,-0.7475433349609375,-0.9594268798828125,-0.1065216064453125
1791103689551378200,8.231378173828125,-0.5399932861328125,-0.956085205078125,-0.03338623046875
1791103689561350100,8.24135009765625,-0.3943328857421875,-0.81317138671875,-0.134521484375
1791103689571322000,8.251322021484375,-0.3118743896484375,-0.84222412109375,-0.140960693359375
1791103689581294300,8.26129443359375,-0.1225738525390625,-0.9294891357421875,-0.08856201171875
1791103689591266000,8.27126611328125,-0.737274169921875,-0.6558074951171875,-0.03814697265625
1791103689601238300,8.28123828125,-0.6820831298828125,-0.76666259765625,-0.2010955810546875
1791103689611210000,8.2912099609375,-0.33837890625,-1.1332244873046875,-0.16693115234375
1791103689621181200,8.30118115234375,-0.9323272705078125,-0.8663482666015625,-0.0674896240234375
1791103689631153200,8.311153076171875,-0.848297119140625,-0.9287109375,0.026611328125
1791103689641125000,8.321125,-0.6439971923828125,-0.8498992919921875,-0.0949554443359375
1791103689651097300,8.331097412109376,-0.1603851318359375,-1.064666748046875,-0.05413818359375
1791103689661069000,8.341069091796875,-0.4392852783203125,-0.827178955078125,-0.075103759765625
1791103689671041300,8.351041259765625,-0.4217681884765625,-0.88031005859375,0.013824462890625
1791103689681013000,8.361012939453126,-0.2386627197265625,-0.92315673828125,-0.0701904296875
1791103689690985200,8.370985107421875,-0.4437713623046875,-0.7879791259765625,0.020416259765625
1791103689700957200,8.380957275390625,-0.4203338623046875,-0.8094940185546875,-0.0522003173828125
1791103689710929200,8.39092919921875,-0.672271728515625,-0.6695709228515625,0.034576416015625
1791103689720901400,8.4009013671875,-0.39593505859375,-0.9708404541015625,-0.02618408203125
1791103689730873000,8.410873046875,-0.540130615234375,-0.7862548828125,0.0942840576171875
1791103689740845300,8.42084521484375,-0.55322265625,-0.917236328125,0.0928802490234375
1791103689750817300,8.4308173828125,-0.5041961669921875,-0.857635498046875,0.0755462646484375
1791103689760789200,8.440789306640625,-0.2549285888671875,-0.880828857421875,0.05419921875
1791103689770761200,8.45076123046875,-0.6462554931640625,-0.6727752685546875,0.1013946533203125
1791103689780733200,8.460733154296875,-0.1191558837890625,-0.883941650390625,-0.102935791015625
1791103689790705200,8.470705078125,-0.5108642578125,-0.784454345703125,-0.05963134765625
1791103689800677400,8.480677490234376,-0.5034027099609375,-0.853729248046875,-0.024749755859375
1791103689810649000,8.490649169921875,-0.65899658203125,-0.8397979736328125,-0.0710296630859375
1791103689820620300,8.500620361328124,-0.7923736572265625,-0.8709869384765625,-0.214752197265625
1791103689830592300,8.51059228515625,-0.5829925537109375,-1.0571136474609375,-0.15740966796875
1791103689840564200,8.520564208984375,-0.856903076171875,-0.83172607421875,-0.1125030517578125
1791103689850536200,8.5305361328125,-0.3780975341796875,-1.087005615234375,-0.141082763671875
1791103689860508200,8.540508056640626,-0.5514678955078125,-0.860748291015625,-0.1899566650390625
1791103689870480400,8.55048046875,-0.0537109375,-1.067596435546875,-0.0982818603515625
1791103689880452000,8.5604521484375,-0.3203582763671875,-0.75714111328125,-0.2248077392578125
1791103689890424300,8.57042431640625,-0.208343505859375,-0.8099822998046875,-0.230987548828125
1791103689900396000,8.58039599609375,-0.47222900390625,-0.72637939453125,-0.16973876953125
1791103689910368300,8.5903681640625,-0.5089111328125,-0.84808349609375,-0.10400390625
1791103689920340200,8.60034033203125,-0.4448089599609375,-1.0087127685546875,-0.2221221923828125
1791103689930312200,8.610312255859375,-0.9796905517578125,-0.8656463623046875,-0.1140594482421875
1791103689940284200,8.6202841796875,-0.7106475830078125,-1.037872314453125,0.0129547119140625
1791103689950256000,8.630256103515626,-0.674713134765625,-0.9873809814453125,-0.0885162353515625
1791103689960228000,8.64022802734375,-0.771148681640625,-0.9263153076171875,-0.1595458984375
1791103689970200300,8.650200439453124,-0.4945831298828125,-0.95404052734375,0.035003662109375
1791103689980172000,8.660172119140626,-0.334991455078125,-1.0849609375,-0.034942626953125
1791103689990144300,8.670144287109375,-0.3929290771484375,-0.746185302734375,-0.05596923828125
1791103690000116200,8.6801162109375,0.08953857421875,-0.8975677490234375,-0.07513427734375
1791103690010088200,8.690088134765626,0.2049713134765625,-0.6534881591796875,-0.13006591796875
1791103690020059100,8.70005908203125,-0.0032958984375,-0.8523712158203125,-0.1591033935546875
1791103690030031000,8.710031005859374,-1.0908660888671875,-0.6080780029296875,0.204833984375
1791103690040003300,8.72000341796875,-0.7486724853515625,-0.790252685546875,0.13458251953125
1791103690049975000,8.72997509765625,-0.4603118896484375,-0.7076873779296875,-0.18682861328125
1791103690059947300,8.739947265625,-0.8378143310546875,-0.5206756591796875,-0.06658935546875
1791103690069919200,8.749919189453125,-0.440155029296875,-1.0222015380859375,-0.029052734375
1791103690079891200,8.75989111328125,-0.7386474609375,-1.0879364013671875,-0.0933074951171875
1791103690089863400,8.769863525390624,-0.8838043212890625,-0.9154205322265625,0.096893310546875
1791103690099835100,8.779835205078125,-0.2761383056640625,-0.89666748046875,-0.14251708984375
1791103690109807400,8.789807373046875,-0.3534088134765625,-0.742950439453125,0.0010223388671875
1791103690119779000,8.799779052734374,-0.53192138671875,-0.7800140380859375,0.004791259765625
1791103690129751300,8.809751220703125,-0.504638671875,-0.847381591796875,-0.005523681640625
1791103690139723300,8.81972314453125,-0.412811279296875,-0.8357696533203125,-0.135589599609375
1791103690149695200,8.8296953125,-0.9288787841796875,-0.644317626953125,-0.0326690673828125
1791103690159667200,8.839667236328125,-0.5322723388671875,-0.8921051025390625,-0.15301513671875
1791103690169639200,8.84963916015625,-0.5113983154296875,-1.0509490966796875,-0.2246246337890625
1791103690179611100,8.859611083984374,-0.6273193359375,-0.9167633056640625,-0.0295257568359375
1791103690189583400,8.869583251953125,-0.1944427490234375,-1.025421142578125,-0.0984344482421875
1791103690199555000,8.87955517578125,-0.4148101806640625,-0.90057373046875,-0.163238525390625
1791103690209526300,8.8895263671875,-0.4548492431640625,-0.9425811767578125,0.0410614013671875
1791103690219498200,8.899498291015625,-0.4190521240234375,-0.853790283203125,-0.01165771484375
1791103690229470200,8.90947021484375,-0.3187713623046875,-0.905120849609375,-0.2346954345703125
1791103690239442200,8.919442138671876,-0.719024658203125,-0.78350830078125,-0.0706939697265625
1791103690249414100,8.9294140625,-0.5915069580078125,-0.765594482421875,-0.161346435546875
1791103690259386400,8.939386474609375,-0.6519012451171875,-0.620819091796875,-0.231658935546875
1791103690269358000,8.949358154296876,-0.4550018310546875,-0.87811279296875,-0.14447021484375
1791103690279330300,8.959330322265625,-0.324676513671875,-0.9820709228515625,0.002227783203125
1791103690289301800,8.9693017578125,-0.642852783203125,-0.9255218505859375,0.008575439453125
1791103690299273700,8.979273681640626,-0.5107574462890625,-1.009246826171875,-0.0857696533203125
1791103690309246000,8.989245849609375,-0.3753509521484375,-0.9398651123046875,-0.16107177734375
1791103690319217700,8.9992177734375,-0.7350311279296875,-0.6076812744140625,0.0090179443359375
1791103690329190000,9.00918994140625,-0.366546630859375,-0.861724853515625,-0.123291015625
1791103690339161600,9.01916162109375,-0.3363189697265625,-0.9189300537109375,0.0590972900390625
1791103690349133800,9.0291337890625,-0.3483734130859375,-0.7942962646484375,0.0511016845703125
1791103690359105800,9.039105712890626,-0.5711822509765625,-0.7838592529296875,0.0355224609375
1791103690369077800,9.049077880859375,-0.6103515625,-0.76422119140625,0.00360107421875
1791103690379049700,9.0590498046875,-0.4421539306640625,-0.9040985107421875,0.1337738037109375
1791103690389021700,9.069021728515626,-0.5914154052734375,-0.8957061767578125,0.0197906494140625
1791103690398993000,9.078992919921875,-0.4337005615234375,-0.96917724609375,0.0166015625
1791103690408964600,9.088964599609374,-0.5306549072265625,-0.8599853515625,0.028594970703125
1791103690418936800,9.098936767578126,-0.340362548828125,-0.93585205078125,-0.011749267578125
1791103690428908800,9.10890869140625,-0.5146484375,-0.87017822265625,0.0339508056640625
1791103690438880800,9.118880859375,-0.4091644287109375,-0.852569580078125,0.02362060546875
1791103690448852700,9.128852783203126,-0.525299072265625,-0.845184326171875,0.0718231201171875
1791103690458824700,9.13882470703125,-0.4439849853515625,-1.018829345703125,-0.0445404052734375
1791103690468796700,9.148796630859374,-0.6144561767578125,-0.9020233154296875,-0.0594024658203125
1791103690478769000,9.158768798828126,-0.6280517578125,-0.9107666015625,0.095245361328125
1791103690488740600,9.16874072265625,-0.2993621826171875,-1.101715087890625,-0.0289459228515625
1791103690498712800,9.178712890625,-0.5156707763671875,-1.013336181640625,-0.0438385009765625
1791103690508684500,9.1886845703125,-0.5396881103515625,-0.9442138671875,0.092620849609375
1791103690518656800,9.19865673828125,-0.3021392822265625,-0.9582366943359375,0.0152587890625
1791103690528628700,9.208628662109374,-0.575225830078125,-0.7539825439453125,0.0426788330078125
1791103690538600700,9.2186005859375,-0.378692626953125,-0.9332122802734375,0.0176849365234375
1791103690548572700,9.22857275390625,-0.468719482421875,-0.877349853515625,0.05670166015625
1791103690558544600,9.238544677734374,-0.6962890625,-0.7132568359375,-0.1085052490234375
1791103690568516600,9.2485166015625,-0.15869140625,-1.02191162109375,0.016632080078125
1791103690578488600,9.258488525390625,-0.77490234375,-0.6390533447265625,0.0184326171875
1791103690588459800,9.268459716796874,-0.532440185546875,-0.907501220703125,-0.049560546875
1791103690598431700,9.278431640625,-0.5268096923828125,-0.8110809326171875,-0.0385894775390625
1791103690608403700,9.28840380859375,-0.41217041015625,-0.94940185546875,-0.0253753662109375
1791103690618375700,9.298375732421874,-0.7302398681640625,-0.7413787841796875,0.0360870361328125
1791103690628347600,9.30834765625,-0.441436767578125,-0.89117431640625,0.0339202880859375
1791103690638319600,9.318319580078125,-0.6089324951171875,-0.6289520263671875,-0.0399627685546875
1791103690648291800,9.328291748046874,-0.40826416015625,-0.8808135986328125,-0.1048126220703125
1791103690658263800,9.338263916015626,-0.69354248046875,-0.8571624755859375,0.123443603515625
1791103690668235800,9.34823583984375,-0.511566162109375,-0.9009246826171875,0.0144195556640625
1791103690678207700,9.358207763671874,-0.7295684814453125,-0.8388671875,0.052459716796875
1791103690688179700,9.3681796875,-0.49053955078125,-0.8798370361328125,0.0717926025390625
1791103690698151700,9.378151611328125,-0.5873870849609375,-0.8214874267578125,0.0847320556640625
1791103690708123600,9.38812353515625,-0.548553466796875,-0.79290771484375,-0.03228759765625
1791103690718096000,9.398095947265626,-0.2208404541015625,-0.9618072509765625,-0.023223876953125
1791103690728067600,9.408067626953125,-0.54248046875,-0.7874298095703125,-0.0392303466796875
1791103690738039800,9.418039794921874,-0.352264404296875,-1.0184478759765625,0.0731964111328125
1791103690748011500,9.428011474609375,-0.3960418701171875,-0.8939056396484375,-0.095672607421875
1791103690757983700,9.437983642578125,-0.5356597900390625,-0.88427734375,0.0674896240234375
1791103690767955000,9.447954833984374,-0.48382568359375,-0.9893646240234375,-0.000335693359375
1791103690777926700,9.4579267578125,-0.7475738525390625,-0.774658203125,-0.0186767578125
1791103690787899000,9.46789892578125,-0.4499359130859375,-0.888946533203125,-0.0542144775390625
1791103690797870600,9.47787060546875,-0.6173248291015625,-0.804962158203125,0.16754150390625
1791103690807842800,9.4878427734375,0.0284271240234375,-0.9798431396484375,-0.05377197265625
1791103690817814500,9.497814453125,-0.397369384765625,-0.8576507568359375,0.007354736328125
1791103690827786800,9.507786865234374,-0.4846343994140625,-0.7603759765625,-0.0834503173828125
1791103690837758700,9.5177587890625,-0.3793182373046875,-0.902008056640625,-0.066253662109375
1791103690847730700,9.527730712890625,-0.6803436279296875,-0.7731170654296875,-0.0446624755859375
1791103690857702700,9.53770263671875,-0.46368408203125,-1.0375518798828125,-0.0726470947265625
1791103690867674600,9.547674560546875,-0.6890869140625,-0.8307342529296875,-0.01800537109375
1791103690877646600,9.557646484375,-0.3818511962890625,-0.9251861572265625,-0.074737548828125
1791103690887618800,9.567618896484374,-0.3115997314453125,-0.80853271484375,-0.0798492431640625
1791103690897590500,9.577590576171875,-0.4893341064453125,-0.911651611328125,-0.0872955322265625
1791103690907562800,9.587562744140625,-0.5667724609375,-0.8193206787109375,-0.0434112548828125
1791103690917534500,9.597534423828124,-0.5813751220703125,-0.98748779296875,0.0009307861328125
1791103690927506700,9.607506591796875,-0.9737396240234375,-0.9056854248046875,0.0412445068359375
1791103690937478700,9.617478759765625,-0.53424072265625,-1.0121002197265625,-0.067535400390625
1791103690947449600,9.62744970703125,-0.4376373291015625,-0.9463653564453125,0.011199951171875
1791103690957421800,9.637421875,-0.0875701904296875,-0.9334259033203125,-0.028045654296875
1791103690967393500,9.6473935546875,-0.3000335693359375,-0.80938720703125,-0.167388916015625
1791103690977365800,9.65736572265625,-0.1337738037109375,-0.7864990234375,-0.024200439453125
1791103690987337500,9.66733740234375,-0.4285736083984375,-0.78533935546875,-0.1017608642578125
1791103690997309700,9.677309814453125,-0.8597869873046875,-0.7415771484375,-0.1167755126953125
1791103691007281700,9.68728173828125,-0.66839599609375,-1.05218505859375,-0.0043792724609375
1791103691017253600,9.697253662109375,-0.651519775390625,-1.0009918212890625,-0.092437744140625
1791103691027225900,9.707225830078125,-0.9585113525390625,-0.868408203125,-0.007659912109375
1791103691037197600,9.717197509765626,-0.36968994140625,-1.0834503173828125,-0.0283660888671875
1791103691047169800,9.727169677734375,-0.551239013671875,-0.8997802734375,0.002471923828125
1791103691057141800,9.737141845703125,-0.24249267578125,-0.84173583984375,-0.0202789306640625
1791103691067113700,9.74711376953125,-0.143096923828125,-0.8234100341796875,-0.0515289306640625
1791103691077085700,9.757085693359375,-0.147064208984375,-0.7768707275390625,-0.0194244384765625
1791103691087057700,9.7670576171875,-0.248077392578125,-0.776580810546875,-0.0933074951171875
1791103691097029600,9.777029541015626,-0.7395782470703125,-0.7193756103515625,-0.0342254638671875
1791103691107001900,9.787001953125,-0.5804595947265625,-0.8079681396484375,-0.0236663818359375
1791103691116973600,9.7969736328125,-0.6665496826171875,-0.8062896728515625,-0.127532958984375
1791103691126944800,9.80694482421875,-0.9603424072265625,-0.7044677734375,-0.081634521484375
1791103691136916700,9.816916748046875,-0.821441650390625,-0.7621307373046875,-0.0934295654296875
1791103691146888700,9.826888671875,-0.649017333984375,-0.8480682373046875,-0.0407867431640625
1791103691156860700,9.836860595703126,-0.1548004150390625,-1.1327972412109375,-0.0927276611328125
1791103691166832600,9.84683251953125,-0.4258270263671875,-1.0675811767578125,-0.01031494140625
1791103691176804900,9.856804931640625,-0.660736083984375,-0.7349700927734375,0.06182861328125
1791103691186776600,9.866776611328126,-0.4803619384765625,-0.6172637939453125,-0.068939208984375
1791103691196748800,9.876748779296875,-0.4743194580078125,-0.6165618896484375,-0.14886474609375
1791103691206720500,9.886720458984374,-0.447113037109375,-0.7313690185546875,-0.112518310546875
1791103691216692700,9.896692626953126,-0.5872039794921875,-0.9540557861328125,-0.0987396240234375
1791103691226664700,9.906664794921875,-0.5272064208984375,-1.1553955078125,-0.158233642578125
1791103691236636700,9.91663671875,-0.677764892578125,-0.9362335205078125,-0.214080810546875
1791103691246608600,9.926608642578126,-0.5909881591796875,-0.8774261474609375,-0.2040557861328125
1791103691256580600,9.93658056640625,-0.460693359375,-0.96551513671875,-0.2768096923828125
1791103691266552600,9.946552490234374,-0.5337371826171875,-0.819793701171875,-0.068267822265625
1791103691276524800,9.95652490234375,-0.1981964111328125,-0.8626556396484375,-0.029205322265625
1791103691286497000,9.9664970703125,-0.219451904296875,-0.99395751953125,-0.1558685302734375
1791103691296468000,9.976468017578124,-0.426239013671875,-0.9288787841796875,-0.168304443359375
1791103691306440200,9.986440185546876,-0.38763427734375,-0.822601318359375,-0.03631591796875
1791103691316412000,9.996411865234375,-0.67828369140625,-0.82183837890625,-0.24041748046875
1791103691326384000,10.006384033203124,-0.4335479736328125,-0.88153076171875,-0.042388916015625
1791103691336355800,10.01635595703125,-0.627777099609375,-0.7990875244140625,-0.02862548828125
1791103691346328000,10.026328125,-0.6196746826171875,-0.9019012451171875,-0.0206146240234375
1791103691356300000,10.036300048828124,-0.4284820556640625,-1.01007080078125,-0.083160400390625
1791103691366272000,10.04627197265625,-0.6306610107421875,-0.8217620849609375,0.136962890625
1791103691376244000,10.056243896484375,-0.345733642578125,-0.93878173828125,-0.0670623779296875
1791103691386216000,10.0662158203125,-0.4007415771484375,-0.9208526611328125,0.0581207275390625
1791103691396188000,10.07618798828125,-0.48309326171875,-0.6745147705078125,0.19024658203125
1791103691406160100,10.08616015625,-0.3904571533203125,-0.761505126953125,0.1049957275390625
1791103691416132000,10.096132080078124,-0.10272216796875,-0.9148712158203125,-0.11016845703125
1791103691426104000,10.10610400390625,-0.8148956298828125,-0.7388763427734375,0.0239105224609375
1791103691436076000,10.116075927734375,-0.39459228515625,-1.0306396484375,0.0583953857421875
1791103691446048000,10.126048095703124,-0.573822021484375,-0.8253631591796875,-0.0761871337890625
1791103691456020200,10.136020263671876,-0.743743896484375,-0.890533447265625,0.15106201171875
1791103691465991000,10.145990966796875,-0.7291107177734375,-0.8330230712890625,0.12890625
1791103691475963100,10.155963134765624,-0.3887176513671875,-1.0321044921875,-0.11444091796875
1791103691485934800,10.165934814453125,-0.8108673095703125,-0.795379638671875,0.0260162353515625
1791103691495907000,10.175906982421875,-0.2454376220703125,-1.0161285400390625,0.0744476318359375
1791103691505879000,10.185879150390624,-0.72283935546875,-0.7419586181640625,-0.0308837890625
1791103691515851000,10.19585107421875,-0.0018463134765625,-1.0851898193359375,0.060302734375
1791103691525823200,10.2058232421875,-0.2690887451171875,-0.8610687255859375,-0.0071563720703125
1791103691535795000,10.215794921875,-0.2900238037109375,-0.796722412109375,0.0137939453125
1791103691545767200,10.22576708984375,-0.40435791015625,-0.814453125,-0.035675048828125
1791103691555739000,10.23573876953125,-0.8813018798828125,-0.67364501953125,0.0959014892578125
1791103691565711000,10.245711181640624,-0.42742919921875,-1.05340576171875,-0.1153106689453125
1791103691575683000,10.25568310546875,-0.7888946533203125,-0.92755126953125,-0.006317138671875
1791103691585655000,10.265655029296875,-1.0430755615234375,-0.8851776123046875,0.1614227294921875
1791103691595627000,10.275626953125,-0.36376953125,-1.126373291015625,-0.1123809814453125
1791103691605599000,10.285598876953125,-0.74664306640625,-0.81298828125,-0.0519561767578125
1791103691615571000,10.295571044921875,-0.55059814453125,-0.8514404296875,0.0773468017578125
1791103691625543200,10.305543212890624,-0.2522125244140625,-0.8939361572265625,-0.0926666259765625
1791103691635515000,10.315514892578125,-0.39910888671875,-0.6572418212890625,-0.138641357421875
1791103691645486000,10.325486083984375,-0.226318359375,-0.78057861328125,-0.1947174072265625
1791103691655458000,10.3354580078125,-0.4711151123046875,-0.6760101318359375,-0.1278076171875
1791103691665430000,10.345429931640625,-0.352203369140625,-0.886627197265625,-0.0772247314453125
1791103691675402000,10.355402099609375,-0.6472625732421875,-0.7515869140625,-0.1052093505859375
1791103691685374000,10.3653740234375,-0.5120849609375,-1.0121917724609375,-0.0976715087890625
1791103691695346200,10.37534619140625,-1.02593994140625,-0.7484283447265625,-0.0709381103515625
1791103691705318000,10.38531787109375,-0.7521209716796875,-0.9736328125,-0.107513427734375
1791103691715290000,10.3952900390625,-0.8006134033203125,-0.8137054443359375,-0.097869873046875
1791103691725261800,10.40526171875,-0.3802490234375,-0.956634521484375,0.02606201171875
1791103691735234000,10.415234130859375,-0.5609283447265625,-0.7191925048828125,0.059906005859375
1791103691745206000,10.4252060546875,-0.058258056640625,-0.9441375732421875,-0.03302001953125
1791103691755178000,10.435177978515625,-0.4163665771484375,-0.6795196533203125,0.1318359375
1791103691765150000,10.44514990234375,-0.2817840576171875,-0.759521484375,-0.02081298828125
1791103691775122000,10.455121826171874,-0.3953857421875,-0.8481292724609375,-0.0705108642578125
1791103691785094100,10.46509423828125,-0.74224853515625,-0.76116943359375,0.0648956298828125
1791103691795066000,10.475066162109375,-0.455291748046875,-1.1514434814453125,0.00396728515625
1791103691805037000,10.485037109375,-0.7011566162109375,-0.9159393310546875,-0.0906219482421875
1791103691815009000,10.495009033203125,-0.5597076416015625,-1.0357666015625,0.039703369140625
1791103691824981000,10.50498095703125,-0.608551025390625,-0.77215576171875,0.237396240234375
1791103691834953000,10.514952880859376,-0.3696441650390625,-0.933502197265625,-0.0778350830078125
1791103691844925000,10.524925048828125,-0.2435150146484375,-0.9198760986328125,0.0247650146484375
1791103691854897000,10.53489697265625,-0.3401641845703125,-0.81671142578125,0.03997802734375
1791103691864869000,10.544869140625,-0.433563232421875,-0.8068389892578125,-0.027374267578125
1791103691874841000,10.554841064453125,-0.5621490478515625,-0.9828643798828125,0.02520751953125
1791103691884813000,10.56481298828125,-0.4602203369140625,-0.991912841796875,-0.0445556640625
1791103691894785000,10.574784912109376,-0.8201751708984375,-0.8728790283203125,-0.1406097412109375
1791103691904757000,10.584757080078125,-0.5096893310546875,-0.9495697021484375,-0.065460205078125
1791103691914729200,10.594729248046875,-0.3854217529296875,-1.08331298828125,-0.0932769775390625
1791103691924701000,10.604700927734376,-0.39678955078125,-0.9522857666015625,-0.0625762939453125
1791103691934673200,10.614673095703125,-0.4820098876953125,-0.8375701904296875,-0.0724945068359375
1791103691944644900,10.624644775390625,-0.266510009765625,-0.83111572265625,-0.2109832763671875
1791103691954617000,10.6346171875,-0.451263427734375,-0.723876953125,-0.06451416015625
1791103691964588000,10.644588134765625,-0.523681640625,-0.85546875,0.0252227783203125
1791103691974560000,10.65456005859375,-0.560272216796875,-0.846893310546875,-0.0435943603515625
1791103691984532200,10.6645322265625,-0.7115020751953125,-0.912078857421875,0.0654449462890625
1791103691994504000,10.67450390625,-0.276824951171875,-1.0169525146484375,0.02911376953125
1791103692004476200,10.68447607421875,-0.6979522705078125,-0.83880615234375,-0.0485992431640625
1791103692014447900,10.69444775390625,-0.5686798095703125,-0.737091064453125,-0.043060302734375
1791103692024420000,10.704420166015625,-0.2545928955078125,-0.93499755859375,0.024993896484375
1791103692034392000,10.71439208984375,-0.533203125,-0.799468994140625,-0.01177978515625
1791103692044364000,10.724364013671876,-0.4207000732421875,-0.88916015625,0.0552825927734375
1791103692054336000,10.7343359375,-0.6292572021484375,-0.8127288818359375,0.0899810791015625
1791103692064308000,10.744307861328124,-0.6429595947265625,-0.9044036865234375,-0.0264892578125
1791103692074280000,10.754280029296876,-0.39044189453125,-0.8722076416015625,-0.272857666015625
1791103692084252200,10.764252197265625,-0.5975189208984375,-0.803619384765625,-0.100311279296875
1791103692094224000,10.774223876953124,-0.351409912109375,-0.87701416015625,-0.0095977783203125
1791103692104196000,10.784196044921876,-0.191802978515625,-1.039154052734375,-0.0447845458984375
1791103692114167800,10.794167724609375,-0.364837646484375,-0.8271026611328125,-0.1406402587890625
1791103692124139000,10.804138916015624,-0.5436553955078125,-0.744384765625,-0.0150909423828125
1791103692134111000,10.814111083984375,-0.64263916015625,-0.9613189697265625,-0.1113433837890625
1791103692144083000,10.8240830078125,-0.6090545654296875,-0.9364471435546875,-0.1816864013671875
1791103692154055200,10.83405517578125,-1.132080078125,-0.922088623046875,-0.0288543701171875
1791103692164027000,10.84402685546875,-0.5522003173828125,-0.986083984375,-0.1084442138671875
1791103692173999000,10.8539990234375,-0.5115509033203125,-0.919219970703125,-0.2266998291015625
1791103692183970800,10.863970703125,-0.3536529541015625,-0.696136474609375,0.1167144775390625
1791103692193943000,10.873943115234376,-0.1779022216796875,-0.8462371826171875,-0.02783203125
1791103692203915000,10.8839150390625,-0.401641845703125,-0.667083740234375,-0.0497283935546875
1791103692213887000,10.893886962890624,-0.0990447998046875,-1.049102783203125,0.1392669677734375
1791103692223859000,10.90385888671875,-0.508819580078125,-0.7435150146484375,0.086669921875
1791103692233831000,10.913830810546875,-0.657745361328125,-0.708526611328125,-0.170623779296875
1791103692243803100,10.92380322265625,-0.5709381103515625,-0.8342132568359375,-0.1209869384765625
1791103692253775000,10.933775146484376,-0.43231201171875,-1.0031890869140625,-0.036285400390625
1791103692263747000,10.9437470703125,-0.79119873046875,-0.80609130859375,-0.1368408203125
1791103692273719000,10.953718994140624,-0.4984893798828125,-0.8532867431640625,-0.2317047119140625
1791103692283689200,10.963689208984375,-0.429107666015625,-0.9449615478515625,-0.0238800048828125
1791103692293661200,10.9736611328125,-0.3323516845703125,-0.9547119140625,-0.12933349609375
1791103692303633200,10.983633056640626,-0.5127410888671875,-0.8605194091796875,0.0421295166015625
1791103692313605000,10.993605224609375,-0.3695068359375,-0.7173614501953125,-0.144195556640625
1791103692323577000,11.0035771484375,-0.36566162109375,-0.706756591796875,-0.1721038818359375
1791103692333549300,11.01354931640625,-0.4524078369140625,-0.770721435546875,-0.038177490234375
1791103692343521000,11.02352099609375,-0.4426116943359375,-1.0678253173828125,-0.047760009765625
1791103692353493200,11.0334931640625,-0.51373291015625,-0.9728851318359375,0.2080535888671875
1791103692363465000,11.04346484375,-0.5944976806640625,-0.9206085205078125,-0.0993804931640625
1791103692373437200,11.053437255859375,-0.7237396240234375,-0.801361083984375,-0.1595306396484375
1791103692383409200,11.0634091796875,-0.4826202392578125,-0.985565185546875,-0.1404876708984375
1791103692393381000,11.073381103515626,-1.0173492431640625,-0.7917022705078125,-0.11871337890625
1791103692403353000,11.08335302734375,-0.8573150634765625,-0.93023681640625,-0.1617584228515625
1791103692413325000,11.093324951171875,-0.2529754638671875,-1.107818603515625,-0.0880889892578125
1791103692423297300,11.10329736328125,-0.786834716796875,-0.6114349365234375,-0.0727996826171875
1791103692433269200,11.113269287109375,-0.3465576171875,-0.850372314453125,-0.1163787841796875
1791103692443240200,11.123240234375,-0.0272216796875,-0.917999267578125,-0.0345458984375
1791103692453212200,11.133212158203126,-0.2945098876953125,-0.7805938720703125,0.02008056640625
1791103692463184100,11.14318408203125,-0.72735595703125,-0.652496337890625,-0.1011810302734375
1791103692473156000,11.153156005859374,-0.2903289794921875,-0.9624481201171875,-0.0656585693359375
1791103692483128000,11.163128173828126,-0.618682861328125,-0.906280517578125,-0.13427734375
1791103692493100300,11.173100341796875,-0.9528656005859375,-0.8630828857421875,-0.13092041015625
1791103692503072300,11.183072265625,-0.77532958984375,-0.942901611328125,-0.015594482421875
1791103692513044200,11.193044189453126,-0.65887451171875,-0.8844757080078125,-0.0387115478515625
1791103692523016200,11.20301611328125,-0.5455169677734375,-0.7825775146484375,-0.070648193359375
1791103692532988200,11.21298828125,-0.49462890625,-0.7019195556640625,-0.0794830322265625
1791103692542960000,11.222960205078126,-0.0970458984375,-0.94097900390625,-0.067474365234375
1791103692552932400,11.232932373046875,-0.14178466796875,-0.8165283203125,-0.007110595703125
1791103692562904000,11.242904052734374,-0.6419525146484375,-0.7670135498046875,-0.0134735107421875
1791103692572876300,11.252876220703126,-0.5019989013671875,-0.764129638671875,-0.0660247802734375
1791103692582848000,11.262847900390625,-0.3258056640625,-1.0149993896484375,-0.0609893798828125
1791103692592820200,11.2728203125,-0.98724365234375,-0.6930389404296875,0.021270751953125
1791103692602791200,11.282791259765625,-0.6853790283203125,-0.880126953125,0.062957763671875
1791103692612763100,11.29276318359375,-0.27838134765625,-1.3781890869140625,0.0563201904296875
1791103692622735400,11.3027353515625,-0.8509674072265625,-0.7257080078125,0.0361480712890625
1791103692632707000,11.31270703125,-0.600128173828125,-0.79119873046875,-0.153472900390625
1791103692642679300,11.32267919921875,-0.1356201171875,-0.981719970703125,-0.05914306640625
1791103692652651000,11.332651123046874,-0.20501708984375,-0.9325408935546875,0.0817413330078125
1791103692662623200,11.342623291015625,-0.8228607177734375,-0.5883026123046875,0.096221923828125
1791103692672595200,11.35259521484375,-0.2545318603515625,-1.0028839111328125,-0.1320953369140625
1791103692682567200,11.362567138671874,-0.446014404296875,-0.85906982421875,-0.038238525390625
1791103692692539100,11.3725390625,-0.7514495849609375,-0.859161376953125,-0.105926513671875
1791103692702511000,11.382510986328125,-0.6414794921875,-0.849822998046875,-0.128570556640625
1791103692712483000,11.392483154296874,-0.37176513671875,-1.056610107421875,-0.044036865234375
1791103692722455300,11.402455322265626,-0.3431549072265625,-0.8428955078125,-0.1397705078125
1791103692732427000,11.412427001953125,-0.4413909912109375,-0.681365966796875,0.0037689208984375
1791103692742399200,11.422399169921874,-0.3531036376953125,-0.6764678955078125,0.0440521240234375
1791103692752370200,11.4323701171875,-0.2939605712890625,-0.9313201904296875,-0.169342041015625
1791103692762342100,11.442342041015625,-0.5511016845703125,-0.7264556884765625,-0.0706024169921875
1791103692772314000,11.452314208984374,-0.673980712890625,-0.8542022705078125,0.017791748046875
1791103692782286000,11.4622861328125,-0.5763702392578125,-0.95550537109375,-0.0468902587890625
1791103692792258300,11.47225830078125,-0.6897430419921875,-0.9507293701171875,-0.115081787109375
1791103692802230000,11.48222998046875,-0.6620330810546875,-0.95703125,0.0707855224609375
1791103692812202200,11.4922021484375,-0.6415557861328125,-0.9474334716796875,0.047088623046875
1791103692822174000,11.502174072265625,-0.499298095703125,-0.8803863525390625,-0.034759521484375
1791103692832146200,11.512146240234374,-0.6053314208984375,-0.8066253662109375,0.0551910400390625
1791103692842118100,11.5221181640625,-0.534210205078125,-0.8197174072265625,0.0908203125
1791103692852090000,11.532090087890625,-0.29693603515625,-0.973876953125,-0.0215606689453125
1791103692862062300,11.542062255859374,-0.543731689453125,-0.93255615234375,0.05035400390625
1791103692872034000,11.552033935546875,-0.360870361328125,-1.038177490234375,0.1045684814453125
1791103692882006300,11.56200634765625,-0.6630096435546875,-0.76507568359375,0.041717529296875
1791103692891978200,11.571978271484374,-0.1752166748046875,-0.9283599853515625,-0.0021209716796875
1791103692901950200,11.5819501953125,-0.4581756591796875,-0.824493408203125,0.0230560302734375
1791103692911921200,11.591921142578125,-0.5163726806640625,-0.812896728515625,-0.076995849609375
1791103692921893000,11.60189306640625,-0.4420013427734375,-0.8629913330078125,-0.0171661376953125
1791103692931865000,11.611864990234375,-0.4690093994140625,-0.8385009765625,0.0601806640625
1791103692941837000,11.621837158203125,-0.94500732421875,-0.7806854248046875,0.029876708984375
1791103692951809300,11.631809326171876,-0.6878509521484375,-0.98089599609375,0.00634765625
1791103692961781200,11.64178125,-0.6894683837890625,-0.9281158447265625,-0.055633544921875
1791103692971753200,11.651753173828125,-0.6535186767578125,-0.7663421630859375,-0.0560760498046875
1791103692981725200,11.66172509765625,-0.407012939453125,-0.7625732421875,-0.1438140869140625
1791103692991697200,11.671697265625,-0.250396728515625,-0.8312835693359375,-0.21209716796875
1791103693001669000,11.681669189453125,-0.0318450927734375,-0.7746429443359375,-0.0413818359375
1791103693011641300,11.691641357421876,-0.3677825927734375,-0.7975616455078125,0.0252685546875
1791103693021613000,11.701613037109375,-0.199737548828125,-0.8570404052734375,-0.105377197265625
1791103693031585300,11.711585205078125,-0.4793243408203125,-0.7281951904296875,-0.016265869140625
1791103693041557000,11.721556884765626,-0.60986328125,-0.82012939453125,-0.1145172119140625
1791103693051529200,11.731529296875,-0.5261077880859375,-0.8491668701171875,-0.191497802734375
1791103693061500200,11.741500244140624,-0.9348602294921875,-0.818206787109375,-0.0974273681640625
1791103693071472000,11.75147216796875,-0.6919708251953125,-1.01318359375,-0.083984375
1791103693081444400,11.7614443359375,-0.73577880859375,-0.896697998046875,-0.065582275390625
1791103693091416000,11.771416015625,-0.750091552734375,-0.8138427734375,-0.0728759765625
1791103693101388300,11.78138818359375,-0.6647796630859375,-0.8493194580078125,0.1193695068359375
1791103693111360000,11.791360107421875,0.068084716796875,-1.227294921875,0.05889892578125
1791103693121332200,11.801332275390624,-0.4130096435546875,-0.9255218505859375,-0.0048828125
1791103693131304200,11.81130419921875,-0.3561248779296875,-0.8636627197265625,0.05694580078125
1791103693141276200,11.821276123046875,-0.5981292724609375,-0.733062744140625,-0.0747528076171875
1791103693151248100,11.831248046875,-0.4832000732421875,-0.9574432373046875,-0.111541748046875
1791103693161220000,11.84122021484375,-0.6283721923828125,-0.8370208740234375,0.012115478515625
1791103693171192000,11.851192138671875,-0.4603424072265625,-0.97576904296875,-0.1499481201171875
1791103693181164300,11.861164306640624,-0.6691131591796875,-0.874420166015625,-0.0423583984375
1791103693191136000,11.871135986328126,-0.5676422119140625,-1.0500946044921875,0.0315399169921875
1791103693201108200,11.881108154296875,-0.4976654052734375,-0.940338134765625,0.01239013671875
1791103693211079200,11.8910791015625,-0.6022186279296875,-0.825653076171875,0.078460693359375
1791103693221051100,11.901051025390625,-0.7394256591796875,-0.6727752685546875,-0.0518951416015625
1791103693231023000,11.911023193359375,-0.0213470458984375,-0.91180419921875,0.0845489501953125
1791103693240995000,11.9209951171875,-0.6939849853515625,-0.7490692138671875,0.114776611328125
1791103693250967300,11.93096728515625,-0.4122314453125,-0.931640625,-0.072265625
1791103693260939000,11.94093896484375,-0.5888214111328125,-0.801483154296875,-0.097137451171875
1791103693270911200,11.9509111328125,-0.6128692626953125,-0.775482177734375,0.051239013671875
1791103693280883200,11.96088330078125,-0.5861663818359375,-0.8189544677734375,-0.144012451171875
1791103693290855700,11.970855712890625,-0.5654449462890625,-0.898040771484375,-0.0751190185546875
1791103693300827400,11.980827392578124,-0.4132080078125,-0.9969635009765625,-0.0908660888671875
1791103693310799600,11.990799560546876,-0.4140167236328125,-0.8368988037109375,-0.0796356201171875
1791103693320771600,12.000771484375,-0.4091796875,-0.7773284912109375,-0.0373077392578125
1791103693330743600,12.01074365234375,-0.28680419921875,-0.8739166259765625,-0.0322113037109375
1791103693340715500,12.020715576171876,-0.3790130615234375,-0.7977447509765625,-0.0922393798828125
1791103693350687500,12.0306875,-0.64007568359375,-0.78778076171875,0.0386199951171875
1791103693360659700,12.04065966796875,-0.309600830078125,-0.9272308349609375,-0.1652984619140625
1791103693370630400,12.05063037109375,-0.6469879150390625,-0.799072265625,-0.1563720703125
1791103693380602600,12.0606025390625,-0.4038848876953125,-0.921966552734375,-0.0493316650390625
1791103693390574600,12.07057470703125,-0.6466522216796875,-0.870574951171875,-0.02435302734375
1791103693400546600,12.080546630859375,-0.5436859130859375,-0.9571075439453125,-0.03802490234375
1791103693410518500,12.0905185546875,-0.8316497802734375,-0.8055877685546875,0.02154541015625
1791103693420490500,12.100490478515624,-0.291351318359375,-1.1164703369140625,0.0540771484375
1791103693430462700,12.110462646484375,-0.8443450927734375,-0.7954864501953125,-0.090606689453125
1791103693440434700,12.1204345703125,-0.3289031982421875,-1.0752410888671875,0.0108184814453125
1791103693450406700,12.13040673828125,-0.3665771484375,-0.805450439453125,-0.005859375
1791103693460378600,12.140378662109375,-0.3823699951171875,-0.90704345703125,-0.097564697265625
1791103693470350600,12.1503505859375,-0.5023345947265625,-0.75189208984375,-0.0464324951171875
1791103693480322600,12.160322509765624,-0.2812652587890625,-1.0540771484375,0.0006866455078125
1791103693490294800,12.170294677734375,-0.6764678955078125,-0.8961639404296875,-0.062255859375
1791103693500266500,12.1802666015625,-0.7855682373046875,-0.8864288330078125,-0.0758209228515625
1791103693510238700,12.19023876953125,-0.702117919921875,-0.8798980712890625,-0.0403289794921875
1791103693520209700,12.200209716796875,-0.5531158447265625,-0.99072265625,-0.0443878173828125
1791103693530181600,12.210181640625,-0.739715576171875,-0.83642578125,0.0424652099609375
1791103693540153600,12.220153564453126,-0.6493988037109375,-0.7664337158203125,-0.03289794921875
1791103693550125600,12.23012548828125,-0.529205322265625,-0.7777557373046875,0.0684814453125
1791103693560097800,12.240097900390625,-0.36346435546875,-0.7470550537109375,0.00665283203125
1791103693570069500,12.250069580078126,-0.4658660888671875,-0.857635498046875,-0.0955810546875
1791103693580041700,12.260041748046875,-0.604248046875,-0.7834014892578125,-0.034942626953125
1791103693590013400,12.270013427734375,-0.1929931640625,-0.992340087890625,0.0116729736328125
1791103693599985700,12.279985595703126,-0.553375244140625,-0.717681884765625,-0.10498046875
1791103693609957600,12.28995751953125,-0.5486907958984375,-0.8101654052734375,0.0139923095703125
1791103693619929600,12.2999296875,-0.40435791015625,-0.7876129150390625,-0.0967559814453125
1791103693629901600,12.309901611328126,-0.4983062744140625,-0.7895050048828125,0.015899658203125
1791103693639873500,12.31987353515625,-0.5936431884765625,-0.8366241455078125,0.0308837890625
1791103693649845500,12.329845458984375,-0.618927001953125,-0.849212646484375,-0.0066375732421875
1791103693659816400,12.33981640625,-0.4620819091796875,-0.9821014404296875,0.02410888671875
1791103693669788700,12.34978857421875,-0.7053070068359375,-0.8477020263671875,0.070281982421875
1791103693679760600,12.3597607421875,-0.364776611328125,-1.1399993896484375,0.013275146484375
1791103693689732600,12.369732666015626,-0.5608673095703125,-0.7481689453125,0.0132598876953125
1791103693699704600,12.37970458984375,-0.3022003173828125,-0.9977264404296875,0.105865478515625
1791103693709676500,12.389676513671875,-0.1571197509765625,-0.8610076904296875,0.030303955078125
1791103693719648500,12.3996484375,-0.50079345703125,-0.8085479736328125,-0.0292816162109375
1791103693729620700,12.409620849609375,-0.5765838623046875,-0.8178253173828125,-0.01617431640625
1791103693739592400,12.419592529296875,-0.24713134765625,-1.0400543212890625,-0.045196533203125
1791103693749564700,12.429564697265626,-0.6817474365234375,-0.9049072265625,-0.0707550048828125
1791103693759536400,12.439536376953125,-0.78399658203125,-0.862548828125,0.06524658203125
1791103693769508600,12.449508544921875,-0.5796966552734375,-1.049530029296875,0.068511962890625
1791103693779480600,12.45948046875,-0.43975830078125,-1.0331268310546875,0.0518035888671875
1791103693789452500,12.46945263671875,-0.4615936279296875,-1.0397796630859375,0.091278076171875
1791103693799424800,12.4794248046875,-0.422760009765625,-0.8347930908203125,0.215789794921875
1791103693809395500,12.4893955078125,-0.5693359375,-0.7440643310546875,-0.0638885498046875
1791103693819367700,12.49936767578125,-0.118682861328125,-0.9719390869140625,0.0182342529296875
1791103693829339400,12.50933935546875,-0.63275146484375,-0.7562255859375,0.0096435546875
1791103693839311600,12.5193115234375,-0.71075439453125,-0.6863861083984375,-0.080474853515625
1791103693849283600,12.52928369140625,-0.304107666015625,-0.90185546875,-0.030517578125
1791103693859255600,12.539255615234374,-0.763946533203125,-0.7444610595703125,0.0132904052734375
1791103693869227500,12.5492275390625,-0.453125,-0.9364776611328125,0.012725830078125
1791103693879199500,12.559199462890625,-0.5556640625,-0.96246337890625,0.022796630859375
1791103693889171700,12.569171630859374,-0.6967926025390625,-0.7673492431640625,0.007476806640625
1791103693899143700,12.579143798828126,-0.539703369140625,-0.8731689453125,-0.045989990234375
1791103693909115600,12.58911572265625,-0.236297607421875,-0.815521240234375,-0.059844970703125
1791103693919087600,12.599087646484374,-0.3991851806640625,-0.826751708984375,-0.1404571533203125
1791103693929059600,12.6090595703125,-0.5101776123046875,-0.7901153564453125,-0.03961181640625
1791103693939031600,12.619031494140625,-0.24981689453125,-0.90234375,-0.111358642578125
1791103693949003800,12.629003662109374,-0.7364044189453125,-0.501434326171875,-0.0654449462890625
1791103693958974700,12.638974609375,-0.609954833984375,-0.9210968017578125,-0.168243408203125
1791103693968946700,12.64894677734375,-0.7501678466796875,-0.9563140869140625,0.0728302001953125
1791103693978918700,12.658918701171874,-0.603363037109375,-1.0868377685546875,-0.005157470703125
1791103693988890600,12.668890625,-0.7111358642578125,-0.7886199951171875,-0.052459716796875
1791103693998862600,12.678862548828125,-0.2869110107421875,-0.98443603515625,0.0093841552734375
1791103694008834600,12.68883447265625,-0.3502197265625,-0.795806884765625,-0.03570556640625
1791103694018806800,12.698806884765625,-0.5625457763671875,-0.746002197265625,0.037811279296875
1791103694028778500,12.708778564453125,-0.1688079833984375,-0.9882354736328125,-0.030731201171875
1791103694038750700,12.718750732421874,-0.6599884033203125,-0.7674102783203125,-0.000732421875
1791103694048722400,12.728722412109375,-0.740081787109375,-0.8535003662109375,0.020843505859375
1791103694058694700,12.738694580078125,-0.56683349609375,-1.0264892578125,0.043304443359375
1791103694068666600,12.74866650390625,-0.4873504638671875,-1.0880584716796875,0.06805419921875
1791103694078638600,12.758638671875,-0.688018798828125,-0.809417724609375,-0.0529632568359375
1791103694088610600,12.768610595703125,-0.285308837890625,-0.911529541015625,0.05078125
