time,seconds_elapsed,z,y,x
1791103681359401200,0.039401123046875,-0.2834649085998535,-0.3169892430305481,0.04210556298494339
1791103681369373400,0.04937353515625,-0.2289564162492752,-0.30352723598480225,-0.021686198189854622
1791103681379345200,0.05934521484375,-0.19590112566947937,-0.3014785945415497,0.02944941073656082
1791103681389317400,0.0693173828125,-0.1276584267616272,-0.29311439394950867,-0.024101432412862778
1791103681399289000,0.0792890625,-0.18120577931404114,-0.2713814377784729,-0.0226124320179224
1791103681409261300,0.08926123046875,-0.13708092272281647,-0.251979798078537,-0.06885822117328644
1791103681419233300,0.0992333984375,-0.11023358255624771,-0.2423115074634552,-0.02459646388888359
1791103681429205200,0.109205322265625,-0.11971630156040192,-0.2455025017261505,-0.030835185199975967
1791103681439177200,0.11917724609375,-0.09854713827371597,-0.25351276993751526,-0.03404264897108078
1791103681449149200,0.129149169921875,-0.0844249278306961,-0.27341747283935547,-0.018253833055496216
1791103681459121200,0.13912109375,-0.12545464932918549,-0.2828713357448578,0.03840988129377365
1791103681469093400,0.14909326171875,-0.08032207190990448,-0.2874237596988678,0.05013924092054367
1791103681479065000,0.159065185546875,-0.05424058437347412,-0.23736928403377533,0.06651777774095535
1791103681489037300,0.169037353515625,0.05714505910873413,-0.22434616088867188,-0.010233189910650253
1791103681499009000,0.179009033203125,0.0009041251614689827,-0.19901223480701447,0.037294868379831314
1791103681508981200,0.188981201171875,0.07758957892656326,-0.19355487823486328,-0.010424450971186161
1791103681518953200,0.198953125,0.1701914370059967,-0.13348454236984253,-0.039471887052059174
1791103681528925200,0.20892529296875,0.19201578199863434,-0.17048411071300507,-0.046411555260419846
1791103681538897200,0.218897216796875,0.08850464969873428,-0.2174578756093979,0.05036615580320358
1791103681548869000,0.228869140625,0.033741265535354614,-0.1529662311077118,0.004479358904063702
1791103681558841300,0.23884130859375,0.13871882855892181,-0.1462012082338333,-0.014057379215955734
1791103681568813300,0.248813232421875,0.17493648827075958,-0.14094892144203186,0.04854288324713707
1791103681578785300,0.258785400390625,0.30790016055107117,-0.11326634883880615,-0.02432243339717388
1791103681588757200,0.26875732421875,0.20827345550060272,-0.10976216197013855,0.06288516521453857
1791103681598729200,0.278729248046875,0.12163868546485901,-0.1365193873643875,0.021004516631364822
1791103681608701200,0.288701171875,0.15268555283546448,-0.10209588706493378,-0.036989543586969376
1791103681618673400,0.29867333984375,0.27147185802459717,-0.10862009972333908,-0.022857479751110077
1791103681628645000,0.30864501953125,0.24568180739879608,-0.10786216706037521,0.08379147201776505
1791103681638617300,0.318617431640625,0.23882736265659332,-0.0998508408665657,-0.0077632153406739235
1791103681648589000,0.328589111328125,0.20693467557430267,-0.11866474151611328,0.06569662690162659
1791103681658561300,0.338561279296875,0.19634750485420227,-0.11036492139101028,0.016503460705280304
1791103681668533200,0.348533203125,0.16619093716144562,-0.11017770320177078,0.0949239656329155
1791103681678505200,0.358505126953125,0.22224830090999603,-0.07015717029571533,-0.03511804714798927
1791103681688477200,0.368477294921875,0.23668131232261658,-0.09943302720785141,0.10788384824991226
1791103681698449200,0.37844921875,0.2376425415277481,-0.07790271192789078,0.10477612912654877
1791103681708421000,0.388421142578125,0.2802451252937317,-0.0874251127243042,0.06555202603340149
1791103681718393300,0.398393310546875,0.22750289738178253,-0.06585422903299332,0.00862627848982811
1791103681728365000,0.408364990234375,0.20908820629119873,-0.05842933803796768,-0.003009339328855276
1791103681738337300,0.418337158203125,0.2086968719959259,-0.03751019760966301,-0.0037317457608878613
1791103681748309200,0.428309326171875,0.23342324793338776,-0.06747608631849289,0.005611955188214779
1791103681758281200,0.43828125,0.19995518028736115,-0.02609434351325035,-0.03351369500160217
1791103681768253400,0.44825341796875,0.27631598711013794,-0.06360523402690887,0.010486787185072899
1791103681778225200,0.45822509765625,0.22049447894096375,-0.06874606758356094,0.07563721388578415
1791103681788197400,0.468197265625,0.1951233446598053,-0.11457374691963196,0.11959907412528992
1791103681798169000,0.478169189453125,0.14753457903862,-0.08381069451570511,0.14677412807941437
1791103681808141300,0.488141357421875,0.2054700404405594,-0.0729396715760231,0.15141016244888306
1791103681818113000,0.498113037109375,0.23634999990463257,-0.017727676779031754,0.18835169076919556
1791103681828085200,0.508085205078125,0.31450098752975464,0.03718271106481552,0.08766583353281021
1791103681838057200,0.51805712890625,0.3252817690372467,0.05600641667842865,0.04885135218501091
1791103681848029200,0.528029296875,0.3525749146938324,0.13349029421806335,-0.03436204791069031
1791103681858001200,0.538001220703125,0.3707105815410614,0.15067017078399658,-0.021609177812933922
1791103681867973000,0.54797314453125,0.43415161967277527,0.1735512614250183,-0.14011824131011963
1791103681877945000,0.557945068359375,0.32850655913352966,0.18562641739845276,0.032261788845062256
1791103681887917300,0.567917236328125,0.3599901795387268,0.17103761434555054,-0.03288711979985237
1791103681897889000,0.577888916015625,0.37324607372283936,0.1799626648426056,0.019909517839550972
1791103681907861200,0.587861328125,0.3854985237121582,0.15931865572929382,0.05891919136047363
1791103681917833200,0.597833251953125,0.324754923582077,0.14081768691539764,0.1541096419095993
1791103681927805200,0.60780517578125,0.347659707069397,0.14466090500354767,0.16275745630264282
1791103681937777400,0.61777734375,0.2962658405303955,0.1927964985370636,0.10331805050373077
1791103681947749000,0.6277490234375,0.3177724778652191,0.14640556275844574,0.0037184939719736576
1791103681957721300,0.637721435546875,0.26694154739379883,0.10522031784057617,0.029077867045998573
1791103681967693000,0.647693115234375,0.31974536180496216,0.09680366516113281,-0.01686272770166397
1791103681977665300,0.657665283203125,0.2870994806289673,0.08879919350147247,0.003539333352819085
1791103681987637200,0.66763720703125,0.23974446952342987,0.08278923481702805,0.015336338430643082
1791103681997609200,0.677609130859375,0.2236328125,0.02537693828344345,0.08852503448724747
1791103682007581200,0.687581298828125,0.1631614714860916,0.02061094529926777,0.003665268886834383
1791103682017553200,0.69755322265625,0.185576394200325,0.004319600760936737,-0.0303887277841568
1791103682027525000,0.707525146484375,0.12549759447574615,0.02239980176091194,-0.009437641128897667
1791103682037497300,0.717497314453125,0.14723774790763855,0.06448305398225784,-0.07837618142366409
1791103682047469000,0.727468994140625,0.17421077191829681,0.09333094209432602,-0.09075988084077835
1791103682057441300,0.737441162109375,0.13781416416168213,0.10592173784971237,-0.046320945024490356
1791103682067413000,0.7474130859375,0.18057042360305786,0.11734990030527115,-0.04675610363483429
1791103682077385200,0.75738525390625,0.264875590801239,0.12408891320228577,-0.048388902097940445
1791103682087357200,0.767357177734375,0.2580384314060211,0.16322752833366394,-0.029132649302482605
1791103682097329200,0.7773291015625,0.2587548494338989,0.14729005098342896,0.022056791931390762
1791103682107301000,0.787301025390625,0.2570866346359253,0.19402825832366943,0.026006795465946198
1791103682117273000,0.797273193359375,0.28856077790260315,0.23509784042835236,0.03236241638660431
1791103682127245300,0.807245361328125,0.24646501243114471,0.2428673356771469,0.05334386229515076
1791103682137217300,0.81721728515625,0.27072665095329285,0.2411685585975647,0.00874148216098547
1791103682147189200,0.827189208984375,0.271829754114151,0.2501732409000397,0.096854567527771
1791103682157161200,0.8371611328125,0.2898216247558594,0.25608116388320923,0.0456053800880909
1791103682167133200,0.84713330078125,0.2542268931865692,0.28083232045173645,-0.012551934458315372
1791103682177105200,0.857105224609375,0.24065637588500977,0.24315090477466583,0.049891147762537
1791103682187077400,0.867077392578125,0.17987291514873505,0.22167517244815826,0.005148708820343018
1791103682197049000,0.877049072265625,0.12416253983974457,0.23735065758228302,-0.07334385067224503
1791103682207021300,0.887021240234375,0.10465382039546967,0.2255326211452484,0.05170008912682533
1791103682216993000,0.896992919921875,0.12115258723497391,0.2201806604862213,0.051210448145866394
1791103682226965200,0.90696533203125,0.12612390518188477,0.2078680694103241,0.011538137681782246
1791103682236937200,0.916937255859375,0.06847469508647919,0.21972955763339996,0.05543685704469681
1791103682246909200,0.9269091796875,0.06651301681995392,0.22698239982128143,0.037609390914440155
1791103682256881200,0.936881103515625,0.04388241842389107,0.22736574709415436,0.02099580690264702
1791103682266852900,0.946852783203125,0.11571159958839417,0.20750603079795837,0.08896686881780624
1791103682276824800,0.956824951171875,0.08927759528160095,0.2565057873725891,0.04513709619641304
1791103682286796800,0.966796875,0.13344453275203705,0.24022988975048065,0.08858789503574371
1791103682296769000,0.97676904296875,0.10431807488203049,0.2606990933418274,0.07496193051338196
1791103682306740700,0.98674072265625,0.09137777239084244,0.2452048361301422,0.012649559415876865
1791103682316713000,0.996712890625,0.030237436294555664,0.24042946100234985,0.042156655341386795
1791103682326684700,1.0066845703125,0.023814689368009567,0.23096325993537903,0.0027490612119436264
1791103682336657000,1.016656982421875,-0.017008835449814796,0.22588004171848297,-0.05195947363972664
1791103682346628900,1.02662890625,0.013687822967767715,0.18980513513088226,-0.06496688723564148
1791103682356600800,1.036600830078125,-0.05616947263479233,0.1726425290107727,0.004618082195520401
1791103682366572800,1.04657275390625,-0.04847081005573273,0.1514376401901245,-0.007638051640242338
1791103682376543700,1.056543701171875,-0.07427670806646347,0.11760612577199936,0.06859111785888672
1791103682386516000,1.066515869140625,-0.11688674986362457,0.0962853953242302,0.0859336256980896
1791103682396487700,1.07648779296875,-0.1996413618326187,0.08456505089998245,0.13897673785686493
1791103682406460000,1.0864599609375,-0.127181276679039,0.048113297671079636,0.17093227803707123
1791103682416431900,1.096431884765625,-0.151124507188797,0.05884959548711777,0.1582721620798111
1791103682426403800,1.10640380859375,-0.1084582656621933,0.03647638112306595,0.11240506917238235
1791103682436375800,1.116375732421875,-0.12459590286016464,0.0853576511144638,0.020098265260457993
1791103682446347800,1.12634765625,-0.0920984223484993,0.06958028674125671,0.02212599664926529
1791103682456319700,1.13631982421875,-0.1522619128227234,0.10604087263345718,0.010491950437426567
1791103682466292000,1.1462919921875,-0.11611882597208023,0.06770732998847961,0.059461090713739395
1791103682476263700,1.156263671875,-0.12629924714565277,0.11687193065881729,0.002630222588777542
1791103682486236000,1.16623583984375,-0.08116265386343002,0.07053665816783905,0.07938891649246216
1791103682496207600,1.17620751953125,-0.16746282577514648,0.09297657757997513,0.05978121608495712
1791103682506179800,1.186179931640625,-0.20532365143299103,0.10068376362323761,0.09792167693376541
1791103682516151800,1.19615185546875,-0.18487173318862915,0.1141277402639389,0.04303103685379028
1791103682526123800,1.206123779296875,-0.08341862261295319,0.14456500113010406,-0.0304596908390522
1791103682536095700,1.216095703125,-0.0790499821305275,0.19267351925373077,-0.04683876037597656
1791103682546067700,1.226067626953125,-0.007829329930245876,0.19389910995960236,-0.06712832301855087
1791103682556040000,1.2360400390625,-0.1049872413277626,0.20630088448524475,-0.04117375239729881
1791103682566012000,1.246011962890625,-0.12310739606618881,0.17260684072971344,-0.0035752460826188326
1791103682575983900,1.25598388671875,-0.12035634368658066,0.18720735609531403,0.02431710623204708
1791103682585955800,1.265955810546875,-0.17081551253795624,0.1809646338224411,-0.04627503827214241
1791103682595927800,1.275927734375,-0.27699050307273865,0.0901840552687645,0.09483537822961807
1791103682605899800,1.285899658203125,-0.29065197706222534,0.1096818596124649,0.07620231062173843
1791103682615872000,1.2958720703125,-0.24163255095481873,0.04565954953432083,0.07234812527894974
1791103682625843700,1.30584375,-0.2409670203924179,0.03074025735259056,0.08840113133192062
1791103682635816000,1.31581591796875,-0.2377314269542694,0.03835012763738632,0.0011314571602270007
1791103682645787600,1.32578759765625,-0.3148035705089569,0.0025798799470067024,0.07330871373414993
1791103682655760000,1.335759765625,-0.32843586802482605,0.006590074859559536,-0.006239527836441994
1791103682665731800,1.34573193359375,-0.3910459876060486,-0.01574425771832466,0.1420881450176239
1791103682675703800,1.355703857421875,-0.32285645604133606,0.036623764783144,-0.04692012444138527
1791103682685675800,1.36567578125,-0.29011979699134827,0.07614560425281525,-0.07493631541728973
1791103682695647700,1.375647705078125,-0.30457577109336853,0.1025603711605072,-0.05705920606851578
1791103682705619700,1.38561962890625,-0.23199239373207092,0.06567132472991943,-0.10686298459768295
1791103682715592000,1.395592041015625,-0.3382561504840851,0.0798574760556221,-0.08910536766052246
1791103682725563600,1.405563720703125,-0.3497926890850067,0.07315882295370102,-0.030873488634824753
1791103682735535900,1.415535888671875,-0.3370888829231262,0.11293520778417587,-0.10089032351970673
1791103682745507800,1.4255078125,-0.3690582513809204,0.07682833820581436,-0.0692085549235344
1791103682755479800,1.435479736328125,-0.3244556784629822,0.06484974920749664,-0.08489913493394852
1791103682765452000,1.4454521484375,-0.28905534744262695,0.0493600070476532,-0.050946224480867386
1791103682775423700,1.455423828125,-0.2691335380077362,0.028755351901054382,0.043365929275751114
1791103682785396000,1.46539599609375,-0.2912609279155731,0.05468415468931198,-0.01786147803068161
1791103682795367700,1.47536767578125,-0.2681119441986084,0.040496814996004105,-0.07360131293535233
1791103682805340000,1.48533984375,-0.325981080532074,0.024193206802010536,-0.1371677666902542
1791103682815312000,1.495311767578125,-0.3514418601989746,-0.013372447341680527,-0.16111353039741516
1791103682825283800,1.505283935546875,-0.43306243419647217,-0.07202084362506866,-0.10157137364149094
1791103682835255800,1.515255859375,-0.4459262490272522,-0.13307835161685944,-0.1774214655160904
1791103682845227800,1.525227783203125,-0.516113817691803,-0.20290350914001465,-0.0929446741938591
1791103682855199700,1.53519970703125,-0.5708183646202087,-0.2559269666671753,-0.051318660378456116
1791103682865172000,1.545171875,-0.6217308640480042,-0.28099796175956726,-0.027542490512132645
1791103682875143700,1.555143798828125,-0.6051682233810425,-0.31776365637779236,0.002422950230538845
1791103682885116000,1.565115966796875,-0.6386484503746033,-0.30296790599823,0.0041526732966303825
1791103682895087600,1.575087646484375,-0.5528906583786011,-0.3360404670238495,-0.008178510703146458
1791103682905059800,1.585059814453125,-0.5468375086784363,-0.30210888385772705,-0.09108724445104599
1791103682915031800,1.59503173828125,-0.4667011797428131,-0.2667465806007385,-0.1091371700167656
1791103682925003800,1.605003662109375,-0.38295382261276245,-0.18706239759922028,-0.1514689028263092
1791103682934975700,1.614975830078125,-0.3348167836666107,-0.13693347573280334,-0.07080580294132233
1791103682944947700,1.62494775390625,-0.2998603880405426,-0.0793474093079567,-0.09586402773857117
1791103682954920000,1.634919921875,-0.3227023482322693,-0.030994422733783722,-0.04302753880620003
1791103682964891600,1.6448916015625,-0.2805945873260498,0.013866258785128593,-0.07169140130281448
1791103682974864000,1.65486376953125,-0.24851733446121216,0.03193484619259834,-0.02522999607026577
1791103682984835800,1.6648359375,-0.18907426297664642,0.009604773484170437,-0.00007670652121305466
1791103682994807800,1.674807861328125,-0.23514866828918457,0.025502461940050125,0.0007655672961845994
1791103683004779800,1.68477978515625,-0.22772057354450226,0.031138774007558823,-0.06821243464946747
1791103683014751700,1.694751708984375,-0.2302340567111969,0.02034461498260498,-0.08425761759281158
1791103683024723700,1.7047236328125,-0.2520813047885895,0.007235735654830933,-0.10878986120223999
1791103683034696000,1.714696044921875,-0.2585621178150177,-0.058096133172512054,-0.12664315104484558
1791103683044667600,1.724667724609375,-0.3218177855014801,-0.0903395563364029,-0.12058473378419876
1791103683054639900,1.734639892578125,-0.4004567265510559,-0.15184076130390167,-0.11867590993642807
1791103683064611600,1.744611572265625,-0.4634498059749603,-0.19854329526424408,-0.14240281283855438
1791103683074583800,1.754583740234375,-0.5132594704627991,-0.24158979952335358,-0.10943430662155151
1791103683084555800,1.7645556640625,-0.6167040467262268,-0.3053557276725769,0.01569778472185135
1791103683094527700,1.77452783203125,-0.6543070673942566,-0.378446102142334,0.0377768911421299
1791103683104499700,1.784499755859375,-0.6978154182434082,-0.4389248788356781,0.047440167516469955
1791103683114471700,1.7944716796875,-0.7161710262298584,-0.4537326991558075,0.10560183972120285
1791103683124443600,1.804443603515625,-0.7045881152153015,-0.4899154603481293,0.0991324856877327
1791103683134416000,1.814415771484375,-0.6884884834289551,-0.46993502974510193,0.08852158486843109
1791103683144387800,1.824387939453125,-0.638807475566864,-0.4515475034713745,0.007852575741708279
1791103683154359800,1.83435986328125,-0.5289607048034668,-0.43286970257759094,-0.019527804106473923
1791103683164331800,1.844331787109375,-0.47830793261528015,-0.36655378341674805,-0.010827790014445782
1791103683174303700,1.8543037109375,-0.4788370728492737,-0.3104342222213745,-0.01275475975126028
1791103683184276000,1.86427587890625,-0.41809648275375366,-0.296609491109848,-0.015219515189528465
1791103683194247700,1.87424755859375,-0.3937893211841583,-0.32576337456703186,0.03060716949403286
1791103683204220000,1.884219970703125,-0.3975193500518799,-0.3675861656665802,0.06398031115531921
1791103683214191600,1.894191650390625,-0.4838019609451294,-0.37275230884552,0.10899680852890015
1791103683224162800,1.904162841796875,-0.5094631314277649,-0.41334474086761475,0.08155852556228638
1791103683234134800,1.914134765625,-0.49926334619522095,-0.4398164749145508,0.06655970960855484
1791103683244106800,1.924106689453125,-0.5404480695724487,-0.4412425756454468,0.09912058711051941
1791103683254079000,1.934078857421875,-0.4244415760040283,-0.46099168062210083,0.04100862145423889
1791103683264050700,1.94405078125,-0.45908236503601074,-0.4423399567604065,0.044884320348501205
1791103683274022700,1.954022705078125,-0.45256826281547546,-0.427253782749176,0.036635275930166245
1791103683283994400,1.963994384765625,-0.4618088901042938,-0.39544445276260376,0.029183218255639076
1791103683293966600,1.973966552734375,-0.46173906326293945,-0.3961207866668701,0.05757743865251541
1791103683303938600,1.9839384765625,-0.4370694160461426,-0.390337198972702,0.08285323530435562
1791103683313910500,1.99391064453125,-0.3951056897640228,-0.40174368023872375,0.13314582407474518
1791103683323882500,2.003882568359375,-0.30732735991477966,-0.40403106808662415,0.09610790759325027
1791103683333854500,2.0138544921875,-0.29023557901382446,-0.38175809383392334,0.12396635115146637
1791103683343826400,2.023826416015625,-0.21848440170288086,-0.36235350370407104,0.0840413048863411
1791103683353798700,2.033798583984375,-0.19588251411914825,-0.34062328934669495,0.12137477099895477
1791103683363770400,2.043770263671875,-0.15906618535518646,-0.3026261031627655,0.1306641399860382
1791103683373742600,2.05374267578125,-0.16765692830085754,-0.22722823917865753,0.10953401029109955
1791103683383714600,2.063714599609375,-0.06977216899394989,-0.2257227599620819,0.09905420243740082
1791103683393686500,2.0736865234375,-0.04084916040301323,-0.20452101528644562,0.05465492233633995
1791103683403658800,2.08365869140625,-0.04288621246814728,-0.1712365597486496,0.02552260272204876
1791103683413630500,2.09363037109375,-0.014305840246379375,-0.14958234131336212,0.002984887920320034
1791103683423602700,2.103602783203125,0.03890305384993553,-0.1305292844772339,0.028466278687119484
1791103683433574400,2.113574462890625,-0.005989387631416321,-0.10615991055965424,0.1393839716911316
1791103683443546600,2.123546630859375,0.015055976808071136,-0.08700112998485565,0.03689995035529137
1791103683453518600,2.1335185546875,0.035269349813461304,-0.1030065193772316,0.055658530443906784
1791103683463490600,2.143490478515625,0.03586403280496597,-0.09001827985048294,0.04433450475335121
1791103683473462500,2.153462646484375,0.01775851473212242,-0.0637236163020134,0.046453651040792465
1791103683483434500,2.1634345703125,0.042203936725854874,-0.05976482853293419,0.0783921405673027
1791103683493406500,2.173406494140625,0.04494313523173332,-0.05669185891747475,0.05859491974115372
1791103683503378700,2.183378662109375,0.05495182424783707,-0.018350863829255104,0.048699941486120224
1791103683513350400,2.193350341796875,0.042042143642902374,-0.013877980411052704,0.06256798654794693
1791103683523322600,2.203322509765625,0.08292539417743683,-0.028643878176808357,0.064561627805233
1791103683533294300,2.21329443359375,0.032589077949523926,-0.007961401715874672,0.03428659960627556
1791103683543266600,2.2232666015625,0.01763383112847805,-0.036145370453596115,0.029465215280652046
1791103683553238500,2.233238525390625,-0.020095471292734146,-0.05830093100667,0.01494220457971096
1791103683563210500,2.24321044921875,-0.0199295561760664,-0.07202126830816269,0.02979838103055954
1791103683573182500,2.253182373046875,-0.029155021533370018,-0.09434031695127487,0.010525785386562347
1791103683583154400,2.263154541015625,-0.10292644798755646,-0.1302650272846222,0.12378150224685669
1791103683593126700,2.273126708984375,-0.20636604726314545,-0.09833411127328873,0.03477693721652031
1791103683603098600,2.2830986328125,-0.25170210003852844,-0.12242719531059265,0.04525194689631462
1791103683613070600,2.293070556640625,-0.2382485568523407,-0.1520279347896576,0.00995612982660532
1791103683623042600,2.30304248046875,-0.2664221525192261,-0.1802976429462433,0.012429939582943916
1791103683633014500,2.3130146484375,-0.2828867733478546,-0.20231392979621887,-0.021184852346777916
1791103683642986500,2.322986572265625,-0.2753753364086151,-0.1827426254749298,-0.07255935668945312
1791103683652958700,2.332958740234375,-0.28486350178718567,-0.15794502198696136,-0.0632646456360817
1791103683662930400,2.342930419921875,-0.2978237569332123,-0.1863337904214859,0.013566485606133938
1791103683672902700,2.352902587890625,-0.33100205659866333,-0.17139464616775513,-0.040014009922742844
1791103683682874400,2.362874267578125,-0.4189726710319519,-0.18289630115032196,-0.004370528738945723
1791103683692846600,2.3728466796875,-0.5008920431137085,-0.20616036653518677,0.013815504498779774
1791103683702818600,2.382818603515625,-0.4764748811721802,-0.2376839518547058,0.04962623119354248
1791103683712790500,2.39279052734375,-0.48990190029144287,-0.24249644577503204,0.10089187324047089
1791103683722762500,2.402762451171875,-0.45710986852645874,-0.2599335014820099,0.11876647174358368
1791103683732734500,2.412734375,-0.4687979817390442,-0.28551536798477173,0.13457798957824707
1791103683742706400,2.42270654296875,-0.5056861639022827,-0.2692245543003082,0.08387700468301773
1791103683752678700,2.4326787109375,-0.5196970701217651,-0.27797871828079224,0.1318006068468094
1791103683762650400,2.442650390625,-0.537879228591919,-0.2750375270843506,0.10138597339391708
1791103683772622600,2.45262255859375,-0.5837996006011963,-0.29604604840278625,0.12808866798877716
1791103683782594600,2.462594482421875,-0.6217259764671326,-0.31850552558898926,0.12616880238056183
1791103683792566500,2.47256640625,-0.6479501724243164,-0.3206727206707001,0.08381872624158859
1791103683802538800,2.482538818359375,-0.6098456978797913,-0.3433860242366791,0.05443926528096199
1791103683812510500,2.492510498046875,-0.6526380777359009,-0.345338374376297,0.03797968477010727
1791103683822482700,2.502482666015625,-0.5823506116867065,-0.34330159425735474,0.052992191165685654
1791103683832454400,2.512454345703125,-0.5878995060920715,-0.32718098163604736,0.12311111390590668
1791103683842426600,2.522426513671875,-0.5890178084373474,-0.31282147765159607,0.07750474661588669
1791103683852398600,2.532398681640625,-0.601085364818573,-0.32488328218460083,0.12530799210071564
1791103683862370600,2.54237060546875,-0.5575392246246338,-0.31972524523735046,0.127055823802948
1791103683872341800,2.552341796875,-0.5228725075721741,-0.3269279897212982,0.15690088272094727
1791103683882313500,2.5623134765625,-0.5318633317947388,-0.3071769177913666,0.1253320425748825
1791103683892285700,2.57228564453125,-0.4984089434146881,-0.3134710192680359,0.18457649648189545
1791103683902257400,2.58225732421875,-0.49429944157600403,-0.2876625955104828,0.2089071273803711
1791103683912229600,2.592229736328125,-0.45951172709465027,-0.28946009278297424,0.14030784368515015
1791103683922201600,2.60220166015625,-0.5451887845993042,-0.29556167125701904,0.20527060329914093
1791103683932173600,2.612173583984375,-0.49948638677597046,-0.3487685024738312,0.1936662644147873
1791103683942145500,2.6221455078125,-0.5496475696563721,-0.3684481978416443,0.10536062717437744
1791103683952117500,2.632117431640625,-0.6402713060379028,-0.4152751564979553,0.17180714011192322
1791103683962089500,2.64208935546875,-0.674485981464386,-0.4763864576816559,0.17680135369300842
1791103683972061700,2.652061767578125,-0.6921806931495667,-0.5391092300415039,0.21846996247768402
1791103683982033400,2.662033447265625,-0.7734163999557495,-0.5986341238021851,0.1878468096256256
1791103683992005600,2.672005615234375,-0.8225433230400085,-0.7206315398216248,0.15128269791603088
1791103684001977300,2.681977294921875,-0.8837776780128479,-0.809597909450531,0.04637438803911209
1791103684011949600,2.691949462890625,-1.0041944980621338,-0.8621141910552979,-0.06318008899688721
1791103684021921500,2.701921630859375,-1.129938006401062,-0.891684353351593,-0.10115943104028702
1791103684031893500,2.7118935546875,-1.121416687965393,-0.9069885611534119,-0.0684690997004509
1791103684041865500,2.721865478515625,-1.1331809759140015,-0.8830912113189697,-0.007100541144609451
1791103684051837400,2.73183740234375,-1.077770709991455,-0.8509989380836487,-0.05960725620388985
1791103684061809700,2.7418095703125,-0.992209255695343,-0.8254906535148621,0.10919587314128876
1791103684071781600,2.75178173828125,-0.9396111369132996,-0.8266330361366272,0.14989514648914337
1791103684081753600,2.761753662109375,-0.9652650952339172,-0.8166784048080444,0.26716771721839905
1791103684091725600,2.7717255859375,-0.8820076584815979,-0.7861871719360352,0.35665977001190186
1791103684101697500,2.781697509765625,-0.8115875720977783,-0.718047559261322,0.37970995903015137
1791103684111669500,2.79166943359375,-0.7730963826179504,-0.6412248611450195,0.41478461027145386
1791103684121641700,2.801641845703125,-0.6454343199729919,-0.5458046197891235,0.3849276304244995
1791103684131613400,2.811613525390625,-0.3975602090358734,-0.42203226685523987,0.2747815251350403
1791103684141585700,2.821585693359375,-0.1825682669878006,-0.3317047655582428,0.19884546101093292
1791103684151557400,2.831557373046875,-0.08249697089195251,-0.23919355869293213,0.16619879007339478
1791103684161529600,2.841529541015625,-0.09110217541456223,-0.21800623834133148,0.20263509452342987
1791103684171501600,2.85150146484375,-0.11476968973875046,-0.2754141390323639,0.14372090995311737
1791103684181473500,2.8614736328125,-0.3000895082950592,-0.3320220410823822,0.2311421036720276
1791103684191445500,2.871445556640625,-0.4465603828430176,-0.4178257882595062,0.2517071068286896
1791103684201417500,2.88141748046875,-0.5744919776916504,-0.5499992966651917,0.38912275433540344
1791103684211389400,2.891389404296875,-0.596397340297699,-0.6543572545051575,0.38569653034210205
1791103684221361700,2.901361572265625,-0.631438672542572,-0.7512909770011902,0.4341985285282135
1791103684231333400,2.91133349609375,-0.6781193017959595,-0.770074188709259,0.47805145382881165
1791103684241305600,2.9213056640625,-0.6326143741607666,-0.789578378200531,0.48813578486442566
1791103684251277600,2.931277587890625,-0.655211865901947,-0.8178327679634094,0.5159929990768433
1791103684261249500,2.94124951171875,-0.5855368971824646,-0.8422563672065735,0.5456904768943787
1791103684271221500,2.951221435546875,-0.5991109609603882,-0.8296955227851868,0.5704391002655029
1791103684281193500,2.961193359375,-0.5691990852355957,-0.8820998668670654,0.5249166488647461
1791103684291165400,2.97116552734375,-0.5341940522193909,-0.8910660743713379,0.404178649187088
1791103684301137400,2.981137451171875,-0.5023479461669922,-0.8891030550003052,0.3986014723777771
1791103684311109400,2.991109375,-0.5287917852401733,-0.8844563961029053,0.3635430634021759
1791103684321081300,3.001081298828125,-0.510062038898468,-0.8524824976921082,0.32613256573677063
1791103684331053600,3.011053466796875,-0.511529803276062,-0.8048387765884399,0.3097396492958069
1791103684341025300,3.021025390625,-0.4282812476158142,-0.7692338824272156,0.2256157100200653
1791103684350997500,3.03099755859375,-0.47297096252441406,-0.7047485113143921,0.2300797998905182
1791103684360969200,3.04096923828125,-0.37276020646095276,-0.6470401883125305,0.2761727273464203
1791103684370941400,3.05094140625,-0.25663191080093384,-0.606472373008728,0.2916414737701416
1791103684380913400,3.060913330078125,-0.25619542598724365,-0.5682688355445862,0.3542012572288513
1791103684390885400,3.070885498046875,-0.18706271052360535,-0.5637810230255127,0.3534538447856903
1791103684400857300,3.080857421875,-0.23664438724517822,-0.5393811464309692,0.34393277764320374
1791103684410829300,3.090829345703125,-0.13734741508960724,-0.5595486760139465,0.24135722219944
1791103684420800500,3.100800537109375,-0.1430543065071106,-0.5298853516578674,0.24232500791549683
1791103684430772200,3.110772216796875,-0.1697155386209488,-0.4719577729701996,0.2356444150209427
1791103684440744400,3.120744384765625,-0.07473229616880417,-0.4511382281780243,0.22462157905101776
1791103684450716400,3.13071630859375,-0.03741128742694855,-0.4410738945007324,0.17896834015846252
1791103684460688400,3.1406884765625,-0.0825616866350174,-0.45827287435531616,0.23026899993419647
1791103684470660400,3.150660400390625,-0.14337772130966187,-0.4807955026626587,0.2341781109571457
1791103684480632300,3.16063232421875,-0.16639941930770874,-0.5304445624351501,0.1895102560520172
1791103684490604300,3.170604248046875,-0.2419286072254181,-0.6023791432380676,0.1928272545337677
1791103684500576500,3.180576416015625,-0.3229105472564697,-0.6293867826461792,0.2609650492668152
1791103684510548500,3.190548583984375,-0.31522542238235474,-0.6266226768493652,0.15747904777526855
1791103684520520400,3.2005205078125,-0.3522625267505646,-0.6384002566337585,0.1886710524559021
1791103684530492400,3.210492431640625,-0.3004120886325836,-0.6409377455711365,0.18260839581489563
1791103684540464400,3.22046435546875,-0.24450194835662842,-0.6243846416473389,0.20038899779319763
1791103684550436600,3.2304365234375,-0.2344660460948944,-0.6374514698982239,0.18204915523529053
1791103684560408300,3.240408203125,-0.3039729595184326,-0.6387497186660767,0.19075129926204681
1791103684570380500,3.250380615234375,-0.28440600633621216,-0.6552335619926453,0.23178614675998688
1791103684580352300,3.260352294921875,-0.26351988315582275,-0.688044011592865,0.21479171514511108
1791103684590324500,3.270324462890625,-0.2522554397583008,-0.7091623544692993,0.2725532352924347
1791103684600296400,3.28029638671875,-0.2398243248462677,-0.6744182705879211,0.1979823261499405
1791103684610268400,3.290268310546875,-0.29162928462028503,-0.673564612865448,0.33734872937202454
1791103684620240400,3.300240478515625,-0.257901668548584,-0.6563904285430908,0.21949797868728638
1791103684630212400,3.31021240234375,-0.24768447875976562,-0.6398996114730835,0.22786357998847961
1791103684640184300,3.320184326171875,-0.23427625000476837,-0.6333911418914795,0.2697819769382477
1791103684650156500,3.330156494140625,-0.20357143878936768,-0.6135185956954956,0.15475697815418243
1791103684660128300,3.340128173828125,-0.2329636812210083,-0.5899163484573364,0.24443626403808594
1791103684670100500,3.3501005859375,-0.2328149974346161,-0.5479341745376587,0.21941953897476196
1791103684680072200,3.360072265625,-0.16043613851070404,-0.5547044277191162,0.29045215249061584
1791103684690044400,3.37004443359375,-0.10320957005023956,-0.5384407639503479,0.19429531693458557
1791103684700016400,3.380016357421875,-0.10268306732177734,-0.5217320919036865,0.25010108947753906
1791103684709988400,3.38998828125,-0.11520322412252426,-0.4928286671638489,0.1824449598789215
1791103684719960600,3.399960693359375,-0.10631758719682693,-0.44154709577560425,0.172453835606575
1791103684729932300,3.409932373046875,-0.021452665328979492,-0.41531500220298767,0.1978611946105957
1791103684739904500,3.419904541015625,0.024240786209702492,-0.3980012536048889,0.18203537166118622
1791103684749876500,3.42987646484375,0.06733360141515732,-0.3984806537628174,0.1883590817451477
1791103684759848400,3.439848388671875,-0.013752992264926434,-0.3582610487937927,0.22054870426654816
1791103684769820400,3.4498203125,0.012106414884328842,-0.38386237621307373,0.22196201980113983
1791103684779792400,3.45979248046875,-0.021673385053873062,-0.38319259881973267,0.224434494972229
1791103684789764400,3.469764404296875,-0.020174585282802582,-0.38179102540016174,0.24421226978302002
1791103684799736600,3.479736572265625,-0.04832366481423378,-0.3774324953556061,0.201080784201622
1791103684809708300,3.489708251953125,-0.0882662981748581,-0.41194310784339905,0.17255018651485443
1791103684819680500,3.499680419921875,-0.09489597380161285,-0.4201408624649048,0.18268005549907684
1791103684829652200,3.50965234375,-0.05571374297142029,-0.4245392978191376,0.15779033303260803
1791103684839624400,3.51962451171875,-0.04082560911774635,-0.4238242208957672,0.1534227430820465
1791103684849596400,3.529596435546875,-0.14045551419258118,-0.4138796031475067,0.23844757676124573
1791103684859568400,3.539568359375,-0.10837213695049286,-0.41539573669433594,0.11362973600625992
1791103684869540400,3.549540283203125,-0.13530488312244415,-0.4564298093318939,0.12526994943618774
1791103684879511300,3.55951123046875,-0.1505349725484848,-0.46339425444602966,0.1372922658920288
1791103684889483500,3.5694833984375,-0.1881234347820282,-0.4735995829105377,0.13430829346179962
1791103684899455200,3.579455322265625,-0.2424231469631195,-0.48671749234199524,0.1708143651485443
1791103684909427500,3.589427490234375,-0.2035030722618103,-0.49706676602363586,0.12087299674749374
1791103684919399400,3.5993994140625,-0.16553544998168945,-0.5078251361846924,0.1413188874721527
1791103684929371400,3.609371337890625,-0.1844385862350464,-0.5147151350975037,0.13201650977134705
1791103684939343400,3.61934326171875,-0.25098034739494324,-0.5053524971008301,0.11662396788597107
1791103684949315300,3.6293154296875,-0.2333662211894989,-0.500084400177002,0.0804973691701889
1791103684959287300,3.639287353515625,-0.29815080761909485,-0.5036130547523499,0.06512986868619919
1791103684969259500,3.649259521484375,-0.21975189447402954,-0.5429209470748901,0.03319953382015228
1791103684979231200,3.659231201171875,-0.2485228180885315,-0.5656334161758423,0.08624251186847687
1791103684989203500,3.669203369140625,-0.3253839612007141,-0.5650818943977356,0.05527277663350105
1791103684999175400,3.679175537109375,-0.36167484521865845,-0.5929646492004395,0.07280729711055756
1791103685009147400,3.6891474609375,-0.3493305742740631,-0.6213565468788147,0.08690089732408524
1791103685019119600,3.69911962890625,-0.41278010606765747,-0.610944926738739,0.10127610713243484
1791103685029091300,3.70909130859375,-0.39696383476257324,-0.636807918548584,0.16539616882801056
1791103685039063600,3.7190634765625,-0.3710393011569977,-0.6243112683296204,0.0789845809340477
1791103685049035300,3.72903515625,-0.36940377950668335,-0.6087343096733093,0.12196005880832672
1791103685059007500,3.739007568359375,-0.36271417140960693,-0.5822632908821106,0.04475608095526695
1791103685068979500,3.7489794921875,-0.29266712069511414,-0.5716896653175354,0.03170566260814667
1791103685078951400,3.758951416015625,-0.3293271064758301,-0.5023747682571411,-0.0027359314262866974
1791103685088923400,3.76892333984375,-0.2348509430885315,-0.48786836862564087,0.06331482529640198
1791103685098895400,3.778895263671875,-0.28224989771842957,-0.49546104669570923,0.10673553496599197
1791103685108867300,3.788867431640625,-0.30226171016693115,-0.5170654654502869,0.14914563298225403
1791103685118839600,3.798839599609375,-0.3134413957595825,-0.516312301158905,0.11052101105451584
1791103685128811300,3.808811279296875,-0.218827486038208,-0.532748281955719,0.11108195036649704
1791103685138783500,3.818783447265625,-0.3019748330116272,-0.5101956129074097,0.16459578275680542
1791103685148755200,3.828755126953125,-0.2736716568470001,-0.5211664438247681,0.08777617663145065
1791103685158727400,3.8387275390625,-0.3153410851955414,-0.49333831667900085,0.09766342490911484
1791103685168699400,3.848699462890625,-0.2932746112346649,-0.5127888321876526,0.058036934584379196
1791103685178671400,3.85867138671875,-0.28339454531669617,-0.5335489511489868,0.08517880737781525
1791103685188643300,3.868643310546875,-0.2847648859024048,-0.5357377529144287,0.10606127232313156
1791103685198615300,3.878615234375,-0.3024626672267914,-0.5615363717079163,0.12019386887550354
1791103685208587500,3.88858740234375,-0.3285442292690277,-0.6176519989967346,0.08569438010454178
1791103685218559500,3.8985595703125,-0.34109729528427124,-0.653274416923523,0.1303848922252655
1791103685228531500,3.908531494140625,-0.35268715023994446,-0.6672779321670532,0.11581400781869888
1791103685238503400,3.91850341796875,-0.35229673981666565,-0.6689320206642151,0.10228780657052994
1791103685248475400,3.928475341796875,-0.37806031107902527,-0.6963144540786743,0.14173641800880432
1791103685258447400,3.938447265625,-0.36133432388305664,-0.6921306252479553,0.187150239944458
1791103685268419600,3.948419677734375,-0.3561071455478668,-0.6997650861740112,0.14800925552845
1791103685278391800,3.958391845703125,-0.37020325660705566,-0.7615046501159668,0.2717016339302063
1791103685288363800,3.96836376953125,-0.3570503294467926,-0.7662208676338196,0.16915757954120636
1791103685298334700,3.978334716796875,-0.3209943175315857,-0.7785052061080933,0.2524828016757965
1791103685308306700,3.988306640625,-0.2949672043323517,-0.7636160254478455,0.12445776909589767
1791103685318279000,3.99827880859375,-0.3267027735710144,-0.7244310975074768,0.10535678267478943
1791103685328251000,4.0082509765625,-0.27327826619148254,-0.6970378756523132,0.08318739384412766
1791103685338222800,4.018222900390625,-0.20702387392520905,-0.657375156879425,0.15246953070163727
1791103685348194800,4.02819482421875,-0.175199955701828,-0.645906925201416,0.12328966706991196
1791103685358166800,4.038166748046875,-0.13974635303020477,-0.6365272402763367,0.08030331879854202
1791103685368138800,4.048138671875,-0.2058020383119583,-0.6265548467636108,0.2131543606519699
1791103685378111000,4.058111083984375,-0.1741066873073578,-0.6585114002227783,0.1883523315191269
1791103685388082700,4.068082763671875,-0.13449834287166595,-0.6269708871841431,0.1631467342376709
1791103685398055000,4.078054931640625,-0.13624989986419678,-0.5940417051315308,0.26732292771339417
1791103685408026600,4.088026611328125,-0.12669385969638824,-0.5562726259231567,0.15690284967422485
1791103685417998800,4.097998779296875,-0.03967614471912384,-0.5394412279129028,0.14025649428367615
1791103685427970800,4.107970703125,0.03665727749466896,-0.49277791380882263,0.19085192680358887
1791103685437942800,4.11794287109375,0.06771985441446304,-0.48559242486953735,0.1371000111103058
1791103685447914800,4.127914794921875,0.0847499668598175,-0.47190219163894653,0.0916220024228096
1791103685457886700,4.13788671875,0.058249130845069885,-0.46131181716918945,0.13459160923957825
1791103685467858700,4.147858642578125,0.052817024290561676,-0.44948509335517883,0.17245309054851532
1791103685477831000,4.157830810546875,0.06915951520204544,-0.44914713501930237,0.15929627418518066
1791103685487802600,4.167802734375,0.08172138780355453,-0.3978813588619232,0.0872056782245636
1791103685497774800,4.17777490234375,0.07363523542881012,-0.42880359292030334,0.24444083869457245
1791103685507746800,4.187746826171875,0.1132606491446495,-0.406355082988739,0.22121228277683258
1791103685517718800,4.19771875,0.07747974991798401,-0.3829967677593231,0.18104195594787598
1791103685527691000,4.20769091796875,0.1325194239616394,-0.4122808277606964,0.13922028243541718
1791103685537662700,4.217662841796875,0.1603499948978424,-0.3904421031475067,0.2592929005622864
1791103685547635000,4.227635009765625,0.21339227259159088,-0.38323500752449036,0.23948688805103302
1791103685557606700,4.237606689453125,0.1472846269607544,-0.375085711479187,0.15902400016784668
1791103685567579000,4.247578857421875,0.0796971246600151,-0.35664552450180054,0.171345055103302
1791103685577550800,4.25755078125,0.10452231019735336,-0.355042040348053,0.18310238420963287
1791103685587522800,4.267522705078125,0.1790938377380371,-0.37140750885009766,0.1494845598936081
1791103685597494800,4.277494873046875,0.20516617596149445,-0.38757556676864624,0.13438870012760162
1791103685607466800,4.287466796875,0.15163536369800568,-0.3676890432834625,0.11146395653486252
1791103685617438700,4.297438720703125,0.1349370777606964,-0.3746979534626007,0.10137883573770523
1791103685627411000,4.307410888671875,0.13615550100803375,-0.3501264154911041,0.07703143358230591
1791103685637382700,4.317382568359375,0.15083004534244537,-0.3460874557495117,0.09381893277168274
1791103685647355000,4.32735498046875,0.18325810134410858,-0.3771318793296814,0.04798432067036629
1791103685657326600,4.33732666015625,0.13680538535118103,-0.3616056740283966,0.025119485333561897
1791103685667298800,4.347298828125,0.09869250655174255,-0.32607102394104004,0.09743203222751617
1791103685677269800,4.357269775390625,0.16723190248012543,-0.3501097857952118,0.035152941942214966
1791103685687241700,4.36724169921875,0.2345225214958191,-0.34201139211654663,0.07653234153985977
1791103685697214000,4.3772138671875,0.15306520462036133,-0.2910323739051819,0.11388637125492096
1791103685707185700,4.387185546875,0.06292285025119781,-0.3469959795475006,0.12274868041276932
1791103685717158000,4.397157958984375,0.17730401456356049,-0.3377247154712677,-0.011732695624232292
1791103685727129600,4.407129638671875,0.1602606326341629,-0.3342013359069824,0.07846995443105698
1791103685737101800,4.417101806640625,0.14035776257514954,-0.3899216055870056,-0.001283193239942193
1791103685747073800,4.42707373046875,0.08057775348424911,-0.32607024908065796,0.14358538389205933
1791103685757045800,4.437045654296875,0.08730010688304901,-0.31796756386756897,0.05127142742276192
1791103685767017700,4.447017822265625,0.1265266239643097,-0.35414841771125793,0.04300624132156372
1791103685776989700,4.45698974609375,0.1806979924440384,-0.3527390658855438,0.009006728418171406
1791103685786962000,4.4669619140625,0.09350308775901794,-0.3538805842399597,0.05898963660001755
1791103685796934000,4.476933837890625,0.08365152031183243,-0.3360094428062439,0.008216737769544125
1791103685806905900,4.48690576171875,0.09713484346866608,-0.3165322542190552,-0.006826097145676613
1791103685816877800,4.4968779296875,0.16177642345428467,-0.3061075806617737,-0.05246415361762047
1791103685826849800,4.506849853515625,0.1986493617296219,-0.2641873359680176,-0.03435074910521507
1791103685836821800,4.51682177734375,0.27738305926322937,-0.19184015691280365,-0.060304317623376846
1791103685846794000,4.5267939453125,0.29890120029449463,-0.1352352648973465,-0.020827004685997963
1791103685856765700,4.536765625,0.3031763732433319,-0.12053168565034866,0.03455289825797081
1791103685866738000,4.546738037109375,0.32008832693099976,-0.0697760358452797,-0.02405298501253128
1791103685876709600,4.556709716796875,0.4258565604686737,-0.0734298974275589,0.013629410415887833
1791103685886681900,4.566681884765625,0.4538159668445587,-0.024885695427656174,-0.04629817605018616
1791103685896653800,4.57665380859375,0.40655842423439026,-0.000019226688891649246,0.026518506929278374
1791103685906625800,4.586625732421875,0.389441579580307,0.05017460137605667,-0.032029952853918076
1791103685916597800,4.59659765625,0.41213542222976685,0.043761443346738815,0.05147426202893257
1791103685926569700,4.60656982421875,0.45352691411972046,0.07981856167316437,-0.020537862554192543
1791103685936541700,4.616541748046875,0.44542956352233887,0.06105206161737442,-0.0024696453474462032
1791103685946514000,4.626513916015625,0.3759954869747162,0.05725210905075073,-0.04803675040602684
1791103685956485600,4.636485595703125,0.3493649363517761,0.021872544661164284,0.028770411387085915
1791103685966457900,4.646457763671875,0.3505197763442993,0.023894688114523888,-0.009363689459860325
1791103685976429800,4.656429931640625,0.3522561490535736,0.005007284227758646,-0.06748504936695099
1791103685986401800,4.66640185546875,0.3322788178920746,-0.015535869635641575,-0.03660876676440239
1791103685996374000,4.6763740234375,0.30583280324935913,-0.040770649909973145,0.012859447859227657
1791103686006345700,4.686345703125,0.250468373298645,-0.04776022583246231,-0.025584246963262558
1791103686016318000,4.69631787109375,0.2835775911808014,-0.05707969143986702,-0.0771971121430397
1791103686026289700,4.70628955078125,0.24994979798793793,-0.06539386510848999,-0.026063991710543633
1791103686036260900,4.7162607421875,0.2068433314561844,-0.05966407060623169,-0.08681096881628036
1791103686046232600,4.726232666015625,0.22513556480407715,-0.10692304372787476,-0.003669195808470249
1791103686056204800,4.736204833984375,0.17625775933265686,-0.08950197696685791,-0.05904776602983475
1791103686066176800,4.7461767578125,0.20300622284412384,-0.1003912165760994,0.041518744081258774
1791103686076148700,4.756148681640625,0.15381577610969543,-0.09078199416399002,-0.13919991254806519
1791103686086121000,4.766120849609375,0.1353447586297989,-0.10205760598182678,-0.06338165700435638
1791103686096092700,4.7760927734375,0.20129446685314178,-0.04967082664370537,-0.06793726235628128
1791103686106065000,4.78606494140625,0.20300251245498657,-0.0077026598155498505,-0.041504133492708206
1791103686116036900,4.796036865234375,0.24034029245376587,-0.0027411908376961946,-0.10716143995523453
1791103686126008800,4.8060087890625,0.22219601273536682,0.018827110528945923,-0.09218437224626541
1791103686135980800,4.815980712890625,0.17904481291770935,0.06652645766735077,-0.16549986600875854
1791103686145952800,4.825952880859375,0.1592857539653778,0.04348185658454895,-0.045644838362932205
1791103686155924700,4.8359248046875,0.14264366030693054,0.039831195026636124,-0.01732105389237404
1791103686165897000,4.84589697265625,0.12751789391040802,0.037308547645807266,0.013405653648078442
1791103686175868700,4.85586865234375,0.13505810499191284,0.025147220119833946,-0.047979943454265594
1791103686185841000,4.8658408203125,0.16734890639781952,0.029842853546142578,-0.00822803471237421
1791103686195812600,4.8758125,0.11107631027698517,0.0572744756937027,-0.019483618438243866
1791103686205784800,4.885784912109375,0.13940654695034027,0.019577540457248688,0.054933059960603714
1791103686215756800,4.8957568359375,0.11669270694255829,0.06420040130615234,-0.06908901780843735
1791103686225728800,4.905728759765625,0.10852555185556412,0.06311148405075073,-0.004546378739178181
1791103686235700700,4.91570068359375,0.07716576755046844,0.059040844440460205,-0.10027024149894714
1791103686245672700,4.925672607421875,0.025697365403175354,0.025317024439573288,-0.08624851703643799
1791103686255644700,4.935644775390625,0.007826757617294788,0.021604575216770172,-0.08818729966878891
1791103686265617000,4.945616943359375,0.010095599107444286,-0.034407563507556915,-0.027912097051739693
1791103686275588900,4.9555888671875,-0.06962719559669495,-0.05544627085328102,-0.003714348655194044
1791103686285560800,4.965560791015625,-0.09048087894916534,-0.13796772062778473,0.09155043959617615
1791103686295532800,4.97553271484375,-0.10858531296253204,-0.1573326289653778,0.03568451106548309
1791103686305504800,4.9855048828125,-0.1564597338438034,-0.16790953278541565,0.04607964679598808
1791103686315477000,4.99547705078125,-0.20390234887599945,-0.17766468226909637,0.07083772122859955
1791103686325448700,5.00544873046875,-0.20946580171585083,-0.13997650146484375,0.024912135675549507
1791103686335421000,5.0154208984375,-0.20275543630123138,-0.1419735997915268,0.018022803589701653
1791103686345392600,5.025392578125,-0.17980562150478363,-0.16438527405261993,-0.007610652130097151
1791103686355364900,5.03536474609375,-0.16277816891670227,-0.16927243769168854,-0.05138769373297691
1791103686365335800,5.045335693359375,-0.19230662286281586,-0.1762266308069229,0.0673217624425888
1791103686375307800,5.055307861328125,-0.20312997698783875,-0.1795891374349594,-0.009306435473263264
1791103686385280000,5.065280029296875,-0.2094000279903412,-0.17029353976249695,0.03967313468456268
1791103686395251700,5.075251708984375,-0.20530276000499725,-0.17091485857963562,-0.020899930968880653
1791103686405224000,5.085223876953125,-0.23563982546329498,-0.18080183863639832,0.013219664804637432
1791103686415195600,5.095195556640625,-0.2626977860927582,-0.19691982865333557,0.055515188723802567
1791103686425168000,5.10516796875,-0.24039508402347565,-0.1616319715976715,0.03815491124987602
1791103686435139800,5.115139892578125,-0.17996636033058167,-0.15903910994529724,0.05016656592488289
1791103686445111800,5.12511181640625,-0.17166438698768616,-0.14095227420330048,-0.014774734154343605
1791103686455083800,5.135083740234375,-0.18318654596805573,-0.1068693995475769,-0.017829379066824913
1791103686465055700,5.1450556640625,-0.19226479530334473,-0.12071305513381958,0.023449283093214035
1791103686475027700,5.15502783203125,-0.21621966361999512,-0.1513042449951172,0.02450495958328247
1791103686485000000,5.165,-0.21289631724357605,-0.11907707154750824,-0.05401797965168953
1791103686494971600,5.1749716796875,-0.18041853606700897,-0.17816728353500366,0.0757296234369278
1791103686504943900,5.18494384765625,-0.2583160102367401,-0.14454929530620575,-0.11890973150730133
1791103686514915600,5.19491552734375,-0.22384938597679138,-0.18277443945407867,0.03862982988357544
1791103686524887800,5.2048876953125,-0.22158128023147583,-0.16769914329051971,-0.036584045737981796
1791103686534859800,5.21485986328125,-0.20980292558670044,-0.17234663665294647,-0.008782243356108665
1791103686544831700,5.224831787109375,-0.19397206604480743,-0.17466284334659576,0.004532827064394951
1791103686554804000,5.234803955078125,-0.2195088416337967,-0.18643587827682495,-0.014525286853313446
1791103686564775700,5.244775634765625,-0.2510051727294922,-0.2101043462753296,0.00544739980250597
1791103686574748000,5.254747802734375,-0.30724555253982544,-0.18953540921211243,-0.020379669964313507
1791103686584720000,5.264719970703125,-0.23430556058883667,-0.18772460520267487,-0.05855710431933403
1791103686594691800,5.27469189453125,-0.21346046030521393,-0.21454370021820068,0.06979686766862869
1791103686604663800,5.284663818359375,-0.20172566175460815,-0.16236577928066254,-0.034618083387613297
1791103686614635800,5.2946357421875,-0.23060764372348785,-0.18941764533519745,0.0633590817451477
1791103686624607700,5.304607666015625,-0.19517995417118073,-0.18618787825107574,-0.004027022980153561
1791103686634580000,5.314580078125,-0.20358195900917053,-0.15453647077083588,-0.06677402555942535
1791103686644551700,5.3245517578125,-0.13856877386569977,-0.15017618238925934,-0.04182732477784157
1791103686654524000,5.33452392578125,-0.15081265568733215,-0.15508626401424408,0.002421362791210413
1791103686664495600,5.34449560546875,-0.12117145955562592,-0.10216919332742691,-0.1260354369878769
1791103686674466800,5.354466796875,-0.21037828922271729,-0.10611866414546967,-0.025791402906179428
1791103686684438800,5.364438720703125,-0.18096520006656647,-0.17630162835121155,-0.012438268400728703
1791103686694410800,5.37441064453125,-0.1810685247182846,-0.15272119641304016,0.03804541006684303
1791103686704383000,5.384383056640625,-0.12541718780994415,-0.1700494885444641,0.12513428926467896
1791103686714354700,5.394354736328125,-0.18425200879573822,-0.18154209852218628,0.0613851323723793
1791103686724327000,5.404326904296875,-0.1840434968471527,-0.1335078775882721,-0.12729354202747345
1791103686734298600,5.414298583984375,-0.15094253420829773,-0.1280263066291809,0.031246036291122437
1791103686744270800,5.424270751953125,-0.08225768804550171,-0.12016523629426956,-0.035520169883966446
1791103686754242800,5.434242919921875,-0.08655869960784912,-0.11091101914644241,0.0216768067330122
1791103686764214800,5.44421484375,-0.0793568342924118,-0.124901182949543,0.023596860468387604
1791103686774186800,5.454186767578125,-0.2000821828842163,-0.09172112494707108,-0.0536838136613369
1791103686784158700,5.46415869140625,-0.12874720990657806,-0.13097842037677765,0.044599391520023346
1791103686794130700,5.474130615234375,-0.16361172497272491,-0.12787370383739471,0.022333500906825066
1791103686804103000,5.48410302734375,-0.1793719381093979,-0.15053971111774445,0.016433345153927803
1791103686814075000,5.494074951171875,-0.15971115231513977,-0.15873292088508606,0.013190947473049164
1791103686824046800,5.504046875,-0.1447119563817978,-0.15127430856227875,0.0066473959013819695
1791103686834018800,5.514018798828125,-0.1593095362186432,-0.144941046833992,-0.025107337161898613
1791103686843990800,5.52399072265625,-0.1549699306488037,-0.19142508506774902,0.07592027634382248
1791103686853963000,5.533962890625,-0.1986071616411209,-0.14693644642829895,-0.004037140868604183
1791103686863934700,5.543934814453125,-0.176574245095253,-0.19642680883407593,0.023938437923789024
1791103686873907000,5.553906982421875,-0.21431362628936768,-0.17822784185409546,-0.07909393310546875
1791103686883878700,5.563878662109375,-0.19211360812187195,-0.20619699358940125,-0.005926031619310379
1791103686893851000,5.573850830078125,-0.2425599992275238,-0.2096599042415619,0.034418728202581406
1791103686903822800,5.58382275390625,-0.1841728538274765,-0.21500903367996216,-0.08578350394964218
1791103686913794800,5.593794921875,-0.23254971206188202,-0.23051901161670685,0.06878742575645447
1791103686923766800,5.603766845703125,-0.2373766452074051,-0.2319324016571045,0.0015189466066658497
1791103686933738800,5.61373876953125,-0.21830041706562042,-0.2180195152759552,-0.06601162999868393
1791103686943710700,5.623710693359375,-0.27485376596450806,-0.22196871042251587,-0.0037764585576951504
1791103686953683000,5.633682861328125,-0.30454587936401367,-0.26408740878105164,0.11267825216054916
1791103686963654700,5.643654541015625,-0.253605455160141,-0.23903074860572815,-0.013603052124381065
1791103686973625900,5.6536259765625,-0.2140527218580246,-0.23482002317905426,0.017443811520934105
1791103686983597800,5.663597900390625,-0.24002555012702942,-0.25058913230895996,0.027745572850108147
1791103686993569800,5.67356982421875,-0.2193964421749115,-0.22987613081932068,-0.012905184179544449
1791103687003541800,5.683541748046875,-0.2248402088880539,-0.2053513526916504,-0.08691149950027466
1791103687013513700,5.693513671875,-0.1433459222316742,-0.2039811909198761,-0.057731449604034424
1791103687023486000,5.70348583984375,-0.17930316925048828,-0.16861021518707275,-0.022370638325810432
1791103687033457700,5.713457763671875,-0.22223837673664093,-0.18217502534389496,0.05082554742693901
1791103687043430000,5.723429931640625,-0.17948400974273682,-0.2346942126750946,-0.06598498672246933
1791103687053401600,5.733401611328125,-0.21966072916984558,-0.21908436715602875,0.03010665252804756
1791103687063373800,5.743373779296875,-0.2334241420030594,-0.19441618025302887,0.0008066968293860555
1791103687073345800,5.753345703125,-0.19359683990478516,-0.26677587628364563,0.06817908585071564
1791103687083317800,5.76331787109375,-0.20301246643066406,-0.24896454811096191,0.03832467272877693
1791103687093289700,5.773289794921875,-0.12457117438316345,-0.2652615010738373,0.08050994575023651
1791103687103261700,5.78326171875,-0.1474362015724182,-0.2702394723892212,0.04251796752214432
1791103687113234000,5.79323388671875,-0.10722886025905609,-0.26950711011886597,-0.010544984601438046
1791103687123206000,5.803205810546875,-0.17982512712478638,-0.2504933774471283,0.03173857554793358
1791103687133177900,5.813177734375,-0.18739436566829681,-0.23768168687820435,-0.05762592703104019
1791103687143149800,5.82314990234375,-0.17304520308971405,-0.2822875678539276,0.1058269590139389
1791103687153121800,5.833121826171875,-0.12709902226924896,-0.23636135458946228,-0.08260899782180786
1791103687163093800,5.84309375,-0.08901439607143402,-0.30413854122161865,0.042944278568029404
1791103687173066000,5.85306591796875,-0.19610729813575745,-0.2847541868686676,0.02492346614599228
1791103687183037700,5.86303759765625,-0.15821348130702972,-0.28015363216400146,-0.04206163063645363
1791103687193010000,5.873010009765625,-0.12901458144187927,-0.25274863839149475,-0.045178063213825226
1791103687202981600,5.882981689453125,-0.05517219752073288,-0.2542186677455902,-0.08650748431682587
1791103687212953900,5.892953857421875,-0.09456434845924377,-0.2905140817165375,0.19970378279685974
1791103687222925800,5.90292578125,-0.09097547829151154,-0.2784048318862915,0.06835327297449112
1791103687232897800,5.912897705078125,-0.12513212859630585,-0.2844158411026001,0.182035893201828
1791103687242869800,5.922869873046875,-0.02979469671845436,-0.2884114980697632,0.12060131132602692
1791103687252841700,5.932841796875,-0.06564963608980179,-0.2386431246995926,-0.012747684493660927
1791103687262813000,5.94281298828125,-0.10115323960781097,-0.25677335262298584,0.08491720259189606
1791103687272784400,5.952784423828125,-0.06083458289504051,-0.26430290937423706,0.04508403688669205
1791103687282756600,5.962756591796875,-0.06492535769939423,-0.2277638167142868,0.048317696899175644
1791103687292728600,5.972728515625,-0.026834435760974884,-0.17723992466926575,-0.0437011756002903
1791103687302700500,5.982700439453125,0.044387370347976685,-0.2045929729938507,0.06674931198358536
1791103687312672500,5.992672607421875,-0.000016848556697368622,-0.22526656091213226,0.06366856396198273
1791103687322644500,6.00264453125,-0.05889560654759407,-0.2519937753677368,0.08531590551137924
1791103687332616400,6.012616455078125,-0.08158734440803528,-0.28802528977394104,0.12568996846675873
1791103687342588700,6.022588623046875,-0.0637616366147995,-0.20318587124347687,-0.06267810612916946
1791103687352560600,6.032560546875,0.0116191441193223,-0.24370905756950378,0.12061768025159836
1791103687362532600,6.04253271484375,0.017642449587583542,-0.21130740642547607,0.00251841195859015
1791103687372504600,6.052504638671875,-0.021917210891842842,-0.1553376168012619,-0.04384801909327507
1791103687382476500,6.0624765625,0.0044481209479272366,-0.16464076936244965,0.00870051234960556
1791103687392448800,6.07244873046875,0.08515281975269318,-0.13709010183811188,-0.1860862821340561
1791103687402420500,6.08242041015625,0.060926537960767746,-0.17802694439888,0.16607075929641724
1791103687412392700,6.092392822265625,0.056643109768629074,-0.1458069533109665,-0.05139418691396713
1791103687422364400,6.102364501953125,0.013026818633079529,-0.20442143082618713,0.25263655185699463
1791103687432336600,6.112336669921875,0.002738495357334614,-0.12345866113901138,-0.035355810075998306
1791103687442308600,6.12230859375,0.022498419508337975,-0.13258999586105347,0.030258391052484512
1791103687452280600,6.132280517578125,-0.003439970314502716,-0.17426899075508118,0.04370735585689545
1791103687462252500,6.14225244140625,-0.03901766613125801,-0.1370486617088318,-0.032902367413043976
1791103687472224500,6.152224609375,0.008949858136475086,-0.19367332756519318,0.07128448784351349
1791103687482196500,6.162196533203125,0.001893314067274332,-0.1651066094636917,-0.03417498618364334
1791103687492168700,6.172168701171875,0.00026026368141174316,-0.19670528173446655,0.031816013157367706
1791103687502140400,6.182140380859375,0.048998795449733734,-0.18660162389278412,-0.17865563929080963
1791103687512112600,6.192112548828125,-0.01595969870686531,-0.15228280425071716,-0.06113539636135101
1791103687522083600,6.20208349609375,-0.005555298179388046,-0.1799996942281723,0.0409913994371891
1791103687532055600,6.2120556640625,-0.008607547730207443,-0.17041312158107758,-0.0029081464745104313
1791103687542027500,6.222027587890625,-0.03206987679004669,-0.1973767727613449,0.00231509143486619
1791103687551999500,6.23199951171875,0.020800262689590454,-0.2280856817960739,-0.009815872646868229
1791103687561971700,6.2419716796875,0.010732453316450119,-0.19044749438762665,0.04285995662212372
1791103687571943400,6.251943359375,-0.01514015719294548,-0.14505018293857574,-0.07463977485895157
1791103687581915600,6.26191552734375,0.06686265766620636,-0.19329920411109924,0.010350627824664116
1791103687591887400,6.271887451171875,0.026339199393987656,-0.14281871914863586,0.05480038374662399
1791103687601859600,6.281859619140625,0.011946480721235275,-0.10954614728689194,0.04773639142513275
1791103687611831600,6.29183154296875,0.03774505481123924,-0.13579799234867096,0.01877664402127266
1791103687621803500,6.301803466796875,0.07096467167139053,-0.14322026073932648,-0.02570648305118084
1791103687631775700,6.311775634765625,-0.013157930225133896,-0.127843976020813,0.12606920301914215
1791103687641747500,6.32174755859375,0.03906366229057312,-0.11765173822641373,0.00798052828758955
1791103687651719700,6.3317197265625,0.04430582746863365,-0.1393629014492035,0.00846176128834486
1791103687661691600,6.341691650390625,0.02254454791545868,-0.04133311286568642,-0.09287255257368088
1791103687671663600,6.35166357421875,0.06225574389100075,-0.09554548561573029,0.14660021662712097
1791103687681635600,6.361635498046875,0.1280752271413803,-0.08407551795244217,-0.11161268502473831
1791103687691607600,6.371607666015625,0.00024164002388715744,-0.10417252779006958,0.06810168921947479
1791103687701579500,6.38157958984375,0.02511691488325596,-0.0858767181634903,0.02873121201992035
1791103687711551700,6.3915517578125,0.026611480861902237,-0.08797315508127213,0.004493250977247953
1791103687721523500,6.4015234375,0.024088839069008827,-0.11014290153980255,0.05635034292936325
1791103687731495700,6.41149560546875,0.02061767503619194,-0.12681828439235687,-0.02295726351439953
1791103687741467400,6.42146728515625,-0.027087613940238953,-0.14831319451332092,0.017820484936237335
1791103687751439600,6.431439697265625,-0.04033178091049194,-0.13665787875652313,-0.01169559545814991
1791103687761411600,6.44141162109375,-0.05535924807190895,-0.11291787028312683,-0.006584229413419962
1791103687771383600,6.451383544921875,0.0031703724525868893,-0.16271179914474487,0.08485060930252075
1791103687781355500,6.46135546875,-0.004212194122374058,-0.1316232681274414,-0.008515655994415283
1791103687791326500,6.471326416015625,-0.007607724517583847,-0.1276642233133316,-0.06606949120759964
1791103687801298700,6.481298583984375,-0.07260962575674057,-0.16726835072040558,0.02290698140859604
1791103687811270400,6.4912705078125,-0.01798020489513874,-0.1286192238330841,-0.08896282315254211
1791103687821242600,6.50124267578125,-0.011109759099781513,-0.11277256160974503,0.03576448932290077
1791103687831214600,6.511214599609375,0.0645354688167572,-0.10305628925561905,0.014165187254548073
1791103687841186600,6.5211865234375,-0.04189203307032585,-0.07598999887704849,0.09068258851766586
1791103687851158500,6.531158447265625,0.047868210822343826,-0.08328626304864883,-0.029241153970360756
1791103687861130500,6.541130615234375,-0.02307230792939663,-0.08240561187267303,0.029589200392365456
1791103687871102500,6.5511025390625,0.05785822868347168,-0.03568976745009422,-0.08675844222307205
1791103687881074700,6.56107470703125,0.008632627315819263,-0.03525560349225998,0.00458263885229826
1791103687891046400,6.57104638671875,0.055368706583976746,-0.047070182859897614,-0.041743312031030655
1791103687901018600,6.5810185546875,0.0181143619120121,-0.04018917679786682,-0.005955234169960022
1791103687910990600,6.590990478515625,0.05649850144982338,-0.029903516173362732,-0.06444250792264938
1791103687920962600,6.600962646484375,0.005157924257218838,-0.05698264390230179,-0.05814814940094948
1791103687930934800,6.610934814453125,0.029969530180096626,-0.04743894189596176,-0.13445037603378296
1791103687940906500,6.620906494140625,-0.014232444576919079,-0.060593198984861374,-0.0535571463406086
1791103687950878700,6.630878662109375,-0.04951213672757149,-0.05709220841526985,-0.010505016893148422
1791103687960850400,6.640850341796875,-0.010823276825249195,-0.0837884172797203,0.025877423584461212
1791103687970822700,6.65082275390625,0.023619385436177254,-0.0891813188791275,0.037031807005405426
1791103687980794600,6.660794677734375,-0.01570015773177147,-0.10792906582355499,0.07312458753585815
1791103687990766600,6.6707666015625,-0.07598879933357239,-0.05628425255417824,0.014458611607551575
1791103688000738600,6.680738525390625,-0.05418456345796585,-0.03139563277363777,-0.0868033766746521
1791103688010710500,6.69071044921875,-0.03173438459634781,-0.030679773539304733,-0.03763556107878685
1791103688020682500,6.7006826171875,0.029281366616487503,-0.03321552649140358,-0.09307347983121872
1791103688030654700,6.71065478515625,0.08042630553245544,0.021936407312750816,-0.16970381140708923
1791103688040625700,6.720625732421875,0.03733999282121658,0.007674387656152248,-0.10922020673751831
1791103688050597600,6.73059765625,-0.058211833238601685,-0.06477131694555283,0.04261166229844093
1791103688060569600,6.740569580078125,-0.018320975825190544,-0.06672623753547668,-0.05821586027741432
1791103688070541600,6.75054150390625,-0.08924601227045059,-0.07397402822971344,0.02002834528684616
1791103688080513500,6.760513427734375,-0.09847329556941986,-0.10104075819253922,-0.02360430732369423
1791103688090485500,6.770485595703125,-0.1151188462972641,-0.10706403106451035,0.051812950521707535
1791103688100457700,6.780457763671875,-0.0476614311337471,-0.11523060500621796,0.06176682189106941
1791103688110429400,6.790429443359375,-0.0255204439163208,-0.12017955631017685,0.04226875305175781
1791103688120401700,6.800401611328125,-0.08530666679143906,-0.10078220814466476,0.05408564954996109
1791103688130373400,6.810373291015625,-0.028978412970900536,-0.12524227797985077,-0.019835712388157845
1791103688140345600,6.820345703125,-0.14448633790016174,-0.10193557292222977,0.02957305498421192
1791103688150317600,6.830317626953125,-0.08007244765758514,-0.10032862424850464,-0.11705739796161652
1791103688160289500,6.84028955078125,-0.08094441890716553,-0.04568903148174286,-0.10693971812725067
1791103688170261500,6.850261474609375,0.0009429920464754105,-0.08605189621448517,0.13229870796203613
1791103688180233500,6.8602333984375,-0.032261159271001816,-0.07378702610731125,-0.04565593600273132
1791103688190205700,6.870205810546875,-0.05503438413143158,-0.09055721759796143,0.03282635658979416
1791103688200177700,6.880177734375,-0.0935770571231842,-0.12148994207382202,0.07058850675821304
1791103688210149600,6.890149658203125,-0.08400645107030869,-0.14809730648994446,0.018953006714582443
1791103688220121600,6.90012158203125,-0.10176053643226624,-0.15665313601493835,0.007543402723968029
1791103688230093600,6.910093505859375,-0.06478866934776306,-0.1645084023475647,-0.04771346226334572
1791103688240065500,6.9200654296875,-0.08783724904060364,-0.16593986749649048,0.06667963415384293
1791103688250037800,6.930037841796875,-0.08207470178604126,-0.16396565735340118,-0.0302309300750494
1791103688260009500,6.940009521484375,-0.07081006467342377,-0.16285352408885956,-0.026609031483530998
1791103688269981700,6.949981689453125,-0.05982452258467674,-0.1761472225189209,-0.013989642262458801
1791103688279952600,6.95995263671875,-0.12374845147132874,-0.14368179440498352,-0.03773479536175728
1791103688289924900,6.9699248046875,-0.08322019875049591,-0.18536745011806488,0.06585045903921127
1791103688299896800,6.979896728515625,-0.0789952501654625,-0.15442083775997162,-0.1056576743721962
1791103688309868800,6.989868896484375,-0.02830250933766365,-0.18118667602539062,-0.023564133793115616
1791103688319841000,6.999841064453125,-0.08279962837696075,-0.1827288568019867,0.07834125310182571
1791103688329812700,7.009812744140625,-0.0800432562828064,-0.18745756149291992,-0.007676986977458
1791103688339785000,7.019784912109375,-0.09715843200683594,-0.17998020350933075,0.022771380841732025
1791103688349756700,7.029756591796875,-0.09582445025444031,-0.1760357916355133,0.058385834097862244
1791103688359729000,7.03972900390625,-0.03184312954545021,-0.22061322629451752,0.031215796247124672
1791103688369700900,7.049700927734375,-0.046183452010154724,-0.2084801346063614,-0.020020490512251854
1791103688379672800,7.0596728515625,-0.056573495268821716,-0.18234077095985413,-0.11097756028175354
1791103688389644800,7.069644775390625,-0.07717570662498474,-0.1806459277868271,-0.08021406084299088
1791103688399616800,7.07961669921875,-0.11091158539056778,-0.2077522873878479,0.07029438763856888
1791103688409588700,7.089588623046875,-0.07029225677251816,-0.15993335843086243,-0.03733673319220543
1791103688419561000,7.09956103515625,-0.04296734184026718,-0.22865623235702515,0.09478601813316345
1791103688429532700,7.10953271484375,-0.05679953470826149,-0.25646230578422546,0.011104707606136799
1791103688439505000,7.1195048828125,-0.10513277351856232,-0.2795994281768799,0.05207180976867676
1791103688449476600,7.1294765625,-0.1390284299850464,-0.2744155824184418,0.08425744622945786
1791103688459448800,7.13944873046875,-0.10673723369836807,-0.24314537644386292,-0.028768464922904968
1791103688469420800,7.1494208984375,-0.09677328169345856,-0.1984388828277588,-0.0628713071346283
1791103688479392800,7.159392822265625,-0.011880927719175816,-0.22213304042816162,0.0492863729596138
1791103688489364700,7.16936474609375,0.01773475483059883,-0.17569629848003387,-0.05710051953792572
1791103688499336700,7.179336669921875,0.0524994395673275,-0.16274656355381012,-0.10595441609621048
1791103688509309000,7.189308837890625,-0.0027441103011369705,-0.16180460155010223,0.06474515050649643
1791103688519279600,7.199279541015625,0.017449025064706802,-0.12857480347156525,-0.08880295604467392
1791103688529251800,7.209251953125,0.009493364952504635,-0.18522609770298004,0.07626775652170181
1791103688539223800,7.219223876953125,0.07051572948694229,-0.14802557229995728,-0.10999070107936859
1791103688549195800,7.22919580078125,0.05448296293616295,-0.15576791763305664,0.041393496096134186
1791103688559167700,7.239167724609375,0.036690354347229004,-0.12340310215950012,0.04437001422047615
1791103688569139700,7.2491396484375,0.1195567399263382,-0.12786602973937988,0.051796503365039825
1791103688579112000,7.25911181640625,0.024438634514808655,-0.05847752466797829,-0.052651695907115936
1791103688589083600,7.269083740234375,0.05798807367682457,-0.09447680413722992,-0.0007171235047280788
1791103688599056000,7.279055908203125,0.07787395268678665,-0.1099167987704277,0.07496809214353561
1791103688609027800,7.28902783203125,0.15010181069374084,-0.07357317209243774,-0.050356537103652954
1791103688618999800,7.298999755859375,0.11573988199234009,-0.10991914570331573,0.0406755730509758
1791103688628971800,7.3089716796875,0.023651767522096634,-0.1387350857257843,0.09681500494480133
1791103688638943700,7.31894384765625,0.012086238712072372,-0.14861811697483063,0.09005903452634811
1791103688648915700,7.328915771484375,0.11656924337148666,-0.14855660498142242,0.055420633405447006
1791103688658888000,7.338887939453125,0.04079493135213852,-0.0795503705739975,-0.0852641761302948
1791103688668859600,7.348859619140625,-0.023297768086194992,-0.1564648598432541,0.0914943516254425
1791103688678831900,7.358831787109375,0.07424304634332657,-0.1318993866443634,-0.11414889991283417
1791103688688803600,7.368803466796875,0.10229439288377762,-0.09332722425460815,-0.07192954421043396
1791103688698775800,7.37877587890625,0.057600684463977814,-0.11127825826406479,0.0202025156468153
1791103688708747800,7.388747802734375,0.08850667625665665,-0.12179161608219147,-0.04064005985856056
1791103688718719700,7.3987197265625,0.13617956638336182,-0.16367143392562866,-0.038233932107686996
1791103688728691700,7.408691650390625,0.058196891099214554,-0.1397234946489334,-0.005849360954016447
1791103688738662700,7.41866259765625,0.12984758615493774,-0.18498006463050842,0.016948843374848366
1791103688748635000,7.428634765625,0.068540558218956,-0.204794779419899,0.09383536875247955
1791103688758606600,7.438606689453125,0.031064743176102638,-0.1460655927658081,-0.05977855622768402
1791103688768578800,7.448578857421875,0.11043732613325119,-0.15689745545387268,0.023659344762563705
1791103688778550800,7.45855078125,0.09064599126577377,-0.08583469688892365,-0.1501794010400772
1791103688788522800,7.468522705078125,0.10329094529151917,-0.1226520985364914,0.0721287652850151
1791103688798494700,7.47849462890625,0.17072714865207672,-0.09186717122793198,0.009958157315850258
1791103688808466700,7.488466796875,0.19038712978363037,-0.044624827802181244,-0.11692122370004654
1791103688818438700,7.498438720703125,0.1700243502855301,-0.06906609237194061,0.055507369339466095
1791103688828411000,7.508410888671875,0.16721472144126892,-0.01892649568617344,-0.06654823571443558
1791103688838382800,7.5183828125,0.20391736924648285,-0.05481050908565521,0.053246282041072845
1791103688848354800,7.528354736328125,0.22414621710777283,-0.042246781289577484,-0.04481210932135582
1791103688858326800,7.538326904296875,0.2048172503709793,-0.029406249523162842,-0.07300645858049393
1791103688868298800,7.548298828125,0.18436524271965027,-0.015350084751844406,-0.11997316777706146
1791103688878271000,7.55827099609375,0.1506860852241516,-0.057800598442554474,0.16235002875328064
1791103688888242700,7.56824267578125,0.17485028505325317,-0.013624347746372223,-0.08448532223701477
1791103688898215000,7.57821484375,0.20538726449012756,-0.06709780544042587,0.06998902559280396
1791103688908186600,7.5881865234375,0.18574193120002747,0.04526442289352417,-0.10850535333156586
1791103688918158800,7.598158935546875,0.15997403860092163,0.019067391753196716,-0.028322428464889526
1791103688928130800,7.608130859375,0.1520809531211853,0.03450626879930496,-0.05922255665063858
1791103688938102800,7.618102783203125,0.16591688990592957,-0.002368767512962222,0.061952974647283554
1791103688948074800,7.62807470703125,0.20291592180728912,0.03312850743532181,-0.014844601042568684
1791103688958046700,7.638046630859375,0.19427251815795898,0.03535538539290428,-0.048550449311733246
1791103688968018000,7.648017822265625,0.14078718423843384,0.08211011439561844,-0.11651698499917984
1791103688977989600,7.65798974609375,0.20513767004013062,0.04517962411046028,-0.06961099058389664
1791103688987961900,7.6679619140625,0.21059101819992065,0.07030894607305527,-0.036856502294540405
1791103688997933800,7.677933837890625,0.21492436528205872,0.09831374138593674,-0.10741697996854782
1791103689007905800,7.68790576171875,0.23745711147785187,0.08586958795785904,-0.01375866774469614
1791103689017877800,7.697877685546875,0.22518467903137207,0.07931559532880783,-0.010958554223179817
1791103689027849700,7.707849609375,0.18616190552711487,0.08091136068105698,-0.01467179972678423
1791103689037821700,7.71782177734375,0.2180854082107544,0.056110940873622894,-0.0006256315391510725
1791103689047794000,7.7277939453125,0.19614042341709137,0.07643378525972366,-0.10262629389762878
1791103689057765600,7.737765625,0.19570274651050568,0.0627140998840332,-0.014559909701347351
1791103689067737900,7.74773779296875,0.16698801517486572,0.0811610147356987,-0.013230725191533566
1791103689077709600,7.75770947265625,0.21949777007102966,0.09355205297470093,-0.019605837762355804
1791103689087681800,7.767681884765625,0.20740756392478943,0.07265183329582214,0.09201309829950333
1791103689097653800,7.77765380859375,0.19543494284152985,0.08427441120147705,0.04413933679461479
1791103689107625700,7.787625732421875,0.15870621800422668,0.07663114368915558,0.15463654696941376
1791103689117597700,7.79759765625,0.12505973875522614,0.07100541144609451,-0.04053477942943573
1791103689127569700,7.807569580078125,0.11927109211683273,0.032999973744153976,-0.0023109617177397013
1791103689137542000,7.8175419921875,0.17671261727809906,0.03335322067141533,-0.004116279073059559
1791103689147513900,7.827513916015625,0.18667922914028168,0.07578855752944946,0.03590836748480797
1791103689157485800,7.83748583984375,0.1521807461977005,0.13461582362651825,0.06545345485210419
1791103689167457800,7.847457763671875,0.14247484505176544,0.13682012259960175,0.004883053246885538
1791103689177429800,7.8574296875,0.1643037348985672,0.1275881677865982,0.08876980096101761
1791103689187400700,7.867400634765625,0.16617433726787567,0.1513424962759018,-0.09106148779392242
1791103689197372700,7.87737255859375,0.18593032658100128,0.11837448179721832,0.05264250561594963
1791103689207345000,7.887344970703125,0.19915665686130524,0.12227094918489456,-0.023819247260689735
1791103689217316900,7.89731689453125,0.1526074856519699,0.11014995723962784,0.049181774258613586
1791103689227288800,7.907288818359375,0.1488202065229416,0.10571020096540451,-0.038250602781772614
1791103689237260800,7.9172607421875,0.11236739903688431,0.16973994672298431,-0.045943837612867355
1791103689247232800,7.927232666015625,0.15056857466697693,0.1501409411430359,0.2018076330423355
1791103689257204700,7.937204833984375,0.18807686865329742,0.14197483658790588,0.0992051437497139
1791103689267177000,7.947177001953125,0.16024018824100494,0.14000755548477173,0.06659633666276932
1791103689277149200,7.957149169921875,0.14810408651828766,0.14952674508094788,0.08325278013944626
1791103689287121400,7.967121337890625,0.15006443858146667,0.13821710646152496,0.011225721798837185
1791103689297093000,7.977093017578125,0.14212587475776672,0.12216085195541382,-0.06023653969168663
1791103689307065300,7.9870654296875,0.12688221037387848,0.13127125799655914,-0.02412460744380951
1791103689317037000,7.997037109375,0.15103960037231445,0.1337091624736786,0.013922828249633312
1791103689327009300,8.00700927734375,0.19832190871238708,0.11510166525840759,0.009802385233342648
1791103689336981200,8.016981201171875,0.18602831661701202,0.11577992886304855,0.03827633708715439
1791103689346953200,8.026953125,0.15353482961654663,0.1061592623591423,0.10852573812007904
1791103689356925200,8.03692529296875,0.06543484330177307,0.10954401642084122,0.08146610856056213
1791103689366897200,8.046897216796875,0.13533243536949158,0.0506087988615036,0.040118128061294556
1791103689376869000,8.056869140625,0.10355304181575775,0.09912026673555374,-0.023023227229714394
1791103689386841300,8.06684130859375,0.14377449452877045,0.11354821175336838,-0.030553314834833145
1791103689396813000,8.07681298828125,0.13806526362895966,0.12325674295425415,0.06298404932022095
1791103689406784300,8.0867841796875,0.16057483851909637,0.184333935379982,-0.10515648871660233
1791103689416756200,8.096756103515625,0.1271904557943344,0.17199531197547913,0.03150118514895439
1791103689426728200,8.106728271484375,0.08152550458908081,0.17070899903774261,-0.005394781474024057
1791103689436700200,8.1167001953125,0.03517179191112518,0.16060157120227814,0.0283034835010767
1791103689446672100,8.126672119140625,0.01318979263305664,0.1063026413321495,-0.010186119005084038
1791103689456644400,8.136644287109375,-0.008583659306168556,0.04985576495528221,0.2011246383190155
1791103689466616000,8.146615966796874,0.02846144326031208,0.12390362471342087,-0.014361850917339325
1791103689476588300,8.15658837890625,0.07656703889369965,0.09630907326936722,0.014829404652118683
1791103689486560000,8.16656005859375,0.07809595763683319,0.10090062767267227,-0.1752728968858719
1791103689496532200,8.1765322265625,0.07847049832344055,0.037128202617168427,0.0937068909406662
1791103689506504200,8.186504150390626,0.051297206431627274,0.08347706496715546,-0.05478671193122864
1791103689516476200,8.19647607421875,0.05593577399849892,0.10722557455301285,-0.05184799060225487
1791103689526448000,8.2064482421875,0.07486739009618759,0.07733505219221115,0.020444581285119057
1791103689536420000,8.216420166015626,0.008732746355235577,0.04466206952929497,0.07901230454444885
1791103689546392300,8.226392333984375,0.009835029020905495,0.02452271431684494,0.04962698370218277
1791103689556364300,8.2363642578125,-0.006366045214235783,0.0479247085750103,0.022416668012738228
1791103689566336300,8.246336181640626,-0.03323373943567276,0.047758378088474274,0.04808599129319191
1791103689576308200,8.25630810546875,0.018092114478349686,0.13751882314682007,-0.0808878168463707
1791103689586280200,8.2662802734375,0.06546628475189209,0.13857556879520416,-0.09240119904279709
1791103689596252200,8.276252197265626,0.037165675312280655,0.11869613826274872,0.03504997491836548
1791103689606224400,8.286224365234375,0.05328445881605148,0.20657671988010406,-0.09951955825090408
1791103689616195300,8.2961953125,0.05510678142309189,0.21641939878463745,-0.008696324191987514
1791103689626167300,8.306167236328125,0.09230634570121765,0.14924302697181702,0.12359833717346191
1791103689636139300,8.31613916015625,0.0983765497803688,0.14654640853405,0.08000641316175461
1791103689646111200,8.326111328125,0.054859697818756104,0.16081589460372925,0.08464857190847397
1791103689656083200,8.336083251953125,0.06717906892299652,0.16276538372039795,0.06030815839767456
1791103689666055200,8.34605517578125,0.039599109441041946,0.14829324185848236,0.03058089129626751
1791103689676027400,8.35602734375,0.09944066405296326,0.20887210965156555,-0.13907893002033234
1791103689685999000,8.3659990234375,0.0694502741098404,0.166177898645401,0.030483731999993324
1791103689695971300,8.375971435546875,0.028969254344701767,0.18489359319210052,-0.09599168598651886
1791103689705943000,8.385943115234374,0.03947808966040611,0.11634942889213562,0.10077357292175293
1791103689715915300,8.395915283203125,-0.014849875122308731,0.15673673152923584,-0.20375579595565796
1791103689725887200,8.40588720703125,-0.047848571091890335,0.0778467133641243,0.08213721215724945
1791103689735859200,8.415859130859374,-0.05429598689079285,0.07396744936704636,0.06003668159246445
1791103689745831200,8.4258310546875,-0.06856174021959305,-0.011303506791591644,0.03038504719734192
1791103689755803100,8.43580322265625,-0.15300090610980988,0.02639380842447281,-0.1829848736524582
1791103689765775000,8.445775146484374,-0.11039486527442932,-0.08794954419136047,0.10390573740005493
1791103689775747300,8.455747314453125,-0.16312997043132782,-0.016943348571658134,-0.11211495101451874
1791103689785719000,8.465718994140625,-0.17845061421394348,-0.02744952030479908,-0.018612703308463097
1791103689795691300,8.475691162109374,-0.14686694741249084,-0.0357428677380085,-0.04632420837879181
1791103689805663200,8.485663330078125,-0.1285417377948761,-0.054670751094818115,-0.06432637572288513
1791103689815634200,8.49563427734375,-0.1182282343506813,0.0015753931365907192,-0.03640419989824295
1791103689825606100,8.505606201171876,-0.11359619349241257,-0.033574871718883514,0.07080268114805222
1791103689835578000,8.515578125,-0.12441657483577728,-0.051495298743247986,0.14422348141670227
1791103689845550300,8.52555029296875,-0.101889967918396,-0.0022896681912243366,-0.02022670954465866
1791103689855522000,8.53552197265625,-0.0867883488535881,-0.008869336917996407,0.20321999490261078
1791103689865494300,8.545494384765625,-0.038241323083639145,0.05380310118198395,0.0014621021691709757
1791103689875466000,8.555466064453125,-0.05942190811038017,0.030100543051958084,0.19394290447235107
1791103689885438200,8.565438232421876,0.005526197142899036,0.139791339635849,-0.0914374366402626
1791103689895410200,8.57541015625,0.03925931081175804,0.1434435099363327,-0.05901626497507095
1791103689905382100,8.585382080078125,0.010978936217725277,0.13784927129745483,0.025327112525701523
1791103689915354400,8.595354248046876,0.039532095193862915,0.17071962356567383,-0.24794423580169678
1791103689925326000,8.605326171875,0.03277112916111946,0.15022605657577515,0.17447279393672943
1791103689935298300,8.61529833984375,0.01152203418314457,0.18986214697360992,-0.05912824347615242
1791103689945270300,8.625270263671876,0.00029867421835660934,0.12227218598127365,0.02427184209227562
1791103689955242200,8.6352421875,-0.03835567831993103,0.14618133008480072,0.1516478955745697
1791103689965214200,8.645214111328125,-0.09678889065980911,0.11003825068473816,0.21709056198596954
1791103689975186200,8.655186279296874,-0.04836733266711235,0.14398275315761566,0.04274224117398262
1791103689985158100,8.665158203125,-0.04467885568737984,0.13377645611763,0.15293559432029724
1791103689995130400,8.67513037109375,-0.025227226316928864,0.14768065512180328,0.05866823345422745
1791103690005102000,8.68510205078125,-0.08949144184589386,0.14567050337791443,0.043302059173583984
1791103690015073300,8.6950732421875,-0.16508989036083221,0.2016538828611374,-0.24682402610778809
1791103690025045200,8.705045166015625,-0.08911097794771194,0.12587308883666992,-0.035304322838783264
1791103690035017200,8.715017333984376,0.00017547700554132462,0.06394042819738388,0.08884070068597794
1791103690044989200,8.7249892578125,0.0029606111347675323,0.13231602311134338,-0.22599339485168457
1791103690054961200,8.734961181640625,-0.14578865468502045,0.09019333869218826,0.14431381225585938
1791103690064933400,8.744933349609376,-0.18269766867160797,0.03034171834588051,0.09408686310052872
1791103690074905000,8.754905029296875,-0.2615528702735901,0.015715274959802628,-0.10166015475988388
1791103690084877300,8.764877197265625,-0.2548443675041199,-0.10935875028371811,0.06908442080020905
1791103690094849000,8.77484912109375,-0.41488996148109436,-0.11364990472793579,0.059221673756837845
1791103690104821200,8.7848212890625,-0.3445817232131958,-0.0720854178071022,-0.10044309496879578
1791103690114793200,8.794793212890625,-0.3467845320701599,-0.08209189027547836,-0.07687690854072571
1791103690124765200,8.80476513671875,-0.2683855891227722,-0.12567238509655,0.0275576189160347
1791103690134737200,8.814737060546875,-0.2748093903064728,-0.004339398816227913,-0.10817039012908936
1791103690144709000,8.824709228515625,-0.23249734938144684,-0.036062706261873245,0.007013455964624882
1791103690154681000,8.83468115234375,-0.24874231219291687,-0.08015771210193634,0.012335803359746933
1791103690164653300,8.8446533203125,-0.3102017045021057,-0.10915527492761612,0.08187466859817505
1791103690174625300,8.854625244140625,-0.3485173285007477,-0.07226571440696716,-0.0013290226925164461
1791103690184597200,8.86459716796875,-0.288045197725296,-0.143799290060997,0.04672212898731232
1791103690194569200,8.8745693359375,-0.3028274178504944,-0.10692473500967026,-0.11853424459695816
1791103690204541200,8.884541259765625,-0.33962777256965637,-0.06838293373584747,-0.13825708627700806
1791103690214512000,8.89451220703125,-0.3096456229686737,-0.16425034403800964,0.17004774510860443
1791103690224484000,8.904484130859375,-0.2766522467136383,-0.08709564059972763,-0.22541461884975433
1791103690234456300,8.914456298828124,-0.27848029136657715,-0.08172313868999481,-0.1794629544019699
1791103690244428000,8.924427978515626,-0.3217744827270508,-0.12487007677555084,-0.034094031900167465
1791103690254400300,8.934400146484375,-0.3759198486804962,-0.08568201959133148,0.0218894574791193
1791103690264372200,8.944372314453124,-0.3098558783531189,-0.0929921418428421,0.06650832295417786
1791103690274343700,8.95434375,-0.21140675246715546,-0.1221824660897255,-0.00810924544930458
1791103690284316000,8.96431591796875,-0.2692447304725647,-0.09617776423692703,0.030841616913676262
1791103690294287600,8.97428759765625,-0.2567228376865387,-0.11181044578552246,0.12100382894277573
1791103690304259800,8.984259765625,-0.20708070695400238,-0.07511688023805618,-0.16340020298957825
1791103690314231600,8.9942314453125,-0.10994373261928558,-0.08504516631364822,0.023370057344436646
1791103690324203800,9.004203857421874,-0.20722314715385437,-0.03520836681127548,0.12423516064882278
1791103690334175700,9.01417578125,-0.1687096357345581,-0.08267109841108322,0.07017356157302856
1791103690344147700,9.024147705078125,-0.20155920088291168,-0.07108954340219498,-0.05485546216368675
1791103690354119700,9.03411962890625,-0.16443467140197754,-0.10905888676643372,0.05783775448799133
1791103690364091600,9.044091552734375,-0.19144205749034882,-0.08089010417461395,0.04824770987033844
1791103690374063600,9.054063720703125,-0.187604621052742,-0.13088162243366241,0.05896174907684326
1791103690384035800,9.064035888671874,-0.19757762551307678,-0.16525743901729584,0.019378650933504105
1791103690394007800,9.0740078125,-0.20341429114341736,-0.15890900790691376,0.011151209473609924
1791103690403978800,9.083978759765625,-0.19067107141017914,-0.18526524305343628,0.012825272977352142
1791103690413950700,9.09395068359375,-0.21672269701957703,-0.20231057703495026,0.051427848637104034
1791103690423922700,9.103922607421875,-0.11473613232374191,-0.16252614557743073,-0.03565885126590729
1791103690433894700,9.113894775390625,-0.13674546778202057,-0.1330338716506958,-0.08852580934762955
1791103690443866600,9.12386669921875,-0.1284790188074112,-0.17418211698532104,0.18288545310497284
1791103690453838800,9.1338388671875,-0.047706011682748795,-0.16953325271606445,-0.052096616476774216
1791103690463810600,9.143810546875,-0.039831843227148056,-0.14728760719299316,-0.13263647258281708
1791103690473782800,9.15378271484375,-0.07344062626361847,-0.1945732980966568,0.12316595017910004
1791103690483754800,9.163754638671875,-0.08145593851804733,-0.158934086561203,-0.029921600595116615
1791103690493726700,9.173726806640625,-0.08456285297870636,-0.15130293369293213,0.011811241507530212
1791103690503699000,9.183698974609374,-0.020009690895676613,-0.14203353226184845,-0.02599233016371727
1791103690513670700,9.193670654296875,-0.006718079559504986,-0.15578106045722961,-0.0009768715826794505
1791103690523643000,9.203642822265625,-0.042968492954969406,-0.15366384387016296,0.10689260810613632
1791103690533614600,9.213614501953124,-0.0009436365216970444,-0.09445148706436157,-0.2014605849981308
1791103690543586800,9.2235869140625,0.04359906539320946,-0.1307956427335739,-0.000009497045539319515
1791103690553558800,9.233558837890625,0.010162157006561756,-0.13692516088485718,0.16845090687274933
1791103690563530800,9.24353076171875,0.0603768564760685,-0.05390112102031708,-0.19544662535190582
1791103690573502700,9.253502685546875,0.11869216710329056,-0.13431352376937866,0.06013316661119461
1791103690583473700,9.2634736328125,0.02597128227353096,-0.11158238351345062,-0.09522419422864914
1791103690593446000,9.27344580078125,0.018981223925948143,-0.11500253528356552,0.005431804805994034
1791103690603417600,9.28341748046875,0.09764354676008224,-0.0744127631187439,-0.12459676712751389
1791103690613389800,9.293389892578125,0.1440236121416092,-0.06409475952386856,-0.01442442275583744
1791103690623361800,9.30336181640625,0.06455116719007492,-0.03196398913860321,-0.0436779148876667
1791103690633333800,9.313333740234375,0.13713133335113525,-0.12895327806472778,0.13713356852531433
1791103690643305700,9.3233056640625,0.0993858203291893,-0.024803707376122475,-0.07795876264572144
1791103690653277700,9.333277587890626,0.1383943259716034,-0.05387764796614647,-0.023481057956814766
1791103690663249700,9.343249755859375,0.09865038096904755,-0.045615192502737045,-0.03831939399242401
1791103690673222000,9.353221923828125,0.1406363695859909,-0.06540168076753616,0.014515986666083336
1791103690683193600,9.363193603515626,0.10789173096418381,-0.033766258507966995,0.0013381331227719784
1791103690693165800,9.373165771484375,0.11548469215631485,-0.06933820992708206,0.1109321117401123
1791103690703137500,9.383137451171875,0.09137988835573196,-0.1071377843618393,0.1400575041770935
1791103690713109800,9.39310986328125,0.1315051019191742,-0.056464213877916336,-0.1448354721069336
1791103690723081500,9.40308154296875,0.06860283017158508,-0.07519422471523285,0.000765668461099267
1791103690733053700,9.4130537109375,0.12235324084758759,-0.0611080676317215,-0.10053461045026779
1791103690743025700,9.423025634765626,0.11223749071359634,-0.06335604190826416,0.09408760815858841
1791103690752997600,9.43299755859375,0.16192778944969177,-0.024472985416650772,-0.04908590763807297
1791103690762968800,9.44296875,0.1828485131263733,-0.035976510494947433,-0.08316957205533981
1791103690772940500,9.4529404296875,0.1518864631652832,-0.08787746727466583,0.1838185340166092
1791103690782912800,9.462912841796875,0.11787736415863037,0.0190039724111557,-0.10486014187335968
1791103690792884700,9.472884765625,0.24250784516334534,-0.1052679717540741,0.10783207416534424
1791103690802856700,9.482856689453126,0.12261420488357544,-0.06809236854314804,-0.05328331142663956
1791103690812828700,9.49282861328125,0.08516915142536163,-0.0245807021856308,-0.0867539644241333
1791103690822800600,9.502800537109374,0.05130067095160484,-0.06258640438318253,0.12425653636455536
1791103690832772600,9.512772705078126,0.14523480832576752,-0.010711856186389923,-0.04320450872182846
1791103690842744600,9.52274462890625,0.16856622695922852,-0.0009159506298601627,0.0023944007698446512
1791103690852716800,9.532716796875,0.15954747796058655,0.023457946255803108,0.024607326835393906
1791103690862688800,9.542688720703126,0.1901376098394394,0.0012538409791886806,0.06359148025512695
1791103690872660700,9.55266064453125,0.2206554412841797,-0.021795004606246948,0.10053139179944992
1791103690882632700,9.5626328125,0.17107164859771729,-0.00015202839858829975,-0.07261695712804794
1791103690892604700,9.572604736328126,0.12606248259544373,0.022870387881994247,-0.12650665640830994
1791103690902576600,9.58257666015625,0.1412358433008194,0.020805373787879944,0.15179793536663055
1791103690912548900,9.592548828125,0.17264454066753387,0.08470143377780914,0.04797845706343651
1791103690922520600,9.6025205078125,0.2953435480594635,0.05158449336886406,-0.0072488486766815186
1791103690932492800,9.612492919921875,0.24374118447303772,0.04593655839562416,0.14925701916217804
1791103690942464500,9.622464599609375,0.11332084983587265,0.09301166236400604,0.026201672852039337
1791103690952435700,9.632435791015626,0.17462050914764404,0.015925202518701553,0.07292918860912323
1791103690962407700,9.64240771484375,0.15046776831150055,0.04412141814827919,-0.010151580907404423
1791103690972379600,9.652379638671874,0.15488296747207642,0.08219565451145172,-0.16349758207798004
1791103690982352000,9.662351806640626,0.11743173003196716,0.0766080766916275,-0.040000416338443756
1791103690992323600,9.672323486328125,0.14548125863075256,0.13310450315475464,-0.03903498500585556
1791103691002295800,9.6822958984375,0.20691879093647003,0.14629752933979034,-0.05225598067045212
1791103691012267500,9.692267578125,0.2700148820877075,0.11983996629714966,-0.047580305486917496
1791103691022239700,9.70223974609375,0.1904660016298294,0.09175480157136917,0.2257055640220642
1791103691032211700,9.712211669921874,0.13822083175182343,0.11491590738296509,-0.08152011781930923
1791103691042183700,9.72218359375,0.09187518060207367,0.011098699644207954,0.13508647680282593
1791103691052155600,9.73215576171875,0.01953936368227005,0.048295509070158005,0.10653218626976013
1791103691062127600,9.742127685546874,0.13054896891117096,0.10000824183225632,0.04887980967760086
1791103691072099600,9.752099609375,0.1472298502922058,0.09116071462631226,-0.07479719072580338
1791103691082071800,9.76207177734375,0.04554317146539688,0.06263267248868942,-0.04584649205207825
1791103691092043500,9.77204345703125,-0.013809657655656338,0.09806694090366364,-0.07514669746160507
1791103691102015700,9.782015625,0.1260126829147339,0.081565722823143,-0.13940079510211945
1791103691111987700,9.79198779296875,0.07944942265748978,0.058681558817625046,-0.009546753019094467
1791103691121958700,9.801958740234374,0.02279413491487503,0.03874433413147926,-0.003832142101600766
1791103691131930600,9.8119306640625,-0.07703091949224472,0.02520556002855301,0.0022252663038671017
1791103691141902600,9.821902587890625,-0.08405234664678574,-0.06987407803535461,0.11626528203487396
1791103691151874800,9.831874755859374,-0.15356412529945374,-0.061515357345342636,-0.015586450695991516
1791103691161846500,9.841846435546875,-0.16966213285923004,-0.06949765235185623,0.029174096882343292
1791103691171818800,9.85181884765625,-0.1581181287765503,-0.04807757958769798,-0.0021148505620658398
1791103691181790500,9.86179052734375,-0.11109549552202225,-0.012365920469164848,-0.15985813736915588
1791103691191762700,9.8717626953125,-0.10435442626476288,-0.02726636826992035,0.0568542443215847
1791103691201734700,9.881734619140625,-0.12286871671676636,-0.006378130055963993,0.054889895021915436
1791103691211706600,9.89170654296875,-0.06173999607563019,-0.005316806025803089,0.018853679299354553
1791103691221678800,9.901678955078125,-0.05265888199210167,0.005557679105550051,-0.024840539321303368
1791103691231650600,9.911650634765625,-0.08943256735801697,0.0002656937576830387,-0.040224164724349976
1791103691241622800,9.921622802734374,-0.14333467185497284,-0.04440750181674957,0.055020060390233994
1791103691251594800,9.9315947265625,-0.11943359673023224,-0.01293659582734108,0.016330545768141747
1791103691261566700,9.941566650390625,-0.031023580580949783,0.03876308351755142,-0.003315594047307968
1791103691271538700,9.95153857421875,-0.044027842581272125,0.034230269491672516,0.1364942044019699
1791103691281511200,9.96151123046875,-0.09408222883939743,0.0415547639131546,-0.11428049206733704
1791103691291483000,9.97148291015625,-0.06314548850059509,0.08302982151508331,-0.13062717020511627
1791103691301454000,9.9814541015625,-0.04689142107963562,0.09527742862701416,0.20713010430335999
1791103691311426000,9.991426025390625,-0.05679601430892944,0.13184534013271332,-0.008525682613253593
1791103691321398000,10.00139794921875,0.0442938506603241,0.11251159012317657,-0.12978845834732056
1791103691331370200,10.011370361328124,-0.004627130925655365,0.11186452955007553,0.016691220924258232
1791103691341342000,10.021342041015625,-0.07382271438837051,0.10776299238204956,0.12904173135757446
1791103691351314200,10.031314208984375,-0.15039631724357605,0.12781605124473572,0.07533375918865204
1791103691361286000,10.041285888671876,0.00498288543894887,0.04048968106508255,0.0462200865149498
1791103691371258000,10.051258056640625,-0.05734965205192566,0.050657499581575394,-0.003278261050581932
1791103691381230000,10.06122998046875,-0.1089414730668068,0.07627071440219879,-0.017963996157050133
1791103691391202000,10.0712021484375,-0.1193777546286583,0.04913376271724701,0.06026439368724823
1791103691401174000,10.081174072265625,-0.021128946915268898,0.025261983275413513,-0.010136532597243786
1791103691411146000,10.09114599609375,-0.020567961037158966,0.040422018617391586,-0.084979347884655
1791103691421118000,10.101117919921874,-0.12322030961513519,0.014547541737556458,0.08167221397161484
1791103691431090200,10.111090087890625,-0.045422110706567764,0.01404574140906334,-0.2180478721857071
1791103691441062000,10.121061767578125,-0.09440350532531738,-0.024136263877153397,0.044939279556274414
1791103691451034000,10.1310341796875,-0.11393729597330093,-0.006264638155698776,-0.07932882010936737
1791103691461005800,10.141005859375,-0.11654213815927505,-0.12164263427257538,0.19914861023426056
1791103691470977000,10.15097705078125,-0.061253152787685394,-0.04971986636519432,-0.27248066663742065
1791103691480949000,10.160948974609376,-0.1881152093410492,-0.08136940747499466,0.1238514855504036
1791103691490921000,10.1709208984375,-0.15885503590106964,-0.0849614292383194,0.09934821724891663
1791103691500893200,10.18089306640625,-0.14772647619247437,-0.11973698437213898,0.08430215716362
1791103691510865000,10.190864990234376,-0.12387488037347794,-0.10841657221317291,-0.13485093414783478
1791103691520837000,10.200837158203125,-0.17680229246616364,-0.09731145948171616,0.06489147245883942
1791103691530808800,10.210808837890625,-0.12273229658603668,-0.14574773609638214,-0.002588440664112568
1791103691540781000,10.220781005859376,-0.09429532289505005,-0.05046169459819794,-0.2938027083873749
1791103691550753000,10.2307529296875,-0.10843977332115173,-0.10115361213684082,0.043783850967884064
1791103691560725000,10.24072509765625,-0.1337648332118988,-0.09872827678918839,-0.03532028943300247
1791103691570697000,10.250697021484376,-0.06245896592736244,-0.08749452978372574,-0.07383492588996887
1791103691580669000,10.2606689453125,-0.06010419502854347,-0.11943674832582474,-0.12223654240369797
1791103691590641000,10.270640869140625,-0.15505237877368927,-0.1600610613822937,0.025667184963822365
1791103691600613000,10.280613037109376,-0.18867932260036469,-0.17771649360656738,0.17747828364372253
1791103691610585000,10.290585205078125,-0.10803677141666412,-0.1633102297782898,-0.033579517155885696
1791103691620557000,10.30055712890625,-0.026235386729240417,-0.16824772953987122,-0.11172784864902496
1791103691630529000,10.310529052734376,-0.15148311853408813,-0.1643557846546173,0.12445152550935745
1791103691640500000,10.3205,-0.13220342993736267,-0.06753044575452805,-0.1304047405719757
1791103691650472000,10.330471923828124,-0.016294483095407486,-0.06272397190332413,-0.022346308454871178
1791103691660444000,10.34044384765625,0.016968131065368652,-0.034191932529211044,-0.07684523612260818
1791103691670416100,10.350416015625,0.03401825204491615,-0.02247030660510063,0.04020427167415619
1791103691680388000,10.36038818359375,0.05574005842208862,0.036300864070653915,-0.2541714310646057
1791103691690360000,10.370360107421876,0.07025674730539322,0.0011126934550702572,0.020580893382430077
1791103691700332000,10.38033203125,0.035277195274829865,-0.03201276808977127,0.16942788660526276
1791103691710304000,10.390303955078124,0.06722626835107803,-0.052457794547080994,0.17895635962486267
1791103691720276200,10.400276123046876,0.024498511105775833,-0.009766258299350739,-0.06978394091129303
1791103691730248000,10.410248046875,0.0300663560628891,-0.052744243294000626,0.1865401566028595
1791103691740220200,10.42022021484375,-0.02810933068394661,0.011153779923915863,-0.011153487488627434
1791103691750191900,10.43019189453125,0.045531030744314194,-0.03413229435682297,0.1073363795876503
1791103691760164000,10.4401640625,0.03991708904504776,-0.018294209614396095,-0.0316968709230423
1791103691770136000,10.450135986328124,-0.014840642921626568,0.024491513147950172,-0.04280993342399597
1791103691780108000,10.46010791015625,-0.007011481560766697,-0.020727364346385002,0.12886489927768707
1791103691790080000,10.470080078125,0.0777575671672821,0.01585025154054165,-0.20062249898910522
1791103691800051000,10.480051025390624,0.05035576969385147,-0.06895944476127625,0.22236418724060059
1791103691810023200,10.490023193359375,-0.0391242615878582,-0.04763806238770485,0.06088824197649956
1791103691819995000,10.499994873046875,0.03935776278376579,-0.1171303242444992,-0.03800984472036362
1791103691829967000,10.509967041015624,-0.03944772481918335,-0.11997658014297485,0.00459051039069891
1791103691839939000,10.51993896484375,-0.07937995344400406,-0.05342871695756912,0.0499233715236187
1791103691849911000,10.5299111328125,0.021731987595558167,-0.06643202155828476,0.08142739534378052
1791103691859883000,10.539883056640624,0.07636088132858276,-0.059844158589839935,-0.0992523729801178
1791103691869855000,10.54985498046875,0.016340328380465508,-0.07204220443964005,-0.1036200150847435
1791103691879827000,10.559826904296875,-0.0554979108273983,-0.07881809026002884,0.08737843483686447
1791103691889799200,10.569799072265624,0.04635230824351311,-0.02713322825729847,0.012906349264085293
1791103691899771000,10.57977099609375,0.21791261434555054,-0.05582692474126816,-0.07281973958015442
1791103691909743000,10.5897431640625,0.20578335225582123,-0.05693301185965538,0.06861007958650589
1791103691919714800,10.59971484375,0.07738225162029266,-0.0015392615459859371,-0.08876543492078781
1791103691929687000,10.60968701171875,0.06628300249576569,-0.04039112478494644,0.012391197495162487
1791103691939659000,10.619658935546875,0.13470813632011414,0.0066629392094910145,-0.11024310439825058
1791103691949631000,10.629630859375,0.14554914832115173,0.02255345694720745,0.021893147379159927
1791103691959603000,10.63960302734375,0.10219021886587143,0.07570508867502213,-0.12324327230453491
1791103691969574000,10.649573974609375,0.11020060628652573,0.10889019072055817,-0.15229836106300354
1791103691979546000,10.659546142578124,0.21616698801517487,0.07421396672725677,0.18995006382465363
1791103691989517800,10.669517822265625,0.1713237166404724,0.07377384603023529,0.07876724004745483
1791103691999490000,10.679489990234375,0.13901583850383759,0.036552976816892624,-0.05664704740047455
1791103692009462000,10.6894619140625,0.07512522488832474,0.04687168076634407,0.03336847200989723
1791103692019434000,10.69943408203125,0.07580379396677017,0.023375675082206726,0.1562645584344864
1791103692029406000,10.709406005859375,0.07732829451560974,0.06644254922866821,-0.06304658949375153
1791103692039378000,10.7193779296875,0.12069307267665863,0.05625142902135849,-0.0917687863111496
1791103692049350100,10.72935009765625,0.1282307207584381,0.016504378989338875,0.017299532890319824
1791103692059322000,10.739322021484375,0.1043485477566719,-0.02636825479567051,0.09256047010421753
1791103692069294000,10.749294189453124,0.059405937790870667,0.038670364767313004,-0.08476312458515167
1791103692079266000,10.75926611328125,0.05102737247943878,0.06447160243988037,0.03216376155614853
1791103692089238000,10.769238037109375,0.00862364936619997,0.003191993571817875,0.12184317409992218
1791103692099210000,10.7792099609375,0.03619961440563202,0.008714856579899788,-0.06545054912567139
1791103692109182200,10.78918212890625,0.029637588188052177,0.052746497094631195,-0.08639870584011078
1791103692119154000,10.79915380859375,0.05620591342449188,0.06356948614120483,0.1891484260559082
1791103692129125000,10.809125,0.1239195466041565,0.08256031572818756,-0.1454901248216629
1791103692139097000,10.81909716796875,0.13488724827766418,0.11784639954566956,-0.14327144622802734
1791103692149069000,10.829069091796875,0.09737786650657654,0.06513511389493942,0.1301923543214798
1791103692159041000,10.839041015625,0.06921866536140442,0.08726119250059128,0.06285431981086731
1791103692169013000,10.849012939453125,0.04634180665016174,0.07879887521266937,0.04539674520492554
1791103692178985200,10.858985107421875,0.0008004177361726761,0.04659033939242363,0.08090679347515106
1791103692188957000,10.86895703125,-0.04828011244535446,0.010649310424923897,-0.0061950357630848885
1791103692198929200,10.87892919921875,-0.0894765555858612,0.027679692953824997,0.12760618329048157
1791103692208900900,10.88890087890625,-0.05563376098871231,0.028463277965784073,-0.042869601398706436
1791103692218873000,10.898873046875,-0.006166876293718815,-0.006425464525818825,-0.11282924562692642
1791103692228845000,10.908844970703125,-0.01819002628326416,0.07572194933891296,-0.10656879842281342
1791103692238817000,10.918817138671875,-0.08202999085187912,0.008682994171977043,0.10063684731721878
1791103692248789000,10.9287890625,-0.1368054747581482,0.020332811400294304,-0.09471604973077774
1791103692258761000,10.938760986328125,-0.06538882851600647,-0.016429463401436806,0.059959013015031815
1791103692268733000,10.94873291015625,-0.13185536861419678,-0.019325025379657745,0.13881643116474152
1791103692278704000,10.9587041015625,-0.10627197474241257,-0.06058751046657562,0.0039560915902256966
1791103692288675000,10.968675048828125,-0.13088534772396088,0.007013732101768255,-0.08164733648300171
1791103692298647000,10.97864697265625,-0.09727437794208527,-0.0018993353005498648,0.002449963940307498
1791103692308619300,10.988619384765625,-0.0647040456533432,-0.0313052162528038,0.053571123629808426
1791103692318591200,10.99859130859375,-0.12822923064231873,0.008891738951206207,-0.018684962764382362
1791103692328563200,11.008563232421874,-0.11416415870189667,-0.002470649778842926,-0.024995597079396248
1791103692338535200,11.01853515625,-0.1655980497598648,0.002424240577965975,-0.10435300320386887
1791103692348507100,11.028507080078125,-0.07716505229473114,-0.028517089784145355,-0.017509760335087776
1791103692358479400,11.038479248046874,-0.07522334158420563,0.018890637904405594,-0.09463916718959808
1791103692368451000,11.048451171875,-0.09053167700767517,-0.0067158043384552,-0.04028348624706268
1791103692378423300,11.05842333984375,-0.16961504518985748,-0.03859757259488106,-0.17113684117794037
1791103692388395000,11.06839501953125,-0.14101174473762512,-0.05492047592997551,0.0870727077126503
1791103692398367200,11.0783671875,-0.167730450630188,0.003659747075289488,0.11054074764251709
1791103692408339200,11.088339111328125,-0.07975006103515625,0.012375002726912498,-0.2022094875574112
1791103692418311200,11.098311279296874,-0.14160357415676117,-0.04435219243168831,0.32652518153190613
1791103692428283100,11.108283203125,-0.18354631960391998,-0.01630341075360775,0.0057011255994439125
1791103692438255000,11.118255126953125,-0.19991038739681244,0.008798213675618172,-0.044019293040037155
1791103692448226300,11.128226318359374,-0.06906571984291077,-0.04510140419006348,0.12622343003749847
1791103692458198000,11.138197998046875,-0.011306819505989552,0.0050195506773889065,0.050718821585178375
1791103692468170200,11.148170166015625,-0.08129791170358658,0.07626474648714066,-0.18020114302635193
1791103692478142200,11.15814208984375,-0.17749902606010437,0.03264749050140381,-0.08318483829498291
1791103692488114200,11.1681142578125,-0.1827688068151474,0.03266727179288864,0.09958386421203613
1791103692498086100,11.178086181640625,-0.07464154064655304,0.026733484119176865,-0.026208950206637383
1791103692508058000,11.18805810546875,-0.06539523601531982,-0.025226380676031113,0.13497795164585114
1791103692518030000,11.198030029296875,-0.18198709189891815,-0.018605228513479233,0.02227589674293995
1791103692528002300,11.208002197265625,-0.2360748052597046,-0.06872789561748505,0.13714054226875305
1791103692537974000,11.21797412109375,-0.1665671020746231,-0.075175940990448,0.052411798387765884
1791103692547946200,11.2279462890625,-0.12444982677698135,-0.06102357059717178,0.01669636182487011
1791103692557918000,11.23791796875,-0.1312485933303833,-0.03278633952140808,-0.020992960780858994
1791103692567890200,11.24789013671875,-0.17337782680988312,-0.018351154401898384,-0.08389967679977417
1791103692577862100,11.257862060546875,-0.1760162115097046,-0.007525138556957245,-0.12605245411396027
1791103692587834000,11.267834228515625,-0.16554240882396698,0.01997038722038269,0.0515417717397213
1791103692597805300,11.277805419921876,-0.17332975566387177,-0.010230125859379768,0.25542300939559937
1791103692607777000,11.287777099609375,-0.09476623684167862,-0.06993123888969421,-0.10754241794347763
1791103692617749200,11.297749267578125,-0.15516141057014465,-0.10157891362905502,0.08720389753580093
1791103692627721000,11.307720947265626,-0.20841436088085175,-0.12879624962806702,0.126852884888649
1791103692637693200,11.317693115234375,-0.2629809081554413,-0.1211995780467987,0.0034920598845928907
1791103692647665200,11.3276650390625,-0.22512394189834595,-0.10008985549211502,-0.11349083483219147
1791103692657637000,11.33763720703125,-0.15935878455638885,-0.1414964199066162,0.20380324125289917
1791103692667609000,11.347609130859375,-0.22103196382522583,-0.12692980468273163,-0.03144112974405289
1791103692677581000,11.3575810546875,-0.17525435984134674,-0.09990616887807846,-0.08509636670351028
1791103692687553300,11.36755322265625,-0.12734957039356232,-0.04368443042039871,-0.10473177582025528
1791103692697525200,11.377525146484375,-0.19549106061458588,-0.07091072201728821,0.2049054354429245
1791103692707497200,11.387497314453125,-0.11155928671360016,-0.11965776979923248,-0.05257350206375122
1791103692717469200,11.39746923828125,-0.10781834274530411,-0.051425449550151825,-0.14007192850112915
1791103692727441200,11.407441162109375,-0.093707375228405,-0.022559160366654396,0.11035989224910736
1791103692737413000,11.4174130859375,-0.09428528696298599,-0.0637231096625328,0.09284188598394394
1791103692747385300,11.42738525390625,-0.056013837456703186,-0.0006963235791772604,-0.18965880572795868
1791103692757356300,11.437356201171875,-0.01241070032119751,0.039614081382751465,-0.021939314901828766
1791103692767328300,11.447328369140624,-0.02963014505803585,0.03581923618912697,0.030680326744914055
1791103692777300200,11.45730029296875,0.007668226025998592,0.0368080660700798,-0.09867154061794281
1791103692787272200,11.467272216796875,-0.02007170021533966,0.020472170785069466,0.1277642399072647
1791103692797244200,11.477244140625,-0.010656892322003841,0.03691985085606575,-0.01355134416371584
1791103692807216000,11.487216064453126,-0.016153117641806602,-0.016939755529165268,0.021134113892912865
1791103692817188400,11.497188232421875,-0.04334878548979759,-0.006519072689116001,0.0798051506280899
1791103692827160000,11.50716015625,-0.01922435313463211,-0.0029987753368914127,0.11941330879926682
1791103692837132300,11.51713232421875,-0.021112803369760513,0.0063393330201506615,0.0651567280292511
1791103692847104000,11.52710400390625,-0.03376644104719162,-0.010898115113377571,-0.05358333885669708
1791103692857076200,11.537076171875,-0.09067046642303467,-0.05722885951399803,0.17024920880794525
1791103692867048200,11.547048095703126,-0.07928825169801712,-0.0011160762514919043,-0.18044620752334595
1791103692877020200,11.557020263671875,-0.06641772389411926,-0.06722691655158997,0.022530868649482727
1791103692886992100,11.5669921875,-0.11175736784934998,-0.04711265116930008,-0.025416230782866478
1791103692896964000,11.576964111328126,-0.10742706060409546,-0.1334693878889084,-0.014402195811271667
1791103692906936000,11.58693603515625,-0.11767429858446121,-0.08756380528211594,-0.18619610369205475
1791103692916907000,11.596906982421874,-0.1682722270488739,-0.057878877967596054,-0.014294636435806751
1791103692926879200,11.606879150390625,-0.16355620324611664,-0.04679436981678009,-0.0425337553024292
1791103692936851200,11.616851318359375,-0.1080910861492157,-0.07595466077327728,-0.010986482724547386
1791103692946823200,11.6268232421875,-0.1004650667309761,-0.052846021950244904,0.012867746874690056
1791103692956795100,11.636795166015625,-0.09219063073396683,-0.10913459211587906,0.07046312838792801
1791103692966767000,11.64676708984375,-0.03824406862258911,-0.12048700451850891,0.053468067198991776
1791103692976739000,11.656739013671874,-0.1142733171582222,-0.0856989324092865,0.07384976744651794
1791103692986711300,11.666711181640625,-0.1177048459649086,-0.10240235924720764,0.11472979933023453
1791103692996683000,11.67668310546875,-0.14818978309631348,-0.04865498095750809,0.006906927563250065
1791103693006655200,11.6866552734375,-0.1076725646853447,-0.07881856709718704,0.09499640762805939
1791103693016627200,11.696627197265625,-0.08507004380226135,-0.008569702506065369,-0.22236131131649017
1791103693026599200,11.70659912109375,-0.03049546480178833,0.006186531390994787,-0.12347821891307831
1791103693036571400,11.7165712890625,-0.019024699926376343,-0.017356345430016518,0.015171009115874767
1791103693046543000,11.726543212890626,-0.06080405414104462,0.031486935913562775,-0.035243209451436996
1791103693056514300,11.736514404296875,-0.05398183315992355,0.035160768777132034,-0.06096348538994789
1791103693066486000,11.746486083984376,-0.09732016921043396,0.02639191597700119,-0.0067041958682239056
1791103693076458200,11.756458251953125,-0.10497143119573593,-0.08249008655548096,0.23235419392585754
1791103693086430000,11.766429931640625,-0.1396605223417282,-0.002928653731942177,-0.05520042032003403
1791103693096402200,11.776402099609374,-0.1397273689508438,-0.051342256367206573,0.3198009133338928
1791103693106374100,11.7863740234375,-0.1753385215997696,-0.02725590206682682,-0.021638216450810432
1791103693116346000,11.79634619140625,-0.1363959163427353,-0.07089685648679733,0.09068059921264648
1791103693126318300,11.806318359375,-0.11497262865304947,-0.04270767420530319,-0.06389635056257248
1791103693136290000,11.8162900390625,-0.14065560698509216,-0.04857461899518967,-0.14972417056560516
1791103693146262300,11.82626220703125,-0.22759731113910675,0.0100945383310318,0.030232543125748634
1791103693156234200,11.836234130859374,-0.14704599976539612,-0.0820055603981018,0.24643594026565552
1791103693166206200,11.846206298828125,-0.09907887130975723,-0.04604198411107063,-0.24739623069763184
1791103693176178200,11.85617822265625,-0.15388965606689453,-0.05300428718328476,-0.09834122657775879
1791103693186150100,11.866150146484374,-0.2895798087120056,-0.092629574239254,0.2845221161842346
1791103693196122000,11.8761220703125,-0.3301496207714081,-0.12233340740203857,-0.10897325724363327
1791103693206094300,11.88609423828125,-0.1767100840806961,-0.17174799740314484,-0.19659602642059326
1791103693216065300,11.896065185546876,-0.1993221789598465,-0.16454868018627167,0.24163831770420074
1791103693226037200,11.906037353515625,-0.2751339077949524,-0.10683564841747284,-0.01965608075261116
1791103693236009200,11.91600927734375,-0.27440980076789856,-0.1771489679813385,-0.016272002831101418
1791103693245981200,11.925981201171876,-0.27568796277046204,-0.19966661930084229,0.0225593913346529
1791103693255953200,11.935953125,-0.3176332712173462,-0.15737853944301605,-0.029997028410434723
1791103693265925000,11.945925048828125,-0.2063453644514084,-0.2283741533756256,0.19087116420269012
1791103693275897600,11.955897705078126,-0.28903546929359436,-0.1879441738128662,-0.018223725259304047
1791103693285869600,11.96586962890625,-0.28994786739349365,-0.23191210627555847,0.11457142233848572
1791103693295841800,11.975841796875,-0.3700355291366577,-0.23388415575027466,0.1863316148519516
1791103693305813500,11.9858134765625,-0.2907089591026306,-0.2720288038253784,0.1322481781244278
1791103693315785700,11.99578564453125,-0.25328993797302246,-0.22905178368091583,-0.19654835760593414
1791103693325757400,12.00575732421875,-0.3074577748775482,-0.22807039320468903,-0.0166759230196476
1791103693335729700,12.015729736328124,-0.42205891013145447,-0.20334561169147491,0.19223815202713013
1791103693345701600,12.02570166015625,-0.1611834317445755,-0.26308175921440125,0.10915308445692062
1791103693355673600,12.035673583984375,-0.19903147220611572,-0.18157891929149628,-0.23948000371456146
1791103693365644800,12.045644775390626,-0.27014994621276855,-0.22128388285636902,0.039833422750234604
1791103693375616500,12.055616455078125,-0.3461245894432068,-0.21642866730690002,0.00963690597563982
1791103693385588700,12.065588623046875,-0.20183813571929932,-0.26631179451942444,-0.07961787283420563
1791103693395560400,12.075560546875,-0.22835497558116913,-0.2525283396244049,-0.12123988568782806
1791103693405532700,12.08553271484375,-0.3547073006629944,-0.2324950098991394,0.10080268979072571
1791103693415504600,12.095504638671875,-0.2380792200565338,-0.2697073519229889,0.025258131325244904
1791103693425476600,12.1054765625,-0.2293233871459961,-0.2955281734466553,0.09943659603595734
1791103693435448600,12.115448486328125,-0.17687135934829712,-0.3022395968437195,-0.14684614539146423
1791103693445420500,12.125420654296875,-0.3054920434951782,-0.27843672037124634,0.08798854053020477
1791103693455392500,12.135392578125,-0.27067601680755615,-0.2601560056209564,0.014455205760896206
1791103693465364700,12.14536474609375,-0.19117653369903564,-0.27745163440704346,0.008495050482451916
1791103693475336400,12.15533642578125,-0.18829447031021118,-0.23711645603179932,-0.152505561709404
