time,seconds_elapsed,z,y,x
1791103681354415000,0.0344150390625,-0.2950822412967682,-0.2875548303127289,0.013381319120526314
1791103681364387300,0.04438720703125,-0.2414427101612091,-0.3127097189426422,0.02678394317626953
1791103681374359000,0.054359130859375,-0.2285839021205902,-0.30349302291870117,0.016992032527923584
1791103681384331300,0.064331298828125,-0.18482737243175507,-0.3076787292957306,-0.04838351160287857
1791103681394303200,0.07430322265625,-0.1857576221227646,-0.28318190574645996,-0.04142254218459129
1791103681404275200,0.084275146484375,-0.17339521646499634,-0.279512882232666,-0.02178492397069931
1791103681414247200,0.0942470703125,-0.12724503874778748,-0.25062263011932373,-0.08083918690681458
1791103681424219100,0.10421923828125,-0.14429645240306854,-0.22748056054115295,-0.05607471987605095
1791103681434191000,0.114191162109375,-0.11532126367092133,-0.24557141959667206,-0.022037126123905182
1791103681444163300,0.124163330078125,-0.09441225230693817,-0.2576746940612793,-0.020957479253411293
1791103681454135300,0.13413525390625,-0.0857926681637764,-0.2624579966068268,0.027047064155340195
1791103681464107300,0.144107177734375,-0.11323680728673935,-0.2737777531147003,0.05235668271780014
1791103681474079200,0.154079345703125,-0.08385122567415237,-0.2573377788066864,0.050210971385240555
1791103681484051200,0.16405126953125,-0.013171195983886719,-0.2200053334236145,0.048823464661836624
1791103681494023400,0.1740234375,0.0463336780667305,-0.1760820895433426,-0.018544921651482582
1791103681503995100,0.1839951171875,0.07410618662834167,-0.23613370954990387,0.06955084949731827
1791103681513967400,0.19396728515625,0.09824321419000626,-0.1520467847585678,-0.01715501770377159
1791103681523939000,0.20393896484375,0.1686430722475052,-0.13416153192520142,-0.09176267683506012
1791103681533911300,0.213911376953125,0.08058911561965942,-0.19560624659061432,-0.0018929748330265284
1791103681543883300,0.22388330078125,0.06287110596895218,-0.19851255416870117,0.028864137828350067
1791103681553855200,0.233855224609375,0.10504412651062012,-0.15022066235542297,0.040410008281469345
1791103681563827200,0.2438271484375,0.16871364414691925,-0.14943182468414307,-0.0028040423057973385
1791103681573799200,0.253799072265625,0.1700177937746048,-0.1220068633556366,0.024143951013684273
1791103681583771100,0.263771240234375,0.2408783882856369,-0.08479931205511093,0.024508273229002953
1791103681593743400,0.273743408203125,0.15957528352737427,-0.12649428844451904,0.02154523879289627
1791103681603715000,0.283715087890625,0.18969003856182098,-0.12061163783073425,0.0027662254869937897
1791103681613687300,0.293687255859375,0.2330833226442337,-0.09091685712337494,0.00936181005090475
1791103681623659000,0.303658935546875,0.21119479835033417,-0.0799371749162674,0.027113642543554306
1791103681633631200,0.31363134765625,0.22195956110954285,-0.11713940650224686,0.04490409046411514
1791103681643603200,0.323603271484375,0.2439202517271042,-0.09651109576225281,0.03475957736372948
1791103681653575200,0.3335751953125,0.20934151113033295,-0.10951610654592514,0.04556801915168762
1791103681663547400,0.34354736328125,0.14404159784317017,-0.08280166983604431,0.054618772119283676
1791103681673519000,0.35351904296875,0.2521475553512573,-0.11047804355621338,0.06854283809661865
1791103681683491300,0.3634912109375,0.21388272941112518,-0.08647097647190094,0.09673799574375153
1791103681693463300,0.37346337890625,0.19391967356204987,-0.08687497675418854,0.06502480804920197
1791103681703435300,0.383435302734375,0.18774619698524475,-0.07698959112167358,0.03147749975323677
1791103681713407200,0.3934072265625,0.2795275151729584,-0.0799824520945549,0.012235627509653568
1791103681723379200,0.403379150390625,0.18287473917007446,-0.06931675970554352,0.08675993233919144
1791103681733351200,0.41335107421875,0.22373215854167938,-0.07499808073043823,-0.016031431034207344
1791103681743323400,0.423323486328125,0.18197272717952728,-0.03230414539575577,-0.029917951673269272
1791103681753295000,0.433295166015625,0.2318476140499115,-0.01781574822962284,-0.04354481399059296
1791103681763267300,0.443267333984375,0.2487269937992096,-0.03946458548307419,0.017139839008450508
1791103681773239000,0.453239013671875,0.25746747851371765,-0.055145811289548874,0.0051534827798604965
1791103681783211300,0.463211181640625,0.2171054184436798,-0.08104158937931061,0.09710285067558289
1791103681793183000,0.473182861328125,0.14166711270809174,-0.08258222788572311,0.18472909927368164
1791103681803155200,0.4831552734375,0.15512913465499878,-0.09350091964006424,0.2038372904062271
1791103681813127200,0.493127197265625,0.18526093661785126,-0.042704321444034576,0.17704933881759644
1791103681823099100,0.50309912109375,0.23137517273426056,-0.00040852889651432633,0.09457097947597504
1791103681833071000,0.513071044921875,0.3156554400920868,0.03951917961239815,0.04963386431336403
1791103681843043000,0.52304296875,0.34697872400283813,0.10087281465530396,0.017463145777583122
1791103681853015300,0.533015380859375,0.34870845079421997,0.13983486592769623,-0.020832045003771782
1791103681862987300,0.5429873046875,0.3747267425060272,0.16902737319469452,-0.08875144273042679
1791103681872959200,0.552959228515625,0.37995344400405884,0.18523776531219482,-0.03136058524250984
1791103681882931200,0.56293115234375,0.33758842945098877,0.20022310316562653,-0.0285288468003273
1791103681892903200,0.572903076171875,0.3973047435283661,0.16816557943820953,0.010065151378512383
1791103681902875100,0.582875244140625,0.3489995300769806,0.16600094735622406,0.08504165709018707
1791103681912847400,0.592847412109375,0.3392060399055481,0.15281137824058533,0.07799094170331955
1791103681922819000,0.602819091796875,0.24918346107006073,0.1471063643693924,0.07553337514400482
1791103681932791300,0.612791259765625,0.331186443567276,0.16197878122329712,0.08648775517940521
1791103681942763000,0.622762939453125,0.34309184551239014,0.1772349625825882,0.07835179567337036
1791103681952735200,0.6327353515625,0.2912544906139374,0.1394558995962143,0.05863188952207565
1791103681962707200,0.642707275390625,0.2761290669441223,0.08790961652994156,0.024710938334465027
1791103681972679200,0.65267919921875,0.2455839365720749,0.10646066069602966,-0.027776770293712616
1791103681982651100,0.662651123046875,0.2919037640094757,0.08838099241256714,-0.06473532319068909
1791103681992623000,0.672623046875,0.21736347675323486,0.04174797981977463,0.08174679428339005
1791103682002595000,0.682594970703125,0.18052130937576294,0.03032807819545269,0.08338277041912079
1791103682012567300,0.6925673828125,0.1845453381538391,0.03183089941740036,-0.03778386488556862
1791103682022539300,0.702539306640625,0.13199079036712646,0.02598526142537594,-0.04513312503695488
1791103682032511200,0.71251123046875,0.15730732679367065,0.04456959664821625,-0.03804272413253784
1791103682042483200,0.722483154296875,0.13357511162757874,0.08168767392635345,-0.03520059958100319
1791103682052455200,0.732455078125,0.14588317275047302,0.09919369220733643,-0.07866338640451431
1791103682062427400,0.742427490234375,0.15832093358039856,0.12241219729185104,-0.05233297869563103
1791103682072399000,0.752399169921875,0.24690085649490356,0.12407480925321579,-0.060206349939107895
1791103682082371300,0.762371337890625,0.2239004671573639,0.15511874854564667,-0.012684103101491928
1791103682092343000,0.772343017578125,0.25630927085876465,0.1580847054719925,0.0019206717843189836
1791103682102315300,0.782315185546875,0.3009220063686371,0.1665778011083603,-0.02809741534292698
1791103682112287200,0.792287353515625,0.26291871070861816,0.2354402095079422,0.04511474817991257
1791103682122259200,0.80225927734375,0.2508434057235718,0.2506875991821289,0.03916604444384575
1791103682132231200,0.812231201171875,0.2622923254966736,0.2315719723701477,0.05145999416708946
1791103682142203100,0.822203125,0.25647440552711487,0.2727356553077698,0.053700778633356094
1791103682152175000,0.832175048828125,0.2643307149410248,0.2608947157859802,0.011383416131138802
1791103682162147300,0.842147216796875,0.24367177486419678,0.22995756566524506,0.06072859466075897
1791103682172119000,0.852119140625,0.21303823590278625,0.2478604018688202,0.023428626358509064
1791103682182091300,0.86209130859375,0.1678481251001358,0.2659547030925751,-0.03525039926171303
1791103682192063000,0.87206298828125,0.1318190097808838,0.2169773131608963,0.028291825205087662
1791103682202035200,0.88203515625,0.11232121288776398,0.20906613767147064,0.009875800460577011
1791103682212007200,0.892007080078125,0.08904092758893967,0.22224850952625275,0.007316235918551683
1791103682221979100,0.901979248046875,0.08335907012224197,0.22886700928211212,0.04634486138820648
1791103682231951400,0.911951416015625,0.09589830040931702,0.21701885759830475,0.01925305649638176
1791103682241923000,0.921923095703125,0.046124085783958435,0.22308394312858582,0.06855056434869766
1791103682251895300,0.931895263671875,0.06965897232294083,0.2200186550617218,0.09663253277540207
1791103682261867300,0.9418671875,0.07905486971139908,0.24614745378494263,0.03624588996171951
1791103682271839000,0.9518388671875,0.07913956046104431,0.25256726145744324,0.09346390515565872
1791103682281810700,0.961810791015625,0.14883555471897125,0.25976020097732544,0.10260280966758728
1791103682291783000,0.971782958984375,0.11668906360864639,0.25877031683921814,0.04614831879734993
1791103682301754600,0.981754638671875,0.09103616327047348,0.251386433839798,0.09564822912216187
1791103682311726800,0.991726806640625,0.04234665632247925,0.24462786316871643,0.07315357029438019
1791103682321698800,1.00169873046875,-0.01158874575048685,0.24855069816112518,-0.03477928414940834
1791103682331670800,1.0116708984375,-0.011276623234152794,0.22006924450397491,-0.020771857351064682
1791103682341642800,1.021642822265625,0.015958726406097412,0.20288653671741486,-0.009619870223104954
1791103682351614700,1.03161474609375,0.011759454384446144,0.21022966504096985,-0.058634549379348755
1791103682361586700,1.041586669921875,-0.06558699905872345,0.17212356626987457,-0.012088088318705559
1791103682371559000,1.051558837890625,-0.10433519631624222,0.13381026685237885,0.007163903210312128
1791103682381529900,1.06152978515625,-0.11143305152654648,0.10748863965272903,0.0568837895989418
1791103682391501800,1.071501708984375,-0.14643338322639465,0.10124140232801437,0.12224042415618896
1791103682401473800,1.081473876953125,-0.15286198258399963,0.06738782674074173,0.10405422747135162
1791103682411445800,1.09144580078125,-0.18295250833034515,0.057378869503736496,0.1441608965396881
1791103682421417700,1.101417724609375,-0.16028207540512085,0.06000581383705139,0.16427282989025116
1791103682431389700,1.1113896484375,-0.11249085515737534,0.06755667179822922,0.11316916346549988
1791103682441362000,1.12136181640625,-0.08543314039707184,0.08998368680477142,0.08837433904409409
1791103682451334000,1.131333984375,-0.12580959498882294,0.1065639927983284,0.04433257877826691
1791103682461305900,1.141305908203125,-0.1326211541891098,0.10421215742826462,0.03886430710554123
1791103682471277800,1.15127783203125,-0.14735110104084015,0.0812932550907135,0.035784896463155746
1791103682481249800,1.161249755859375,-0.1328539252281189,0.11644618213176727,0.052793972194194794
1791103682491222000,1.171221923828125,-0.1413494050502777,0.08041627705097198,0.10871236771345139
1791103682501193700,1.18119384765625,-0.15157434344291687,0.09289026260375977,0.12982137501239777
1791103682511166000,1.191166015625,-0.1842811554670334,0.10500897467136383,0.12074719369411469
1791103682521137700,1.2011376953125,-0.1043194830417633,0.14706827700138092,-0.004352404270321131
1791103682531110000,1.21110986328125,-0.12941338121891022,0.1860007643699646,0.006097041070461273
1791103682541081900,1.221081787109375,-0.07459567487239838,0.16397801041603088,-0.06406953185796738
1791103682551053800,1.2310537109375,-0.0688544288277626,0.2153426706790924,-0.07752195745706558
1791103682561025800,1.24102587890625,-0.07007762044668198,0.1779729276895523,0.004950284026563168
1791103682570997800,1.250997802734375,-0.16121365129947662,0.20068968832492828,-0.023429425433278084
1791103682580969700,1.2609697265625,-0.12226492911577225,0.19860044121742249,-0.050522562116384506
1791103682590942000,1.27094189453125,-0.21444864571094513,0.1385328471660614,0.12845703959465027
1791103682600913700,1.28091357421875,-0.32197192311286926,0.10849478840827942,0.04157833755016327
1791103682610886000,1.290885986328125,-0.29392510652542114,0.0487225316464901,0.10005549341440201
1791103682620857600,1.300857666015625,-0.2125447541475296,0.07608704268932343,0.05541825294494629
1791103682630829800,1.310829833984375,-0.23863014578819275,0.05197478458285332,0.10764124244451523
1791103682640801800,1.3208017578125,-0.2724243402481079,0.029386650770902634,0.06783869862556458
1791103682650773800,1.330773681640625,-0.3296724557876587,-0.010705641470849514,0.10579273849725723
1791103682660746000,1.34074609375,-0.32967883348464966,0.02622973918914795,0.01846529357135296
1791103682670717700,1.3507177734375,-0.31481680274009705,0.05060352385044098,-0.050463173538446426
1791103682680690000,1.36068994140625,-0.33997541666030884,0.07331522554159164,-0.04362896829843521
1791103682690662000,1.370661865234375,-0.25014618039131165,0.07985807955265045,-0.035422440618276596
1791103682700633900,1.3806337890625,-0.2719031572341919,0.09447111189365387,-0.031028224155306816
1791103682710605800,1.390605712890625,-0.3484189510345459,0.08107966929674149,-0.09401944279670715
1791103682720577800,1.400577880859375,-0.337986022233963,0.06421946734189987,-0.09190142899751663
1791103682730549800,1.4105498046875,-0.40169230103492737,0.09746663272380829,-0.09739792346954346
1791103682740522000,1.42052197265625,-0.3328637182712555,0.0872930958867073,-0.03392760828137398
1791103682750493700,1.43049365234375,-0.34821921586990356,0.07815898209810257,0.01179354265332222
1791103682760466000,1.4404658203125,-0.32860398292541504,0.060992248356342316,0.026490196585655212
1791103682770437600,1.450437744140625,-0.3096713125705719,0.0651417151093483,-0.04420554265379906
1791103682780409900,1.460409912109375,-0.26871562004089355,0.04410647600889206,-0.08285386860370636
1791103682790381800,1.4703818359375,-0.2570216655731201,0.04869670048356056,-0.03898761421442032
1791103682800353800,1.480353759765625,-0.30594101548194885,0.045148834586143494,-0.07129362225532532
1791103682810325800,1.49032568359375,-0.3479318618774414,0.01968315802514553,-0.13188906013965607
1791103682820297700,1.500297607421875,-0.3957318961620331,-0.033176861703395844,-0.19777193665504456
1791103682830269700,1.510269775390625,-0.45108383893966675,-0.10687292367219925,-0.12439705431461334
1791103682840242000,1.520241943359375,-0.48798486590385437,-0.16221579909324646,-0.09132485091686249
1791103682850214000,1.5302138671875,-0.5337238311767578,-0.20978732407093048,-0.07236581295728683
1791103682860185900,1.540185791015625,-0.5951512455940247,-0.28294435143470764,0.04223533719778061
1791103682870157800,1.55015771484375,-0.6423792243003845,-0.30510184168815613,0.0024458470288664103
1791103682880129800,1.5601298828125,-0.6446034908294678,-0.3081594407558441,-0.04752863571047783
1791103682890102000,1.57010205078125,-0.6111720204353333,-0.30905506014823914,-0.06203088164329529
1791103682900073700,1.58007373046875,-0.5688821077346802,-0.3100753128528595,-0.02082991413772106
1791103682910046000,1.5900458984375,-0.44975703954696655,-0.2611636817455292,-0.06129451468586922
1791103682920017700,1.600017578125,-0.4344151020050049,-0.22340592741966248,-0.1057053878903389
1791103682929990000,1.609989990234375,-0.362866073846817,-0.18810199201107025,-0.13691231608390808
1791103682939961600,1.619961669921875,-0.3783276081085205,-0.09551267325878143,-0.10046029090881348
1791103682949933800,1.629933837890625,-0.3187446892261505,-0.027935493737459183,-0.08774343132972717
1791103682959905800,1.63990576171875,-0.2742302119731903,-0.02515382319688797,-0.02418869361281395
1791103682969877800,1.649877685546875,-0.262971431016922,0.006591590121388435,-0.01305375061929226
1791103682979849700,1.659849609375,-0.24100302159786224,0.03822914510965347,-0.015033011324703693
1791103682989821700,1.66982177734375,-0.25087058544158936,0.0299626924097538,-0.03594361990690231
1791103682999793700,1.679793701171875,-0.21547876298427582,0.025597238913178444,-0.09204737097024918
1791103683009766000,1.689765869140625,-0.22159764170646667,0.02293008379638195,-0.05934721231460571
1791103683019737600,1.699737548828125,-0.2120712399482727,0.03237178921699524,-0.0951765850186348
1791103683029709800,1.709709716796875,-0.24868011474609375,-0.02275458164513111,-0.11984970420598984
1791103683039681800,1.719681884765625,-0.32440656423568726,-0.0779816135764122,-0.12342926114797592
1791103683049653800,1.72965380859375,-0.37270140647888184,-0.11240270733833313,-0.15534484386444092
1791103683059626000,1.7396259765625,-0.43768972158432007,-0.16494634747505188,-0.11685018986463547
1791103683069597700,1.74959765625,-0.4887411892414093,-0.20873643457889557,-0.11749707162380219
1791103683079570000,1.75956982421875,-0.5753765106201172,-0.273954838514328,-0.0029643645975738764
1791103683089541600,1.769541748046875,-0.6161742210388184,-0.33905982971191406,-0.0014919028617441654
1791103683099513900,1.779513916015625,-0.7047451138496399,-0.4029413163661957,0.10265181213617325
1791103683109485800,1.78948583984375,-0.7595053315162659,-0.42352837324142456,0.10566198080778122
1791103683119457800,1.799457763671875,-0.7079941630363464,-0.47489380836486816,0.11550768464803696
1791103683129429800,1.8094296875,-0.6318458914756775,-0.48657843470573425,0.03972610831260681
1791103683139401700,1.819401611328125,-0.6255033016204834,-0.4422623813152313,0.021880265325307846
1791103683149373700,1.829373779296875,-0.6166507005691528,-0.42690712213516235,0.030856981873512268
1791103683159346000,1.839345947265625,-0.6024930477142334,-0.3768271803855896,-0.014355769380927086
1791103683169317600,1.849317626953125,-0.44713008403778076,-0.3449973464012146,-0.04543246328830719
1791103683179289900,1.859289794921875,-0.38211727142333984,-0.3189636170864105,-0.015321698039770126
1791103683189261600,1.869261474609375,-0.44982200860977173,-0.32130399346351624,0.032518792897462845
1791103683199233800,1.87923388671875,-0.4699307382106781,-0.334174782037735,-0.02797091379761696
1791103683209205800,1.889205810546875,-0.5176082849502563,-0.36171481013298035,0.07803887873888016
1791103683219176700,1.8991767578125,-0.45408228039741516,-0.4217917025089264,0.13696131110191345
1791103683229149000,1.90914892578125,-0.5061902403831482,-0.39985767006874084,0.1170153021812439
1791103683239120600,1.91912060546875,-0.4301210045814514,-0.44435030221939087,0.11850614100694656
1791103683249092900,1.9290927734375,-0.4954949617385864,-0.43289923667907715,0.09209184348583221
1791103683259064600,1.939064697265625,-0.5097878575325012,-0.442217081785202,0.029635123908519745
1791103683269036800,1.949036865234375,-0.43861356377601624,-0.42125561833381653,0.04110535979270935
1791103683279008500,1.959008544921875,-0.43941730260849,-0.3915722966194153,0.06484104692935944
1791103683288980500,1.96898046875,-0.4455204904079437,-0.3996469974517822,0.055207863450050354
1791103683298952700,1.97895263671875,-0.46540629863739014,-0.39076828956604004,0.04541648179292679
1791103683308924400,1.98892431640625,-0.40581968426704407,-0.3922090530395508,0.08467493951320648
1791103683318896600,1.998896728515625,-0.39699262380599976,-0.38376203179359436,0.0985950157046318
1791103683328868600,2.00886865234375,-0.30712318420410156,-0.4035349488258362,0.12319383770227432
1791103683338840600,2.018840576171875,-0.25169989466667175,-0.38677486777305603,0.1273619532585144
1791103683348812500,2.0288125,-0.22049055993556976,-0.3496088683605194,0.0926300659775734
1791103683358784500,2.038784423828125,-0.20673586428165436,-0.3102438747882843,0.1028590053319931
1791103683368756500,2.048756591796875,-0.15825913846492767,-0.2703191041946411,0.10038332641124725
1791103683378728700,2.058728759765625,-0.11744034290313721,-0.22207248210906982,0.07809906452894211
1791103683388700400,2.068700439453125,-0.09823495894670486,-0.1867387294769287,0.07939069718122482
1791103683398672600,2.078672607421875,-0.038778819143772125,-0.17691458761692047,0.10571364313364029
1791103683408644400,2.088644287109375,0.009151953272521496,-0.16940101981163025,0.012823387049138546
1791103683418616600,2.098616455078125,0.0011824434623122215,-0.14170387387275696,0.08169752359390259
1791103683428588500,2.108588623046875,-0.011627627536654472,-0.09111019968986511,0.02207760512828827
1791103683438560500,2.118560546875,0.015607455745339394,-0.08479584753513336,0.0680813193321228
1791103683448532500,2.128532470703125,-0.020137492567300797,-0.08736952394247055,0.07460153102874756
1791103683458504400,2.13850439453125,0.0028631645254790783,-0.07644949853420258,0.11072065681219101
1791103683468476400,2.148476318359375,0.05715649574995041,-0.07919308543205261,0.13057930767536163
1791103683478448600,2.15844873046875,0.04051147401332855,-0.06383037567138672,0.0917389765381813
1791103683488420600,2.168420654296875,0.04746871441602707,-0.058211907744407654,0.056104280054569244
1791103683498392600,2.178392578125,0.03522030636668205,-0.02701377496123314,0.05205387994647026
1791103683508364500,2.188364501953125,0.059790629893541336,-0.012282499112188816,0.02040167711675167
1791103683518336500,2.19833642578125,0.02430720441043377,-0.00023568976030219346,0.04669053852558136
1791103683528308700,2.208308837890625,0.02299533039331436,-0.02304380014538765,0.04652835428714752
1791103683538280400,2.218280517578125,0.05886678025126457,-0.036847762763500214,0.01089525781571865
1791103683548252700,2.228252685546875,0.01582956314086914,-0.035952676087617874,0.022463496774435043
1791103683558224400,2.238224365234375,-0.032104939222335815,-0.0513385534286499,0.013085441663861275
1791103683568196600,2.248196533203125,-0.05132710188627243,-0.08736153692007065,0.06637343019247055
1791103683578168600,2.25816845703125,-0.07562658190727234,-0.11251509189605713,0.05284563824534416
1791103683588140500,2.268140625,-0.13514050841331482,-0.08994906395673752,0.04300579056143761
1791103683598112500,2.278112548828125,-0.16361743211746216,-0.12464872002601624,0.0801403746008873
1791103683608084500,2.28808447265625,-0.270518034696579,-0.15235917270183563,0.022461898624897003
1791103683618056400,2.298056396484375,-0.3315097689628601,-0.15060842037200928,-0.02719992958009243
1791103683628028700,2.308028564453125,-0.3079974949359894,-0.18115487694740295,-0.050823234021663666
1791103683638000400,2.31800048828125,-0.2822186350822449,-0.19757352769374847,-0.0010197244118899107
1791103683647972600,2.32797265625,-0.2719036936759949,-0.1818006932735443,-0.00942066591233015
1791103683657944300,2.3379443359375,-0.27031591534614563,-0.16808408498764038,-0.06167827919125557
1791103683667916500,2.34791650390625,-0.36588796973228455,-0.143401637673378,-0.06631910055875778
1791103683677888500,2.357888427734375,-0.46681085228919983,-0.16558070480823517,0.016142750158905983
1791103683687860500,2.367860595703125,-0.4294368624687195,-0.19992616772651672,0.04731371998786926
1791103683697832700,2.377832763671875,-0.43820902705192566,-0.2192804217338562,0.07294025272130966
1791103683707804400,2.387804443359375,-0.47413960099220276,-0.2163408249616623,0.06876175105571747
1791103683717776600,2.397776611328125,-0.4906615912914276,-0.25168362259864807,0.06884963810443878
1791103683727748600,2.40774853515625,-0.5179145336151123,-0.2794247269630432,0.12007766962051392
1791103683737720600,2.417720458984375,-0.485589861869812,-0.2760065495967865,0.0924212783575058
1791103683747692500,2.427692626953125,-0.4782600402832031,-0.27486830949783325,0.08166024088859558
1791103683757664500,2.43766455078125,-0.5529992580413818,-0.2818484604358673,0.12325268983840942
1791103683767636500,2.447636474609375,-0.6118564605712891,-0.292484313249588,0.14238403737545013
1791103683777608700,2.457608642578125,-0.6477510929107666,-0.27542704343795776,0.09599337726831436
1791103683787580400,2.467580322265625,-0.59879070520401,-0.3256968855857849,0.09557872265577316
1791103683797552600,2.477552734375,-0.6418018341064453,-0.32876056432724,0.11334893107414246
1791103683807524400,2.4875244140625,-0.6062486171722412,-0.3370848298072815,0.08278729021549225
1791103683817496600,2.49749658203125,-0.5844317674636841,-0.33316197991371155,0.05668698251247406
1791103683827468500,2.507468505859375,-0.6341508626937866,-0.31855508685112,0.0497736819088459
1791103683837440500,2.5174404296875,-0.5859095454216003,-0.3251442611217499,0.05880232900381088
1791103683847412500,2.52741259765625,-0.5832493305206299,-0.3133411407470703,0.11835434287786484
1791103683857384400,2.537384521484375,-0.5404406189918518,-0.30401262640953064,0.13736052811145782
1791103683867355600,2.547355712890625,-0.5770691633224487,-0.29952120780944824,0.18671847879886627
1791103683877327400,2.557327392578125,-0.5326932072639465,-0.3156767189502716,0.19747552275657654
1791103683887299600,2.567299560546875,-0.5233750939369202,-0.3018096387386322,0.20510920882225037
1791103683897271600,2.577271484375,-0.475758820772171,-0.29972225427627563,0.11092811822891235
1791103683907243500,2.587243408203125,-0.5171283483505249,-0.2797173857688904,0.23038606345653534
1791103683917215500,2.597215576171875,-0.5034818053245544,-0.2865196466445923,0.23320342600345612
1791103683927187500,2.6071875,-0.4899657070636749,-0.29918456077575684,0.1704188734292984
1791103683937159400,2.617159423828125,-0.5834953784942627,-0.3297502100467682,0.15744315087795258
1791103683947131600,2.627131591796875,-0.5728321075439453,-0.402395635843277,0.2339504510164261
1791103683957103600,2.637103515625,-0.6200762987136841,-0.44425174593925476,0.20143911242485046
1791103683967075600,2.64707568359375,-0.6925968527793884,-0.4782184958457947,0.1868591010570526
1791103683977047600,2.657047607421875,-0.7530998587608337,-0.5739189386367798,0.18974968791007996
1791103683987019500,2.66701953125,-0.7736362814903259,-0.644367516040802,0.11354360729455948
1791103683996991700,2.67699169921875,-0.8738467693328857,-0.7644912600517273,0.08974000811576843
1791103684006963500,2.68696337890625,-0.935004711151123,-0.830403208732605,0.004589425399899483
1791103684016935700,2.696935791015625,-1.044022560119629,-0.8587959408760071,-0.0977499932050705
1791103684026907400,2.706907470703125,-1.1453709602355957,-0.925004780292511,0.010603908449411392
1791103684036879600,2.716879638671875,-1.1767845153808594,-0.8974360227584839,-0.13370800018310547
1791103684046851600,2.7268515625,-1.089221477508545,-0.8584084510803223,-0.2251415103673935
1791103684056823600,2.736823486328125,-1.0480420589447021,-0.8450026512145996,0.08566590398550034
1791103684066795500,2.74679541015625,-1.0029691457748413,-0.8087903261184692,0.06561549752950668
1791103684076767500,2.756767578125,-0.9894613027572632,-0.8491571545600891,0.27199822664260864
1791103684086739500,2.766739501953125,-0.8781195878982544,-0.80052649974823,0.27227625250816345
1791103684096711700,2.776711669921875,-0.8973736763000488,-0.7382304072380066,0.4415832757949829
1791103684106683400,2.786683349609375,-0.8498261570930481,-0.6697801947593689,0.4230838716030121
1791103684116655600,2.796655517578125,-0.6918639540672302,-0.6023127436637878,0.42879024147987366
1791103684126627300,2.80662744140625,-0.5171299576759338,-0.488350510597229,0.29304999113082886
1791103684136599600,2.816599609375,-0.32386142015457153,-0.4045887589454651,0.24929291009902954
1791103684146571500,2.826571533203125,-0.16469493508338928,-0.27635568380355835,0.13887345790863037
1791103684156543500,2.83654345703125,-0.08399636298418045,-0.22060294449329376,0.15828657150268555
1791103684166515700,2.846515625,-0.13890115916728973,-0.24770620465278625,0.22284533083438873
1791103684176487400,2.8564873046875,-0.2955879867076874,-0.30223309993743896,0.2599330544471741
1791103684186459600,2.866459716796875,-0.3427658677101135,-0.3733445703983307,0.1900855153799057
1791103684196431600,2.876431640625,-0.47044339776039124,-0.4828111231327057,0.299397349357605
1791103684206403600,2.886403564453125,-0.5787762999534607,-0.5915674567222595,0.3649500012397766
1791103684216375600,2.89637548828125,-0.6934847235679626,-0.6937646269798279,0.43321746587753296
1791103684226347500,2.906347412109375,-0.6221016645431519,-0.7595681548118591,0.4702990651130676
1791103684236319500,2.916319580078125,-0.6221200227737427,-0.7589668035507202,0.45941632986068726
1791103684246291700,2.926291748046875,-0.660804033279419,-0.7893718481063843,0.5188769698143005
1791103684256263400,2.936263427734375,-0.6184059977531433,-0.8322429060935974,0.5532469153404236
1791103684266235600,2.946235595703125,-0.6267099976539612,-0.8258161544799805,0.5539942383766174
1791103684276207400,2.956207275390625,-0.5442545413970947,-0.8593317866325378,0.5355268120765686
1791103684286179300,2.966179443359375,-0.5512458682060242,-0.8943254351615906,0.5079119801521301
1791103684296151300,2.9761513671875,-0.54842209815979,-0.8746827840805054,0.410387247800827
1791103684306123500,2.98612353515625,-0.5135756731033325,-0.8951371908187866,0.354681134223938
1791103684316095200,2.99609521484375,-0.5140875577926636,-0.8762481808662415,0.35318470001220703
1791103684326067500,3.0060673828125,-0.4918046295642853,-0.8191473484039307,0.2623618543148041
1791103684336039400,3.016039306640625,-0.524219274520874,-0.7667443156242371,0.2410600185394287
1791103684346011400,3.026011474609375,-0.46313756704330444,-0.7229776382446289,0.26407530903816223
1791103684355983600,3.035983642578125,-0.31370946764945984,-0.6694318652153015,0.2774662375450134
1791103684365955300,3.045955322265625,-0.35886120796203613,-0.6056481003761292,0.32876962423324585
1791103684375927600,3.055927490234375,-0.29552939534187317,-0.5737109184265137,0.33870482444763184
1791103684385899300,3.065899169921875,-0.23038393259048462,-0.5597211122512817,0.33826035261154175
1791103684395871500,3.07587158203125,-0.21137508749961853,-0.5533670783042908,0.31909143924713135
1791103684405842400,3.085842529296875,-0.17673055827617645,-0.5552768111228943,0.29615896940231323
1791103684415814400,3.095814453125,-0.2699318826198578,-0.5312545895576477,0.29225876927375793
1791103684425786400,3.105786376953125,-0.10113859921693802,-0.5147722363471985,0.24171888828277588
1791103684435758300,3.11575830078125,-0.048468999564647675,-0.46497035026550293,0.2145266830921173
1791103684445730600,3.12573046875,-0.1081208810210228,-0.424655944108963,0.17710979282855988
1791103684455702300,3.135702392578125,-0.12539547681808472,-0.4503248333930969,0.20633132755756378
1791103684465674500,3.145674560546875,-0.06790075451135635,-0.47789785265922546,0.19524246454238892
1791103684475646500,3.155646484375,-0.13555996119976044,-0.4974939227104187,0.16067010164260864
1791103684485618400,3.165618408203125,-0.26871800422668457,-0.5630513429641724,0.2552530765533447
1791103684495590400,3.17559033203125,-0.2504862844944,-0.6050070524215698,0.21628090739250183
1791103684505562400,3.185562255859375,-0.3053079843521118,-0.6023942232131958,0.26787087321281433
1791103684515534300,3.195534423828125,-0.32754218578338623,-0.6116015911102295,0.2160920798778534
1791103684525506600,3.205506591796875,-0.3075615465641022,-0.6437699198722839,0.1605372130870819
1791103684535478300,3.215478271484375,-0.31331050395965576,-0.6371312141418457,0.1336534023284912
1791103684545450500,3.225450439453125,-0.32331493496894836,-0.6229099035263062,0.18984583020210266
1791103684555422200,3.235422119140625,-0.2758483588695526,-0.6452738046646118,0.2131386399269104
1791103684565394400,3.24539453125,-0.2776089608669281,-0.6653969287872314,0.2512098550796509
1791103684575366400,3.255366455078125,-0.2920001745223999,-0.6762405037879944,0.28604134917259216
1791103684585338400,3.26533837890625,-0.29202839732170105,-0.6801801323890686,0.21932010352611542
1791103684595310300,3.275310302734375,-0.31653639674186707,-0.6979271769523621,0.3044067621231079
1791103684605282300,3.2852822265625,-0.2783288359642029,-0.6908045411109924,0.2696133553981781
1791103684615254500,3.295254638671875,-0.24899038672447205,-0.6630256175994873,0.21225287020206451
1791103684625226500,3.3052265625,-0.2981310188770294,-0.6502733826637268,0.28546929359436035
1791103684635198500,3.315198486328125,-0.26602235436439514,-0.6248739957809448,0.2105545699596405
1791103684645170400,3.32517041015625,-0.24641457200050354,-0.5956921577453613,0.21541644632816315
1791103684655142400,3.335142333984375,-0.22005806863307953,-0.5964223742485046,0.2466910034418106
1791103684665114400,3.3451142578125,-0.1655985563993454,-0.5730296969413757,0.23362207412719727
1791103684675086600,3.355086669921875,-0.13974644243717194,-0.5524178743362427,0.2147461175918579
1791103684685058300,3.365058349609375,-0.17053471505641937,-0.5336650013923645,0.1962488740682602
1791103684695030500,3.375030517578125,-0.18207979202270508,-0.5339928269386292,0.20976388454437256
1791103684705002200,3.385002197265625,-0.12171737849712372,-0.5129415988922119,0.14351961016654968
1791103684714974500,3.394974365234375,-0.0646522268652916,-0.4790608584880829,0.1702502965927124
1791103684724946400,3.404946533203125,-0.05011270195245743,-0.42872872948646545,0.19528374075889587
1791103684734918400,3.41491845703125,-0.03828533738851547,-0.4022694230079651,0.21574054658412933
1791103684744890400,3.424890380859375,0.035465583205223083,-0.3659431040287018,0.18453335762023926
1791103684754862300,3.4348623046875,0.050279147922992706,-0.38520386815071106,0.23009711503982544
1791103684764834300,3.444834228515625,0.019628562033176422,-0.385130912065506,0.1714700162410736
1791103684774806500,3.454806640625,-0.05022561922669411,-0.3776061534881592,0.2044612616300583
1791103684784778200,3.4647783203125,-0.000030892668291926384,-0.36721768975257874,0.1641189008951187
1791103684794750500,3.47475048828125,-0.08989260345697403,-0.36905208230018616,0.18534855544567108
1791103684804722400,3.484722412109375,-0.039328232407569885,-0.4029383957386017,0.2087358981370926
1791103684814694400,3.4946943359375,-0.06359256058931351,-0.42310813069343567,0.19167010486125946
1791103684824666600,3.50466650390625,-0.02966601587831974,-0.4162725806236267,0.11229698359966278
1791103684834638300,3.514638427734375,-0.12323032319545746,-0.4059600234031677,0.1428660750389099
1791103684844610600,3.524610595703125,-0.06820115447044373,-0.42330706119537354,0.14842967689037323
1791103684854582300,3.534582275390625,-0.10470377653837204,-0.41729816794395447,0.17141543328762054
1791103684864554500,3.544554443359375,-0.15192508697509766,-0.4563771188259125,0.15387292206287384
1791103684874526500,3.5545263671875,-0.1917923390865326,-0.430033415555954,0.10419564694166183
1791103684884497400,3.564497314453125,-0.19903160631656647,-0.43319565057754517,0.19772931933403015
1791103684894469400,3.574469482421875,-0.16708965599536896,-0.4765649437904358,0.2170199304819107
1791103684904441300,3.58444140625,-0.16216467320919037,-0.4926528334617615,0.1760977953672409
1791103684914413600,3.59441357421875,-0.2087220549583435,-0.46663081645965576,0.188849538564682
1791103684924385300,3.60438525390625,-0.22616921365261078,-0.5045089721679688,0.16417188942432404
1791103684934357500,3.614357421875,-0.24064908921718597,-0.5062980651855469,0.09821631759405136
1791103684944329500,3.62432958984375,-0.21368351578712463,-0.49214470386505127,0.06660699099302292
1791103684954301400,3.634301513671875,-0.22893784940242767,-0.5053287148475647,0.06208973750472069
1791103684964273400,3.6442734375,-0.2509762942790985,-0.5132156610488892,0.11057231575250626
1791103684974245400,3.654245361328125,-0.32765695452690125,-0.5335115790367126,0.04649373143911362
1791103684984217300,3.66421728515625,-0.3251565098762512,-0.5654503703117371,0.05812375620007515
1791103684994189600,3.674189453125,-0.30966171622276306,-0.58817458152771,0.0505065843462944
1791103685004161300,3.684161376953125,-0.34357067942619324,-0.6006197929382324,0.13141581416130066
1791103685014133500,3.694133544921875,-0.3971334993839264,-0.6112266182899475,0.15221190452575684
1791103685024105200,3.704105224609375,-0.4008353054523468,-0.6200011968612671,0.06058930978178978
1791103685034077400,3.714077392578125,-0.43723592162132263,-0.6333617568016052,0.10582869499921799
1791103685044049400,3.72404931640625,-0.42301303148269653,-0.6087469458580017,0.04360393434762955
1791103685054021400,3.734021484375,-0.36398062109947205,-0.6240825057029724,0.04543858766555786
1791103685063993300,3.743993408203125,-0.3741501569747925,-0.5797704458236694,0.06610099226236343
1791103685073965300,3.75396533203125,-0.31678009033203125,-0.5303935408592224,0.07640662044286728
1791103685083937300,3.763937255859375,-0.2677291929721832,-0.4938928186893463,0.04020068421959877
1791103685093909500,3.773909423828125,-0.31667327880859375,-0.508819043636322,0.09095041453838348
1791103685103881500,3.783881591796875,-0.28318750858306885,-0.48790442943573,0.04861307516694069
1791103685113853400,3.793853515625,-0.25214648246765137,-0.5216847658157349,0.13482145965099335
1791103685123825400,3.803825439453125,-0.30930060148239136,-0.5162050127983093,0.16375350952148438
1791103685133797400,3.81379736328125,-0.3170245587825775,-0.49679484963417053,0.13341903686523438
1791103685143769600,3.82376953125,-0.2428310215473175,-0.5102760195732117,0.07327234745025635
1791103685153741300,3.8337412109375,-0.3020669221878052,-0.4994308650493622,0.07400019466876984
1791103685163713500,3.843713623046875,-0.25722914934158325,-0.5035427808761597,0.1488794982433319
1791103685173685200,3.853685302734375,-0.3076134920120239,-0.5046855211257935,0.05174415558576584
1791103685183657500,3.863657470703125,-0.3100132644176483,-0.5214676856994629,0.07722075283527374
1791103685193629400,3.87362939453125,-0.3359313905239105,-0.5498804450035095,0.1142304316163063
1791103685203601400,3.883601318359375,-0.3084830045700073,-0.6066380143165588,0.1085887923836708
1791103685213573400,3.893573486328125,-0.3441177010536194,-0.6289219856262207,0.11492179334163666
1791103685223545300,3.90354541015625,-0.32740262150764465,-0.6645114421844482,0.11779161542654037
1791103685233517300,3.913517333984375,-0.4192470610141754,-0.6630938053131104,0.12668897211551666
1791103685243489500,3.923489501953125,-0.394243985414505,-0.6869887709617615,0.0907895565032959
1791103685253461200,3.933461181640625,-0.35660526156425476,-0.6779031157493591,0.11729360371828079
1791103685263433500,3.94343359375,-0.3685024082660675,-0.6830073595046997,0.20029181241989136
1791103685273405400,3.953405517578125,-0.34954094886779785,-0.7326963543891907,0.205081507563591
1791103685283376600,3.963376708984375,-0.33174917101860046,-0.7617902755737305,0.21704895794391632
1791103685293348900,3.973348876953125,-0.3646376132965088,-0.7544620633125305,0.1599084436893463
1791103685303320800,3.98332080078125,-0.4095723330974579,-0.7776827216148376,0.22166875004768372
1791103685313292800,3.993292724609375,-0.33753594756126404,-0.7793133854866028,0.1473577618598938
1791103685323264800,4.0032646484375,-0.2485874444246292,-0.7190529704093933,0.0457424558699131
1791103685333236700,4.01323681640625,-0.2601817846298218,-0.6544502377510071,0.10031195729970932
1791103685343208700,4.023208740234375,-0.20737023651599884,-0.6525210738182068,0.0640849769115448
1791103685353181000,4.033180908203125,-0.18406064808368683,-0.6570015549659729,0.1450730413198471
1791103685363152600,4.043152587890625,-0.1575869619846344,-0.6369157433509827,0.1265840381383896
1791103685373124900,4.053124755859375,-0.12334643304347992,-0.6345064043998718,0.08122614771127701
1791103685383096600,4.0630966796875,-0.2401372343301773,-0.6415794491767883,0.20270277559757233
1791103685393068800,4.07306884765625,-0.21403053402900696,-0.6283430457115173,0.15040256083011627
1791103685403040800,4.083040771484375,-0.13368456065654755,-0.5781557559967041,0.15374402701854706
1791103685413012700,4.0930126953125,-0.052679456770420074,-0.5442478656768799,0.22538810968399048
1791103685422985000,4.10298486328125,-0.0015877765836194158,-0.507179319858551,0.20871485769748688
1791103685432956700,4.112956787109375,0.020746290683746338,-0.5069404244422913,0.12238183617591858
1791103685442929000,4.122928955078125,-0.01227717287838459,-0.47094088792800903,0.1328240931034088
1791103685452900900,4.13290087890625,0.07497704029083252,-0.48543086647987366,0.12288730591535568
1791103685462872800,4.142872802734375,0.07312401384115219,-0.44485870003700256,0.1125049740076065
1791103685472844800,4.1528447265625,0.09455127269029617,-0.43963223695755005,0.08924039453268051
1791103685482816800,4.162816650390625,0.0106491819024086,-0.41653889417648315,0.2191813588142395
1791103685492788700,4.172788818359375,0.09141752868890762,-0.43034765124320984,0.16078674793243408
1791103685502761000,4.182760986328125,0.035889025777578354,-0.39070382714271545,0.1437702178955078
1791103685512732700,4.192732666015625,0.10494638979434967,-0.4198382794857025,0.27868595719337463
1791103685522705000,4.202704833984375,0.1468786597251892,-0.4045426845550537,0.15644925832748413
1791103685532676600,4.212676513671875,0.17701312899589539,-0.3943398594856262,0.11756817251443863
1791103685542648800,4.22264892578125,0.10541776567697525,-0.3767573833465576,0.13596582412719727
1791103685552620800,4.232620849609375,0.040221456438302994,-0.36860358715057373,0.27472132444381714
1791103685562592800,4.2425927734375,0.15907087922096252,-0.38362035155296326,0.18299272656440735
1791103685572564700,4.252564697265625,0.1878359466791153,-0.37938007712364197,0.24706332385540009
1791103685582536700,4.26253662109375,0.12944826483726501,-0.3382565975189209,0.21790063381195068
1791103685592508700,4.2725087890625,0.12191711366176605,-0.3656299114227295,0.14818386733531952
1791103685602481000,4.28248095703125,0.14684084057807922,-0.35943514108657837,0.0535641573369503
1791103685612452900,4.292452880859375,0.1904599517583847,-0.362935334444046,0.07760851085186005
1791103685622424800,4.3024248046875,0.16585394740104675,-0.37137195467948914,0.10015296936035156
1791103685632396800,4.312396728515625,0.10178335011005402,-0.3468117415904999,0.050211504101753235
1791103685642368800,4.32236865234375,0.09351796656847,-0.3550744652748108,0.050162769854068756
1791103685652341000,4.332341064453125,0.1319575011730194,-0.37625059485435486,0.12756328284740448
1791103685662312700,4.342312744140625,0.12557709217071533,-0.3339225947856903,0.08109032362699509
1791103685672285000,4.352284912109375,0.15129737555980682,-0.33312416076660156,0.03952743485569954
1791103685682256000,4.362255859375,0.14292307198047638,-0.33764514327049255,0.04884263873100281
1791103685692227800,4.372227783203125,0.14752927422523499,-0.2988508939743042,0.08585978299379349
1791103685702199800,4.38219970703125,0.13036173582077026,-0.33486106991767883,0.04610730707645416
1791103685712171800,4.392171875,0.10117881745100021,-0.3620910942554474,0.09647247940301895
1791103685722144000,4.40214404296875,0.1336163878440857,-0.330696165561676,0.14496704936027527
1791103685732115700,4.41211572265625,0.11865022033452988,-0.3369431495666504,0.030306773260235786
1791103685742088000,4.422087890625,0.1303369700908661,-0.3838539123535156,0.03497716039419174
1791103685752059600,4.4320595703125,0.13533678650856018,-0.3500187397003174,-0.01601438596844673
1791103685762031900,4.442031982421875,0.08948034793138504,-0.3621230721473694,0.036073580384254456
1791103685772003800,4.45200390625,0.07051331549882889,-0.3264563977718353,0.07840452343225479
1791103685781975800,4.461975830078125,0.12408466637134552,-0.32695308327674866,0.023623304441571236
1791103685791947800,4.47194775390625,0.12820270657539368,-0.3142346441745758,0.001478320686146617
1791103685801919700,4.481919677734375,0.12160392850637436,-0.3487963378429413,0.006730606779456139
1791103685811891700,4.4918916015625,0.10939573496580124,-0.31756144762039185,-0.0046701193787157536
1791103685821864000,4.501864013671875,0.15513579547405243,-0.28838279843330383,-0.008187090046703815
1791103685831835600,4.511835693359375,0.1997637152671814,-0.18928657472133636,-0.09623731672763824
1791103685841808000,4.521807861328125,0.25472602248191833,-0.1607966125011444,-0.05275509133934975
1791103685851779600,4.531779541015625,0.33568692207336426,-0.14401470124721527,0.03981691971421242
1791103685861751800,4.541751708984375,0.3893642723560333,-0.10329736024141312,-0.0070464578457176685
1791103685871723800,4.551723876953125,0.36382055282592773,-0.05066797137260437,-0.04477972164750099
1791103685881695700,4.56169580078125,0.36053475737571716,-0.029808495193719864,0.0007366303470917046
1791103685891668000,4.57166796875,0.38238146901130676,-0.01847940869629383,0.005017928313463926
1791103685901639700,4.5816396484375,0.4261976480484009,0.02538498491048813,-0.036255475133657455
1791103685911612000,4.59161181640625,0.45356321334838867,0.06271451711654663,-0.011234278790652752
1791103685921583900,4.601583984375,0.4405131936073303,0.056477658450603485,-0.0021204089280217886
1791103685931555800,4.611555908203125,0.3718681037425995,0.06732285022735596,-0.04427904635667801
1791103685941527800,4.62152783203125,0.3635507822036743,0.04374561458826065,-0.012585832737386227
1791103685951499800,4.631499755859375,0.3805827498435974,0.049910303205251694,-0.026611903682351112
1791103685961471700,4.6414716796875,0.3779717981815338,0.002133192028850317,0.03363785520195961
1791103685971444000,4.65144384765625,0.3323097825050354,0.0070917317643761635,-0.05422089248895645
1791103685981415700,4.661415771484375,0.300030380487442,-0.010090450756251812,-0.031241541728377342
1791103685991388000,4.671387939453125,0.2891007959842682,-0.025960493832826614,-0.1127513125538826
1791103686001359600,4.681359619140625,0.27480199933052063,-0.057860635221004486,-0.11430979520082474
1791103686011331800,4.691331787109375,0.2727300524711609,-0.033844515681266785,-0.08335854113101959
1791103686021303800,4.7013037109375,0.24469417333602905,-0.06653615087270737,-0.00609411159530282
1791103686031274800,4.711274658203125,0.24997654557228088,-0.05524487793445587,-0.05976372957229614
1791103686041247000,4.7212470703125,0.21362440288066864,-0.05379611998796463,-0.02575037069618702
1791103686051218700,4.73121875,0.19928140938282013,-0.08851015567779541,-0.0593501441180706
1791103686061191000,4.74119091796875,0.1481684297323227,-0.11813250184059143,0.005849367007613182
1791103686071162600,4.75116259765625,0.14409379661083221,-0.09010113030672073,-0.05572904273867607
1791103686081134800,4.761134765625,0.17141330242156982,-0.08313430100679398,0.01956464722752571
1791103686091106800,4.77110693359375,0.1320648193359375,-0.058938417583703995,-0.03455398231744766
1791103686101078800,4.781078857421875,0.18881678581237793,-0.031193073838949203,-0.1202787384390831
1791103686111050800,4.79105078125,0.18163983523845673,-0.022819561883807182,-0.053221408277750015
1791103686121022700,4.801022705078125,0.1957138478755951,0.00012729909212794155,-0.09827303886413574
1791103686130994700,4.81099462890625,0.19466881453990936,0.05574049428105354,-0.12559813261032104
1791103686140967000,4.820966796875,0.1815498173236847,0.03749224916100502,-0.06143566220998764
1791103686150938600,4.830938720703125,0.13814190030097961,0.03682432696223259,-0.09118397533893585
1791103686160910800,4.840910888671875,0.11984091997146606,0.039621710777282715,-0.11299712210893631
1791103686170882800,4.8508828125,0.1296067237854004,0.02803696133196354,-0.028688902035355568
1791103686180854800,4.860854736328125,0.09232300519943237,0.04614086449146271,-0.06428125500679016
1791103686190827000,4.870826904296875,0.1435403823852539,0.02323075383901596,0.02646915800869465
1791103686200798700,4.880798828125,0.17071980237960815,0.048661813139915466,-0.07618611305952072
1791103686210771000,4.89077099609375,0.13875281810760498,0.025364212691783905,-0.026555445045232773
1791103686220742700,4.90074267578125,0.07958058267831802,0.07119641453027725,-0.05180380865931511
1791103686230715000,4.91071484375,0.0676054060459137,0.06493665277957916,-0.10638982057571411
1791103686240686800,4.920686767578125,0.054542072117328644,0.05433780699968338,-0.07120067626237869
1791103686250658800,4.930658935546875,0.028615666553378105,0.034450650215148926,-0.061942197382450104
1791103686260630800,4.940630859375,-0.002273007994517684,-0.005907423794269562,0.012419651262462139
1791103686270602800,4.950602783203125,-0.021338311955332756,-0.042086999863386154,-0.03742619976401329
1791103686280574700,4.96057470703125,-0.07786337286233902,-0.097487673163414,0.025608956813812256
1791103686290547000,4.970546875,-0.12176211923360825,-0.1494310349225998,0.0004924184759147465
1791103686300518700,4.9805185546875,-0.16691015660762787,-0.14273211359977722,0.029861493036150932
1791103686310491000,4.990490966796875,-0.19605553150177002,-0.16575194895267487,0.08460809290409088
1791103686320462600,5.000462646484375,-0.2092221975326538,-0.13659167289733887,0.06364049762487411
1791103686330434800,5.010434814453125,-0.17819397151470184,-0.14595401287078857,0.02087545394897461
1791103686340406800,5.02040673828125,-0.1821620762348175,-0.1476248800754547,0.06801287084817886
1791103686350378800,5.030378662109375,-0.1922980695962906,-0.15140603482723236,-0.022900788113474846
1791103686360350000,5.040349853515625,-0.20475713908672333,-0.17255020141601562,-0.06069743633270264
1791103686370321700,5.05032177734375,-0.22460168600082397,-0.16352981328964233,0.015310512855648994
1791103686380294000,5.0602939453125,-0.19020776450634003,-0.1574159860610962,0.04790254309773445
1791103686390265600,5.070265625,-0.2160358875989914,-0.18373307585716248,0.07320524007081985
1791103686400237800,5.08023779296875,-0.23228836059570312,-0.17998814582824707,0.01624048873782158
1791103686410209800,5.090209716796875,-0.23199115693569183,-0.17758676409721375,0.02755466289818287
1791103686420181800,5.100181640625,-0.24903298914432526,-0.17690393328666687,0.02527020312845707
1791103686430153700,5.11015380859375,-0.2671147882938385,-0.1607888787984848,-0.0021949773654341698
1791103686440125700,5.120125732421875,-0.20910687744617462,-0.14795483648777008,-0.03443307429552078
1791103686450098000,5.130097900390625,-0.15264280140399933,-0.12028273195028305,0.04993906244635582
1791103686460070000,5.14006982421875,-0.1669093519449234,-0.1142357587814331,0.010241452604532242
1791103686470041900,5.150041748046875,-0.16081099212169647,-0.12900644540786743,-0.05741056054830551
1791103686480013800,5.160013916015625,-0.24341797828674316,-0.13565850257873535,0.0351254977285862
1791103686489985800,5.16998583984375,-0.30522143840789795,-0.13482412695884705,0.056888315826654434
1791103686499957800,5.179957763671875,-0.22506481409072876,-0.16385045647621155,0.020650416612625122
1791103686509930000,5.189929931640625,-0.21637730300426483,-0.15992654860019684,0.026163959875702858
1791103686519901700,5.199901611328125,-0.25271347165107727,-0.16596446931362152,0.004728708881884813
1791103686529874000,5.2098740234375,-0.2228945940732956,-0.1610032618045807,-0.055455002933740616
1791103686539845600,5.219845703125,-0.24197694659233093,-0.17111794650554657,-0.014741129241883755
1791103686549817900,5.22981787109375,-0.2215275913476944,-0.19265733659267426,0.0008333030855283141
1791103686559789800,5.239789794921875,-0.21759943664073944,-0.17708636820316315,-0.08618069440126419
1791103686569761800,5.24976171875,-0.23628737032413483,-0.19732798635959625,-0.06770367920398712
1791103686579733800,5.259733642578125,-0.23055411875247955,-0.19708776473999023,-0.002395247109234333
1791103686589705700,5.269705810546875,-0.25517478585243225,-0.19207090139389038,-0.008762066252529621
1791103686599677700,5.279677734375,-0.23328492045402527,-0.1846931427717209,-0.043952811509370804
1791103686609650000,5.28964990234375,-0.20149344205856323,-0.19845476746559143,0.023979900404810905
1791103686619621600,5.29962158203125,-0.2392117828130722,-0.18881039321422577,-0.011426026001572609
1791103686629593900,5.30959375,-0.20152059197425842,-0.1941811889410019,0.014211426489055157
1791103686639565800,5.31956591796875,-0.2298116236925125,-0.14771968126296997,-0.04151974618434906
1791103686649537800,5.329537841796875,-0.19558387994766235,-0.1150144711136818,-0.15366731584072113
1791103686659510000,5.339510009765625,-0.1862628161907196,-0.13772830367088318,0.02015773206949234
1791103686669480700,5.349480712890625,-0.126682847738266,-0.11676549911499023,0.021399565041065216
1791103686679453000,5.359452880859375,-0.13658101856708527,-0.1152014210820198,-0.019275959581136703
1791103686689424600,5.369424560546875,-0.17751406133174896,-0.15038977563381195,0.049980342388153076
1791103686699396900,5.37939697265625,-0.26083266735076904,-0.1675109714269638,0.04741811379790306
1791103686709368800,5.389368896484375,-0.22629837691783905,-0.1357029676437378,-0.05901165306568146
1791103686719340800,5.3993408203125,-0.142074853181839,-0.17478911578655243,0.1443105787038803
1791103686729313000,5.40931298828125,-0.12704157829284668,-0.12862375378608704,0.026820428669452667
1791103686739284700,5.41928466796875,-0.13274793326854706,-0.12159913778305054,-0.04717203974723816
1791103686749257000,5.429257080078125,-0.14532311260700226,-0.1145409569144249,0.002636795863509178
1791103686759228700,5.439228759765625,-0.14985473453998566,-0.11093663424253464,0.03122822754085064
1791103686769201000,5.449200927734375,-0.07143423706293106,-0.12175333499908447,0.01480238139629364
1791103686779172900,5.4591728515625,-0.11087538301944733,-0.10117002576589584,0.014282000251114368
1791103686789144800,5.469144775390625,-0.21159639954566956,-0.1216750368475914,0.05101684480905533
1791103686799116800,5.47911669921875,-0.17163434624671936,-0.13194631040096283,0.025297898799180984
1791103686809088800,5.4890888671875,-0.1656816452741623,-0.11279445886611938,-0.04934358224272728
1791103686819060700,5.499060791015625,-0.1813303828239441,-0.15690971910953522,0.14454519748687744
1791103686829033000,5.509032958984375,-0.15755847096443176,-0.13627581298351288,-0.0745948776602745
1791103686839004700,5.519004638671875,-0.14061543345451355,-0.15936222672462463,0.024340493604540825
1791103686848977000,5.528976806640625,-0.21086643636226654,-0.1642608493566513,0.11956368386745453
1791103686858948600,5.538948486328125,-0.18186967074871063,-0.17055974900722504,0.03201625496149063
1791103686868920800,5.5489208984375,-0.19054384529590607,-0.17736519873142242,-0.048598162829875946
1791103686878892800,5.558892822265625,-0.19200991094112396,-0.18838882446289062,0.025972478091716766
1791103686888864800,5.56886474609375,-0.23182125389575958,-0.1907249391078949,0.026218287646770477
1791103686898836700,5.578836669921875,-0.20733533799648285,-0.19764356315135956,0.03489353507757187
1791103686908808700,5.58880859375,-0.24443717300891876,-0.1996140480041504,0.009210809133946896
1791103686918781000,5.598781005859375,-0.20945389568805695,-0.23508335649967194,0.03593749552965164
1791103686928753000,5.6087529296875,-0.2519584596157074,-0.22347143292427063,0.026430008932948112
1791103686938724900,5.618724853515625,-0.2636726498603821,-0.19251617789268494,0.027220169082283974
1791103686948696800,5.62869677734375,-0.30411940813064575,-0.2321418970823288,0.08713037520647049
1791103686958668800,5.638668701171875,-0.2236189842224121,-0.27219557762145996,0.0011707255616784096
1791103686968640800,5.648640869140625,-0.3208424746990204,-0.21170905232429504,0.04397278279066086
1791103686978611700,5.65861181640625,-0.22096434235572815,-0.23890472948551178,0.025134647265076637
1791103686988583700,5.668583740234375,-0.24807505309581757,-0.23789671063423157,0.038482144474983215
1791103686998556000,5.678555908203125,-0.23000496625900269,-0.19406934082508087,-0.08564379811286926
1791103687008528000,5.68852783203125,-0.20070034265518188,-0.19970831274986267,0.0008586031035520136
1791103687018499800,5.698499755859375,-0.16290050745010376,-0.20240530371665955,-0.12252058833837509
1791103687028471800,5.708471923828125,-0.18997685611248016,-0.1732330322265625,-0.06372624635696411
1791103687038443800,5.71844384765625,-0.1840159147977829,-0.2078205794095993,-0.09233792126178741
1791103687048416000,5.728416015625,-0.23452462255954742,-0.20554782450199127,-0.027039872482419014
1791103687058387700,5.7383876953125,-0.23041057586669922,-0.18968284130096436,0.04477812349796295
1791103687068360000,5.74835986328125,-0.2040330320596695,-0.24929077923297882,0.07591873407363892
1791103687078331600,5.75833154296875,-0.19666431844234467,-0.2816806733608246,0.0797739252448082
1791103687088303900,5.768303955078125,-0.15421965718269348,-0.2382245510816574,-0.029503297060728073
1791103687098275800,5.77827587890625,-0.15165743231773376,-0.24822472035884857,-0.005246960092335939
1791103687108247800,5.788247802734375,-0.1806320995092392,-0.27660709619522095,0.0997241958975792
1791103687118219800,5.7982197265625,-0.19408026337623596,-0.24605290591716766,-0.056291501969099045
1791103687128191700,5.808191650390625,-0.17563892900943756,-0.26338982582092285,0.12013866007328033
1791103687138163700,5.818163818359375,-0.16002428531646729,-0.2460654228925705,-0.06817958503961563
1791103687148136000,5.828135986328125,-0.17326126992702484,-0.2659887969493866,0.07065445929765701
1791103687158107600,5.838107666015625,-0.20634359121322632,-0.25983476638793945,-0.012355469167232513
1791103687168080000,5.848079833984375,-0.17545944452285767,-0.2648007571697235,-0.020504476502537727
1791103687178051600,5.858051513671875,-0.11796365678310394,-0.27644598484039307,0.09091419726610184
1791103687188023800,5.86802392578125,-0.09305936843156815,-0.24832405149936676,0.0191918034106493
1791103687197995800,5.877995849609375,-0.1021663174033165,-0.2666796147823334,0.026632942259311676
1791103687207967700,5.8879677734375,-0.08923107385635376,-0.2624500095844269,-0.07972705364227295
1791103687217940000,5.89793994140625,-0.11024288088083267,-0.28532201051712036,0.03654735907912254
1791103687227911700,5.90791162109375,-0.11047936975955963,-0.2875255346298218,0.03353399038314819
1791103687237884000,5.9178837890625,-0.12046542763710022,-0.2555084526538849,0.05103069171309471
1791103687247854600,5.9278544921875,-0.06855695694684982,-0.2744944095611572,0.17337098717689514
1791103687257826800,5.937826904296875,-0.101764976978302,-0.24762257933616638,0.009249957278370857
1791103687267798800,5.947798828125,-0.11338594555854797,-0.2501946687698364,-0.009653426706790924
1791103687277770500,5.9577705078125,-0.08145198225975037,-0.2834700644016266,0.059593554586172104
1791103687287742700,5.96774267578125,-0.02949237823486328,-0.18788067996501923,-0.12454725801944733
1791103687297714400,5.97771435546875,0.01366308145225048,-0.20671509206295013,0.023324763402342796
1791103687307686700,5.987686767578125,-0.024458738043904305,-0.19900524616241455,-0.005723399575799704
1791103687317658600,5.99765869140625,-0.0489632822573185,-0.24234525859355927,0.12947329878807068
1791103687327630600,6.007630615234375,-0.03873887285590172,-0.24160383641719818,-0.06318722665309906
1791103687337602600,6.0176025390625,-0.04676111415028572,-0.2609602212905884,0.06489510834217072
1791103687347574500,6.027574462890625,-0.038601722568273544,-0.22594764828681946,-0.05228317901492119
1791103687357546500,6.03754638671875,-0.02190769650042057,-0.21300388872623444,0.022421153262257576
1791103687367518700,6.047518798828125,-0.04330353066325188,-0.19555751979351044,0.11049508303403854
1791103687377490400,6.057490478515625,0.042274750769138336,-0.12952710688114166,-0.10332532227039337
1791103687387462700,6.067462646484375,0.02845800668001175,-0.1488768309354782,0.09952978789806366
1791103687397434400,6.077434326171875,0.024168452247977257,-0.14524507522583008,0.023252591490745544
1791103687407406600,6.087406494140625,0.04182840511202812,-0.18808016180992126,0.007302653975784779
1791103687417378600,6.097378662109375,0.03922463580965996,-0.15021826326847076,-0.10695894062519073
1791103687427350500,6.1073505859375,-0.015516108833253384,-0.16850300133228302,0.022435268387198448
1791103687437322500,6.117322509765625,0.01709642820060253,-0.13504250347614288,0.04737337306141853
1791103687447294500,6.12729443359375,-0.024539431557059288,-0.16119740903377533,0.11468290537595749
1791103687457266700,6.1372666015625,0.03568422794342041,-0.12742958962917328,-0.05359878018498421
1791103687467238700,6.14723876953125,0.03997564688324928,-0.15824130177497864,-0.05353299900889397
1791103687477210600,6.157210693359375,-0.060439907014369965,-0.20213019847869873,0.04674140736460686
1791103687487182600,6.1671826171875,-0.044606614857912064,-0.18126699328422546,-0.12499520182609558
1791103687497154600,6.177154541015625,-0.009829993359744549,-0.1660238653421402,-0.056124523282051086
1791103687507126500,6.18712646484375,0.00040266994619742036,-0.16849634051322937,0.07884448021650314
1791103687517098800,6.1970986328125,0.003620301140472293,-0.1362888664007187,-0.05775091424584389
1791103687527069700,6.207069580078125,0.05317666754126549,-0.2125609964132309,0.10953474789857864
1791103687537041700,6.217041748046875,-0.061527542769908905,-0.12981471419334412,0.020434701815247536
1791103687547013600,6.227013671875,0.009737581945955753,-0.18944236636161804,0.06455902010202408
1791103687556985600,6.236985595703125,0.008436094969511032,-0.23734331130981445,0.07511498779058456
1791103687566957600,6.24695751953125,-0.009082178585231304,-0.1759803593158722,-0.10132262855768204
1791103687576929500,6.256929443359375,-0.015293735079467297,-0.1524159014225006,-0.04551315680146217
1791103687586901800,6.26690185546875,0.02810540422797203,-0.1508563607931137,0.040825195610523224
1791103687596873500,6.27687353515625,0.0036160401068627834,-0.12021882086992264,0.03526424616575241
1791103687606845700,6.286845703125,0.050885818898677826,-0.12910792231559753,-0.019714849069714546
1791103687616817400,6.2968173828125,0.023495739325881004,-0.15213626623153687,0.033074330538511276
1791103687626789600,6.30678955078125,-0.025549301877617836,-0.12933962047100067,0.0717649981379509
1791103687636761600,6.31676171875,0.0030597057193517685,-0.14411722123622894,-0.06453531980514526
1791103687646733600,6.326733642578125,0.0348392054438591,-0.0999327227473259,-0.05585980415344238
1791103687656705500,6.33670556640625,0.03997271507978439,-0.10938961058855057,0.09143217653036118
1791103687666677500,6.346677490234375,0.05555913224816322,-0.09388148784637451,0.06900569796562195
1791103687676649500,6.3566494140625,0.01830017752945423,-0.07960455119609833,-0.040162865072488785
1791103687686621700,6.36662158203125,0.012083294801414013,-0.056588977575302124,-0.018731342628598213
1791103687696593400,6.376593505859375,0.032820530235767365,-0.12739284336566925,0.07497917115688324
1791103687706565600,6.386565673828125,0.05447176471352577,-0.09358987212181091,0.01890444941818714
1791103687716537600,6.39653759765625,0.06927627325057983,-0.09651189297437668,0.026815369725227356
1791103687726509600,6.406509521484375,-0.03327326849102974,-0.09771963208913803,0.03610420972108841
1791103687736481800,6.416481689453125,-0.02179024927318096,-0.13286671042442322,0.018088988959789276
1791103687746453500,6.42645361328125,-0.05276574194431305,-0.12580187618732452,0.010095776990056038
1791103687756425700,6.43642578125,0.005317800212651491,-0.14534920454025269,0.028448686003684998
1791103687766397400,6.4463974609375,-0.06190863996744156,-0.09912765026092529,-0.011233479715883732
1791103687776369700,6.45636962890625,-0.040227048099040985,-0.1504630148410797,0.07270562648773193
1791103687786340400,6.46634033203125,-0.04817924648523331,-0.14888854324817657,-0.0041249701753258705
1791103687796312600,6.4763125,-0.02720552124083042,-0.13756291568279266,-0.04267609119415283
1791103687806284500,6.486284423828125,-0.04842985048890114,-0.132492795586586,0.036185700446367264
1791103687816256500,6.496256591796875,-0.00504109775647521,-0.12335602194070816,0.02696077711880207
1791103687826228700,6.506228759765625,-0.015733955428004265,-0.09137598425149918,-0.04067978635430336
1791103687836200400,6.516200439453125,0.014058827422559261,-0.09339546412229538,0.030593860894441605
1791103687846172700,6.526172607421875,-0.03355582803487778,-0.09424660354852676,0.04825834184885025
1791103687856144600,6.53614453125,0.04412059113383293,-0.05130632966756821,-0.027652932330965996
1791103687866116600,6.54611669921875,0.034087661653757095,-0.06017891690135002,-0.009737848304212093
1791103687876088600,6.556088623046875,0.009287774562835693,-0.020897025242447853,-0.07484601438045502
1791103687886060500,6.566060546875,0.034981951117515564,-0.07494428008794785,0.017702830955386162
1791103687896032500,6.576032470703125,-0.0017321199411526322,0.00016431703988928348,-0.06886614859104156
1791103687906004700,6.586004638671875,0.04591182991862297,-0.022251509130001068,-0.1034771203994751
1791103687915976400,6.5959765625,0.02039608545601368,-0.04439356178045273,-0.02653813362121582
1791103687925948700,6.60594873046875,0.021823806688189507,-0.0422409288585186,-0.004217382054775953
1791103687935920400,6.61592041015625,0.004795021377503872,-0.044500090181827545,-0.023935692384839058
1791103687945892600,6.625892578125,-0.017528926953673363,-0.06580564379692078,-0.09753561019897461
1791103687955864600,6.635864501953125,-0.016981646418571472,-0.0952460914850235,0.10384677350521088
1791103687965836500,6.64583642578125,-0.04488731175661087,-0.039559394121170044,-0.03870292007923126
1791103687975808500,6.65580859375,-0.019628295674920082,-0.09329506009817123,0.029446039348840714
1791103687985780500,6.665780517578125,-0.04649852588772774,-0.08176863193511963,0.03530552610754967
1791103687995752400,6.67575244140625,-0.029775472357869148,-0.050880491733551025,0.0516461506485939
1791103688005724700,6.685724609375,-0.022493325173854828,-0.018935874104499817,-0.10390163213014603
1791103688015696600,6.695696533203125,-0.018674351274967194,-0.033299099653959274,-0.09855081140995026
1791103688025668600,6.705668701171875,0.002680737990885973,-0.005637113004922867,-0.054549526423215866
1791103688035639600,6.7156396484375,0.026993267238140106,0.052804891020059586,-0.11788695305585861
1791103688045611500,6.725611572265625,0.048891376703977585,-0.018383268266916275,-0.04344893991947174
1791103688055583500,6.73558349609375,-0.04259539768099785,-0.05964948236942291,-0.029880667105317116
1791103688065555500,6.745555419921875,-0.08901908993721008,-0.10801941156387329,-0.03616759181022644
1791103688075527700,6.755527587890625,-0.13936641812324524,-0.08168234676122665,-0.045225270092487335
1791103688085499600,6.765499755859375,-0.10986178368330002,-0.08432739973068237,0.02322516217827797
1791103688095471600,6.7754716796875,-0.06597582250833511,-0.09956813603639603,0.007894407957792282
1791103688105443600,6.785443603515625,-0.059913668781518936,-0.12787780165672302,0.026452645659446716
1791103688115415600,6.79541552734375,-0.05696208402514458,-0.09702561795711517,-0.027544276788830757
1791103688125387800,6.8053876953125,-0.10469578951597214,-0.1347367763519287,0.07424706965684891
1791103688135359500,6.815359375,-0.12102948874235153,-0.11043143272399902,0.02997654117643833
1791103688145331700,6.825331787109375,-0.08039683848619461,-0.06600537896156311,-0.15577761828899384
1791103688155303400,6.835303466796875,-0.09369853138923645,-0.104381263256073,0.08104638010263443
1791103688165275600,6.845275634765625,-0.08230339735746384,-0.06623654067516327,-0.06539445370435715
1791103688175247600,6.85524755859375,-0.04674060642719269,-0.08457400649785995,0.04315359517931938
1791103688185219600,6.865219482421875,-0.055754076689481735,-0.06589779257774353,-0.03954794257879257
1791103688195191600,6.875191650390625,-0.10298310965299606,-0.08800628781318665,0.01606418751180172
1791103688205163500,6.88516357421875,-0.06191370263695717,-0.14844273030757904,0.0661848783493042
1791103688215135500,6.895135498046875,-0.127466082572937,-0.1412106603384018,0.14184634387493134
1791103688225107700,6.905107666015625,-0.07700104266405106,-0.16994217038154602,0.03459952399134636
1791103688235079400,6.915079345703125,-0.07412616163492203,-0.1284000426530838,-0.13563133776187897
1791103688245051600,6.9250517578125,-0.047380298376083374,-0.18873289227485657,0.018037322908639908
1791103688255023400,6.9350234375,-0.11246875673532486,-0.1337740421295166,0.012479039840400219
1791103688264995600,6.94499560546875,-0.10737652331590652,-0.15345799922943115,0.006876814644783735
1791103688274966500,6.954966552734375,-0.11833570152521133,-0.14846697449684143,0.021443773061037064
1791103688284938800,6.964938720703125,-0.08567069470882416,-0.1707456409931183,0.010274475440382957
1791103688294911000,6.974910888671875,-0.08978953957557678,-0.1631212830543518,-0.04807218909263611
1791103688304882700,6.984882568359375,-0.0713500827550888,-0.1888551414012909,0.026134397834539413
1791103688314855000,6.99485498046875,-0.13582387566566467,-0.16170234978199005,0.042268626391887665
1791103688324826600,7.00482666015625,-0.09489455074071884,-0.15015195310115814,0.015181083232164383
1791103688334798800,7.014798828125,-0.07693872600793839,-0.20368069410324097,0.1911097764968872
1791103688344770800,7.024770751953125,-0.0520554780960083,-0.17054510116577148,-0.05853095278143883
1791103688354742800,7.03474267578125,-0.0885935127735138,-0.1915838122367859,0.07885034382343292
1791103688364714800,7.04471484375,-0.0637534111738205,-0.21565638482570648,-0.09367136657238007
1791103688374686700,7.054686767578125,-0.08681212365627289,-0.17336459457874298,-0.11869682371616364
1791103688384658700,7.06465869140625,-0.04794755205512047,-0.17495130002498627,-0.06621603667736053
1791103688394631000,7.074630859375,-0.0764327198266983,-0.20914949476718903,0.10969134420156479
1791103688404603000,7.084602783203125,-0.11091719567775726,-0.17429430782794952,-0.05019685626029968
1791103688414574800,7.094574951171875,-0.05907370522618294,-0.18214130401611328,-0.0024104269687086344
1791103688424546800,7.104546875,-0.0827646553516388,-0.24475941061973572,0.11712928861379623
1791103688434518800,7.114518798828125,-0.13563212752342224,-0.27271780371665955,0.08847500383853912
1791103688444491000,7.124490966796875,-0.14537982642650604,-0.2737412750720978,0.12908048927783966
1791103688454462700,7.134462646484375,-0.09343221038579941,-0.22890855371952057,0.013075055554509163
1791103688464435000,7.14443505859375,-0.0752449557185173,-0.2402922362089157,0.07455945760011673
1791103688474406700,7.15440673828125,-0.04800401255488396,-0.18949882686138153,-0.055152200162410736
1791103688484379000,7.16437890625,-0.0041036647744476795,-0.15784822404384613,-0.018098309636116028
1791103688494350600,7.1743505859375,-0.05567178502678871,-0.1571265012025833,0.04729534313082695
1791103688504322800,7.18432275390625,0.023682959377765656,-0.13100196421146393,-0.20192886888980865
1791103688514294000,7.1942939453125,0.06336858868598938,-0.17522934079170227,0.09895826876163483
1791103688524265700,7.204265625,-0.013466806150972843,-0.12447561323642731,0.04962534457445145
1791103688534238000,7.214238037109375,0.043787695467472076,-0.1587827205657959,-0.07108429819345474
1791103688544209700,7.224209716796875,0.06412758678197861,-0.15693049132823944,0.048961151391267776
1791103688554182000,7.234181884765625,0.010236658155918121,-0.15194186568260193,0.14896178245544434
1791103688564153900,7.24415380859375,0.06151476129889488,-0.13143126666545868,-0.028063857927918434
1791103688574125800,7.254125732421875,0.06349455565214157,-0.09770418703556061,-0.10871156305074692
1791103688584097800,7.264097900390625,0.09148836880922318,-0.08521875739097595,-0.04339567571878433
1791103688594069800,7.27406982421875,0.07883835583925247,-0.09936307370662689,-0.03599927946925163
1791103688604041700,7.284041748046875,0.05091644451022148,-0.10679195821285248,0.018933476880192757
1791103688614013700,7.294013671875,0.07404519617557526,-0.07221826910972595,0.051173437386751175
1791103688623985700,7.303985595703125,0.11517266184091568,-0.11945316195487976,0.15251444280147552
1791103688633958000,7.3139580078125,0.10009171068668365,-0.11424801498651505,0.07607825845479965
1791103688643929600,7.3239296875,-0.03135446086525917,-0.15043504536151886,0.1358337253332138
1791103688653901800,7.33390185546875,-0.013570403680205345,-0.0907333642244339,0.019955597817897797
1791103688663873800,7.343873779296875,0.10505398362874985,-0.13827292621135712,-0.013941382057964802
1791103688673845800,7.353845703125,0.008162056095898151,-0.1326936036348343,-0.013861486688256264
1791103688683818000,7.36381787109375,0.05621054023504257,-0.11452098935842514,-0.09451025724411011
1791103688693789700,7.373789794921875,0.04626389965415001,-0.10285687446594238,-0.135162353515625
1791103688703762000,7.383761962890625,0.06460615992546082,-0.14136084914207458,-0.009417736902832985
1791103688713733600,7.393733642578125,0.02895095758140087,-0.10311653465032578,-0.06532787531614304
1791103688723705900,7.403705810546875,0.1187085434794426,-0.18326222896575928,0.010719755664467812
1791103688733677800,7.413677734375,0.0669366866350174,-0.19204001128673553,0.08959273248910904
1791103688743648800,7.423648681640625,0.0781661719083786,-0.13748915493488312,0.0158306285738945
1791103688753620700,7.433620849609375,0.09549349546432495,-0.17171183228492737,0.10373970866203308
1791103688763592700,7.4435927734375,0.07803381234407425,-0.1288948655128479,0.011492871679365635
1791103688773565000,7.45356494140625,0.09342848509550095,-0.11407304555177689,-0.06549245864152908
1791103688783536600,7.46353662109375,0.10438206791877747,-0.10025123506784439,-0.0105903260409832
1791103688793508900,7.4735087890625,0.13050155341625214,-0.0895000547170639,-0.07954968512058258
1791103688803480800,7.483480712890625,0.12967810034751892,-0.06709328293800354,-0.009766876697540283
1791103688813452800,7.493452880859375,0.164007306098938,-0.0470639131963253,-0.05119900405406952
1791103688823424800,7.5034248046875,0.2102443128824234,-0.08284454792737961,-0.011182080954313278
1791103688833396700,7.513396728515625,0.18081292510032654,-0.043660394847393036,-0.01672518439590931
1791103688843368700,7.52336865234375,0.15439197421073914,-0.011721637099981308,-0.06519045680761337
1791103688853341000,7.5333408203125,0.17053206264972687,-0.032936111092567444,0.06797026097774506
1791103688863312600,7.543312744140625,0.1756482571363449,-0.031378693878650665,0.03759637847542763
1791103688873284900,7.553284912109375,0.2207707315683365,-0.007518103811889887,-0.10906630009412766
1791103688883256600,7.563256591796875,0.20643572509288788,-0.05116917937994003,-0.07756137102842331
1791103688893228800,7.573228759765625,0.10026215761899948,-0.04001399502158165,0.07866578549146652
1791103688903200800,7.58320068359375,0.17588448524475098,0.007518636528402567,-0.14353585243225098
1791103688913172700,7.5931728515625,0.21851316094398499,-0.004506601020693779,0.020372916013002396
1791103688923144700,7.603144775390625,0.20641416311264038,0.053692787885665894,-0.06814416497945786
1791103688933116700,7.61311669921875,0.17043618857860565,0.017547834664583206,0.03375423327088356
1791103688943089000,7.6230888671875,0.14753566682338715,0.06018104776740074,-0.10207949578762054
1791103688953060900,7.633060791015625,0.12949727475643158,0.020844561979174614,0.09205029904842377
1791103688963032800,7.64303271484375,0.1687418818473816,0.0736827403306961,-0.07608624547719955
1791103688973003800,7.653003662109375,0.19958820939064026,0.04959551617503166,-0.050044525414705276
1791103688982975700,7.662975830078125,0.20139223337173462,0.07768547534942627,-0.09487191587686539
1791103688992947700,7.67294775390625,0.19217370450496674,0.0726502314209938,-0.09361490607261658
1791103689002919700,7.682919677734375,0.1955668330192566,0.09971487522125244,-0.037878405302762985
1791103689012891600,7.6928916015625,0.2323320358991623,0.07571526616811752,0.06385088711977005
1791103689022864000,7.70286376953125,0.21570299565792084,0.0809694156050682,-0.024885375052690506
1791103689032835800,7.7128359375,0.18528783321380615,0.052567072212696075,-0.04176688939332962
1791103689042807800,7.722807861328125,0.15809722244739532,0.0873279795050621,-0.01974494196474552
1791103689052779800,7.73277978515625,0.20856519043445587,0.03953968733549118,0.09244604408740997
1791103689062751700,7.742751708984375,0.22848670184612274,0.09239890426397324,-0.1520470529794693
1791103689072724000,7.752723876953125,0.1879587173461914,0.05630694702267647,-0.022367089986801147
1791103689082695700,7.76269580078125,0.16265442967414856,0.044681984931230545,0.02123897522687912
1791103689092668000,7.77266796875,0.14335156977176666,0.10909239947795868,-0.04966156184673309
1791103689102639600,7.7826396484375,0.1731451451778412,0.09543171525001526,0.10288217663764954
1791103689112611800,7.79261181640625,0.15163373947143555,0.08355507999658585,-0.009345831349492073
1791103689122583800,7.802583740234375,0.11777617037296295,0.02786358818411827,0.13719381392002106
1791103689132555800,7.8125556640625,0.20429028570652008,0.10118813812732697,-0.0024202808272093534
1791103689142527700,7.82252783203125,0.18721888959407806,0.11017230898141861,0.022162027657032013
1791103689152499700,7.832499755859375,0.15234772861003876,0.08761294186115265,-0.0022154836915433407
1791103689162471700,7.8424716796875,0.13309307396411896,0.13430240750312805,-0.03497130051255226
1791103689172444000,7.85244384765625,0.18813049793243408,0.14440111815929413,0.03808320313692093
1791103689182415600,7.86241552734375,0.16506218910217285,0.12395896017551422,0.027574902400374413
1791103689192386800,7.87238671875,0.15062226355075836,0.11957273632287979,0.010496316477656364
1791103689202358800,7.88235888671875,0.16432476043701172,0.1376928836107254,-0.01215866208076477
1791103689212330800,7.892330810546875,0.153523251414299,0.12796781957149506,0.003585680155083537
1791103689222302700,7.902302734375,0.15784822404384613,0.13076786696910858,0.05687659978866577
1791103689232274700,7.912274658203125,0.13093698024749756,0.1258159875869751,0.02225337363779545
1791103689242247000,7.922246826171875,0.11037097871303558,0.11827071756124496,0.027119768783450127
1791103689252218600,7.932218505859375,0.10091090202331543,0.1345953643321991,0.017357951030135155
1791103689262190800,7.94219091796875,0.1360156238079071,0.12036769092082977,0.016584835946559906
1791103689272162600,7.95216259765625,0.1858854442834854,0.14735031127929688,-0.056718140840530396
1791103689282135300,7.96213525390625,0.17783071100711823,0.15050961077213287,0.08542222529649734
1791103689292107000,7.97210693359375,0.14103089272975922,0.12569427490234375,0.0566779263317585
1791103689302079200,7.982079345703125,0.1106700524687767,0.11999324709177017,-0.009021458216011524
1791103689312051200,7.99205126953125,0.11746857315301895,0.16773094236850739,-0.10375888645648956
1791103689322023200,8.002023193359374,0.15367132425308228,0.16189782321453094,-0.024118918925523758
1791103689331995100,8.0119951171875,0.1899006962776184,0.12016236037015915,0.1490297019481659
1791103689341967000,8.021967041015625,0.146351620554924,0.11869895458221436,0.13653014600276947
1791103689351939300,8.031939208984374,0.13627448678016663,0.11172759532928467,0.1273832619190216
1791103689361911300,8.041911376953125,0.08737911283969879,0.07005312293767929,0.1924317628145218
1791103689371883300,8.05188330078125,0.06081914156675339,0.09624025225639343,-0.05940846726298332
1791103689381855200,8.061855224609374,0.1222582682967186,0.07742422074079514,-0.027028420940041542
1791103689391827200,8.0718271484375,0.13792911171913147,0.11180189996957779,-0.1796232908964157
1791103689401799200,8.081799072265625,0.14698384702205658,0.12420397251844406,-0.03636360168457031
1791103689411770000,8.09177001953125,0.08907954394817352,0.18361243605613708,-0.003049053018912673
1791103689421742000,8.1017421875,0.13688088953495026,0.18829268217086792,-0.049794986844062805
1791103689431714300,8.11171435546875,0.05278944596648216,0.18170082569122314,0.04543912038207054
1791103689441686300,8.121686279296876,0.03498115390539169,0.12037967145442963,0.15957793593406677
1791103689451658200,8.131658203125,-0.011356517672538757,0.11871705949306488,0.05156172811985016
1791103689461630200,8.141630126953125,0.020660005509853363,0.12553715705871582,-0.02695731446146965
1791103689471602200,8.151602294921876,0.026022545993328094,0.09861072897911072,0.06873805075883865
1791103689481574400,8.161574462890625,0.07964369654655457,0.07294238358736038,0.04767404496669769
1791103689491546000,8.171546142578125,0.06498245894908905,0.09532572329044342,-0.09454222023487091
1791103689501518300,8.181518310546876,0.06953007727861404,0.08376413583755493,-0.09128943085670471
1791103689511490000,8.191489990234375,0.033597107976675034,0.10177270323038101,0.004171309061348438
1791103689521462300,8.201462158203125,0.035364650189876556,0.05871924012899399,0.08328983187675476
1791103689531434200,8.211434326171876,0.029632460325956345,0.0671183168888092,-0.0207513514906168
1791103689541406200,8.22140625,0.004978513345122337,0.05603743717074394,0.07916192710399628
1791103689551378200,8.231378173828125,-0.006810235325247049,0.04002730920910835,0.028236432000994682
1791103689561350100,8.24135009765625,-0.0073503246530890465,0.05053720995783806,0.03653963655233383
1791103689571322000,8.251322021484375,-0.01901470310986042,0.07975714653730392,0.023500798270106316
1791103689581294300,8.26129443359375,-0.019999008625745773,0.1440328061580658,-0.1316123604774475
1791103689591266000,8.27126611328125,0.030065489932894707,0.10738185048103333,0.07040306180715561
1791103689601238300,8.28123828125,0.016580041497945786,0.18345265090465546,0.07017376273870468
1791103689611210000,8.2912099609375,0.09935534745454788,0.23216186463832855,-0.07106272131204605
1791103689621181200,8.30118115234375,0.031916920095682144,0.17326313257217407,0.012170113623142242
1791103689631153200,8.311153076171875,0.027992485091090202,0.1287742257118225,0.03208150342106819
1791103689641125000,8.321125,-0.02207893691956997,0.08941429853439331,0.24630297720432281
1791103689651097300,8.331097412109376,0.07523056864738464,0.16528776288032532,-0.15549132227897644
1791103689661069000,8.341069091796875,0.003326021833345294,0.17589886486530304,0.0989883616566658
1791103689671041300,8.351041259765625,0.06519658118486404,0.1827911138534546,0.05404858663678169
1791103689681013000,8.361012939453126,-0.01570546068251133,0.17881369590759277,0.02996322512626648
1791103689690985200,8.370985107421875,0.07757788151502609,0.1887129247188568,-0.10309522598981857
1791103689700957200,8.380957275390625,0.01739976368844509,0.16996480524539948,-0.049969423562288284
1791103689710929200,8.39092919921875,-0.009847304783761501,0.11543577909469604,0.020309798419475555
1791103689720901400,8.4009013671875,-0.009414007887244225,0.06858038902282715,0.08749469369649887
1791103689730873000,8.410873046875,-0.06955750286579132,0.10548674315214157,-0.17753057181835175
1791103689740845300,8.42084521484375,-0.06316858530044556,0.036018189042806625,0.006185191683471203
1791103689750817300,8.4308173828125,-0.12079060077667236,0.01582184061408043,0.048111334443092346
1791103689760789200,8.440789306640625,-0.13650405406951904,-0.006804376374930143,0.02202487550675869
1791103689770761200,8.45076123046875,-0.1967277079820633,-0.047317180782556534,-0.005093029234558344
1791103689780733200,8.460733154296875,-0.1477002501487732,-0.05638338252902031,-0.02612374536693096
1791103689790705200,8.470705078125,-0.18417489528656006,-0.02562866359949112,-0.08102880418300629
1791103689800677400,8.480677490234376,-0.16158942878246307,-0.012496350333094597,-0.051595814526081085
1791103689810649000,8.490649169921875,-0.10700634121894836,-0.04060415178537369,0.014844193123281002
1791103689820620300,8.500620361328124,-0.12880244851112366,-0.02575250156223774,0.11774394661188126
1791103689830592300,8.51059228515625,-0.10639861226081848,0.03032408282160759,-0.12576378881931305
1791103689840564200,8.520564208984375,-0.13261237740516663,-0.051289018243551254,0.24040727317333221
1791103689850536200,8.5305361328125,-0.06125164031982422,0.002290318487212062,0.010582337155938148
1791103689860508200,8.540508056640626,-0.132960706949234,0.0031065773218870163,0.1422594040632248
1791103689870480400,8.55048046875,0.000494016392622143,0.042938146740198135,-0.11185489594936371
1791103689880452000,8.5604521484375,-0.02256309986114502,0.08089938014745712,-0.06246737390756607
1791103689890424300,8.57042431640625,0.017519071698188782,0.11934636533260345,0.045883070677518845
1791103689900396000,8.58039599609375,-0.012092082761228085,0.16256122291088104,-0.03379977494478226
1791103689910368300,8.5903681640625,0.03370603173971176,0.1437254697084427,0.03128335252404213
1791103689920340200,8.60034033203125,-0.013281716965138912,0.2015933096408844,-0.006200105417519808
1791103689930312200,8.610312255859375,-0.014946458861231804,0.21858373284339905,-0.05859034135937691
1791103689940284200,8.6202841796875,0.01133920717984438,0.11981721222400665,0.21490058302879333
1791103689950256000,8.630256103515626,-0.01721201092004776,0.1623106151819229,0.009049953892827034
1791103689960228000,8.64022802734375,-0.06555663794279099,0.14234329760074615,0.15019802749156952
1791103689970200300,8.650200439453124,-0.04717417061328888,0.11578545719385147,0.10527315735816956
1791103689980172000,8.660172119140626,-0.06766000390052795,0.13087785243988037,0.12885598838329315
1791103689990144300,8.670144287109375,-0.09571001678705215,0.1422242522239685,0.10861862450838089
1791103690000116200,8.6801162109375,-0.055098939687013626,0.15173573791980743,-0.030956052243709564
1791103690010088200,8.690088134765626,-0.0721311867237091,0.1641889363527298,-0.06453212350606918
1791103690020059100,8.70005908203125,-0.17412492632865906,0.1573278307914734,-0.20278958976268768
1791103690030031000,8.710031005859374,-0.10746254026889801,0.11035607010126114,-0.15568706393241882
1791103690040003300,8.72000341796875,-0.021868014708161354,0.0961339920759201,-0.07282546907663345
1791103690049975000,8.72997509765625,-0.0926806703209877,0.10989747196435928,0.059173841029405594
1791103690059947300,8.739947265625,-0.1325165033340454,0.03614841774106026,-0.06923659145832062
1791103690069919200,8.749919189453125,-0.18868842720985413,0.0006625944515690207,-0.09310997277498245
1791103690079891200,8.75989111328125,-0.3384385108947754,-0.019362512975931168,0.03965553268790245
1791103690089863400,8.769863525390624,-0.3216280937194824,-0.10690860450267792,-0.019515911117196083
1791103690099835100,8.779835205078125,-0.39253050088882446,-0.10514666140079498,-0.0855947956442833
1791103690109807400,8.789807373046875,-0.3676384687423706,-0.10085976868867874,0.004811533261090517
1791103690119779000,8.799779052734374,-0.33223146200180054,-0.06667729467153549,-0.037823013961315155
1791103690129751300,8.809751220703125,-0.259865403175354,-0.07651874423027039,-0.07418128848075867
1791103690139723300,8.81972314453125,-0.24618980288505554,-0.02996615506708622,-0.08977702260017395
1791103690149695200,8.8296953125,-0.29157698154449463,-0.08171137422323227,0.10573228448629379
1791103690159667200,8.839667236328125,-0.33298593759536743,-0.08511888980865479,0.027876105159521103
1791103690169639200,8.84963916015625,-0.32550644874572754,-0.07277274131774902,-0.05139261856675148
1791103690179611100,8.859611083984374,-0.29725325107574463,-0.14223544299602509,0.12921178340911865
1791103690189583400,8.869583251953125,-0.3307315707206726,-0.08193507790565491,-0.17224660515785217
1791103690199555000,8.87955517578125,-0.2953712046146393,-0.10881196707487106,0.09963551163673401
1791103690209526300,8.8895263671875,-0.29836300015449524,-0.11624138802289963,-0.20887598395347595
1791103690219498200,8.899498291015625,-0.3032280504703522,-0.14145193994045258,-0.24201716482639313
1791103690229470200,8.90947021484375,-0.3599216938018799,-0.08384083956480026,0.010689661838114262
1791103690239442200,8.919442138671876,-0.2947533428668976,-0.09145934134721756,-0.07319724559783936
1791103690249414100,8.9294140625,-0.2866986095905304,-0.11902172863483429,-0.14519846439361572
1791103690259386400,8.939386474609375,-0.29053008556365967,-0.12013998627662659,0.0935315489768982
1791103690269358000,8.949358154296876,-0.3806690573692322,-0.0734313428401947,0.016773121431469917
1791103690279329800,8.959329833984375,-0.3511092960834503,-0.10275301337242126,-0.03585973009467125
1791103690289301800,8.9693017578125,-0.2271319478750229,-0.13489443063735962,0.03146445006132126
1791103690299273700,8.979273681640626,-0.14889174699783325,-0.07850972563028336,0.007095992565155029
1791103690309246000,8.989245849609375,-0.19393831491470337,-0.04266996681690216,0.09383488446474075
1791103690319217700,8.9992177734375,-0.19937488436698914,-0.08852480351924896,0.10183235257863998
1791103690329190000,9.00918994140625,-0.18271762132644653,-0.06427938491106033,-0.011811385862529278
1791103690339161600,9.01916162109375,-0.16726861894130707,-0.07695550471544266,-0.01044331956654787
1791103690349133800,9.0291337890625,-0.20000632107257843,-0.07637599855661392,-0.00458702864125371
1791103690359105800,9.039105712890626,-0.21367312967777252,-0.11121892929077148,-0.06749675422906876
1791103690369077800,9.049077880859375,-0.21808572113513947,-0.1326690912246704,0.08607176691293716
1791103690379049700,9.0590498046875,-0.15463538467884064,-0.1228707954287529,-0.04506095126271248
1791103690389021700,9.069021728515626,-0.21034738421440125,-0.18569663166999817,0.14651833474636078
1791103690398993000,9.078992919921875,-0.20062550902366638,-0.1620301753282547,-0.04171868413686752
1791103690408964600,9.088964599609374,-0.23246200382709503,-0.19923454523086548,0.09961101412773132
1791103690418936800,9.098936767578126,-0.19645819067955017,-0.14394332468509674,-0.10763192176818848
1791103690428908800,9.10890869140625,-0.16931898891925812,-0.1831786036491394,0.15054742991924286
1791103690438880800,9.118880859375,-0.06132301315665245,-0.12735982239246368,-0.056225720793008804
1791103690448852700,9.128852783203126,-0.07555787265300751,-0.15738855302333832,-0.046366699039936066
1791103690458824700,9.13882470703125,-0.10788092762231827,-0.16414526104927063,0.10820689797401428
1791103690468796700,9.148796630859374,-0.10316020995378494,-0.12622371315956116,0.09283246845006943
1791103690478769000,9.158768798828126,-0.024100009351968765,-0.15964078903198242,0.05337294191122055
1791103690488740600,9.16874072265625,-0.03712446615099907,-0.16619695723056793,0.04481274634599686
1791103690498712800,9.178712890625,-0.06978707015514374,-0.12428120523691177,-0.0083673857152462
1791103690508684500,9.1886845703125,-0.08082747459411621,-0.17405276000499725,0.0792817696928978
1791103690518656800,9.19865673828125,-0.04914224520325661,-0.13631363213062286,-0.17406366765499115
1791103690528628700,9.208628662109374,0.03768159821629524,-0.13691550493240356,0.05531811714172363
1791103690538600700,9.2186005859375,-0.00968431867659092,-0.12629055976867676,0.09608791768550873
1791103690548572700,9.22857275390625,0.06771060079336166,-0.10753471404314041,-0.2315583974123001
1791103690558544600,9.238544677734374,-0.03154594078660011,-0.11845900118350983,0.09043748676776886
1791103690568516600,9.2485166015625,0.0266510508954525,-0.06492813676595688,-0.11888164281845093
1791103690578488600,9.258488525390625,-0.029698774218559265,-0.08423978090286255,0.022524483501911163
1791103690588459800,9.268459716796874,0.1000048965215683,-0.11664565652608871,0.04524470865726471
1791103690598431700,9.278431640625,0.044136300683021545,-0.08487334847450256,0.015515576116740704
1791103690608403700,9.28840380859375,0.05856557562947273,-0.06903952360153198,-0.03560379892587662
1791103690618375700,9.298375732421874,0.05034705996513367,-0.09040739387273788,0.056347429752349854
1791103690628347600,9.30834765625,0.14914953708648682,-0.06179891899228096,-0.1275201439857483
1791103690638319600,9.318319580078125,0.05614928901195526,-0.028320854529738426,-0.05144614726305008
1791103690648291800,9.328291748046874,0.08226291835308075,-0.033246103674173355,0.028838306665420532
1791103690658263800,9.338263916015626,0.15100470185279846,-0.036611273884773254,0.029706496745347977
1791103690668235800,9.34823583984375,0.1599459946155548,-0.020866133272647858,-0.04994971677660942
1791103690678207700,9.358207763671874,0.11788908392190933,-0.06712444126605988,0.06876494735479355
1791103690688179700,9.3681796875,0.10121317207813263,-0.07892118394374847,-0.05259982869029045
1791103690698151700,9.378151611328125,0.106481172144413,-0.09530282020568848,-0.07032556086778641
1791103690708123600,9.38812353515625,0.06293768435716629,-0.07244330644607544,0.08853066712617874
1791103690718096000,9.398095947265626,0.10198255628347397,-0.05291035398840904,0.06743789464235306
1791103690728067600,9.408067626953125,0.06698542833328247,-0.05278358608484268,0.08096222579479218
1791103690738039800,9.418039794921874,0.16040459275245667,-0.06850981712341309,-0.011955196037888527
1791103690748011500,9.428011474609375,0.09837929904460907,-0.022768428549170494,-0.2001970112323761
1791103690757983700,9.437983642578125,0.13933604955673218,-0.07704072445631027,0.09516912698745728
1791103690767955000,9.447954833984374,0.13832245767116547,-0.026816433295607567,-0.18022862076759338
1791103690777926700,9.4579267578125,0.22352497279644012,-0.06042739003896713,0.005112203769385815
1791103690787899000,9.46789892578125,0.09377682209014893,-0.023798273876309395,0.1005130261182785
1791103690797870600,9.47787060546875,0.09465939551591873,-0.05107437074184418,0.11810879409313202
1791103690807842800,9.4878427734375,0.12595713138580322,-0.028773324564099312,-0.033013876527547836
1791103690817814500,9.497814453125,0.170563742518425,-0.07478822022676468,-0.017429856583476067
1791103690827786800,9.507786865234374,0.08835702389478683,-0.023001190274953842,-0.14807601273059845
1791103690837758700,9.5177587890625,0.10788358747959137,-0.03842994570732117,-0.004218979738652706
1791103690847730700,9.527730712890625,0.14379152655601501,-0.03421948850154877,0.023989222943782806
1791103690857702700,9.53770263671875,0.18793128430843353,0.004562261048704386,-0.10477754473686218
1791103690867674600,9.547674560546875,0.1856020838022232,-0.026912307366728783,0.04592461511492729
1791103690877646600,9.557646484375,0.14779531955718994,0.04060521721839905,-0.08660626411437988
1791103690887618800,9.567618896484374,0.15403138101100922,0.011274492368102074,0.13843616843223572
1791103690897590500,9.577590576171875,0.1567872166633606,0.018334532156586647,-0.04697496443986893
1791103690907562800,9.587562744140625,0.17540937662124634,0.04555283859372139,-0.14052090048789978
1791103690917534500,9.597534423828124,0.17444904148578644,0.06962408870458603,-0.020302608609199524
1791103690927506700,9.607506591796875,0.18394000828266144,0.027847876772284508,0.19818152487277985
1791103690937478700,9.617478759765625,0.26149871945381165,0.10283104330301285,-0.05326215550303459
1791103690947449600,9.62744970703125,0.25716230273246765,0.012309662997722626,0.19527362287044525
1791103690957421800,9.637421875,0.08251698315143585,0.08257077634334564,-0.22064076364040375
1791103690967393500,9.6473935546875,0.07022596150636673,0.03213396668434143,0.12750576436519623
1791103690977365800,9.65736572265625,0.12336427718400955,0.08993920683860779,-0.1533072590827942
1791103690987337500,9.66733740234375,0.20892392098903656,0.09245216846466064,-0.15377944707870483
1791103690997309700,9.677309814453125,0.18500180542469025,0.12368199229240417,0.06999346613883972
1791103691007281700,9.68728173828125,0.23985467851161957,0.14913488924503326,0.02136787213385105
1791103691017253600,9.697253662109375,0.171793594956398,0.19205573201179504,-0.05500492826104164
1791103691027225900,9.707225830078125,0.1581486314535141,0.08547361940145493,0.11899349838495255
1791103691037197600,9.717197509765626,0.02971501834690571,0.06890875846147537,0.13466326892375946
1791103691047169800,9.727169677734375,0.06167721375823021,0.017900170758366585,-0.003059173235669732
1791103691057141800,9.737141845703125,0.11125621944665909,0.042149584740400314,0.049131594598293304
1791103691067113700,9.74711376953125,-0.00012969593808520585,0.07565321773290634,0.006326871924102306
1791103691077085700,9.757085693359375,0.028237231075763702,0.03568848967552185,0.003343598684296012
1791103691087057700,9.7670576171875,0.05798846855759621,0.10032527148723602,-0.2049960196018219
1791103691097029600,9.777029541015626,0.0799022912979126,0.05591386556625366,0.07487184554338455
1791103691107001900,9.787001953125,-0.0327981598675251,0.07745590806007385,-0.07247606664896011
1791103691116973600,9.7969736328125,0.021951638162136078,0.06458964198827744,-0.08512714505195618
1791103691126944800,9.80694482421875,0.03810051456093788,0.03666453808546066,0.1135457381606102
1791103691136916700,9.816916748046875,-0.023385483771562576,0.019711652770638466,0.15435095131397247
1791103691146888700,9.826888671875,-0.13984578847885132,-0.034203775227069855,0.1879110485315323
1791103691156860700,9.836860595703126,-0.1790831983089447,-0.0401839055120945,-0.04374481737613678
1791103691166832600,9.84683251953125,-0.15891268849372864,-0.0454963780939579,-0.19669735431671143
1791103691176804900,9.856804931640625,-0.13033750653266907,-0.06494864076375961,0.04637708514928818
1791103691186776600,9.866776611328126,-0.13789048790931702,-0.02827504649758339,0.06977242231369019
1791103691196748800,9.876748779296875,-0.11117871850728989,-0.004535097163170576,-0.10614561289548874
1791103691206720500,9.886720458984374,-0.09112431854009628,0.01194188091903925,-0.001811482128687203
1791103691216692700,9.896692626953126,-0.12053200602531433,0.016532370820641518,0.05269969627261162
1791103691226664700,9.906664794921875,-0.07205288857221603,-0.016204535961151123,-0.035845350474119186
1791103691236636700,9.91663671875,-0.10648942738771439,-0.021441642194986343,0.045999184250831604
1791103691246608600,9.926608642578126,-0.09307748079299927,0.00863130483776331,0.022305572405457497
1791103691256580600,9.93658056640625,-0.1482459306716919,0.022406505420804024,0.07904262095689774
1791103691266552600,9.946552490234374,-0.09039807319641113,0.0010543455136939883,0.1273326575756073
1791103691276524800,9.95652490234375,-0.02587660402059555,0.06650978326797485,-0.02093484252691269
1791103691286497000,9.9664970703125,-0.01371980644762516,0.048713210970163345,0.16291674971580505
1791103691296468000,9.976468017578124,-0.08782945573329926,0.08155424892902374,-0.10681406408548355
1791103691306440200,9.986440185546876,0.005705023650079966,0.10404358059167862,-0.2883591055870056
1791103691316412000,9.996411865234375,-0.07313333451747894,0.13353756070137024,0.19067886471748352
1791103691326384000,10.006384033203124,-0.07031331211328506,0.18018335103988647,-0.023027287796139717
1791103691336355800,10.01635595703125,-0.02033962681889534,0.09461785107851028,0.0457746796309948
1791103691346328000,10.026328125,-0.011051053181290627,0.05137477442622185,-0.021827800199389458
1791103691356300000,10.036300048828124,-0.10387260466814041,0.09314032644033432,-0.0005278385360725224
1791103691366272000,10.04627197265625,-0.15986795723438263,0.058589544147253036,0.11787044256925583
1791103691376244000,10.056243896484375,-0.1313771903514862,0.08267410844564438,0.04591129720211029
1791103691386216000,10.0662158203125,-0.031797610223293304,0.07630755752325058,-0.004868790972977877
1791103691396188000,10.07618798828125,-0.07402709126472473,0.04802984371781349,0.015061507001519203
1791103691406160100,10.08616015625,-0.09114695340394974,-0.005751895252615213,0.13453836739063263
1791103691416132000,10.096132080078124,-0.0956631451845169,0.07486944645643234,-0.20876066386699677
1791103691426104000,10.10610400390625,-0.06280399858951569,-0.007574296556413174,0.1436583697795868
1791103691436076000,10.116075927734375,-0.06849969923496246,0.016395751386880875,-0.00646668765693903
1791103691446048000,10.126048095703124,-0.08584513515233994,0.03475744649767876,-0.08149006217718124
1791103691456020200,10.136020263671876,-0.09696702659130096,-0.025378327816724777,0.06822219491004944
1791103691465991000,10.145990966796875,-0.14332707226276398,-0.0512850247323513,0.03798306733369827
1791103691475963100,10.155963134765624,-0.12525619566440582,-0.048958487808704376,0.2430129200220108
1791103691485934800,10.165934814453125,-0.09714412689208984,-0.06851913779973984,0.033721476793289185
1791103691495907000,10.175906982421875,-0.1396085023880005,-0.057311758399009705,-0.08134599030017853
1791103691505879000,10.185879150390624,-0.25004738569259644,-0.13289093971252441,0.3186432123184204
1791103691515851000,10.19585107421875,-0.09501998871564865,-0.06082899495959282,-0.07187286019325256
1791103691525823200,10.2058232421875,-0.07340524345636368,-0.07751157134771347,-0.1457984745502472
1791103691535795000,10.215794921875,-0.13905508816242218,-0.07797735929489136,-0.08232816308736801
1791103691545767200,10.22576708984375,-0.14543601870536804,-0.09803815186023712,-0.018932677805423737
1791103691555739000,10.23573876953125,-0.040703486651182175,-0.10483666509389877,-0.08862227946519852
1791103691565711000,10.245711181640624,-0.1163196861743927,-0.06778224557638168,-0.12420503795146942
1791103691575683000,10.25568310546875,-0.18145234882831573,-0.09085880219936371,0.027097132056951523
1791103691585655000,10.265655029296875,-0.05019179731607437,-0.19449038803577423,0.25592711567878723
1791103691595627000,10.275626953125,-0.09844455122947693,-0.11909230053424835,-0.26637575030326843
1791103691605599000,10.285598876953125,-0.12473207712173462,-0.18081851303577423,0.05874533951282501
1791103691615571000,10.295571044921875,-0.19927741587162018,-0.17909172177314758,0.1611470729112625
1791103691625543200,10.305543212890624,-0.11596175283193588,-0.12921497225761414,-0.008700015023350716
1791103691635515000,10.315514892578125,0.02177507057785988,-0.10086110234260559,-0.04380473867058754
1791103691645486000,10.325486083984375,-0.06472466886043549,-0.07663405686616898,0.03852448984980583
1791103691655458000,10.3354580078125,-0.09654384851455688,-0.033135317265987396,-0.036314863711595535
1791103691665430000,10.345429931640625,0.038963112980127335,0.004087952431291342,-0.16984257102012634
1791103691675402000,10.355402099609375,0.05206453427672386,0.009124255739152431,-0.018699385225772858
1791103691685374000,10.3653740234375,0.06615611910820007,-0.013038303703069687,-0.0512101911008358
1791103691695346200,10.37534619140625,0.07221134752035141,-0.032592032104730606,-0.061046574264764786
1791103691705318000,10.38531787109375,0.06414622813463211,-0.02454262785613537,-0.17754575610160828
1791103691715290000,10.3952900390625,-0.038412369787693024,-0.05997278913855553,0.17742325365543365
1791103691725261800,10.40526171875,0.037996385246515274,-0.032881252467632294,0.04524710774421692
1791103691735234000,10.415234130859375,0.010065416805446148,-0.04105262830853462,0.10662471503019333
1791103691745206000,10.4252060546875,-0.011903797276318073,0.017541974782943726,-0.038362834602594376
1791103691755178000,10.435177978515625,-0.052677325904369354,-0.020237892866134644,0.004831506870687008
1791103691765150000,10.44514990234375,0.012467588298022747,-0.01569800265133381,0.036068256944417953
1791103691775122000,10.455121826171874,0.09717635065317154,0.03338991478085518,-0.08159499615430832
1791103691785094100,10.46509423828125,0.046609845012426376,-0.010106430388987064,0.09860673546791077
1791103691795066000,10.475066162109375,0.03796122968196869,-0.07376956194639206,0.015687882900238037
1791103691805037000,10.485037109375,-0.017585385590791702,-0.036257341504096985,-0.21746893227100372
1791103691815009000,10.495009033203125,-0.016519321128726006,-0.0788455456495285,0.04749508202075958
1791103691824981000,10.50498095703125,-0.04165317118167877,-0.12316028028726578,0.1322946548461914
1791103691834953000,10.514952880859376,0.01363218855112791,-0.10936963558197021,0.010428406298160553
1791103691844925000,10.524925048828125,0.022832877933979034,-0.09362955391407013,-0.10163847357034683
1791103691854897000,10.53489697265625,-0.05206666141748428,-0.03157257288694382,-0.09819208085536957
1791103691864869000,10.544869140625,-0.09733188152313232,-0.05047782137989998,0.1122698187828064
1791103691874841000,10.554841064453125,0.03870159015059471,-0.07837390154600143,-0.0018764632986858487
1791103691884813000,10.56481298828125,0.1646813601255417,-0.062242068350315094,-0.21214447915554047
1791103691894785000,10.574784912109376,0.06617449223995209,-0.0662301555275917,0.21417300403118134
1791103691904757000,10.584757080078125,0.025944780558347702,0.023859793320298195,0.11756258457899094
1791103691914729200,10.594729248046875,0.13053937256336212,0.0033076461404561996,0.005033640656620264
1791103691924701000,10.604700927734376,0.21916989982128143,-0.03578862547874451,0.05846863612532616
1791103691934673200,10.614673095703125,0.1411595195531845,0.015251656994223595,0.05747607722878456
1791103691944644900,10.624644775390625,0.04553605988621712,0.08401447534561157,0.047504667192697525
1791103691954617000,10.6346171875,0.11014967411756516,0.113895945250988,-0.027277160435914993
1791103691964588000,10.644588134765625,0.20939822494983673,0.059906743466854095,0.17039063572883606
1791103691974560000,10.65456005859375,0.1717432588338852,0.12178608775138855,0.013081979937851429
1791103691984532200,10.6645322265625,0.16252100467681885,0.08247437328100204,-0.07573923468589783
1791103691994504000,10.67450390625,0.15893904864788055,0.057285126298666,-0.1253158450126648
1791103692004476200,10.68447607421875,0.09758061915636063,-0.0025651566684246063,0.1098513975739479
1791103692014447900,10.69444775390625,0.05507310479879379,0.03730423003435135,-0.01537895668298006
1791103692024420000,10.704420166015625,0.10795016586780548,0.06420908123254776,-0.14482855796813965
1791103692034392000,10.71439208984375,0.09989916533231735,0.03512043505907059,0.18009786307811737
1791103692044364000,10.724364013671876,0.05212019383907318,0.08252843469381332,-0.06358403712511063
1791103692054336000,10.7343359375,0.05197185277938843,0.01894679293036461,0.016891099512577057
1791103692064308000,10.744307861328124,0.11076059937477112,-0.002692455891519785,0.004358263220638037
1791103692074280000,10.754280029296876,0.03910106420516968,0.03701847046613693,0.11061412841081619
1791103692084252200,10.764252197265625,0.036623258143663406,0.04271524026989937,0.032871928066015244
1791103692094224000,10.774223876953124,0.0024282701779156923,0.044186368584632874,-0.0023438481148332357
1791103692104196000,10.784196044921876,0.0251596812158823,-0.01221645250916481,-0.03840810805559158
1791103692114167800,10.794167724609375,0.009705624543130398,0.047619983553886414,-0.17685440182685852
1791103692124139000,10.804138916015624,0.07118123769760132,0.06735507398843765,-0.18885406851768494
1791103692134111000,10.814111083984375,0.11357742547988892,0.06343436986207962,0.1563486009836197
1791103692144083000,10.8240830078125,0.0853673592209816,0.18277274072170258,-0.112505242228508
1791103692154055200,10.83405517578125,0.17618247866630554,0.09173844009637833,0.1213541254401207
1791103692164027000,10.84402685546875,0.07615495473146439,0.06330519914627075,0.04295625537633896
1791103692173999000,10.8539990234375,-0.08620679378509521,0.07829746603965759,0.11931440979242325
1791103692183970800,10.863970703125,-0.04832625389099121,0.01569826900959015,0.10664841532707214
1791103692193943000,10.873943115234376,-0.03160852566361427,0.014926218427717686,0.006898119580000639
1791103692203915000,10.8839150390625,-0.07155753672122955,0.05074493587017059,0.06474757194519043
1791103692213887000,10.893886962890624,-0.05193696543574333,0.03954421356320381,-0.12421409040689468
1791103692223859000,10.90385888671875,0.00035127095179632306,0.018456771969795227,0.03141411393880844
1791103692233831000,10.913830810546875,-0.07572565227746964,0.03014112450182438,0.017588581889867783
1791103692243803100,10.92380322265625,-0.08292657136917114,0.04025740921497345,-0.06069823354482651
1791103692253775000,10.933775146484376,-0.016382968053221703,-0.04243906959891319,-0.04366492107510567
1791103692263747000,10.9437470703125,-0.12449132651090622,-0.01302498858422041,-0.037936728447675705
1791103692273719000,10.953718994140624,-0.21165286004543304,-0.0073439329862594604,-0.024205204099416733
1791103692283689200,10.963689208984375,-0.1231088787317276,-0.05988064408302307,0.07209815829992294
1791103692293661200,10.9736611328125,-0.13011272251605988,0.006368949543684721,-0.01290727686136961
1791103692303633200,10.983633056640626,-0.027590349316596985,-0.014007428660988808,-0.03748718649148941
1791103692313605000,10.993605224609375,-0.13430215418338776,0.0208261851221323,-0.06012565642595291
1791103692323577000,11.0035771484375,-0.14952318370342255,-0.015607722103595734,0.01786341890692711
1791103692333549300,11.01354931640625,-0.17578540742397308,-0.008527175523340702,0.03660674765706062
1791103692343521000,11.02352099609375,-0.17167241871356964,0.034938275814056396,-0.034681547433137894
1791103692353493200,11.0334931640625,-0.02208639308810234,-0.01696966215968132,-0.14911304414272308
1791103692363465000,11.04346484375,-0.07508143782615662,-0.04350113868713379,-0.050825897604227066
1791103692373437200,11.053437255859375,-0.183523491024971,-0.01894279755651951,0.04832172766327858
1791103692383409200,11.0634091796875,-0.15882320702075958,-0.018686069175601006,-0.10937202721834183
1791103692393381000,11.073381103515626,-0.14187218248844147,0.04414775222539902,-0.03588423132896423
1791103692403353000,11.08335302734375,-0.14398327469825745,-0.03658570721745491,0.24680392444133759
1791103692413325000,11.093324951171875,-0.12281247228384018,-0.001919073867611587,-0.04574272036552429
1791103692423297300,11.10329736328125,-0.15584711730480194,0.008584166876971722,0.026379676535725594
1791103692433269200,11.113269287109375,-0.18629291653633118,-0.09724052995443344,0.27168557047843933
1791103692443240200,11.123240234375,-0.1765958070755005,-0.06113233044743538,-0.14973996579647064
1791103692453212200,11.133212158203126,-0.15139777958393097,0.027180222794413567,-0.2637176513671875
1791103692463184100,11.14318408203125,-0.215243861079216,0.03316647559404373,0.19018858671188354
1791103692473156000,11.153156005859374,-0.10210532695055008,-0.024355407804250717,-0.04868391528725624
1791103692483128000,11.163128173828126,-0.08509758114814758,0.03636280074715614,-0.13044854998588562
1791103692493100300,11.173100341796875,-0.16430479288101196,0.04260604828596115,-0.029273200780153275
1791103692503072300,11.183072265625,-0.1699935644865036,0.002981142606586218,0.06887653470039368
1791103692513044200,11.193044189453126,-0.16188398003578186,-0.013144297525286674,-0.015599465928971767
1791103692523016200,11.20301611328125,-0.1215147152543068,-0.06425595283508301,0.1432916522026062
1791103692532988200,11.21298828125,-0.21058999001979828,-0.08296572417020798,0.1352536976337433
1791103692542960000,11.222960205078126,-0.23780803382396698,-0.05964681878685951,-0.012348544783890247
1791103692552932400,11.232932373046875,-0.17314301431179047,-0.006311958190053701,-0.10659994930028915
1791103692562904000,11.242904052734374,-0.13024641573429108,-0.019179819151759148,0.08649547398090363
1791103692572876300,11.252876220703126,-0.17317578196525574,-0.007526093162596226,0.15912653505802155
1791103692582848000,11.262847900390625,-0.1486230343580246,0.011745871976017952,-0.15930363535881042
1791103692592820200,11.2728203125,-0.18471312522888184,-0.012812734581530094,0.06548153609037399
1791103692602791200,11.282791259765625,-0.21311813592910767,-0.0584968663752079,0.05582891032099724
1791103692612763100,11.29276318359375,-0.14537610113620758,-0.05390610918402672,-0.07848122715950012
1791103692622735400,11.3027353515625,-0.1506267935037613,-0.1035223975777626,0.07143156975507736
1791103692632707000,11.31270703125,-0.2595047950744629,-0.13966815173625946,0.14640887081623077
1791103692642679300,11.32267919921875,-0.263380765914917,-0.143401637673378,0.08441155403852463
1791103692652651000,11.332651123046874,-0.24452584981918335,-0.11457584798336029,-0.17686425149440765
1791103692662623200,11.342623291015625,-0.21143049001693726,-0.12715955078601837,0.09360265731811523
1791103692672595200,11.35259521484375,-0.1782805174589157,-0.08851628005504608,0.023577498272061348
1791103692682567200,11.362567138671874,-0.12140898406505585,-0.07382495701313019,0.05848701298236847
1791103692692539100,11.3725390625,-0.12493341416120529,-0.06904511153697968,0.07172612100839615
1791103692702511000,11.382510986328125,-0.18195168673992157,-0.0317147858440876,-0.013351758010685444
1791103692712483000,11.392483154296874,-0.1414623260498047,-0.06465595960617065,0.1404585838317871
1791103692722455300,11.402455322265626,-0.15697017312049866,-0.031018901616334915,-0.047562725841999054
1791103692732427000,11.412427001953125,-0.10000356286764145,-0.026850523427128792,-0.13221955299377441
1791103692742399200,11.422399169921874,-0.0363372340798378,-0.06460056453943253,0.04268514737486839
1791103692752370200,11.4323701171875,-0.044924598187208176,-0.005657086614519358,-0.026513366028666496
1791103692762342100,11.442342041015625,-0.07214849442243576,0.06089157983660698,-0.12392514199018478
1791103692772314000,11.452314208984374,-0.033060479909181595,0.007908789440989494,0.009077117778360844
1791103692782286000,11.4622861328125,0.003778493031859398,0.011264372617006302,-0.028303276747465134
1791103692792258300,11.47225830078125,-0.04514537379145622,0.07347794622182846,-0.1144794374704361
1791103692802230000,11.48222998046875,-0.07428541779518127,-0.033970750868320465,0.07795844972133636
1791103692812202200,11.4922021484375,-0.0319957509636879,-0.046429816633462906,-0.03682858869433403
1791103692822174000,11.502174072265625,-0.0071098413318395615,0.004895422607660294,-0.07063023000955582
1791103692832146200,11.512146240234374,-0.04120416194200516,0.01065370999276638,0.037279196083545685
1791103692842118100,11.5221181640625,-0.06366100162267685,-0.027228690683841705,0.15251630544662476
1791103692852090000,11.532090087890625,-0.11522991955280304,-0.003997670952230692,-0.00917139369994402
1791103692862062300,11.542062255859374,-0.07378580421209335,0.016831977292895317,0.003179814200848341
1791103692872034000,11.552033935546875,-0.058822304010391235,-0.04501088336110115,0.09070966392755508
1791103692882006300,11.56200634765625,-0.058402590453624725,-0.03216991946101189,0.03554840758442879
1791103692891978200,11.571978271484374,-0.14126178622245789,-0.06252862513065338,-0.07292667031288147
1791103692901950200,11.5819501953125,-0.15697337687015533,-0.08722518384456635,-0.035351864993572235
1791103692911921200,11.591921142578125,-0.16987478733062744,-0.10237297415733337,0.0633893609046936
1791103692921893000,11.60189306640625,-0.12850843369960785,-0.0789123922586441,-0.1688087284564972
1791103692931865000,11.611864990234375,-0.10779570788145065,-0.046608515083789825,-0.11043756455183029
1791103692941837000,11.621837158203125,-0.12484952062368393,-0.05059286952018738,0.0695258155465126
1791103692951809300,11.631809326171876,-0.09736090898513794,-0.0777328759431839,0.013791445642709732
1791103692961781200,11.64178125,-0.13374102115631104,-0.07819174230098724,0.05019659176468849
1791103692971753200,11.651753173828125,-0.08180192112922668,-0.08874212205410004,0.15631850063800812
1791103692981725200,11.66172509765625,-0.08069884032011032,-0.12217225134372711,0.133445143699646
1791103692991697200,11.671697265625,-0.18495067954063416,-0.09948743879795074,0.04916568100452423
1791103693001669000,11.681669189453125,-0.1677999198436737,-0.06770075112581253,-0.07557598501443863
1791103693011641300,11.691641357421876,-0.10487741231918335,-0.023908529430627823,-0.0303224865347147
1791103693021613000,11.701613037109375,-0.11538651585578918,0.007485879585146904,0.03424638882279396
1791103693031585300,11.711585205078125,-0.05504647269845009,0.037209685891866684,-0.12284310162067413
1791103693041557000,11.721556884765626,-0.03641260415315628,0.03297765552997589,-0.16090047359466553
1791103693051529200,11.731529296875,-0.09583598375320435,0.006166016682982445,-0.13647422194480896
1791103693061500200,11.741500244140624,-0.09202313423156738,-0.04451793432235718,0.1040334552526474
1791103693071472000,11.75147216796875,-0.0739743560552597,-0.008507734164595604,-0.12375230342149734
1791103693081444400,11.7614443359375,-0.11965156346559525,0.00006311691686278209,-0.04480715095996857
1791103693091416000,11.771416015625,-0.1890583336353302,-0.0645718052983284,0.2375292032957077
1791103693101388300,11.78138818359375,-0.16702520847320557,-0.04658028483390808,0.08584033697843552
1791103693111360000,11.791360107421875,-0.10668011009693146,-0.06628873944282532,0.03230307996273041
1791103693121332200,11.801332275390624,-0.20772843062877655,-0.034575819969177246,-0.06446847319602966
1791103693131304200,11.81130419921875,-0.2039928138256073,-0.06818864494562149,0.09526020288467407
1791103693141276200,11.821276123046875,-0.15665112435817719,-0.07399725914001465,0.15840882062911987
1791103693151248100,11.831248046875,-0.07141106575727463,-0.0012000204296782613,-0.19697032868862152
1791103693161220000,11.84122021484375,-0.14021915197372437,0.02990090660750866,-0.0004319647268857807
1791103693171192000,11.851192138671875,-0.2576126158237457,-0.038902126252651215,0.2505142390727997
1791103693181164300,11.861164306640624,-0.21705055236816406,-0.0656445249915123,-0.05253750830888748
1791103693191136000,11.871135986328126,-0.16566886007785797,-0.10540898144245148,-0.21445584297180176
1791103693201108200,11.881108154296875,-0.25390470027923584,-0.12769697606563568,0.21352505683898926
1791103693211079200,11.8910791015625,-0.2688213288784027,-0.11670557409524918,0.0025782061275094748
1791103693221051100,11.901051025390625,-0.2533816695213318,-0.14869627356529236,0.07824846357107162
1791103693231023000,11.911023193359375,-0.23665381968021393,-0.13516074419021606,-0.04791373014450073
1791103693240995000,11.9209951171875,-0.2481890320777893,-0.2138473093509674,0.15378184616565704
1791103693250967300,11.93096728515625,-0.2778153717517853,-0.1687125861644745,-0.07286195456981659
1791103693260939000,11.94093896484375,-0.3233586251735687,-0.21902954578399658,0.09826025366783142
1791103693270911200,11.9509111328125,-0.3165161609649658,-0.18813954293727875,-0.11077392101287842
1791103693280883200,11.96088330078125,-0.2735673487186432,-0.26095089316368103,0.2454603612422943
1791103693290855700,11.970855712890625,-0.2918614149093628,-0.23436270654201508,-0.06269028037786484
1791103693300827400,11.980827392578124,-0.2578214108943939,-0.2644055485725403,-0.028088625520467758
1791103693310799600,11.990799560546876,-0.3763566017150879,-0.18484175205230713,0.03266260400414467
1791103693320771600,12.000771484375,-0.36713218688964844,-0.26881682872772217,0.3308351933956146
1791103693330743600,12.01074365234375,-0.26420873403549194,-0.2417612224817276,-0.20474781095981598
1791103693340715500,12.020715576171876,-0.24522919952869415,-0.20728075504302979,-0.20552732050418854
1791103693350687500,12.0306875,-0.33382564783096313,-0.22077445685863495,0.08564193546772003
1791103693360659700,12.04065966796875,-0.20902219414710999,-0.2378421276807785,0.07108749449253082
1791103693370630400,12.05063037109375,-0.1767617166042328,-0.17868265509605408,-0.06256777048110962
1791103693380602600,12.0606025390625,-0.2514021396636963,-0.1909899264574051,-0.04071866720914841
1791103693390574600,12.07057470703125,-0.3664624094963074,-0.2182207554578781,0.1267922967672348
1791103693400546600,12.080546630859375,-0.25809359550476074,-0.23531025648117065,-0.0496051050722599
1791103693410518500,12.0905185546875,-0.22197315096855164,-0.28313371539115906,0.1370534598827362
1791103693420490500,12.100490478515624,-0.23505538702011108,-0.22428344190120697,-0.1981557011604309
1791103693430462700,12.110462646484375,-0.2856016457080841,-0.2607543468475342,0.2882504463195801
1791103693440434700,12.1204345703125,-0.26816514134407043,-0.2513597905635834,0.01787913218140602
1791103693450406700,12.13040673828125,-0.14308258891105652,-0.30949100852012634,-0.07516239583492279
