time,seconds_elapsed,z,y,x
1791103155752895000,0.04789501953125,-1.3700555965393781,0.45348260341286656,-0.0725456693161279
1791103155762868000,0.057867919921875,-0.27347879522293805,-0.6916670901536941,-0.33853242828324437
1791103155772841000,0.067841064453125,-0.6733283003866672,-0.18677227941155433,-0.053150063972547644
1791103155782814000,0.07781396484375,-1.0181406857222317,-0.44990065327286716,-0.26037527576088904
1791103155792787200,0.087787109375,-1.2472606992587447,0.12235212194919586,-0.2314928436150774
1791103155802760700,0.0977607421875,-0.5348574028074741,0.4770879354059696,-0.24059585873149333
1791103155812733700,0.107733642578125,-1.292939623633027,-0.4737772034227848,-0.026923114771582185
1791103155822706700,0.117706787109375,0.7984913881033658,-1.2843062353223562,-0.31097068681456147
1791103155832679400,0.127679443359375,-1.5484703819721937,0.2676537423312664,0.010388597947545349
1791103155842652700,0.137652587890625,1.737133589696884,0.6611340047240257,-0.33898411757349967
1791103155852625700,0.147625732421875,0.9674801735430956,0.5460217709004879,0.22409882437363265
1791103155862598700,0.1575986328125,2.035254951006174,0.982197850203514,0.9720887633170932
1791103155872571400,0.1675712890625,2.2112968698278066,0.6041928048402071,1.2958870752617715
1791103155882544600,0.177544677734375,0.9644622870266437,1.4880851791143417,1.0934598383396863
1791103155892517600,0.187517578125,-0.7566185780137777,1.0332950002342463,0.41897918958012015
1791103155902490600,0.19749072265625,-1.5000573564589024,0.036758243554830546,0.8142302245050668
1791103155912463600,0.207463623046875,-1.580668770265579,-1.2858698313772678,0.06062054598368704
1791103155922436400,0.217436279296875,-3.1611843957960604,-1.0449947903782129,-0.2606280814781785
1791103155932409600,0.22740966796875,-1.5158148975610732,-1.2892495369434356,0.6228555658645928
1791103155942382600,0.237382568359375,-0.4580506419807672,-0.41835225332081316,-0.2555493899744004
1791103155952355600,0.24735546875,-0.5654544933840632,0.4433043237477541,0.1820781667785719
1791103155962328600,0.25732861328125,1.4383254151672125,-0.7219044075071811,0.45436910392381247
1791103155972301600,0.267301513671875,0.12927052303552627,-0.30324528019428254,0.9189405259754508
1791103155982274600,0.277274658203125,0.5359393528252839,-0.679917615649104,-1.9950972742713986
1791103155992247600,0.28724755859375,-1.268131345590949,0.15449088900983332,-1.0141060964439064
1791103156002220500,0.297220458984375,1.6486597719520328,-0.7713409308493137,-1.6149737754493951
1791103156012193800,0.30719384765625,2.169425521042943,-0.4020592901676893,-1.4189393083043396
1791103156022166500,0.31716650390625,2.528181676056981,0.4550491220772266,-0.9640490300506352
1791103156032139500,0.327139404296875,0.5447314388290048,1.8413813151568172,0.8336394930478185
1791103156042112500,0.337112548828125,1.8577564036354421,0.287393631067872,-0.26313337882999327
1791103156052085800,0.347085693359375,3.0985464455753564,0.3477402554810047,0.8088190861765295
1791103156062058800,0.357058837890625,-1.398273390763998,0.9692214642524719,0.6059151716534048
1791103156072031500,0.367031494140625,-0.7819681233257055,0.0163911628305912,-0.5446023325566202
1791103156082004500,0.37700439453125,-0.00919160671532154,-1.2461872248083352,-0.3537383633846417
1791103156091977500,0.3869775390625,-1.731645221413672,-0.546308771148324,0.3644008463701233
1791103156101949700,0.39694970703125,-2.2993477859854696,-0.7599877621859311,0.05304989153370261
1791103156111922400,0.40692236328125,-1.1153922686845064,-0.28671792376339433,0.3655005877729505
1791103156121895400,0.4168955078125,0.4315919663831591,-0.03415945923328399,0.3227741199960932
1791103156131868700,0.42686865234375,0.7284528062373399,1.1271633704990147,0.6866507232964039
1791103156141841700,0.436841552734375,0.8570002756953239,0.6708265466988086,0.5231390540935099
1791103156151814700,0.446814697265625,-0.18607699062377214,0.8075672594845295,0.32129458549544215
1791103156161787400,0.456787353515625,0.3275400557562709,-0.3468675642997026,0.3079608374740928
1791103156171760600,0.4667607421875,-0.8345581422626972,-0.3802016786247492,0.1032561571393162
1791103156181733600,0.476733642578125,-0.1867033058285713,-2.006889857265353,-0.07821125732976943
1791103156191706600,0.48670654296875,-0.9233625071361661,-1.2841583512842654,0.29396321871653197
1791103156201679400,0.496679443359375,-0.02278904717415571,-0.679181118068099,0.1826008024131879
1791103156211652600,0.506652587890625,0.6470835598006844,0.3841571382522583,0.15558821925986557
1791103156221625600,0.51662548828125,2.5190385846585035,-0.2242056457489729,0.6041134925263002
1791103156231598600,0.5265986328125,-0.07390987034142017,0.4039315137803554,0.4640568235930055
1791103156241571600,0.536571533203125,1.4200000694036483,-1.1249550467997789,0.13375650934316216
1791103156251544600,0.546544677734375,1.1657763020098209,-1.0032195954442025,-0.7618318556826561
1791103156261517600,0.556517578125,-1.0184899375513194,-0.2650514508783817,-0.9366296196620911
1791103156271490600,0.566490478515625,0.7721656912356615,-1.53601889667809,-0.1293333591386676
1791103156281463600,0.576463623046875,-0.21714608262628315,0.06383914270401,0.09426580861713736
1791103156291436800,0.586436767578125,-1.2859247764348982,2.0680261707514522,0.6148646401759237
1791103156301409500,0.596409423828125,0.9811614928930997,0.06443886216282844,1.0614993504554033
1791103156311382500,0.606382568359375,1.0472171426028012,-0.8746142583191394,0.6785689775191247
1791103156321355500,0.61635546875,-1.6434139802530408,1.2661352033376694,0.5514818264046684
1791103156331328500,0.62632861328125,-1.581189287008345,0.570365354040265,0.34678342968020587
1791103156341301800,0.6363017578125,-0.8337696222335099,-0.5158434902578592,0.2614598561272025
1791103156351274500,0.6462744140625,-0.589041705198586,-0.7093973926335573,1.1075764803670347
1791103156361247500,0.65624755859375,-1.972844379800558,-0.693109105655551,1.749671145839244
1791103156371220500,0.666220458984375,0.31340076350569723,-0.4583914182424545,0.9010663580454885
1791103156381193700,0.67619384765625,0.9798103705450892,0.3743558752059936,0.24049944915231317
1791103156391166700,0.686166748046875,1.1743909856200216,0.3034527854651213,-0.1676225385878235
1791103156401139500,0.696139404296875,1.444309165751934,0.3129980279237032,-0.5425578941822051
1791103156411112400,0.706112548828125,1.7975678923934697,0.9642945292443037,-0.8279811019599437
1791103156421085700,0.716085693359375,0.6892384017020463,1.3214099313139915,-0.45999125465452667
1791103156431058700,0.72605859375,1.8828893835872411,-0.2982382656872272,-1.5491948968544602
1791103156441031700,0.73603173828125,0.08502864572703837,-0.34622926639616486,-0.712559436861053
1791103156451004400,0.74600439453125,-0.16409341461360455,-1.0084007974743843,-0.3741693396579474
1791103156460977700,0.755977783203125,-1.2600158436745403,-0.8830541698843241,-0.7177078326001763
1791103156470950700,0.76595068359375,-1.3821809186190366,-1.358238902017474,0.3145873794743791
1791103156480923600,0.775923583984375,-2.3769340067520734,-0.009221417331695556,0.16185380072696134
1791103156490896400,0.785896484375,-0.6017635318666696,-0.44574236454963684,-0.5686859861185773
1791103156500869600,0.79586962890625,1.2115464117988943,-1.3489245457053183,0.08098583660963922
1791103156510842600,0.805842529296875,1.2400327938318252,0.05021978267431259,-0.5091776391604915
1791103156520815600,0.815815673828125,0.6315279710114002,0.17016016730666159,-0.9958638989191502
1791103156530788600,0.82578857421875,0.9993500605344772,0.2768734060972929,-0.6142709120664746
1791103156540761300,0.83576123046875,1.0786144436463714,-0.3285772898495197,-0.45303617481961844
1791103156550734600,0.845734619140625,-0.4515399449124932,0.9093740215331315,-0.8489609808202833
1791103156560707600,0.85570751953125,-0.9300053061515092,0.1948041946977377,-0.21386574578136205
1791103156570680600,0.8656806640625,-1.97127376948297,0.9410662138700485,0.9186943691946565
1791103156580653600,0.875653564453125,-0.895154357522726,-0.427561980214715,0.47891708706188946
1791103156590626600,0.88562646484375,-2.165204688477516,0.25424071852862834,1.6223587711341678
1791103156600598500,0.8955986328125,-1.5663661041468382,0.2961813331574201,0.979706690974906
1791103156610571500,0.905571533203125,-1.2132993929460645,0.7056774953275918,0.4145867633074522
1791103156620544800,0.915544677734375,0.09746522571295499,-0.4054676373064518,1.159032453772798
1791103156630517500,0.925517578125,1.1061731894403695,-0.09707564187347889,0.20661911738766356
1791103156640490500,0.935490478515625,1.16215986507833,-0.026668226695060727,-1.0128465248368679
1791103156650463500,0.94546337890625,1.295705581215024,0.2307698265701532,-0.8489798316512256
1791103156660436700,0.955436767578125,1.2138076347291469,1.2217559633851052,-0.3975730115991086
1791103156670409700,0.96540966796875,1.848517158386111,-0.1890963384449482,-0.9024752749953419
1791103156680382500,0.975382568359375,0.7904436907261609,0.7918120564699173,-0.12594315044479443
1791103156690355500,0.98535546875,-1.3641001952663063,0.9488280800431966,-0.5566451639845967
1791103156700328700,0.99532861328125,-1.2578712328612804,0.20537176594138143,0.21525420446507632
1791103156710301700,1.0053017578125,-1.6784499300599096,-0.464384521177411,0.3584510711202398
1791103156720274700,1.015274658203125,-2.1922300580471754,-0.8929296672105789,0.8007751151263713
1791103156730247400,1.025247314453125,-0.6619476591944694,-1.357632752817869,-0.17092627457464113
1791103156740220700,1.035220703125,-0.4461626357883215,-0.6567208644568919,1.1839710801962762
1791103156750193700,1.045193603515625,1.6880255676567553,-0.5617834036558866,1.0100997103467584
1791103156760166700,1.055166748046875,3.3300586149454117,-1.1551041013479233,0.33237083691358565
1791103156770139600,1.0651396484375,2.002565564325452,0.004843932899832725,0.24674115655347703
1791103156780112400,1.0751123046875,1.286456691354513,0.6978805578410625,-0.6428967756353319
1791103156790085600,1.085085693359375,-0.5098632468044757,0.8275596616774797,-1.273079323387146
1791103156800058600,1.09505859375,-0.6196317815124989,-0.37585517385303974,-1.2221340759824961
1791103156810031000,1.105031005859375,-0.219542914634943,-0.9065455201089382,-1.0537168798856436
1791103156820004400,1.11500439453125,-1.2227233471125363,-0.5527694915950297,-1.5676162503384052
1791103156829977300,1.124977294921875,-0.9730983056858181,-0.9537281270444392,0.8802952996302396
1791103156839950300,1.134950439453125,1.6883870944455266,-1.4749153164178133,0.6029038244755939
1791103156849923000,1.144923095703125,1.4737807594299315,-0.5215653750360012,0.5187532036921009
1791103156859896000,1.15489599609375,1.0888637427210808,0.17383505642712116,0.6034421691359951
1791103156869869300,1.164869384765625,0.6037716568186878,0.12054068861305713,0.28519480584934354
1791103156879842300,1.17484228515625,-0.11135171224623917,0.4744733689934015,0.026934257220104334
1791103156889815000,1.18481494140625,1.3816881666660308,-1.2713748575568198,0.6519099570438266
1791103156899788000,1.1947880859375,-2.9746535239249465,1.1735744085401296,-1.07747024204731
1791103156909761300,1.20476123046875,-1.7748779216796158,0.2746639133542776,-0.8195758233167231
1791103156919734300,1.214734375,0.7487368848532437,-0.8613859434336424,0.13288845780435948
1791103156929707300,1.224707275390625,-0.0581271947979927,0.8047545401513576,0.4863831851588562
1791103156939680000,1.234679931640625,0.6792272952973842,0.2634539525538683,0.28034656210057435
1791103156949653200,1.2446533203125,1.8271178120046854,0.06349485931098461,0.8691963249236345
1791103156959626200,1.254626220703125,0.7456973710268735,1.5104846424490213,0.7226657472684979
1791103156969599200,1.26459912109375,2.4660627812743185,1.0119096823781728,-0.8927407935749739
1791103156979572200,1.274572265625,2.1817186009049414,-0.2714344299137592,-0.9094606038380414
1791103156989545200,1.284545166015625,-0.4516761385127902,0.020178280153870583,-0.9743352270696312
1791103156999518200,1.294518310546875,-0.5506868401020765,-0.4663818324744701,-1.361336575771868
1791103157009491200,1.3044912109375,-1.0006395158231258,-0.484162988358736,-0.3763045981209725
1791103157019464200,1.314464111328125,-1.6912515439659357,0.8778057478368282,0.25231194242313504
1791103157029437200,1.324437255859375,-0.7916741093039512,0.7329974639296531,0.5579336694251745
1791103157039410200,1.33441015625,-0.8201859180390835,0.5688999576628208,0.48175234702043235
1791103157049382100,1.344382080078125,1.170723987545073,-0.18463059120774267,0.663655412960425
1791103157059355100,1.354355224609375,1.0093670121580363,-0.12529402061998843,0.3948121685836464
1791103157069328400,1.364328369140625,0.08281564585268497,-0.27953707234859465,-0.8575456346184015
1791103157079301000,1.374301025390625,0.8227297573029995,-1.0475035583287478,-0.12717493899576365
1791103157089274000,1.384274169921875,-0.30210283216089007,0.003705868780612945,-0.6450336415335536
1791103157099247000,1.3942470703125,-2.405617372661829,1.3821107759922742,-0.5942261220991611
1791103157109220400,1.404220458984375,-0.6610381431341171,-0.28451661432683467,-0.08167823932059108
1791103157119193300,1.414193359375,-1.0017872245535253,-0.8038830180138349,0.8072793824538588
1791103157129166000,1.424166015625,-1.5669418582081793,-0.12991525067985057,0.36786578253433105
1791103157139139000,1.43413916015625,-1.9616285737812518,-0.13210662324428557,0.8691572350222617
1791103157149112300,1.4441123046875,0.1312812783360481,-1.170429096251726,0.5295661645315587
1791103157159085300,1.454085205078125,0.06844897458702326,-0.6816022077351808,0.2680634191107005
1791103157169058300,1.464058349609375,-0.6755512371331452,0.40503859823942184,0.6349211205810308
1791103157179031000,1.474031005859375,0.15134353089481592,-1.5170195971757172,0.4172212034642696
1791103157189004300,1.48400439453125,0.41309272535741326,-1.7141291462063788,0.16336816907897592
1791103157198977300,1.493977294921875,-1.9489333428591489,0.021830723536014555,0.40823995156399906
1791103157208950300,1.5039501953125,-0.8176566918224096,-0.8111755131095647,0.07177855740115047
1791103157218923000,1.513923095703125,0.6331704775214195,-0.3501613451480865,0.5962096971318125
1791103157228896300,1.523896240234375,-0.8936068358197807,1.1307552575111388,0.548176830042526
1791103157238869200,1.533869140625,2.1644483171522615,0.09435761508643627,0.11313194672651589
1791103157248842200,1.54384228515625,1.6281337012737989,0.12998948495984078,1.45132445134148
1791103157258815200,1.553815185546875,1.7376719343572855,0.03944470615983009,0.9649922291848808
1791103157268788200,1.563788330078125,1.5349717257127165,0.7424059282660483,0.031193302904069423
1791103157278761200,1.57376123046875,0.9614929158270359,0.24350889663398265,0.12785751443244517
1791103157288734200,1.583734130859375,0.3409662313014269,0.30996669740378857,0.03840199217386543
1791103157298707200,1.593707275390625,-0.012690847007930278,-0.12063479663729668,-0.03254566736109554
1791103157308680200,1.60368017578125,-1.1879352345868945,1.1425275283694267,0.020834771301224828
1791103157318653200,1.613653076171875,-0.008805822268128394,-0.2519423784583807,0.15985533865243196
1791103157328626200,1.623626220703125,2.1839862535759806,-1.249542964977026,1.178393937651068
1791103157338599200,1.63359912109375,1.3780822511285542,-0.36435002949833867,0.7957211196724325
1791103157348572200,1.643572265625,0.8404583062171935,0.5238701448470354,1.2942723335415125
1791103157358545400,1.65354541015625,1.8435142355322838,-0.6901905878603458,0.840643526590988
1791103157368518100,1.66351806640625,0.8476666301608086,0.4590174411863088,-0.011400003479793667
1791103157378491100,1.6734912109375,0.22555296870470046,0.43016777879893775,-0.3871308203008026
1791103157388464000,1.683464111328125,-0.5676987651795149,-0.2367360414981842,0.18621274583265185
1791103157398437400,1.693437255859375,-1.7912036180585622,0.38253041383326053,-0.1496261325176805
1791103157408410400,1.703410400390625,-0.27544395781606434,-0.8448422203898429,0.49450785676240916
1791103157418383000,1.713383056640625,-0.17639292421638963,-1.270923022136092,0.21792451965287327
1791103157428356000,1.723356201171875,-1.2201307002708315,-0.94669574418962,0.5959666090909391
1791103157438329300,1.733329345703125,-0.35901597499400373,-0.47219198005795476,0.027565540860965847
1791103157448302300,1.74330224609375,0.8505787182152271,-1.198150631392002,0.21315620927251874
1791103157458274000,1.753274169921875,1.5168684982672334,-0.8931944556266069,0.3503279338866472
1791103157468247300,1.763247314453125,-0.2972901711821556,-0.6226572668135166,-0.37712979689873755
1791103157478220300,1.77322021484375,0.3042278614908457,0.05249415734708309,-0.181601671840623
1791103157488193300,1.783193359375,0.7841676791965961,0.5630336959779262,-0.2716064254797995
1791103157498166300,1.793166259765625,0.7357002931475639,0.6342226169228553,-0.597332052225247
1791103157508139000,1.803138916015625,-0.2472621116876602,0.657464960822463,0.18455482255779207
1791103157518112300,1.8131123046875,0.428043041729927,0.17627251270711422,1.2282124460481108
1791103157528085200,1.823085205078125,-0.6920522900789976,-0.16678279982805252,1.0341931181177497
1791103157538058200,1.833058349609375,-1.4122665525421498,0.1900970399200916,2.3389552814915775
1791103157548031000,1.843031005859375,-2.197696799020469,-0.07155892330110072,1.5515306463256477
1791103157558004200,1.853004150390625,-1.6597832235127687,-0.27173896581828594,1.2897485725067555
1791103157567977200,1.862977294921875,-1.5534253740310668,-0.5552303287506103,1.2448761422097683
1791103157577950200,1.8729501953125,-0.23898528172969816,-0.2924935845553875,1.2252308729540555
1791103157587923200,1.882923095703125,0.9608914428025483,-0.46350890738666056,0.5635728443559259
1791103157597896200,1.892896240234375,0.7745791821181773,0.3273778509318828,1.1643349440950899
1791103157607869200,1.902869140625,0.4693342525392771,1.1841624380499123,0.6603560060888528
1791103157617842200,1.91284228515625,0.9071616061806679,1.2777069831877945,-0.15385573291145263
1791103157627815200,1.922815185546875,-0.028453064285218713,1.0710913546651601,-0.31285803493112324
1791103157637788400,1.932788330078125,-0.28433833515048024,0.5664104789346456,-0.7043127097804099
1791103157647761200,1.94276123046875,-0.7882125706732273,0.27961130662858485,-0.4801584288924932
1791103157657734100,1.952734130859375,-0.7986293352693319,-0.8893021243631839,-0.07009345385842025
1791103157667707100,1.96270703125,-1.4755866398081183,-0.11655424932539463,-0.8092635420083999
1791103157677680000,1.97268017578125,-0.9477648347258567,0.21056407388746737,-0.2646303028568625
1791103157687653400,1.9826533203125,0.3217576729625463,0.08686755159199237,0.4870278762705624
1791103157697626000,1.992626220703125,0.8511468734920025,0.24452011950314043,0.7598895625084638
1791103157707599000,2.00259912109375,0.6785837366968392,0.6468062041640281,0.17986914895959197
1791103157717572000,2.012572021484375,1.6812258245140312,-0.44213644901216026,0.16536405560392886
1791103157727545300,2.02254541015625,1.7286922168269752,-1.1600982563734055,-0.909518033113703
1791103157737518300,2.032518310546875,-1.6289733669683337,0.1443921043217182,-1.560012351205945
1791103157747491000,2.042490966796875,-1.4982111440703272,0.24526889204382896,-2.466608432458341
1791103157757464000,2.052464111328125,-1.0367805042624474,-1.2277934899836778,-1.8277590325176716
1791103157767437300,2.062437255859375,-1.4338716506287454,-0.7491963190585375,-0.7269386022821068
1791103157777410300,2.072410400390625,-1.869528382232785,0.10408581289649009,0.7676395921133459
1791103157787383300,2.08238330078125,-0.09310732276439666,-0.531664744246006,1.7109750660896301
1791103157797356000,2.09235595703125,1.9993354963630436,0.24134850372970104,0.859297738982737
1791103157807330000,2.102330078125,1.0213000265359877,0.17347791355252265,1.5517247075930236
1791103157817303300,2.11230322265625,2.686285494866967,0.022185528323054312,0.20990418520662932
1791103157827275000,2.12227490234375,1.287877956329286,0.4879810853421688,0.8345264319501817
1791103157837248000,2.132248046875,1.8572589755073188,-0.7290086865544319,1.1382862375378608
1791103157847221200,2.14222119140625,0.4367655696287751,-0.5589741914540529,1.8465819525398313
1791103157857194200,2.1521943359375,0.049586745467782016,0.04625964687168598,0.5854839761843904
1791103157867167000,2.1621669921875,0.15580547873973846,-0.37626375465393064,1.3812056438460945
1791103157877140000,2.172139892578125,-0.08112170141637325,-0.9797171393036842,1.8223893221780656
1791103157887113200,2.18211328125,-1.9077806637376546,-0.8037304578006267,1.7372002251923084
1791103157897086200,2.192086181640625,-1.2483727521538734,0.03143734079301357,-0.014439151979982853
1791103157907059200,2.20205908203125,-0.5588964500427246,0.981522727420926,0.447577507554926
1791103157917032000,2.212031982421875,0.6507318531751632,0.9095534697532653,0.6939231985174119
1791103157927005000,2.2220048828125,1.9434519888386128,-0.6694324619919061,0.9274377206858248
1791103157936978200,2.231978271484375,0.27005378921031953,-0.008296119180321693,-0.5310196147428825
1791103157946951200,2.241951171875,0.2015314571261406,1.2563982376992702,-2.489842008529603
1791103157956924200,2.251924072265625,0.6206611245602369,0.87045421603024,-3.3363246896028516
1791103157966897000,2.26189697265625,1.0478133549302815,-0.22125147211849688,-2.0815283341422677
1791103157976870100,2.2718701171875,-1.2497738511234522,0.4263338997244835,-1.611353831386566
1791103157986843100,2.281843017578125,0.13202420565783976,-0.6372977865844964,-0.986578841766715
1791103157996816100,2.291816162109375,-0.8798317007064819,-0.48474341859519476,-0.8601015296462923
1791103158006788900,2.301788818359375,-0.15454115789234638,-0.5924591124266386,0.0896910115148872
1791103158016762000,2.31176220703125,-1.485190042194724,-0.6757949827611446,-0.7074990116663277
1791103158026735000,2.321735107421875,-0.09893851313591003,-0.790309250691533,-0.3277050370596349
1791103158036708000,2.3317080078125,0.8618310568526387,-0.6046130760788917,-0.23775968545749782
1791103158046681000,2.34168115234375,0.4150345070749521,-0.1792524053007364,-0.25382347949724643
1791103158056654000,2.351654052734375,1.7104408130824564,-0.2138520095169544,-0.5795449049916118
1791103158066627000,2.361626953125,1.2403382065191864,-0.25132921499609945,-0.19548099798075855
1791103158076600000,2.37160009765625,1.2626280719995497,0.0017348609685897826,-0.5803641854852437
1791103158086573000,2.381572998046875,1.161057456794381,-0.6349322264969348,-0.35740316950250417
1791103158096546000,2.391546142578125,0.7686369325876236,-0.28645313534736633,0.4255840312052518
1791103158106519000,2.40151904296875,0.8969944324314594,-0.6600894641071557,-0.4630522496603429
1791103158116492000,2.411491943359375,-0.3827829272896051,-0.04622223747074604,0.4921420044139027
1791103158126465000,2.421465087890625,0.6445908662021159,0.12317688233554362,0.10632420294042676
1791103158136438000,2.43143798828125,-0.7059335159152745,0.5151747972160577,-0.18551468056589365
1791103158146411300,2.441411376953125,-0.8733110667660832,0.13294365859031676,0.4817784313097596
1791103158156384000,2.451384033203125,0.7600351084589958,-0.8042237942755222,-0.3411942679036408
1791103158166356000,2.46135595703125,-1.3827949588641524,-0.36455695024728774,-0.96930885027498
1791103158176329200,2.4713291015625,-0.7403785140916704,-0.13129822947084904,-0.720872287980467
1791103158186302200,2.48130224609375,-1.5313988356620072,0.766849464648962,-1.4551991008177398
1791103158196275000,2.49127490234375,0.06218845288753509,0.5487006347209215,-1.3048665005311368
1791103158206248000,2.501248046875,0.46030485064834353,0.38576165083944797,-1.3599785852916537
1791103158216221200,2.51122119140625,-0.37069910626411434,0.5005459678828716,-0.6236748463582247
1791103158226194200,2.521194091796875,-0.10893149936199188,-0.4952192199021578,-0.5095004779066891
1791103158236167200,2.531167236328125,0.30668431473225355,-0.2660667654007673,0.7771822042234241
1791103158246140000,2.541139892578125,0.30107378137409685,-0.1869435443252325,-0.4850196051880717
1791103158256113200,2.551113037109375,-2.043044874230027,0.7928104198575019,0.6182286367163061
1791103158266086100,2.561086181640625,0.18362579807937143,-0.8317436693638562,0.0992575890224427
1791103158276059100,2.57105908203125,1.0933636844888328,-1.4854332033008335,0.28382256764806807
1791103158286032100,2.5810322265625,-0.4766220714598894,0.39824528483748434,0.41059064287599173
1791103158296005000,2.591005126953125,-1.3307605279833077,1.0124772531330586,1.0430698867302388
1791103158305978000,2.60097802734375,1.1172568935126066,-0.005328501546382904,-0.1198667348742485
1791103158315951000,2.610951171875,0.21877222252339124,0.33801731836795806,0.2073224981503561
1791103158325924000,2.620924072265625,0.11646920139044523,0.4720364972352981,0.7492781521230936
1791103158335897000,2.63089697265625,0.4268275284603238,0.04746083935499191,0.25681824086643756
1791103158345870000,2.6408701171875,0.9422770509645342,0.22436112857162951,0.7302005266875028
1791103158355843000,2.650843017578125,0.7405074011683463,0.289680280700326,0.22357406984716652
1791103158365816000,2.660816162109375,0.4284755879282951,-0.06434767674803733,0.3729805682647973
1791103158375789000,2.6707890625,0.42443128097355365,0.18765841459631918,0.9832542273886501
1791103158385762000,2.680761962890625,0.11028174492716789,-0.1019330187767744,0.13000767820365727
1791103158395735000,2.690735107421875,-0.06667407386898994,-0.5761643957078456,-0.8282631337717175
1791103158405708000,2.7007080078125,-0.9719818688765167,-0.20718553736507891,0.24205394858531654
1791103158415681000,2.710680908203125,-0.3942150064080953,-0.3935802156358957,-0.5642781065484509
1791103158425654300,2.720654296875,-0.6507455894395708,0.15956220092475412,-0.21953100500144063
1791103158435627000,2.730626953125,0.15966273868978023,-0.09195289203226566,0.7139234917558729
1791103158445600000,2.74060009765625,0.8487468266129493,-0.5325847817003727,-0.2198892438545823
1791103158455573000,2.750572998046875,3.333488589394092,1.1582792242527007,-0.46272904558796435
1791103158465546200,2.760546142578125,-1.544567821575701,1.2652139968395233,-1.1131475584976374
1791103158475519200,2.770519287109375,-2.1764479670256374,-0.6587678601145744,0.22641101030614225
1791103158485491000,2.780490966796875,1.0269196199834345,-1.556677653825283,0.03682509824596345
1791103158495464200,2.790464111328125,-0.21023118867129087,-1.1206705013483762,0.1300679935561493
1791103158505437200,2.800437255859375,-1.2616717941880224,0.15441665472984312,-0.05758651205003261
1791103158515410200,2.81041015625,2.2307684630170463,-0.6650877107858657,-0.4888207875693217
1791103158525383000,2.8203828125,-0.3397311365485191,0.9637719666749238,-0.48743331526629624
1791103158535356200,2.830356201171875,-0.9554799391478299,-0.3104740624040365,-0.20403156684618443
1791103158545329200,2.8403291015625,-0.6554337472558022,-1.0881944651573896,0.10281352793835102
1791103158555302100,2.85030224609375,-2.7179361861497164,-0.48618894122838974,0.3289156184257939
1791103158565275100,2.860275146484375,-1.0731304592773319,-2.2200293345987796,0.11308803451955318
1791103158575248100,2.870248046875,0.7194757190555333,-1.6944541393995285,0.28309008865505453
1791103158585221000,2.88022119140625,-1.1242770014077423,0.6678402243643998,0.43710448272693897
1791103158595194000,2.890194091796875,2.1074860744804145,-0.12190087105035781,0.08729651759378612
1791103158605167000,2.9001669921875,2.0557845288157464,0.5547977825522422,0.28324400057513266
1791103158615140000,2.91014013671875,0.9803028302371501,1.0884352881759405,2.1388541494295
1791103158625113000,2.920113037109375,1.1609200941503046,-0.30455110209584235,1.8050971188545226
1791103158635086000,2.930086181640625,0.9538777646481991,-0.3769938224941492,2.1905605173997578
1791103158645059000,2.94005908203125,1.039979592564702,0.3744277713984251,2.021883428257704
1791103158655032000,2.950031982421875,-0.11971972761899233,0.66481883071661,2.4531851795226336
1791103158665005000,2.960005126953125,0.7109592351227998,-0.21532792728841305,1.8353415966011584
1791103158674978000,2.96997802734375,0.2104097601085901,-0.14149579835832118,2.1779808756813406
1791103158684951000,2.979950927734375,-1.3902923288822173,0.948213747537136,1.703236434661597
1791103158694924000,2.989924072265625,-0.3195926038831472,-0.17882511979937551,1.5977875167183577
1791103158704897300,2.999897216796875,-0.6094856505513191,-0.19575638085603714,1.2799151607565582
1791103158714870000,3.0098701171875,-0.20016893660128116,-0.4202461042433977,0.5856573234573006
1791103158724843000,3.019843017578125,-0.4638946918338537,0.36559330755770203,1.0163976414471865
1791103158734816000,3.02981591796875,1.8847402721509336,-1.8563328005731106,0.7348546361036599
1791103158744789200,3.039789306640625,1.4729448931276798,-0.6578326250910759,0.3848953163336962
1791103158754762200,3.04976220703125,-0.06486351731568575,0.8180471524447203,-0.8104207492195069
1791103158764735000,3.05973486328125,0.028351065215468405,1.508929814222455,-1.428983147934824
1791103158774708000,3.0697080078125,-0.3866512931555509,1.285419749522209,-2.311705309385806
1791103158784681000,3.079680908203125,-0.3032207302749157,0.06476327181160449,-1.4033438258960842
1791103158794653200,3.089653076171875,0.14467384387254714,-2.0255483805060384,-1.5162395527139305
1791103158804625700,3.099625732421875,-1.193312835972011,-2.27672503528893,0.21440781676881013
1791103158814599000,3.109598876953125,-0.9408958257392048,-1.1215069521725176,0.20926913870610295
1791103158824571600,3.119571533203125,-1.5762059456378221,0.3279565276026726,0.0911700710915029
1791103158834544600,3.129544677734375,-0.26438334235846994,0.30082945122420784,-0.011166925376281141
1791103158844517600,3.139517578125,-0.1966223500356078,0.37267245216369627,-0.9795493084561079
1791103158854491000,3.149490966796875,-0.8116688495844602,0.8840671463191508,-1.234305940617621
1791103158864464000,3.1594638671875,0.30275603537261486,-0.6460480792731046,-3.1715722265586255
1791103158874436600,3.1694365234375,0.09434124847352504,0.2701730316758156,-2.0230434119477865
1791103158884409600,3.17940966796875,0.8090557444766163,0.3119213386029005,-0.9883735431637615
1791103158894382600,3.189382568359375,0.5176625223785638,0.19321897133290766,-0.5817747098702937
1791103158904355800,3.19935595703125,2.68422856233716,-0.8651058407396077,0.9121958009555935
1791103158914328800,3.209328857421875,-3.307477949824929,3.3178765942424535,0.38366087916791436
1791103158924301600,3.219301513671875,-3.5391464788004754,1.3025637765467166,-0.20152181251496076
1791103158934274600,3.229274658203125,-2.1678590023785826,-2.0644015505135056,2.7045021195590495
1791103158944247800,3.239247802734375,-3.8186978719353672,-1.3955021724849939,0.8138334802724421
1791103158954220800,3.249220703125,-3.6707132960796356,0.1603086353778839,0.2756325391907245
1791103158964193800,3.25919384765625,0.18768880973458288,-0.9227186562746763,1.050027012391761
1791103158974166500,3.26916650390625,1.1347674157619476,0.16310323453247547,2.6374752867296336
1791103158984139800,3.279139892578125,4.4087963927105065,0.28587679676413535,3.51586321836859
1791103158994112800,3.28911279296875,5.011697696435451,0.8014759568721056,2.6704206939980386
1791103159004085800,3.299085693359375,6.763060302492976,0.3477385019153356,2.040323632572591
1791103159014058500,3.30905859375,-0.45630701318383216,2.3999738138169047,1.253034021963179
1791103159024031700,3.31903173828125,-3.5951653031423687,1.438676712822914,0.5362821749135852
1791103159034004700,3.329004638671875,2.570674079349637,-3.396367947155237,-0.8034864929769188
1791103159043977700,3.338977783203125,-2.3052824367314577,0.07763035216927527,-2.416029168821871
1791103159053950700,3.34895068359375,-2.131761560820043,-0.6242874983638524,-1.1564821117028594
1791103159063923700,3.358923828125,0.8823588810965418,-2.4760505068033933,-0.264251313476637
1791103159073896700,3.368896728515625,-2.523787240490317,0.4026046490907669,0.3763229374952614
1791103159083868700,3.37886865234375,1.3019368768200277,0.3806488378703594,0.36178872764296827
1791103159093841700,3.388841552734375,4.259289137332141,-0.7921680303007363,0.8356015869010239
1791103159103814700,3.398814697265625,3.0816248291298747,0.3589385258436203,0.7717352639291435
1791103159113787600,3.40878759765625,0.977481343075633,-0.5767343045502901,0.8294670296687632
1791103159123760600,3.4187607421875,1.6543781495988368,-1.1056155555576086,2.014094381816685
1791103159133733600,3.428733642578125,-0.25568741020560265,0.9374094449281692,-0.2550024966813624
1791103159143707000,3.438706787109375,0.30785481981635093,0.21383681194782256,-0.8328149518571794
1791103159153679600,3.4486796875,0.09837912568747997,-0.06077683252394199,-0.8053900615759193
1791103159163652600,3.458652587890625,-0.9653992756158113,0.48424832855463024,-0.8687760536849498
1791103159173625600,3.46862548828125,-1.6311021956905722,-0.9646844053447245,-1.1952700344543903
1791103159183598800,3.478598876953125,0.40935266204625365,-2.139483971765637,-1.9462059637218712
1791103159193571800,3.48857177734375,-1.1396180706635117,-1.2247235810190438,-1.4833921989925205
1791103159203544600,3.498544677734375,-0.9818383692413568,-1.389307994019985,-2.2052279251776636
1791103159213517600,3.508517578125,-1.2256769362211226,-0.7754401828616857,-0.7482546542942523
1791103159223490800,3.51849072265625,-1.0820675067096948,0.624265871053934,-0.2595407976981252
1791103159233463800,3.5284638671875,-0.41346857293248174,0.6759756000250577,-0.78531896812357
1791103159243436800,3.538436767578125,0.30781887172013517,-0.261098913860321,0.13469137904047965
1791103159253409500,3.548409423828125,0.28856501293480397,0.1746644929885864,0.706122535681352
1791103159263382800,3.5583828125,-0.6654904463678598,0.4717530041188001,0.6053653557509183
1791103159273355800,3.568355712890625,0.028519992041587828,0.46567573003172874,0.9576313450280577
1791103159283328800,3.578328857421875,-0.6612941637217998,0.45632454884052276,0.879062031508237
1791103159293301800,3.5883017578125,-1.078115554213524,0.5200742596954107,0.5941291645307093
1791103159303274800,3.598274658203125,-0.7890835082888603,0.365973831307888,1.4214087671577929
1791103159313247700,3.608247802734375,-0.3337836263209581,-0.23657588250041006,1.4399632455021143
1791103159323220700,3.618220703125,0.20549071614593267,-0.226518014344573,0.45927492307871576
1791103159333193700,3.62819384765625,-0.21922522698789834,1.279707217094302,1.287639471398294
1791103159343166500,3.63816650390625,-0.15884206995666025,1.4196867656707763,1.1570575735032558
1791103159353139700,3.6481396484375,0.49374593247920273,0.7954694099336862,0.7583416754793375
1791103159363111700,3.658111572265625,1.5073770318225026,-0.05997603753507137,0.8478610567543655
1791103159373084700,3.668084716796875,0.09778466692566871,-0.03743044372797012,1.415115804493427
1791103159383057700,3.6780576171875,0.7845856123477221,-0.057473114803433416,1.4545897367477416
1791103159393030700,3.68803076171875,0.8945908784210681,0.03400105380117893,1.0897319038577378
1791103159403003600,3.698003662109375,-1.3110638938665389,1.0687439147561788,0.5883665824159979
1791103159412976600,3.7079765625,-1.1512985715851187,0.49994624842405316,0.33595812081582843
1791103159422950000,3.717949951171875,-0.28336832107454535,-0.37782910427451133,-0.043549657260626554
1791103159432922600,3.727922607421875,-0.7201043723478913,-1.4483704238414763,-1.0490233883071691
1791103159442895600,3.7378955078125,0.12271101838946341,-1.93145613835752,-0.919193258627504
1791103159452868600,3.74786865234375,-2.0335937397956845,-0.4509685747653246,-0.9691250912059098
1791103159462841900,3.757841796875,0.7979284935235976,0.15163666862249373,-1.5912749199539422
1791103159472814800,3.76781494140625,-1.3212719841480254,0.6638099459350109,-1.0173255699470638
1791103159482787600,3.77778759765625,1.127940784612298,-1.0987585292696953,0.2480938498040661
1791103159492760600,3.787760498046875,0.4098141420781612,0.04405950647890568,-0.00907671163138002
1791103159502733800,3.79773388671875,1.548484702758491,-0.5482634123474359,-0.042392705777846276
1791103159512706800,3.807706787109375,1.622517907218635,-0.25879063691794874,-0.4490526581414044
1791103159522679800,3.8176796875,0.9851233822613954,0.31072014611959453,-0.5145757718769833
1791103159532652500,3.827652587890625,0.42222178823053835,-0.34987551394402977,-0.2138514249950647
1791103159542625800,3.837625732421875,-0.005601181007921696,-0.08398761224150657,0.26475864194426685
1791103159552598800,3.847598876953125,-1.4628110371261833,0.03965630308389664,1.1256441250424831
1791103159562571800,3.85757177734375,-0.17979893326759339,-0.7643412812203169,1.543574865015596
1791103159572544800,3.867544677734375,-1.1581880388379096,0.1051747771769762,0.7913507956337184
1791103159582517500,3.877517578125,-0.013197335225343703,-0.06979425171613693,0.9480392677530646
1791103159592490800,3.88749072265625,-0.49643385638892645,0.6906511911094189,-0.42108427210059013
1791103159602463700,3.897463623046875,0.6651388564512133,0.18840835618078708,-0.26256204521544274
1791103159612436700,3.907436767578125,0.43891807148754597,-0.10116144988238811,-0.0568741990622133
1791103159622409700,3.91740966796875,0.2095861687660217,-0.4812842180520296,0.9531969427771866
1791103159632382700,3.9273828125,0.538535506798327,-0.02712298472523689,0.06889792393092066
1791103159642354700,3.937354736328125,-0.899283420151472,1.2135516141414642,0.8282024896256626
1791103159652327700,3.94732763671875,0.7870183924525975,1.0325830525726079,0.04327478584200144
1791103159662301000,3.957301025390625,1.5111515819251538,0.7698924856066703,-0.4274318144964054
1791103159672273700,3.967273681640625,0.1571574778705835,0.16364450180232523,0.8912212558574975
1791103159682246700,3.97724658203125,-0.16448329071402548,-0.24036007721424102,1.1274880724087357
1791103159692219600,3.9872197265625,-0.1266419280976057,-0.010357143363356589,0.36563988664578645
1791103159702193000,3.99719287109375,-1.6013789653390644,-0.2920271360874176,-0.5197110889388248
1791103159712165600,4.00716552734375,-0.9993471379250287,-1.1649550487548113,-1.5993166259817777
1791103159722138600,4.017138671875,-1.3050813123255967,-0.6675479634195566,-0.990162399341911
1791103159732111600,4.027111572265625,-2.021343914553523,0.8511001117408276,0.7290342593871056
1791103159742084900,4.0370849609375,2.3687249813333153,-2.5556577120035886,-0.26993520433194934
1791103159752057900,4.047057861328125,0.23867110121399163,-0.06789923174977303,0.412679870240204
1791103159762030600,4.057030517578125,0.2658946237042546,-0.3843827637016773,1.0395473386272787
1791103159772003600,4.067003662109375,1.7398869800582528,-0.3339747649788856,-0.3291875307023525
1791103159781976600,4.0769765625,0.3913362361013889,0.163441672706604,-1.1157277842491864
1791103159791949800,4.08694970703125,0.005399228695034981,0.4973924722880125,-0.5486728333985432
1791103159801922800,4.0969228515625,0.7576981899440288,-0.731779904833436,-0.03981792338639498
1791103159811896000,4.10689599609375,-0.3644973290145397,-1.120375902315974,0.4382220155147835
1791103159821868800,4.116868896484375,-1.0068003765404223,-0.646901481232047,1.3456490311659872
1791103159831842000,4.126842041015625,-0.9880334244892001,-0.4138520192921161,1.2197910930529237
1791103159841815000,4.13681494140625,-1.2383163453027606,0.4927285721302032,0.17561927296277136
1791103159851788000,4.1467880859375,0.007945698307454585,-0.04360357940495014,0.021060835142061113
1791103159861761000,4.156760986328125,0.8183394133895635,-0.7501946824461221,-0.39351511451043186
1791103159871734000,4.166734130859375,1.9122832358539104,-1.0912351480275393,-2.2804436174206435
1791103159881707000,4.17670703125,0.9913064548105001,0.9958850147724151,-0.864196543874964
1791103159891680000,4.186679931640625,1.953590228754282,0.3737356974810362,0.38304786183610556
1791103159901652200,4.19665234375,2.739300461217761,0.49702246993184085,-1.1543068134903907
1791103159911625000,4.206625,0.5930553247541189,1.4815198292493819,-1.6311116941712795
1791103159921598000,4.216597900390625,-1.6499033422723413,2.07752348241508,1.0403658884685485
1791103159931571000,4.226571044921875,0.9366033892422914,-0.915012904202938,-0.9619806993439793
1791103159941544000,4.2365439453125,-2.4459733484476804,0.18218378257751464,-1.7516113201215862
1791103159951517200,4.24651708984375,-5.36036266554594,1.1568255183130502,-1.0352667386986314
1791103159961490000,4.256489990234375,-2.7735815010040996,-0.8776654625833034,-0.8351249823652207
1791103159971463000,4.266462890625,-1.0412971049040556,-1.9190268648952244,-1.736641130004823
1791103159981436000,4.276435791015625,-2.145245896293223,-0.560169538718462,2.088623260839283
1791103159991409200,4.2864091796875,1.140406298431754,-0.23022329860329627,1.4514952778637409
1791103160001382100,4.296382080078125,2.438570086453855,0.22600597316920756,0.709440939514339
1791103160011355000,4.30635498046875,0.6569087882444262,2.5052649108499288,0.9112181150298565
1791103160021328000,4.316327880859375,0.8195803533613681,0.9557809679210185,1.001778822051361
1791103160031301000,4.326301025390625,0.7217635377317667,0.3304015826672315,-0.47058045320808883
1791103160041274000,4.336274169921875,-2.580205877804756,1.441681155335903,1.5603212710246444
1791103160051246800,4.346246826171875,-3.044673985612392,1.0108289014041423,2.6257465627521275
1791103160061219800,4.3562197265625,-1.1683455679759382,-1.6092828703314066,2.8186761957496405
1791103160071193000,4.366193115234375,-0.9209504775583743,-1.3650789771705865,2.161333838393539
1791103160081166000,4.376166015625,-1.1966069090813398,0.4847603697299957,2.151499842121452
1791103160091139000,4.38613916015625,2.2419074044078586,-0.5043336697280406,0.8646873230665921
1791103160101111800,4.39611181640625,1.4332488425552845,0.42435295504033566,0.7774759995382279
1791103160111085000,4.4060849609375,0.07956511962413787,0.49811669490933413,0.8862528197951615
1791103160121058000,4.41605810546875,-0.12604074733406304,-1.1444155340731144,1.4887702387690542
1791103160131031000,4.426031005859375,-0.9771835291728377,0.04207447014153003,0.2228097709437832
1791103160141004000,4.436004150390625,-0.5596206726640462,0.3022919249922037,-0.3872606937581673
1791103160150977000,4.44597705078125,0.7942515585765242,0.5003209269553422,-0.35991518885605034
1791103160160950000,4.455949951171875,2.045447551457584,1.8163894972413777,-1.9798107116818426
1791103160170922000,4.465921875,1.8543840045928954,1.20692021330297,-2.447712008808553
1791103160180895000,4.47589501953125,1.9589695837050676,-0.3818085292994976,-1.230510347726941
1791103160190868000,4.485867919921875,0.917349822717905,0.0027647885382175445,-0.9969701796606183
1791103160200841000,4.495841064453125,-0.2942421817883849,-0.9741291100382804,-0.38079281291831285
1791103160210814000,4.50581396484375,-1.5045400548309087,-1.2489274634271859,-0.17492416683807968
1791103160220787000,4.515786865234375,-1.6403063696265219,-1.2545938186258077,-0.7891117114700377
1791103160230760200,4.52576025390625,-2.088972804929316,-0.6672486882120371,-1.6339304048538208
1791103160240733000,4.53573291015625,0.10398965904563665,-0.2825906147003174,-1.5512310788571833
1791103160250706000,4.545705810546875,0.6850701761066913,0.4614274249374866,-1.7130840210676193
1791103160260679000,4.555678955078125,0.46885172971934075,1.1177262645900248,-1.2578081044971943
1791103160270652200,4.565652099609375,1.2755921829909085,-0.05079144508242607,-0.18408037344645709
1791103160280625200,4.575625244140625,1.5118582688897848,-0.33747429753243924,-0.13635624351277947
1791103160290598000,4.585597900390625,-0.5131628728717565,-0.238373871833086,0.44167836651373654
1791103160300571000,4.59557080078125,-0.7159063361361623,-0.5760749638587236,0.8713550373274832
1791103160310544100,4.605544189453125,-0.43991935748457905,-0.857923235759139,0.4198879384554922
1791103160320517000,4.61551708984375,-0.6939943640574813,-0.3079156100928783,0.46118919573482126
1791103160330490000,4.625489990234375,-0.852259218648076,0.03767302031219005,1.032111051146686
1791103160340462800,4.635462890625,-0.884094911108911,0.23186989676654338,-0.05046323604136705
1791103160350436000,4.64543603515625,-0.7037891973629593,0.6420593018978834,0.5918764537004754
1791103160360409000,4.6554091796875,0.6542874998301267,0.3265057442724705,0.5686664046352728
1791103160370382000,4.665382080078125,0.044804187366366384,-0.6121645143717527,0.7225071957059204
1791103160380354800,4.675354736328125,1.0471358940601347,-1.0130413167566061,-0.16981405728273094
1791103160390327800,4.685327880859375,0.16658523142933845,-0.18978548975288867,0.19612309527657926
1791103160400301000,4.695301025390625,0.520924154523015,-0.5874503443539142,-0.23055318814478815
1791103160410274000,4.705274169921875,-0.544104246841371,1.0575818847507237,-0.9966250194847583
1791103160420247000,4.7152470703125,-1.616872594808042,2.534752286618948,-0.4346747713619843
1791103160430219800,4.7252197265625,0.17990005555450916,0.8960165273100137,-0.42409112576637414
1791103160440193000,4.735193115234375,-1.5545540858000515,1.1467290717124938,-0.16903090754840522
1791103160450165000,4.7451650390625,-2.1978321158379317,1.7978244975030422,0.06596921353526414
1791103160460138000,4.755137939453125,-0.4981745625764131,0.44460313138663765,-0.6253237095437943
1791103160470111000,4.765111083984375,0.8084569018006325,-0.5437772068440914,0.15634477324821053
1791103160480084000,4.775083984375,0.805839120517671,-0.5418097061634063,0.14277126165423543
1791103160490057000,4.785056884765625,-0.5116460385680198,-0.7030448087364435,0.09450226598782464
1791103160500030000,4.795030029296875,0.029859131690859794,-0.38013679669499395,0.4985176769256591
1791103160510003200,4.805003173828125,-0.824084679043293,0.4440045809715986,0.058513070576731115
1791103160519976000,4.814975830078125,0.4890878775402903,-0.49016485912203783,-0.7232439855478704
1791103160529949000,4.824948974609375,-0.6879866480752825,-0.4819979192793369,-0.7566461236078291
1791103160539922000,4.834921875,-0.7182540683060884,-0.022428104907274246,-0.2847422215099446
1791103160549895200,4.844895263671875,-0.02146276700645685,-0.5033849907010793,-0.7410112590372562
1791103160559868200,4.8548681640625,0.5476046561777591,-0.5536065269410609,-0.15299374578725547
1791103160569841000,4.8648408203125,0.7104717438668012,-0.2623030289530754,0.7091418104372919
1791103160579814000,4.87481396484375,2.6828330163255334,0.2552922734081745,0.4007724286949262
1791103160589787000,4.884786865234375,4.439359581017494,0.07785363953113555,0.5007818955305964
1791103160599760100,4.894760009765625,3.902687530003488,0.42985038341283793,0.36951303828470405
1791103160609733000,4.904733154296875,-0.6680626349434257,1.160397531580925,0.6345080097354948
1791103160619705900,4.914705810546875,-2.373199496398866,-0.47076165499389167,0.015041099928505717
1791103160629678800,4.924678955078125,-2.8141210166633126,-1.3054372861564159,-0.3548917346708476
1791103160639652000,4.934652099609375,-3.844263982607424,-1.3062562013238668,-0.8123158422511071
1791103160649625000,4.944625,-2.5924849291414023,-1.8240818053096532,-0.7175124561585485
1791103160659598000,4.95459814453125,-1.7413930007070302,-0.589927548122406,0.19273595532262697
1791103160669570800,4.96457080078125,-0.4282169369921088,0.15559738894701003,-0.5463328826762736
1791103160679544000,4.9745439453125,3.342885363292694,0.850205793249607,0.753053140617162
1791103160689517000,4.98451708984375,3.870824949535727,0.6709557260364294,1.1844072065912186
1791103160699490000,4.994489990234375,2.787687183246016,0.7852882076591253,1.4186787576720117
1791103160709462000,5.0044619140625,2.0317080721795557,-0.14386720366477965,0.6826673527486622
1791103160719435000,5.01443505859375,1.762382012721896,0.6262865632265806,-0.10432219720194115
1791103160729408000,5.024407958984375,0.7461971372425555,0.9197527922064065,-1.1304176961198449
1791103160739381000,5.034381103515625,1.3119798396676778,1.140721355730295,-1.545345527949929
1791103160749354000,5.04435400390625,-0.25124124445170165,1.066128763821721,-0.33444870263356713
1791103160759327000,5.054326904296875,-2.5976521026462316,-0.9326765711873769,0.06696041652970015
1791103160769300000,5.064300048828125,-5.693980872172117,-2.153380395171046,0.7180940554387867
1791103160779273000,5.07427294921875,-4.393527219647169,-2.3100550579607484,-0.7927814129587263
1791103160789246200,5.08424609375,-2.2013322329133747,-1.7417828768074513,-1.884328622610122
1791103160799219000,5.094218994140625,1.6667174066901207,-1.8741677324712276,-0.9709447809137404
1791103160809191000,5.10419091796875,2.162375602531433,0.954364671382308,0.2697718852627091
1791103160819164200,5.1141640625,6.935944926327466,0.5776075802534818,-0.7169658551264554
1791103160829137000,5.124136962890625,8.28734258414805,-0.021622049221396444,0.9255212926052511
1791103160839110000,5.13410986328125,0.9579664952665566,4.472926335054636,2.682404561780393
1791103160849083000,5.144082763671875,0.7651186953336,1.7525439247965813,1.7352578589528798
1791103160859055900,5.154055908203125,9.785019767472148,1.4166712172418832,1.1724875631514935
1791103160869029000,5.164029052734375,8.543981011468171,3.5374732848912473,0.7015992861032485
1791103160879001900,5.174001953125,-19.674819759845732,6.683514472091198,1.306636871204525
1791103160888974800,5.183974853515625,-6.812695563277602,-11.123792921519279,2.8764982701212167
1791103160898947800,5.19394775390625,-0.20672581089884043,-10.46633672852516,2.759399538655579
1791103160908921000,5.203921142578125,-9.12476371462643,0.22930501471459863,-1.0336668292213231
1791103160918894000,5.21389404296875,-4.155443270671367,1.9730173982799053,-2.1661672498993574
1791103160928866800,5.22386669921875,5.790703462824225,-0.17864508705735205,3.3661674546808
1791103160938839800,5.23383984375,1.2791826086983085,3.8898844547927376,2.7134242616832256
1791103160948813000,5.24381298828125,6.88737349538207,1.575001246023178,1.2057685590498148
1791103160958786000,5.2537861328125,1.5250044584497808,2.9780922662019726,2.3350261253491045
1791103160968757800,5.2637578125,0.8002034527182579,-0.13247078038156032,0.3194464734107256
1791103160978731000,5.27373095703125,-11.743610580992698,0.36652152831852436,-1.1442822630822658
1791103160988704000,5.2837041015625,-8.800064142993092,-3.2046108650684353,0.1755223153943196
1791103160998677000,5.293677001953125,3.2870886572688818,-4.191845540395379,-0.4089464193329215
1791103161008650000,5.30364990234375,-5.293898435035348,2.300617367529869,-4.4000791255086655
1791103161018623000,5.313623046875,-2.8435931948632,0.19185528176426886,-3.498256542268395
1791103161028596000,5.323595947265625,5.088211611795425,-4.169081335401534,-0.39380105531234294
1791103161038569000,5.33356884765625,2.58661399128139,-1.0814923371702432,-3.514327387103438
1791103161048542000,5.3435419921875,4.5022664113074535,0.7009931369036436,-1.6539251451343298
1791103161058515000,5.353514892578125,0.5075812733471393,2.0616139656215906,1.7176609735943376
1791103161068488000,5.363488037109375,-2.438573301324248,2.3472803345054385,1.5910954717338084
1791103161078461000,5.3734609375,-1.5146166276872157,2.4287404740959406,2.4554735827207566
1791103161088434000,5.383433837890625,0.6853899095803498,0.4182786035627126,0.4028005369890481
1791103161098407000,5.393406982421875,0.45659342890977855,0.9021727118521928,0.3947251478873193
1791103161108380000,5.4033798828125,1.5239347833916543,0.19079671262204645,0.30807280994858594
1791103161118353000,5.413352783203125,-4.216735651502013,3.718885498574376,-0.3299275719473138
1791103161128326000,5.423325927734375,-2.0759984648048877,4.066075718957186,0.40174445206485687
1791103161138299000,5.433298828125,7.716410243874788,-6.828724907058477,-0.19908256613668054
1791103161148272000,5.443272216796875,7.7089646040439606,-6.824725608289241,-0.19844686204902826
1791103161158244900,5.453244873046875,2.295650685033202,-5.749598129975795,1.8767967658005653
1791103161168217900,5.4632177734375,-1.5143676213622093,-1.2219523627400397,2.3725384021416307
1791103161178190800,5.47319091796875,-1.9508254402160643,2.3324422463357446,1.6677181081652641
1791103161188164000,5.4831640625,-3.013444734612107,6.399282519924641,1.3758268734171986
1791103161198137000,5.49313720703125,1.8184964063927531,0.06875321823060512,1.0669503093376755
1791103161208109800,5.50310986328125,-0.0035550621330738066,-0.857747879192233,-0.28997480666749176
1791103161218082000,5.51308203125,-4.839986208033562,3.02091843149364,-1.1376256547372787
1791103161228055000,5.523054931640625,-0.16862930447757243,0.07676584429442881,-0.1423249426588416
1791103161238028000,5.533028076171875,7.052279395422339,-5.059501065617799,0.7997833276100457
1791103161248000800,5.543000732421875,5.5337762816905975,-5.75212443358302,0.6846532658688723
1791103161257974000,5.55297412109375,0.36658114955127236,-1.3047919739902019,0.6694807581130415
1791103161267947000,5.562947021484375,3.2828844835773108,-2.7428356496065853,0.06353212258145213
1791103161277920000,5.572919921875,0.3295131093949079,0.5249801519155503,0.9169664494235068
1791103161287893000,5.58289306640625,-2.0652990838751197,1.7284417491972446,0.05745046458020806
1791103161297866000,5.592865966796875,-2.2789894730895757,0.7760118452697992,-0.16467494082860648
1791103161307839000,5.6028388671875,-0.37617666089236734,-2.1768249836444853,-0.16904241532310843
1791103161317812000,5.61281201171875,-0.9759189160645008,-1.3740081335574388,-0.018175050572678444
1791103161327785000,5.622784912109375,-1.1037684663861989,-1.2447282581716774,0.9006512744385748
1791103161337758000,5.632758056640625,-0.7782359510600566,-1.521160350242257,1.067869908400625
1791103161347731000,5.64273095703125,1.4330936519935726,-1.8835311886221169,0.9863777662366628
1791103161357704000,5.652703857421875,1.5373530678912997,0.09859890591800212,0.6710051181361079
1791103161367677000,5.662677001953125,0.4257549307927489,2.3255419654279947,-0.24967786759249866
1791103161377650000,5.67264990234375,1.1575403885841369,1.7601210820525883,0.3131784259919077
1791103161387623200,5.682623046875,2.065882144460082,0.9155635238230228,0.36058687757253644
1791103161397596000,5.692595947265625,0.3603969079583883,0.5351864886313676,-0.67289188173078
1791103161407569000,5.70256884765625,-0.7417793208003044,1.4853770891994238,-0.39178449132554233
1791103161417542000,5.7125419921875,-1.423420983763039,1.6890286072194576,-0.34389461290352047
1791103161427515100,5.72251513671875,-0.6253393455043434,-0.18115560857355595,-0.20759784449301658
1791103161437487900,5.73248779296875,-1.1052370776340366,-0.015447159978747366,0.6223349760565906
1791103161447460900,5.7424609375,-0.971175813190639,1.1354372778475283,-0.07759031241983175
1791103161457433900,5.752433837890625,0.5011462718635797,0.11441840634047984,-0.37031894784010944
1791103161467407000,5.762406982421875,0.07065875959098339,0.2507774263322353,1.3914480747886002
1791103161477380000,5.772380126953125,0.9070750969409942,0.20338789864778517,-0.42154410816468296
1791103161487352800,5.782352783203125,-1.0632423947304486,1.3195932372808457,-1.2351868151053786
1791103161497325800,5.792325927734375,-1.348606273536384,0.8691863880515098,-0.30628866647817193
1791103161507298000,5.802298095703125,0.060392801642417906,-0.23470015175640582,-1.045928564096987
1791103161517271000,5.81227099609375,0.8010597772866487,-0.5465460870355368,-1.3223374214224517
1791103161527243800,5.822243896484375,-0.07796236060261726,0.30181495513021944,-0.9682553226340561
1791103161537217000,5.832217041015625,-0.6723135703861713,0.7677554735779761,-1.0821163873527198
1791103161547190000,5.84218994140625,-0.15696633921265601,-0.12336276029646395,0.13913381846733391
1791103161557163000,5.8521630859375,0.0290092368632555,-0.2969932340621948,0.25585969803258773
1791103161567136000,5.862135986328125,-2.0162913073390722,0.22889526486992834,-0.029262992428615686
1791103161577108700,5.872108642578125,-1.4479185884207486,0.27063480396866796,0.963423372432962
1791103161587082000,5.88208203125,0.26390286536514757,-1.0224252311736344,0.6685870972089469
1791103161597055000,5.892054931640625,1.057652027377486,-1.3460796776682138,1.025505077010393
1791103161607028000,5.902028076171875,0.7145932077109813,-1.4658505509525537,1.6413345436304807
1791103161617001000,5.9120009765625,-1.0623723338976503,0.30445290241837497,1.898932463632524
1791103161626974000,5.921973876953125,-0.6157873810440302,-0.003505377772450447,2.5015017589241264
1791103161636947000,5.931947021484375,-0.22680501459240912,0.1613409010350704,1.5846791749507187
1791103161646920000,5.941919921875,-1.424517546828091,-0.053935588327050206,0.08090140972919761
1791103161656893000,5.951892822265625,-0.4484066153228283,-0.7122434297144412,0.4739088669784367
1791103161666866200,5.9618662109375,0.02452887657880783,-1.8539713321387767,0.17422756287604568
1791103161676839000,5.9718388671875,-0.24813801773935554,0.6062187577098608,-0.38282793547511096
1791103161686812000,5.98181201171875,1.6058958582416176,0.9420815283924341,0.31917225957922635
1791103161696785000,5.991784912109375,2.780032284578681,-0.01359656367599964,0.45896709923855955
1791103161706758100,6.001758056640625,0.9329881213545799,0.11612053408324718,0.987263316899538
1791103161716731100,6.011731201171875,-0.2155672890022397,0.23260347173810003,0.2941752540320158
1791103161726703900,6.021703857421875,0.6748325674697756,-0.5840478424340486,-0.7582279129065572
1791103161736676900,6.0316767578125,-0.16719430323839188,-0.566773467028141,-1.6792875499278306
1791103161746649900,6.04164990234375,-1.1815621924236417,-0.5455471391260623,-1.8371552218943834
1791103161756623000,6.051623046875,-0.44398529174923895,-0.4731079258590936,-1.8688132197007536
1791103161766595800,6.061595947265625,0.8332569965362548,0.013311901515722273,-0.9011796822268515
1791103161776568800,6.07156884765625,0.7581374581441283,-0.03986030122339725,-1.025795511324331
1791103161786541800,6.081541748046875,0.6576958469688892,0.23338556202650068,-0.8921443620517849
1791103161796515000,6.09151513671875,0.9706196406126022,0.03352700654864311,-0.41577608268987387
1791103161806488300,6.10148828125,0.8017159031078219,-0.45364042432308194,-0.5830052745785563
1791103161816461300,6.11146142578125,-0.03094634240567684,-0.12296703897714614,-0.1592559662534855
1791103161826434300,6.121434326171875,-1.0500403833299874,0.550066662377119,-0.10844347838303074
1791103161836407300,6.1314072265625,-0.757306268016994,-0.00430734180510044,-0.9769529352873563
1791103161846379300,6.141379150390625,-0.6844932530015707,0.8231804236799478,0.7548717343464494
1791103161856352300,6.151352294921875,-1.560269540837407,0.9153519268989563,0.048224690733803435
1791103161866325500,6.161325439453125,-0.44325347034335133,1.0200321985572576,-0.47986309920772907
1791103161876298500,6.171298583984375,-0.3019190000265837,0.6150590667694806,1.512335238751769
1791103161886271200,6.181271240234375,-0.2511012514591217,-0.03488894255161285,0.504548335392028
1791103161896244200,6.191244140625,0.9937228683024645,0.6233768132597207,-0.07958398872138932
1791103161906217200,6.20121728515625,0.7918108874261379,-0.9382020566105842,-0.6267241509262472
1791103161916190500,6.2111904296875,0.7925050071701407,-0.9387509226649999,-0.6506609798960388
1791103161926163500,6.22116357421875,0.30498189472854137,-0.814091692817211,0.018985435373801738
1791103161936136200,6.23113623046875,-0.1455444892272353,-0.044401451784372326,-1.4207994030877946
1791103161946109200,6.241109130859375,-1.1711831294894217,-1.0022048654437063,-2.550391462038457
1791103161956082400,6.25108251953125,-0.040327334213256835,-1.4406202481061219,-0.21907199092125518
1791103161966055400,6.261055419921875,-1.2488380315780638,-1.500730725675821,0.836992383672297
1791103161976028400,6.2710283203125,-0.3775724991649389,-1.8081652742534875,-0.1438182499565184
1791103161986001200,6.281001220703125,0.8852806137621402,-1.641542633423209,0.5326449143897741
1791103161995974400,6.290974365234375,1.0506079540848732,-0.9005214375138282,0.3134296608066186
1791103162005947400,6.300947509765625,1.553958457994461,-0.5028752876132726,-0.1841841808808036
1791103162015920400,6.31092041015625,1.0190323738649487,0.22230770317316054,0.10403874061806127
1791103162025893400,6.320893310546875,1.9998381851881741,-0.23684359352588652,0.23691368135372176
1791103162035866400,6.330866455078125,1.6837135496765374,0.0302291340470314,-0.06413511170959099
1791103162045839400,6.34083935546875,0.22660890749841928,0.2874555903881788,0.19826642744820563
1791103162055812400,6.350812255859375,-0.17735212463736533,0.36661154468953605,-0.4427409177113324
1791103162065785300,6.360785400390625,-1.6703136776164174,0.05934650745987892,-0.4155383649438619
1791103162075758300,6.37075830078125,-2.1679472651839253,-0.28015082033276556,-0.4947543788693845
1791103162085731300,6.3807314453125,-0.7851865008503198,-0.950130979335308,-0.48764735987577584
1791103162095704300,6.390704345703125,-1.9327906018316745,0.22150749270617962,0.07423380506616085
1791103162105677300,6.40067724609375,-0.45019057613015173,0.2438543490707874,0.43489659741912035
1791103162115650300,6.410650390625,0.2596621590554714,0.8373468961983919,0.5538484094055369
1791103162125623300,6.420623291015625,0.94826226285398,1.4965969868719577,0.15758896462302655
1791103162135596300,6.43059619140625,1.411224057751894,0.7248994976699352,-0.2909378064807504
1791103162145569300,6.4405693359375,1.9473057416573165,-0.06921849765479564,0.1826111959430389
1791103162155542300,6.450542236328125,-0.03924070802032947,1.164741113743186,-0.6095922892635688
1791103162165515500,6.460515625,-0.6690197895377874,0.908938552725315,-0.8327866025455296
1791103162175488300,6.47048828125,0.11256693325489758,-0.2916173862427473,-0.4106451130095869
1791103162185461200,6.480461181640625,-1.8119646665364504,-0.2473322543144226,-1.2875966551698743
1791103162195434200,6.490434326171875,-1.2366104181677102,-0.5062590848326682,-0.5015908738259226
1791103162205407500,6.500407470703125,-0.39097266348600385,-0.8769038305610418,-0.44899413288719947
1791103162215380500,6.51038037109375,0.061408700686693185,-0.6805921539098024,-0.5640340321268886
1791103162225353200,6.520353271484375,-0.48361762943565845,0.2811673038989305,-0.8679488821458071
1791103162235325400,6.530325439453125,1.555202612836659,-1.0079027848243713,0.05553378077130764
1791103162245298400,6.54029833984375,0.8318059209451079,-0.6566513063520193,-0.3453963957685977
1791103162255271400,6.550271484375,1.5008888388469814,-0.4350280783116817,0.11283276285054161
1791103162265244200,6.560244140625,0.9976260132208465,-0.5930085630029439,0.3926850568944588
1791103162275217400,6.570217529296875,-0.22325872028768062,-0.024659809482097624,0.7874475776501
1791103162285190400,6.5801904296875,0.45819677245318885,-0.11923428218960762,0.9106976713523268
1791103162295163400,6.590163330078125,0.644119157037139,-0.6723837130129336,0.9958289006710052
1791103162305136400,6.600136474609375,-0.5333779779046773,0.7743173163115977,0.8393454496044666
1791103162315109400,6.610109375,0.5281856699585914,-0.9997487044632434,1.3226498483724891
1791103162325082400,6.620082275390625,2.3251316310614345,-1.5064794984608887,0.934709246058762
1791103162335055400,6.630055419921875,1.0187842443227768,-0.3052145344406366,1.2988352575428783
1791103162345028400,6.6400283203125,-0.3318395065158605,0.6014537352651357,0.7575275095522404
1791103162355001300,6.65000146484375,1.9069623330920933,-0.844734083840251,0.810841166588664
1791103162364974300,6.659974365234375,0.8461813600391149,-0.10238076254427432,1.0674278637215495
1791103162374947300,6.669947265625,-0.20934066957235334,0.1716068589836359,0.492297706432268
1791103162384920300,6.67992041015625,0.5458744713842868,0.568485531643033,0.4118669098895043
1791103162394893300,6.689893310546875,0.5965320609539747,0.46013621608316896,0.47409496413506563
1791103162404866300,6.6998662109375,0.13257657884359358,0.06411971321105957,-0.5289858073603362
1791103162414839300,6.70983935546875,0.6055366206645966,-0.28373335499465463,0.08487045949064195
1791103162424812300,6.719812255859375,0.10299801765978336,-0.6182417884588242,-0.726970897116512
1791103162434785300,6.729785400390625,0.12878887699842453,-0.6268991421669722,-1.21385790361166
1791103162444758500,6.739758544921875,-1.297663729545474,0.382906261408329,-1.2559516629755496
1791103162454731300,6.749731201171875,-0.12589081746935843,-0.43462592725157734,-0.8160928035065531
1791103162464704300,6.759704345703125,-0.6124006612151861,-0.05539864661693573,-1.5621156070955098
1791103162474677200,6.76967724609375,-1.3663473896712064,0.6459761830806732,-0.12544804213792085
1791103162484650500,6.779650390625,0.8336994796067476,-1.1140075363278388,-1.0887260878160596
1791103162494623500,6.78962353515625,-0.10483750804662705,-0.004637012150883675,-0.4701236493512988
1791103162504596200,6.79959619140625,0.11850129173994063,0.33984628736078737,-0.86053948267214
1791103162514569200,6.8095693359375,-0.3370394132465124,0.34584114386141296,0.40950631823800504
1791103162524542200,6.819542236328125,2.2082816136598584,-0.39084523771405216,0.26143976318724454
1791103162534515500,6.829515380859375,-0.156550451888144,0.5068763399481773,1.3624972901143133
1791103162544488400,6.839488525390625,-0.24857670141756533,-0.04386719877719879,1.282202833302319
1791103162554461200,6.849461181640625,-0.14635405204445123,-0.38061318203508854,1.160982564927265
1791103162564434200,6.85943408203125,-1.9510247621804475,0.18695406571924686,1.7509022950693964
1791103162574407400,6.869407470703125,-2.2682640809357166,-0.6929559609204531,1.9939269153177737
1791103162584380400,6.87938037109375,-0.3338637058198452,-1.394802499783039,1.6536518811509011
1791103162594353400,6.889353515625,-2.1995912344649433,-0.07383738962709903,1.602945922394842
1791103162604326100,6.899326171875,0.20306699613034723,-0.3568827623575926,1.1702199104804545
1791103162614299400,6.90929931640625,-0.2333478603646159,0.48601650727093215,1.230352234555781
1791103162624271400,6.919271240234375,1.0389800601333379,0.11852642618119716,0.29146541055142877
1791103162634244400,6.929244384765625,0.6685317137598991,0.798004481369257,0.08401844577118754
1791103162644217300,6.93921728515625,0.573151769888401,0.6167874979972839,0.10857063016034663
1791103162654190300,6.9491904296875,0.08267682190388441,0.16244623192846774,1.0362542884312569
1791103162664163300,6.959163330078125,-0.08571107503324747,-0.24066402859687805,0.052640287819504736
1791103162674136300,6.96913623046875,-0.8096715382874011,0.1499655205398798,1.2162035899549721
1791103162684109600,6.979109619140625,-1.4292542199611662,-0.10172668254971504,0.6545800530359148
1791103162694082300,6.989082275390625,-0.7474597045242786,-0.3085433866024017,-0.10238763067647814
1791103162704055300,6.99905517578125,-0.7504407661616802,0.5339981556296348,0.07372603820711374
1791103162714028300,7.0090283203125,-0.6149047529906034,0.6308399887472391,0.30710926214605566
1791103162724001300,7.019001220703125,0.8818570690542459,-0.8457073127865791,-1.080970359122753
1791103162733974300,7.028974365234375,-0.004558686217665672,0.29743747069835663,0.18674561060033737
1791103162743947300,7.038947265625,0.07183978606909514,0.2657709973245859,0.1770611058015376
1791103162753920300,7.048920166015625,-0.678875120858848,-0.040620179679989814,-0.14742065836265683
1791103162763893200,7.058893310546875,-0.400045612257719,-0.2783849797040224,0.2293264228288084
1791103162773866500,7.068866455078125,-0.14221037636846304,-0.15511340482234953,0.5764596523273736
1791103162783839200,7.078839111328125,-1.1518795863434672,0.9261053761035203,-0.6370121015109121
1791103162793812200,7.088812255859375,-0.598176321029663,0.49507250490784643,0.4176304418522864
1791103162803785200,7.09878515625,0.4533803120821714,-0.5461380907565355,-0.13103029924966395
1791103162813758700,7.1087587890625,-0.10061492191553115,0.1314168874144554,0.47571456469353285
1791103162823731700,7.118731689453125,0.9905182270422578,-0.5174415731042623,0.15654537385422734
1791103162833704700,7.12870458984375,1.7045318812996149,-0.07439443898797035,-0.07346972535848617
1791103162843677400,7.138677490234375,2.4354735817432402,-0.16735095510482786,-0.6281855287156999
1791103162853650700,7.148650634765625,1.353100954607129,0.9951403338849544,-0.563209308273159
1791103162863623700,7.158623779296875,0.9746376440823078,1.358602474632859,0.021308855086378753
1791103162873596700,7.1685966796875,0.25481618032902476,0.10031097053289413,-0.6830206962309777
1791103162883569700,7.178569580078125,-0.7700786558285355,0.6089870533794164,-0.2651753512526862
1791103162893542700,7.188542724609375,-2.09318925358057,0.5935147589594125,-0.48944428976252674
1791103162903515600,7.198515625,-2.0001807150155306,-0.9886439576029777,-1.2078881084870545
1791103162913488600,7.208488525390625,-1.7205960041329265,-0.9687813192695379,-1.2086216103933751
1791103162923461600,7.218461669921875,-3.054312751573324,-0.10970715990960597,-0.3932055005719885
1791103162933434600,7.2284345703125,-0.629646687309444,-1.6501403658986091,-0.6126893784960732
1791103162943407600,7.23840771484375,-0.5418894934013485,0.41402971394658084,-0.7355455409772693
1791103162953380600,7.248380615234375,0.019925766697525975,0.7883850046306848,0.440310621824488
1791103162963353600,7.258353515625,2.7161601163879037,-0.16227204440534113,-0.9522606848403811
1791103162973326600,7.26832666015625,2.646007552753389,1.2062947748810051,-0.843286807641387
1791103162983299800,7.2782998046875,0.4926239427119493,1.2705085961163043,-0.9141666626371443
1791103162993272600,7.2882724609375,0.4726519987851381,0.3922352307677269,-0.8347694469258189
1791103163003245600,7.29824560546875,0.626080519260466,0.6626373950242996,-1.551519686540216
1791103163013218600,7.308218505859375,-0.4976268655657768,-0.5503700292378664,-2.1295400853782893
1791103163023191800,7.31819189453125,-2.5935569422870874,-0.9512661208450793,-1.5880425139039753
1791103163033164800,7.328164794921875,-1.5224480519652366,-1.064795469391346,-1.3384019826471805
1791103163043137500,7.338137451171875,-0.5878969190776347,-1.6639532026737927,-1.5264849062658845
1791103163053110500,7.348110595703125,-0.26493951493650675,-1.5128706608027218,-0.5511183268545196
1791103163063083800,7.358083740234375,0.00954407341480255,-0.5617237824231386,-0.32599593158680945
1791103163073055500,7.368055419921875,-0.2440904959142208,0.2676800458163023,-0.3289748743323609
1791103163083028500,7.378028564453125,0.9749301972880959,-0.07270517072677612,0.5600075530897826
1791103163093001700,7.388001708984375,0.2659960382521152,0.652429304742813,0.3109857382532209
1791103163102974700,7.397974609375,0.7141957328259945,0.5537842215955258,-0.3779055670442059
1791103163112947700,7.40794775390625,1.1124152987003326,0.3619599194914102,0.48927711650207634
1791103163122920400,7.41792041015625,0.15951047073751687,0.8142612041652202,0.06870609115324915
1791103163132893400,7.4278935546875,0.03439589833766222,0.330316826993227,0.17529215990025548
1791103163142866700,7.43786669921875,-0.04933014035820961,0.5040221195608378,0.2906115702010691
1791103163152839700,7.447839599609375,-0.5060036487668752,0.07381926944851874,0.33706151548046615
1791103163162812700,7.457812744140625,-0.5844982165500522,-0.7585019075423478,0.9121968238689004
1791103163172785400,7.467785400390625,-1.1910185875549912,-0.5589139856994152,0.9538078412171452
1791103163182758700,7.477758544921875,-2.126819135981798,-0.13785130437612533,-0.1385073205994442
1791103163192731600,7.487731689453125,-0.6538181287527084,-0.6634130555719137,-0.598751271373406
1791103163202704600,7.49770458984375,-1.6476014950707554,0.030187048470973966,0.08639967835191636
1791103163212677600,7.507677734375,-0.15641571959257125,0.17015666017532347,-0.269826264064759
1791103163222650600,7.517650634765625,0.20337445464432238,0.8179910383433103,-0.9059902973789721
1791103163232623600,7.52762353515625,0.8942389962434768,0.4060013057917356,-1.5576945757828653
1791103163242596600,7.5375966796875,0.6137383395597338,-0.30872458838820455,-0.4347686236578971
1791103163252569600,7.547569580078125,-0.42433015868663787,0.03226560831069946,-1.722182834932953
1791103163262542800,7.55754296875,0.22365151899755,-0.279351778909564,-0.4541584933804348
1791103163272515600,7.567515625,0.2372457445859909,-0.25340777483582494,-0.9456067799091339
1791103163282488600,7.577488525390625,-0.23325521364510057,-0.04465279619693756,-1.32152449760437
1791103163292461600,7.587461669921875,-0.1627019602552056,0.5419505759388208,-0.9760428347051143
1791103163302434600,7.5974345703125,-0.28201895229220386,-0.08851999497413635,-0.6156863318223506
1791103163312407800,7.60740771484375,0.4665539741709828,-0.49123278061449527,-0.6935071650624275
1791103163322380500,7.617380615234375,-1.1659633490145205,0.3963613707870245,-0.6218949041388928
1791103163332353500,7.627353515625,-0.2592091545909643,-0.015774492236971853,-0.44613534592259674
1791103163342326500,7.637326416015625,0.07670622306168079,-0.13855916038453578,0.4116437686581164
1791103163352299800,7.6472998046875,1.392594468344748,-0.42150633343756194,0.44839105242751537
1791103163362272800,7.657272705078125,-0.6091299689814448,0.3925561332851648,-0.15068149592266417
1791103163372245500,7.66724560546875,0.2080313405394554,0.24132453833222386,0.02342067330831196
1791103163382218500,7.677218505859375,1.1886258471995592,-0.5875900450855494,0.9228273773461579
1791103163392191700,7.687191650390625,0.5728086555391549,-1.0967518656224011,-0.439165543442592
1791103163402164700,7.697164794921875,0.27523031506538387,0.11119827525019645,0.7129126342128962
1791103163412137500,7.707137451171875,0.18291969563663005,-0.021311083576083183,0.6518539160076529
1791103163422110500,7.7171103515625,0.9143763598650694,-0.023716391152143478,1.1525239486616103
1791103163432083700,7.727083740234375,0.42303719626665115,0.1493418356835842,0.632499373326823
1791103163442056700,7.737056640625,0.4794973346352577,-1.4645523278355597,1.0994045720882712
1791103163452029700,7.74702978515625,1.3036141623824835,-0.4761947859585285,0.7267826810680329
1791103163462002400,7.75700244140625,-1.119695518836379,0.608329466253519,1.0090821308020501
1791103163471975700,7.7669755859375,-0.0867266818165779,-0.4502747472822666,1.0057613158162684
1791103163481948700,7.77694873046875,0.15098989515155553,0.03175239809155464,0.031998518339730796
1791103163491921700,7.786921630859375,-0.11609832225143908,0.7572942853182554,0.1901331889457069
1791103163501894700,7.796894775390625,0.12426730792075395,-0.4610772963255644,-0.2699244454759173
1791103163511867600,7.80686767578125,0.15502280392944812,0.25917525232136246,0.5285536264881492
1791103163521840600,7.816840576171875,-0.061929509690403936,-0.0435270070374012,-0.7395194861095398
1791103163531813600,7.826813720703125,-1.5229080706924198,0.8124386649131774,0.20454919751212
1791103163541786600,7.83678662109375,-0.6956243033468723,-0.21753683550953865,-0.11117189869992435
1791103163551759600,7.846759521484375,-0.9991834717959165,-0.9366098189830779,-0.12518354598283768
1791103163561732600,7.856732666015625,0.051801206646859645,-1.213122575074434,-1.0044495756305754
1791103163571705600,7.86670556640625,0.041618250806629654,-0.07152735911905765,-0.5027259422704577
1791103163581678600,7.8766787109375,-0.6630681876569986,-0.10056348398923873,-0.01609707525484264
1791103163591651600,7.886651611328125,1.9255518827497957,-0.29504034642875193,-0.11569514827802777
1791103163601624800,7.896624755859375,0.38810558361709113,0.46302784587144846,-0.881586435419321
1791103163611597600,7.90659765625,0.7184229951322079,0.49914369986951346,0.40407073958795514
1791103163621570600,7.916570556640625,1.2386202966853976,-0.5092576821267605,0.9546255873408168
1791103163631543600,7.92654345703125,0.12481412814855575,0.1422182674139738,-0.43413609790802
1791103163641516800,7.936516845703125,0.34524083988070486,0.01239186406135559,1.805267360854894
1791103163651489800,7.94648974609375,-1.2906927214890718,0.5124111777216196,1.5879004750847816
1791103163661461500,7.95646142578125,-0.6878022314190864,-0.1111877538561821,0.8512807290047406
1791103163671434800,7.966434814453125,-0.795287039104104,0.07275193247795105,1.734677428716421
1791103163681407700,7.97640771484375,-0.8320829843208193,-0.023343466186523436,1.5113208010122179
1791103163691380700,7.986380615234375,-0.33246786754727364,-0.5036643921643496,0.31821700468100605
1791103163701353500,7.996353515625,-0.12793196790814398,0.01111351468861103,1.3336784612566233
1791103163711326700,8.00632666015625,-0.21207214036285876,-0.10422843623757362,-0.26628523045703767
1791103163721299700,8.0162998046875,-1.663092786452174,0.33255379226505755,0.5912072126694023
1791103163731272700,8.026272705078124,-1.0190645225688815,-0.539921115937829,-1.0431298732891678
1791103163741245400,8.036245361328126,-1.5455612165272234,0.0027028292179107666,-0.5997945698812603
1791103163751218400,8.046218505859375,-0.5302291584849357,-0.34620530099868774,-0.6169926651805638
1791103163761191700,8.056191650390625,-0.03299187675863504,0.4243628919124603,-0.33040019442774354
1791103163771164700,8.06616455078125,0.9757137488812208,1.0362117644637823,-0.7612403925955296
1791103163781137700,8.0761376953125,1.4599644155234097,0.6566670884430408,0.848271902577579
1791103163791110400,8.0861103515625,1.4542548057049511,-0.5210071566313504,-0.11682554054744541
1791103163801083600,8.096083740234375,-1.1193237629145383,0.1102075106471777,0.19347126559354363
1791103163811056600,8.106056640625,-2.10932147321403,0.3844026374459266,-0.3704987613864243
1791103163821029400,8.116029296875,-1.3009484503045676,-0.48272798711955545,-0.6399881947122514
1791103163831002400,8.12600244140625,0.29944939504265783,-0.5621136585235595,-0.1882721625804901
1791103163840975600,8.1359755859375,0.4417120861202478,0.3179728937268257,-1.70698395062685
1791103163850948600,8.145948486328125,2.0288155656084417,0.9933195481985807,-0.8197451885342597
1791103163860921300,8.15592138671875,3.6133787129640575,1.186546702837944,0.8867424299430101
1791103163870894300,8.165894287109374,0.30310031876564025,1.1986755320489406,0.13074359126277268
1791103163880867600,8.17586767578125,-0.39327129581719633,-0.09780746327936649,1.7902835806041955
1791103163890840600,8.185840576171875,-2.1799095056563615,-1.13966804728508,1.7943939385324716
1791103163900813600,8.1958134765625,-3.530629702606797,-0.9975982484310865,0.16627265834882854
1791103163910786300,8.205786376953125,-1.5699287650644778,-0.8936451220035553,0.46098216538801784
1791103163920759600,8.215759521484374,-0.8850257622182369,-0.48770752909779547,0.5231128967389465
1791103163930732500,8.225732666015626,1.2965961003139614,0.28140111265480516,-0.23044315189905462
1791103163940705500,8.23570556640625,2.7285625018432733,1.2589397388756274,0.9649280048422515
1791103163950678500,8.245678466796875,4.876407766979932,1.036889225333929,1.39039023629874
1791103163960651500,8.255651611328124,2.5677766043424604,0.4496615838199854,2.4884017465934156
1791103163970624500,8.26562451171875,2.5786124711334706,0.44384442197382445,2.4865385830700397
1791103163980597500,8.275597412109375,0.7501853300958872,-0.07064823819696903,1.5092765818335114
1791103163990570500,8.285570556640625,-0.10260931060314178,-0.650314504545927,1.5159296099819242
1791103164000543500,8.29554345703125,-3.3002795627534387,0.024070611417293546,1.173923514238745
1791103164010516500,8.3055166015625,-3.909028131201863,-0.03245090174973011,0.4977282801136374
1791103164020489500,8.315489501953126,-4.541913654302061,0.15167933872044084,-0.31460992009975014
1791103164030462500,8.32546240234375,-3.0663638393729924,-0.5749065046012402,0.1806193097397685
1791103164040435500,8.335435546875,-2.8289626119643447,-0.7864157503843308,-0.06315978213772178
1791103164050408700,8.34540869140625,-0.335413857871294,-1.6805553779065607,0.4052759871918708
1791103164060381400,8.35538134765625,-1.136737839052081,-1.2020698506623506,0.22356669025830922
1791103164070354400,8.3653544921875,0.8300915182426571,-0.9868868848025798,0.4929937989376485
1791103164080327400,8.375327392578125,-0.40090515169650315,0.25899346601366996,0.008354059912636876
1791103164090300700,8.38530078125,0.5380909779012203,0.7929536277204752,0.03034355420693755
1791103164100273700,8.395273681640624,-0.6182037945359945,1.4847867220908402,-0.24421865233853457
1791103164110246400,8.405246337890626,-0.1762853721886873,1.1812871748745442,-0.4922365508295595
1791103164120219400,8.415219482421875,-1.1722504664599895,0.569334257426858,0.11386756752468645
1791103164130192600,8.425192626953125,1.5460007769882678,-0.0696077892333269,0.07571575071960687
1791103164140165600,8.43516552734375,-0.11053075125217438,0.3146177380800247,0.4384243696864694
1791103164150138600,8.445138671875,3.2524498900860546,-1.4294517883598803,0.7246458151698112
1791103164160111400,8.455111328125,2.5770009442836046,-0.38004502675831314,0.4289950817577541
1791103164170084400,8.46508447265625,1.6412661545693874,1.4189163658201693,1.0635576712246984
1791103164180057600,8.4750576171875,0.5346861378937959,1.650429704234004,1.9597236169427632
1791103164190030600,8.485030517578124,1.236782267603278,1.0226713148891926,1.453453426194191
1791103164200003300,8.49500341796875,0.2318950312077999,0.3857026141285896,0.6695132721431553
1791103164209976300,8.504976318359375,-3.2428350895226,0.7563689871668815,0.5813147642083466
1791103164219949600,8.514949462890625,-1.5916495984852312,-1.114537113159895,-1.1714648690402507
1791103164229922600,8.524922607421875,-1.869474606218934,-0.7618564786672591,-0.062102564702369266
1791103164239895600,8.5348955078125,-0.1766997982084751,-1.2895406288444995,-1.783134731762856
1791103164249868300,8.544868408203126,-0.834220873132348,0.0679389792382717,-0.49139188016634433
1791103164259841500,8.554841552734375,0.5350567247718573,-0.2685316942095756,-0.22380316589530555
1791103164269814500,8.564814453125,1.4976257453978061,-0.011739537632465363,-0.1504650675598532
1791103164279787500,8.57478759765625,0.20833529192209244,0.36121874573528767,0.13925170922596006
1791103164289760500,8.584760498046874,0.554082035498321,-0.2180874551296234,0.6724142542816698
1791103164299733500,8.5947333984375,-0.19405951381027697,-0.4301490740984678,-0.24545108021032064
1791103164309706500,8.60470654296875,1.0039426490217447,-0.9269681304126978,-0.16228826488777995
1791103164319679500,8.614679443359375,-0.7461854468047618,-0.7402659936279058,0.8137073696747422
1791103164329652500,8.624652587890624,0.11233517032563686,-1.988890674716234,-0.8389489245675503
1791103164339625500,8.63462548828125,-0.7732979101359844,-0.9286264190137385,0.69618566355668
1791103164349598500,8.644598388671875,-1.5434861638188362,-0.036330958053469656,0.3665941186306998
1791103164359571500,8.654571533203125,-1.2314216173529624,-0.15446809265613556,0.7783758709874004
1791103164369544400,8.66454443359375,-0.8770818174764513,-0.1355740070939064,0.5156065031642094
1791103164379517400,8.674517333984374,-2.068812352693081,0.597667202463746,0.2738836496967822
1791103164389490700,8.68449072265625,-1.7500006700545547,-0.21616028645932672,0.17403065206445753
1791103164399463400,8.69446337890625,-1.9265052379518746,-0.3881131824016571,-0.1082525771871209
1791103164409436400,8.7044365234375,-2.0286761571377516,0.9811071323573589,1.024251131426543
1791103164419409400,8.714409423828124,-0.0987289620384574,0.6373854648679494,0.6847753578785807
1791103164429382700,8.724382568359376,0.3909688640937209,1.2944079426199198,1.3482105522170662
1791103164439355600,8.734355712890626,1.0359273945644498,1.23620066832304,1.0381776577092707
1791103164449328400,8.744328369140625,1.3356494690686465,1.8997405651450157,0.49263702138923104
1791103164459301400,8.75430126953125,2.8295769444704053,1.1319605416476726,-0.7073419214084744
1791103164469274600,8.764274658203124,-0.47383360978513955,1.1099819340735673,-0.4333849142145365
1791103164479247600,8.77424755859375,0.03777764973044395,-0.07965162886381148,0.7022507357493043
1791103164489219300,8.78421923828125,-2.62685101686269,0.3352946154057979,-0.4641796097224578
1791103164499192600,8.794192626953125,-3.21714506020993,0.16538696155548094,1.3296852999672293
1791103164509165600,8.80416552734375,0.22529168742001054,-1.023849126496911,0.014796258321963249
1791103164519138600,8.814138671875,-2.3145927013903855,0.23691490519642827,1.7352422229923308
1791103164529111300,8.824111328125,0.5680272664815187,-0.33092297619283195,1.427970463760942
1791103164539084500,8.83408447265625,3.0853850584462283,0.05673252556920051,0.08476140962559729
1791103164549057500,8.8440576171875,3.550049857869744,0.7380225986152887,0.6526425821673124
1791103164559030500,8.854030517578124,4.419698018214106,0.35187808593809605,-0.6766478001981974
1791103164569003500,8.86400341796875,2.743399713230133,0.13668342964053154,0.5173036624709144
1791103164578976500,8.8739765625,0.6483680466532706,0.07258768182694912,0.35606589301675556
1791103164588949500,8.883949462890625,1.6406617589354515,-0.6360889953166246,0.6497788632992655
1791103164598922500,8.893922607421874,-1.4915046321690082,-0.7365852592885493,-2.052237942250073
1791103164608895500,8.9038955078125,-2.2290882548451423,-1.0411509744316338,-0.9028365825884044
1791103164618868500,8.913868408203125,-2.32265121242255,-1.5764181270837783,-1.6040855939492582
1791103164628841500,8.923841552734375,-4.488124780969321,-1.5648960315942764,-0.24950937915779647
1791103164638814500,8.933814453125,-2.0681410293027755,-2.156920259734988,-0.45636166598051786
1791103164648787500,8.943787353515624,-0.4610580071032047,-0.8448422203898429,0.18222181303296237
1791103164658760400,8.953760498046876,-0.2866062800824642,-0.11964753916561603,0.12860628697313367
1791103164668733700,8.963733642578125,1.0158581277430057,-0.42907472286522386,1.2132687055468558
1791103164678706400,8.97370654296875,0.5293886160075664,-0.6499819115906953,0.7332226509876549
1791103164688679400,8.983679443359375,-1.6808891399055719,-0.2217389633744955,1.1239326449494809
1791103164698652400,8.99365234375,-0.6665870094329118,-1.287958328089118,0.11693930312022566
1791103164708625700,9.003625732421876,-2.277176286187768,-0.6166168176054955,-0.3602658654572442
1791103164718598700,9.0135986328125,-0.9502344397097825,-0.48524493837654586,-0.049183790690079325
1791103164728571400,9.0235712890625,0.9128355601638555,-0.26342005028426646,0.4595159652929753
1791103164738544400,9.03354443359375,1.6629332119762896,0.6915706440418958,0.6002993775982409
1791103164748517600,9.043517578125,3.3354034831047055,0.5657511382430791,1.400359403257817
1791103164758490600,9.05349072265625,3.2409985217452046,1.9510913976758717,2.299411206610501
1791103164768463600,9.063463623046875,1.8655229459837077,2.5987474966675044,2.092326207010448
1791103164778436400,9.073436279296875,0.5083031578809023,2.9295693505734204,1.9487610550321637
1791103164788409300,9.083409423828124,1.0460454684749245,1.6913246092021463,2.0693273164778945
1791103164798382600,9.093382568359376,-0.5612433054298163,1.0815163025677204,0.7056728922177106
1791103164808355600,9.10335546875,-1.6576818673193454,-0.02458323711454868,-0.12633885349780322
1791103164818328300,9.113328369140625,-2.194684465461969,-0.41611645709276196,-0.32200909044034776
1791103164828301300,9.12330126953125,-1.6349316908508538,-1.357464995035529,-0.281746930417791
1791103164838274600,9.133274658203124,-1.667908370040357,-0.3709451899796724,-0.5928951657563447
1791103164848247300,9.143247314453125,-0.4837801265209913,0.36601007166504856,0.6415582205079495
1791103164858220300,9.15322021484375,0.5145549117520452,0.8260948498219252,0.14389482232406733
1791103164868193300,9.163193359375,0.19941753371208906,0.49551498797833915,-0.03575790740586817
1791103164878166500,9.17316650390625,0.37688627046644685,-0.795619047537446,-0.08399974107071757
1791103164888139500,9.183139404296876,-0.3569306931525469,-2.5577286730587483,-0.5222542340829968
1791103164898112300,9.1931123046875,-1.5906509428367017,-1.7380092034876347,-1.6610943061113357
1791103164908085200,9.203085205078125,-2.075926568612456,-0.16908523155152796,-1.2751581754878163
1791103164918058500,9.21305859375,-0.010429624077677726,-0.7722101148992776,-1.805103548595309
1791103164928031500,9.223031494140624,-0.6222931096762419,0.29473522600233554,-1.423245919457078
1791103164938004200,9.233004150390625,1.6467431246757507,-0.08034487182497978,-0.7993205324038862
1791103164947977200,9.242977294921875,3.4999583777502177,-0.3022048312306404,-0.9818333277400583
1791103164957950500,9.252950439453125,5.06919711472392,-0.1577466759353876,-0.7940884769693016
1791103164967923500,9.26292333984375,0.9613757191881537,0.5992027414679527,1.1468966102991252
1791103164977896400,9.272896484375,-0.8564666072100401,0.05211597168445587,1.8979288395479321
1791103164987869200,9.282869140625,-1.3288508949697018,-0.8793956473767757,1.4120415116146205
1791103164997842400,9.292842529296875,-3.128120330584049,-1.0415297446161509,0.961619464816153
1791103165007815400,9.3028154296875,-1.3515665846467018,-1.155294655483961,0.6405193789795041
1791103165017788400,9.312788330078124,-1.5293784357503055,-0.8670382701069116,-0.3919383667130023
1791103165027761400,9.322761474609376,-0.24995325046777725,-0.6073720193982124,1.7531679019138215
1791103165037734100,9.332734130859375,2.4435855765283105,0.5509925450503825,1.6585896298140286
1791103165047707400,9.342707275390625,2.2839397889733313,2.3410423168987036,2.6169682130128145
1791103165057680400,9.352680419921874,4.291996936452389,1.4205851758152246,3.080551354679465
1791103165067653400,9.3626533203125,2.538185183677077,0.8982435557097196,2.0558741067953408
1791103165077626400,9.37262646484375,0.3421323524713516,0.34196108755767346,1.0850112320113927
1791103165087599400,9.382599365234375,-0.9704057056009769,-0.6164379539072513,1.6711568504422902
1791103165097572400,9.392572265625,-3.3305551662907003,-0.971384779766202,1.1920869474388658
1791103165107545300,9.40254541015625,-3.0657126819878813,-0.8968284282147884,0.059855114569142456
1791103165117518300,9.412518310546876,-1.5162746240273117,-0.9491945752680301,0.2659420430425554
1791103165127491600,9.42249169921875,-1.118403140938282,-0.5752122095495462,0.3089348701380193
1791103165137464300,9.43246435546875,0.7296829325541854,-0.40782150695621966,-0.07262750238068401
1791103165147437300,9.442437255859375,1.3178341186538338,0.3447802366316318,0.35566783360987897
1791103165157410300,9.452410400390624,2.2657614504650234,-0.14102818084657193,0.12172580674439668
1791103165167383600,9.462383544921876,1.2468898201197385,0.38508185188174243,-0.13468129603788256
1791103165177356500,9.4723564453125,0.043245267486572266,0.5285363830924034,-0.5802416550841182
1791103165187329300,9.482329345703125,-0.5867214455574751,-0.05410860680639743,-2.3357838118486103
1791103165197302300,9.49230224609375,-0.3442000986561179,-0.5381301408678293,-2.8653397472471
1791103165207275300,9.502275146484376,-1.5854168415755032,-0.3399152609437704,-2.319057425714284
1791103165217248500,9.51224853515625,-0.5068056127995252,-0.6129103643029928,-1.6345787857599556
1791103165227221500,9.522221435546875,0.2603998256802559,-0.6292489201635122,-1.1431207450222223
1791103165237194200,9.5321943359375,0.7774047609329223,-0.48402621023654935,0.24098193543963134
1791103165247167200,9.542167236328124,0.05384177256375551,-0.09414192650914191,0.3570972088258713
1791103165257140500,9.552140380859376,-0.044133740758895874,1.3517781815707683,0.49209436587989325
1791103165267113500,9.562113525390625,0.3863362358570099,0.8882610908776521,0.44506965291984374
1791103165277086200,9.572086181640625,-0.011219020889699458,0.464774397277832,0.3248799697015434
1791103165287059200,9.58205908203125,-1.0061144401028752,0.7490981193810701,1.5223030905365944
1791103165297032400,9.592032470703124,-0.2717722835659981,0.4526198491036892,0.48325507973358034
1791103165307005400,9.60200537109375,0.5643588071018457,-0.08328092527687549,0.591024111187458
1791103165316978400,9.611978515625,-0.4550877005219459,0.685863372310996,2.285523404902965
1791103165326951200,9.621951171875,0.5637047271072865,-0.028484336206316945,0.9724354578629135
1791103165336924400,9.63192431640625,0.506947651618719,-0.07454583015739917,0.40221024294570085
1791103165346897400,9.6418974609375,0.7048550730288028,-0.3073211513310671,0.7516027226131409
1791103165356870400,9.651870361328125,-0.6444014811098575,-0.036159693139791484,0.5982364537190645
1791103165366843400,9.661843505859375,0.19068185407072305,-0.38081718017458915,0.24635124392043797
1791103165376816400,9.67181640625,-0.6892828253656625,0.30349720912873746,0.6215704944901168
1791103165386789400,9.681789306640624,-0.6582558189392089,0.5745604676425456,1.4501160984650254
1791103165396761300,9.69176123046875,0.8340893557071686,-0.0142693483710289,0.5789468295006082
1791103165406734600,9.701734619140625,-0.4625695807099342,0.18556757979691027,0.9324676776770502
1791103165416707300,9.711707275390625,-0.38164778577983377,-0.11434358753859997,0.8172720764189958
1791103165426680300,9.721680419921874,0.2953121491074562,-1.160195871528983,0.5604564659010619
1791103165436653300,9.7316533203125,0.13384645264893769,0.06869067438840866,-0.024423187714628872
1791103165446626300,9.741626220703125,0.23845336681008336,-0.2271153957158327,-0.3380651030324399
1791103165456599600,9.751599609375,0.06427139664143323,0.0017179098337888716,0.022194332684017718
1791103165466572300,9.761572265625,-0.1489306245341897,-0.23428806382417677,-0.6237067758664488
1791103165476545300,9.771545166015626,-0.688024934259057,-0.15787643979489802,-0.3602886983435601
1791103165486518300,9.781518310546875,-1.753605416548252,-0.31726036154329773,-0.5136299789268524
1791103165496491500,9.791491455078125,-0.6656994129434227,-1.0809288580685854,-0.4544440688561648
1791103165506464500,9.801464599609375,-0.7590572033375501,-1.2152215931802988,-1.0762274023793637
1791103165516437200,9.811437255859374,0.22663316515684126,-0.5507733493417502,-0.35005890768691894
1791103165526410200,9.82141015625,0.3512392035126686,-0.16732582066357135,-0.0032837709110230206
1791103165536383500,9.831383544921875,1.5421081534639,-0.5066764334619045,0.48516299571413546
1791103165546356500,9.8413564453125,1.0529285059869289,0.8573363757818937,0.06749240451455116
1791103165556329500,9.85132958984375,2.0417221011936664,0.9001870909929275,-0.23556663239262995
1791103165566302200,9.86130224609375,2.1497654195442792,0.863176918503642,1.3897015233822165
1791103165576275500,9.871275390625,0.6578022299528121,1.0079489620536566,0.6355475819163025
1791103165586248400,9.88124853515625,-0.4374348471924662,1.2224486218243837,0.6005975202945992
1791103165596221400,9.891221435546875,-0.23700667513310908,0.3781482532262802,0.23696816975362597
1791103165606194200,9.901194091796874,-1.6899661803305148,0.05570668965280055,-1.1978561784900723
1791103165616167400,9.91116748046875,-2.0534721602201462,-0.04025543802082538,-1.3572326475843786
1791103165626140400,9.921140380859375,-1.6179706191778183,0.21831658771038054,-1.2341883055873215
1791103165636113400,9.931113525390625,-2.098368994306028,0.2802875984549522,-2.285370990820229
1791103165646086400,9.94108642578125,0.20336802490353584,-1.2600059068024159,-1.5548897474952041
1791103165656059400,9.951059326171874,0.1542874753922224,-0.6042910045176744,-1.6728981411516666
1791103165666032400,9.961032470703126,0.23844372219890356,-0.45798868266046044,-1.8350686248786747
1791103165676005400,9.97100537109375,1.8243173676311968,-1.3624749321520329,-1.8296983300171792
1791103165685978400,9.980978271484375,1.3990019972994923,-0.3277197962373495,-1.957566438908875
1791103165695951400,9.990951416015625,1.9421821150332688,-0.930585736387968,-1.7288712266556918
1791103165705924400,10.00092431640625,3.064199062554538,-1.1009575006186962,-1.5841645034268497
1791103165715897300,10.0108974609375,0.7848898559913039,-0.8020856132030486,-1.2883923355922102
1791103165725870300,10.020870361328125,2.009358000944555,-1.7870657876014708,-0.8474012572228908
1791103165735843300,10.03084326171875,-0.32960838646292684,-0.5735691185176373,0.2774357161551714
1791103165745816600,10.040816650390624,0.616270780646801,-1.173265780982375,0.15290977556454016
1791103165755789300,10.050789306640626,-1.0229854954048991,-1.2640379387974738,1.2160514681331813
1791103165765762300,10.06076220703125,-0.9132134535655378,-0.21353636769652365,1.132927267787978
1791103165775735300,10.0707353515625,-0.6688590460181236,-0.23689152432084082,0.9775978821273893
1791103165785708500,10.08070849609375,0.25592268026620146,-0.37028643380999565,1.862456544150412
1791103165795681500,10.090681640625,-0.1429150175064802,0.38297523499131203,1.4726079162582755
1791103165805654300,10.100654296875,0.05985796411335468,0.43173020581007,1.7775949255533516
1791103165815627500,10.11062744140625,-0.0071831895023584365,0.9916840559512377,1.2877990458741784
1791103165825600500,10.1206005859375,0.1299047292858362,1.3784896628856658,1.8966719713546334
1791103165835573800,10.13057373046875,-0.6992454164534807,1.0842723232775926,0.5479646485965699
1791103165845546500,10.14054638671875,-0.3131500036150217,0.26657763753235336,1.561869669510424
1791103165855519500,10.15051953125,-1.5684917179986833,0.48460605595111844,0.6414936308391392
1791103165865492500,10.160492431640625,-1.012916813594103,0.48897711064219473,0.861710572278127
1791103165875465700,10.1704658203125,-0.3086971158593893,0.6096633452057838,0.6766631438978016
1791103165885438700,10.180438720703124,-0.00010462941825389861,0.1543482656687498,0.1996596353722736
1791103165895411500,10.190411376953126,0.4678264783248305,-0.7157704347968101,0.023450853817444293
1791103165905384400,10.200384521484375,0.8346490354165434,-0.6337193435758351,-0.5332278653768823
1791103165915357700,10.210357666015625,0.663628744149208,-0.012560206365585327,-0.5989268106034025
1791103165925330700,10.22033056640625,0.8785890071690082,-0.39596097329258917,-1.3404293968215584
1791103165935303700,10.2303037109375,-0.6602414397984743,-0.47309448185563086,-0.343603338339366
1791103165945276400,10.2402763671875,-1.5587725802779198,0.039188685572147365,-0.8545977445982396
1791103165955249700,10.250249755859375,-1.027340475744009,-1.4837188005983828,-1.011613768171519
1791103165965222700,10.26022265625,-1.4514666362911461,-0.6319950040012597,-0.3728045175781473
1791103165975195600,10.270195556640624,-1.7404019438430667,-0.9136497991561889,-0.5453721844179555
1791103165985168600,10.280168701171876,-1.342789111690223,0.1506587635010481,-0.786409612904489
1791103165995141600,10.2901416015625,1.2315402752965687,-0.45037236243784423,-0.3087411376642063
1791103166005114600,10.300114501953125,2.5611335130661725,-0.37392800518274305,0.2676200957899913
1791103166015087600,10.310087646484375,2.449631286433339,0.050474049696326254,0.10826971098501234
1791103166025060600,10.320060546875,2.3632746069729325,0.25156886897087094,0.29963315411172803
1791103166035033300,10.330033447265626,1.4697323608219623,0.1472246973991394,0.23052282953914255
1791103166045006600,10.340006591796875,-0.009168225839734078,0.3550450255364179,-0.7288943394597619
1791103166054979600,10.3499794921875,-1.7111255804762244,1.2001485272109509,-1.1199751394953579
1791103166064951600,10.35995166015625,-1.3335674020975827,-0.10252630849480629,0.3355981649296358
1791103166074924500,10.369924560546876,-1.5642507194280624,-0.8251093459159136,-0.7839968526743352
1791103166084897500,10.3798974609375,-0.5593061998873948,-0.725765174588561,-0.007576536201499402
1791103166094870500,10.38987060546875,-0.03270516877174377,0.9180226074129343,1.1186025359679013
1791103166104843500,10.399843505859375,1.8231956701248884,0.2541717449456453,1.1690272666297852
1791103166114816800,10.409816650390624,1.7011343478158116,0.03153378690481186,0.9450754495114088
1791103166124789500,10.41978955078125,1.818558073452115,0.9619996963053942,1.7494814684860407
1791103166134762500,10.429762451171875,1.5550912614166736,0.7327975574433803,0.6830527718696743
1791103166144735500,10.439735595703125,-0.3119821288794279,0.1562777724266052,0.5935064295224846
1791103166154708700,10.449708740234374,0.4762468084067106,-0.8874246400535106,0.9260760038785636
1791103166164681700,10.459681640625,-0.2541647306829691,-0.3397112628042698,-0.34181400723718103
1791103166174654500,10.469654541015625,-1.6064163749843834,-0.19854864192306995,0.044872649492695926
1791103166184627500,10.47962744140625,-0.3314814868584275,-1.6185872897714375,-0.06785436969473958
1791103166194600700,10.4896005859375,-0.8444257485434412,-0.9753303025215864,-0.3253061226917431
1791103166204573700,10.49957373046875,-0.5513531950563192,-0.13285773387253283,0.21229878872558472
1791103166214546700,10.509546630859376,0.25722528729736804,-0.697523414966464,-0.07790452946815639
1791103166224519400,10.51951953125,1.1606421539917589,-0.9893272636920213,0.6958611808426678
1791103166234492400,10.529492431640625,1.3654133236914872,0.01878361092507839,0.5257185491926968
1791103166244465700,10.539465576171875,0.1825426790177822,0.5933645368337631,0.08263177718576044
1791103166254438700,10.549438720703124,1.2729010442107915,0.20984043578803538,-0.02747092138007283
1791103166264411600,10.55941162109375,0.6919678266659378,0.7373340318292378,0.044184521098062396
1791103166274384400,10.56938427734375,0.02093640504479408,-0.49840369515717026,0.3407807551993057
1791103166284357600,10.579357666015625,-0.7210130116254091,-0.6438648900151253,0.5324800426842644
1791103166294330600,10.58933056640625,-0.7258943539261817,-0.6377385160893202,1.8294610141299663
1791103166304303600,10.5993037109375,-2.2843740887373682,-0.4645259754747152,1.3636908838130533
1791103166314276600,10.609276611328125,-1.3309630648180841,-0.7582879725307226,1.038330656313896
1791103166324249600,10.61924951171875,-1.539530704191327,-0.041755905711650845,1.5704966280803083
1791103166334222600,10.62922265625,-1.7424112378388643,0.7565671400874853,1.5132283881992101
1791103166344195600,10.639195556640624,0.16282558663487434,0.4827373394697904,0.5746930445136502
1791103166354168600,10.64916845703125,1.318874567617476,0.8725883054494857,0.7488029358267784
1791103166364141600,10.6591416015625,0.7295502460852265,1.4553092831939458,-0.020590769944898783
1791103166374114600,10.669114501953125,-0.2511009591981768,1.3907067549020051,-1.8542304214663803
1791103166384087600,10.679087646484374,1.1735250164404512,0.18754501734971998,-1.0277866851415485
1791103166394060500,10.689060546875,-1.152077447003126,0.7079629759162664,-1.5666431675225496
1791103166404033500,10.699033447265625,-2.594748782420158,0.3638631227642298,-2.0150925990737973
1791103166414006500,10.709006591796875,-1.0557195980101823,-0.7730605942487716,-1.3238584935098885
1791103166423979500,10.7189794921875,-1.4238637590944767,-0.9503630345255136,-0.8372999152515083
1791103166433952500,10.728952392578124,0.27690438575744625,-1.2000778000622987,-1.563712374767661
1791103166443925500,10.738925537109376,0.29506548087000845,-0.6392576884806156,-1.8570717823721468
1791103166453898800,10.748898681640625,1.414034438997507,-0.45678632113337514,-0.4093468533599749
1791103166463871500,10.75887158203125,1.431645499011874,0.21684768420159817,-0.3343500645646825
1791103166473844500,10.768844482421875,2.1304621686592697,-0.10038929646611214,-0.5429119317842647
1791103166483817500,10.7788173828125,1.4070111162319778,-0.20688217050433158,0.2688718494167551
1791103166493790700,10.788790771484376,0.12187807469666004,0.3513695518940687,0.869071748695895
1791103166503763700,10.798763671875,0.09214987590909003,-0.19587737688720225,0.5715253742629662
1791103166513736400,10.808736328125,-0.13894026865661144,0.29579262610077856,1.3830571169316768
1791103166523709400,10.81870947265625,-1.8026503102242946,-0.33712884509563446,1.4827547778718173
1791103166533682700,10.8286826171875,-0.255091782400012,-1.0713193182021379,1.7274723196431994
1791103166543655700,10.83865576171875,-1.3555588691532612,-0.1189952127367258,1.7910161326624452
1791103166553627400,10.84862744140625,-0.29001579626500607,-1.3389701379239558,1.4967971856191753
1791103166563600600,10.8586005859375,0.772843444366753,-1.2259388020277022,1.1779195981375872
1791103166573573600,10.86857373046875,1.6816496028840542,-0.4383884946554899,1.6539835973232984
1791103166583546600,10.878546630859375,1.8850316563129423,0.25063831012248994,0.7487246829587966
1791103166593519600,10.88851953125,1.85185770098567,0.5674965206056833,1.3865633714869618
1791103166603492600,10.89849267578125,0.8377437865614891,1.4318161794036626,1.2687632137537002
1791103166613465600,10.908465576171874,1.067537169314921,0.32244156357347964,0.6027563788289204
1791103166623438600,10.9184384765625,-0.007349778240919112,-0.41571956672966476,0.047382001965120435
1791103166633411600,10.92841162109375,-0.5774041666358709,-1.2644383362919092,-0.04879197836089879
1791103166643384600,10.938384521484375,-0.8886796085506677,-0.9727122289776802,-0.14152728947512805
1791103166653357600,10.948357666015625,0.09520897121876477,-1.4882985296040772,-1.0262851214721798
1791103166663330600,10.95833056640625,-1.071207089999318,-0.049994741746783256,-0.5366227319795638
1791103166673303600,10.968303466796876,-0.8627735983997583,1.1287409950792788,0.03988704309985042
1791103166683276500,10.978276611328125,0.7978665342032909,0.11158581326305865,-0.5962373157911002
1791103166693249500,10.98824951171875,1.2112088504076004,0.09210019154846667,-0.1144241784941405
1791103166703222500,10.998222412109374,0.5359887449249625,0.48458735125064845,-1.2774553465142846
1791103166713195500,11.008195556640626,0.07841185793578624,-0.14518705409169197,-0.9626169514209032
1791103166723168500,11.01816845703125,0.8871464076340198,0.25347324128746984,-0.3682585081789642
1791103166733141800,11.028141845703125,0.26977058835476636,0.14066986892819403,-0.799726263660565
1791103166743114500,11.038114501953125,-0.9027861675754189,0.506028198686242,0.02929426434971392
1791103166753087500,11.04808740234375,0.524163574835658,-0.40912849790155886,-0.13517258668616414
1791103166763060500,11.058060546875,-0.19275369190871713,0.09640753335356712,0.20845899136699736
1791103166773033700,11.06803369140625,-0.27165070301294325,-0.4171241728305816,1.1726641618274152
1791103166783006700,11.0780068359375,-0.6372217987388372,-0.19668810874819753,0.7759911678079515
1791103166792979500,11.0879794921875,-1.1323229452192782,0.26849077767729757,0.7258170509062707
1791103166802952400,11.097952392578126,-1.5618953884735702,-0.07770575549304484,1.1051324482157825
1791103166812925700,11.10792578125,-0.5463549483776092,-0.4201543343067169,0.5891418045721948
1791103166822898400,11.1178984375,-0.641425972430408,0.2570972770035267,-0.26981566960550846
1791103166832871400,11.127871337890625,0.04745616317987442,0.6493675790846347,1.2833366596378386
1791103166842844200,11.13784423828125,0.298499839232862,-0.06606032588481903,-0.08355762332640587
1791103166852817400,11.1478173828125,1.309217389217019,-0.33602000707089896,0.2738712286066264
1791103166862790400,11.157790283203125,0.2741431043505668,0.870064339929819,0.07117628065906464
1791103166872763400,11.167763427734375,-0.6024965223163365,1.3950176038384436,0.6798984725572168
1791103166882736400,11.177736328125,-0.3719055594444275,0.8810223717957735,-0.47641456618905065
1791103166892709400,11.18770947265625,-0.6705097358345985,0.29286943213045596,0.48864860934019083
1791103166902682400,11.197682373046876,-1.3502768370971083,-0.030970892325043676,-0.38494193195439874
1791103166912655400,11.2076552734375,-1.8902651730522513,0.556198881521821,0.13013437332324682
1791103166922628400,11.21762841796875,-0.41766631688326594,-0.17380466128885744,-0.8050153830446303
1791103166932601000,11.22760107421875,-0.37363691328167914,0.38710020596683026,-0.6896591113321483
1791103166942574300,11.23757421875,0.11494447604119777,0.14512743285894394,-0.892397021638602
1791103166952546300,11.24754638671875,-0.46698564358651634,0.653188598677516,-0.2464898486735299
1791103166962519300,11.257519287109375,0.5708417393803596,-0.38439737674891944,-0.38394557786080985
1791103166972492300,11.2674921875,-0.14601824421882628,0.134603116235137,0.3311866686303168
1791103166982465300,11.27746533203125,-0.9527738950595259,0.5577092860847711,0.7120664657123387
1791103166992438300,11.287438232421875,-0.31558336824178695,0.5528402187436818,-0.6408068176187575
1791103167002411300,11.297411376953125,0.5003133281707763,0.06600771891474723,-0.8974188683886081
1791103167012384500,11.307384521484375,-0.3277420080691576,0.7475339388042688,0.7774855710841715
1791103167022357200,11.317357177734374,0.022754268121719358,-0.7403560099989175,0.5836851466014981
1791103167032330200,11.327330322265626,0.5858370639383792,-0.39918285794854164,-0.17983590427711604
1791103167042303200,11.33730322265625,0.3403630047112703,-0.08621171803176403,1.1382950053662062
1791103167052276500,11.3472763671875,0.36387715128958226,0.15115560710728168,0.7817535307269543
1791103167062249500,11.35724951171875,0.9908759544387459,0.6767237880438566,-0.20849388001728802
1791103167072222200,11.36722216796875,-0.23302432749867438,0.02937865469753742,0.22723865676932037
1791103167082195200,11.3771953125,0.0578287963733077,-0.6871586728185415,-0.07749397590588777
1791103167092168400,11.38716845703125,-1.5817513048052787,-0.7225362756699323,0.11432104691322892
1791103167102141400,11.397141357421875,-0.8091779095515609,-0.5167109207421541,-0.296993307127431
1791103167112114400,11.407114501953124,0.37256840726733204,-0.5316507157206535,0.3833663532007485
1791103167122087200,11.417087158203126,0.5718561771199107,-0.5610761321693658,0.19199377691950648
1791103167132060400,11.427060302734375,0.4868763389706611,0.580733018797636,0.2035920063851401
1791103167142033400,11.437033447265625,1.8860534005761145,0.40220951229333873,0.7712238803409039
1791103167152006400,11.44700634765625,2.6873341271370648,-0.8610188636869192,0.7776923457026481
1791103167161979400,11.4569794921875,0.31555589571297166,0.028636896419525146,0.2723997312819585
1791103167171952000,11.4669521484375,-0.2156909153819084,0.4245645519644022,0.2200569833706133
1791103167181925400,11.47692529296875,0.3395966965138912,-0.004819382980465889,-0.39883024511858817
1791103167191898400,11.4868984375,-0.058204351687431335,0.20469956576824186,-0.20994804261466488
1791103167201871400,11.496871337890624,-0.9701470546647906,-0.611791004884243,0.43836109519191085
1791103167211844400,11.50684423828125,0.29894378360807894,-1.2312334013044834,-0.04958751265276223
1791103167221817300,11.5168173828125,-0.3589002396598458,0.09963292514085768,0.2084119738874957
1791103167231790300,11.526790283203125,-0.27766777134537696,0.3011199586033821,1.2963475323803721
1791103167241763300,11.536763427734375,0.6895937910109758,0.07231471010446548,-0.5111022870801389
1791103167251736300,11.546736328125,-0.9167568252608179,0.5819599302440881,-0.3115278823059052
1791103167261709300,11.556709228515626,0.5459866995871067,-0.7363233934819697,0.7116613189775496
1791103167271682300,11.566682373046875,0.028074586361646652,-0.40044951688349245,-0.02087639108640142
1791103167281654300,11.576654296875,-0.24776421599090098,0.6456546960413455,-0.7261056585893034
1791103167291627500,11.58662744140625,0.334123233538866,0.4322200351536274,0.1498555573593825
1791103167301600300,11.596600341796876,-0.22800737611949443,0.3513683828502893,0.0002044182646088302
1791103167311573200,11.6065732421875,0.078043024623394,-0.15634031626880168,-0.9350631740629672
1791103167321546200,11.616546142578125,1.7450149905964731,-0.7498959917604923,-0.2057117019528523
1791103167331519500,11.62651953125,1.0431374720737336,-0.3341489525020122,0.032422520472039466
1791103167341492500,11.636492431640624,-1.6993439572677016,0.11059212605059146,-1.2361454310044646
1791103167351465200,11.64646533203125,-0.7402233235299587,0.29712708957493306,-0.21328166228309273
1791103167361438200,11.656438232421875,-0.6517495057851076,-0.6047048460155725,-0.6724616736199707
1791103167371411200,11.6664111328125,-2.2748323534101247,-0.4119488160192966,-0.5736434258628637
1791103167381384400,11.676384521484374,-0.8654922097086906,-0.3530558975458145,-0.7881354137837886
1791103167391357400,11.686357421875,-0.9814040694773196,-0.050609074252843854,-0.030278880056447813
1791103167401330200,11.696330078125,0.05604658913165331,0.11861936516165733,-0.7894978612434118
1791103167411303200,11.70630322265625,0.8363274900227785,0.5324158548742532,-0.3338829585095867
1791103167421276400,11.7162763671875,0.3322293826162815,0.7072375842511653,-0.435726508904621
1791103167431249400,11.72624951171875,1.0487108882918954,-0.4871931498348713,-0.47094844627026466
1791103167441222400,11.736222412109376,1.1553501850634813,-0.039375732576847074,-0.39826037280876186
1791103167451195100,11.746195068359375,-0.6900666692197323,1.0533382558315991,0.4917401090821251
1791103167461168400,11.75616845703125,-1.2781354377329348,0.5592921713620423,0.08653179856529458
1791103167471141400,11.766141357421875,-0.48327276152074333,-0.06984452059864997,0.4588752927692607
1791103167481114400,11.7761142578125,-1.5015055094406007,-0.09321604383587836,1.3547249025471508
1791103167491087400,11.78608740234375,0.6590934388071298,-0.9535095158576965,0.5391545520121231
1791103167501060400,11.796060302734375,0.14744740023911,0.05602993025779724,0.2967086632334627
1791103167511033300,11.806033447265625,-0.46471536056697366,0.444994176530838,0.32471940884497014
1791103167521006300,11.81600634765625,-0.7565022581577301,1.1926099483996628,-0.09604115685974247
1791103167530979300,11.825979248046876,-0.16343524296581743,0.11225742891430854,-0.8257362456426024
1791103167540952300,11.835952392578125,0.9672700379237532,-1.7611270442247389,-0.3006685615740716
1791103167550925300,11.84592529296875,-0.296588160392642,-1.4422142392992972,0.5401112316824496
1791103167560898300,11.855898193359375,-0.7487298705905675,-1.1432266165494918,0.19051404148945583
1791103167570871300,11.865871337890624,0.17814941249489782,0.4112696015834808,-0.4961577063286677
1791103167580843500,11.875843505859375,0.49426937183141706,0.24675007051229475,0.13654914486953057
1791103167590816300,11.885816162109375,1.083945283280313,-0.03861410055458545,-0.835843505898118
1791103167600789200,11.895789306640625,1.093212585580349,0.18888298795521258,-0.22445914558600633
1791103167610762200,11.90576220703125,1.4304139113903045,-0.35040509077608584,0.8084563172787428
1791103167620735500,11.915735595703126,0.9641282327666878,0.5188344887673855,0.34666290857307613
1791103167630708200,11.925708251953125,0.051338265310227865,0.6192191090583801,-0.45289121339097616
1791103167640681200,11.93568115234375,-0.008870119675993918,-0.22071312745809554,-0.44501273510083555
1791103167650654200,11.945654296875,-0.4463470524445176,-0.3744441380113363,-0.21823486424367874
1791103167660627500,11.95562744140625,0.06428717873245478,-0.9222329185843468,-0.5298247058698907
1791103167670600400,11.965600341796875,-0.3915583544194698,-0.5133434901356697,-0.9152968357108533
1791103167680573200,11.9755732421875,-0.12379530649483203,-0.3017664398133755,-0.12475948448502458
1791103167690546200,11.985546142578125,0.08130407224595547,-1.1466823099613188,-0.5526341747775674
1791103167700519400,11.99551953125,0.5342898320525884,-0.8902771068751811,-0.699983740665391
1791103167710492400,12.005492431640626,-0.2880973954230547,0.20662322730720042,-0.6210680979259312
1791103167720465400,12.01546533203125,0.03804010005891323,-0.012811550778150558,-1.0008778546236454
1791103167730438100,12.025438232421875,0.7816025048837065,-0.09374386710226536,-0.978006389863044
1791103167740411400,12.035411376953125,-0.9250061826899647,0.4643026881128549,-1.0106582940775901
1791103167750384400,12.04538427734375,2.0559663151234386,-0.6379249785721302,-0.9900529476180672
1791103167760357400,12.055357421875,1.9055629876881837,-0.9143775289088487,-0.6416485291399061
1791103167770330400,12.065330322265625,0.1505252002492547,-1.1074030234962702,-0.06201817435454577
1791103167780303400,12.075303466796875,0.04270867639183998,-0.7656739911288023,-0.7270886782772839
1791103167790276400,12.0852763671875,0.12973434115499258,-0.13969605545997618,-0.22173271629679947
1791103167800249300,12.095249267578126,-1.0650275245815515,0.40892216167449946,0.41442598325517027
1791103167810222300,12.105222412109375,0.23815467612445354,0.15501345157921315,0.6679932229690253
1791103167820195800,12.11519580078125,0.6211927472189068,-0.4420347422033548,0.6441316511925309
1791103167830168800,12.1251689453125,-0.9825047241955995,0.3296984028339386,1.206679390284419
1791103167840141800,12.135141845703124,0.11937632100880145,0.2317640983045101,0.33949020393211393
1791103167850114800,12.14511474609375,-0.6948124024420976,-0.05071253462731838,0.6140913907811045
1791103167860087000,12.155087158203125,-1.2876304113090038,-0.06049100131988525,0.3276134132534265
1791103167870059800,12.165059814453125,1.0198062808468937,-0.8212059087365865,0.7601116808265447
1791103167880032800,12.17503271484375,-0.6466361082941293,-0.1729313855856657,0.8374056406483054
1791103167890005800,12.185005859375,0.8552958098649978,0.10972177295684814,1.2448697124689816
1791103167899978800,12.194978759765625,1.1925754616081714,1.2055892569601534,0.29473752755727617
1791103167909952000,12.204951904296875,-0.4206511779129505,1.3825614423692225,1.3765063801139592
1791103167919924700,12.2149248046875,0.21202830122113225,-0.3346393663674593,0.17451953155994415
1791103167929897700,12.224897705078124,0.11351999619603156,-0.5189297658354044,0.43234925102386623
1791103167939870700,12.23487060546875,-2.0685259369671343,0.28463001157343387,1.2595851971723138
1791103167949844000,12.244843994140625,-0.9877496391117572,-0.24823007993698118,-0.07547134750448167
1791103167959817000,12.25481689453125,-0.34402620339393614,-0.25564474010765553,0.14098273426964877
1791103167969789700,12.264789794921874,-0.7504863588690758,0.6956161200404167,0.5371799274709076
1791103167979762700,12.2747626953125,-0.7004536231994628,0.5760048212319612,0.1510450594048947
1791103167989736000,12.28473583984375,-0.16720920854657886,0.20117899042665957,-0.10220745180398225
1791103167999709000,12.294708984375,-0.1729483367204666,0.3081745532900095,0.04673822416886687
1791103168009682000,12.304681884765625,-0.9662035777360201,-0.03731003221869469,-0.3380418682873249
1791103168019654700,12.314654541015624,0.7354553784757852,-1.1951041033029555,-0.5289524165473878
1791103168029628000,12.3246279296875,0.4443856892436743,-0.9203349760085344,-0.5788157139342278
1791103168039601000,12.334600830078125,-1.4566373169273137,1.1483166331648826,-0.07911693746522068
1791103168049574000,12.344573974609375,0.056985623547434805,1.25490653783679,-0.22063765106908975
1791103168059547000,12.354546875,0.8615811737447977,1.685870435449481,-0.3925000191837549
1791103168069520000,12.364519775390624,0.91723788677603,-0.06896189254522324,0.4314897481177002
1791103168079492900,12.374492919921876,-0.25876316438913344,-0.04836100306510925,0.45559280049987133
1791103168089465900,12.3844658203125,-0.043324470202624796,-0.2731131767809391,0.5992066869907081
1791103168099438800,12.39443896484375,0.20297990236878394,-0.5137620078086853,0.685806892883405
1791103168109410800,12.404410888671874,0.1478100960716605,0.11556816089749336,-0.13730923338867723
1791103168119383800,12.4143837890625,0.7649930231273174,-0.3010059768348932,-0.027703341896459458
1791103168129356800,12.424356689453125,1.4895365469664335,0.4870528645813465,0.3165036979570985
1791103168139329800,12.434329833984375,1.3824538903415202,0.3534305760771036,0.48275589803978797
1791103168149302800,12.444302734375,1.7307120322167873,-0.21432547224760054,-0.6964390537958591
1791103168159275800,12.45427587890625,1.0837795713245868,-0.87987261723876,0.9263033098284155
1791103168169248800,12.464248779296875,-0.7674895161181687,-0.6219792214214801,0.6180824331786483
1791103168179221800,12.4742216796875,-0.9133069770678878,-0.9609960722208023,0.6190266552262008
