time,seconds_elapsed,z,y,x
1791103155742922000,0.037921875,0.12587697803974152,0.009275257587432861,-0.047684431076049805
1791103155752895000,0.04789501953125,0.1199202761054039,0.03256380185484886,-0.021261878311634064
1791103155762868000,0.057867919921875,0.14052648842334747,0.026512300595641136,-0.010552243329584599
1791103155772841000,0.067841064453125,0.09828795492649078,0.03160826116800308,-0.01631319336593151
1791103155782814000,0.07781396484375,0.13306750357151031,0.07755231857299805,-0.01583302579820156
1791103155792787200,0.087787109375,0.125040203332901,0.051959339529275894,0.05477696284651756
1791103155802760700,0.0977607421875,0.1541605442762375,0.07885060459375381,0.03720888867974281
1791103155812733700,0.107733642578125,0.18967565894126892,0.04006113484501839,0.11529409885406494
1791103155822706700,0.117706787109375,0.20285430550575256,0.12301087379455566,-0.026498984545469284
1791103155832679400,0.127679443359375,0.15464496612548828,0.06472280621528625,0.13976801931858063
1791103155842652700,0.137652587890625,0.16375671327114105,0.12020683288574219,-0.03410177677869797
1791103155852625700,0.147625732421875,0.19535404443740845,0.12023533135652542,0.08195345848798752
1791103155862598700,0.1575986328125,0.17243674397468567,0.10505078732967377,-0.04000893607735634
1791103155872571400,0.1675712890625,0.17270971834659576,0.09647300839424133,-0.0282734502106905
1791103155882544600,0.177544677734375,0.15544791519641876,0.10332159698009491,-0.05302460119128227
1791103155892517600,0.187517578125,0.07796350866556168,0.08523180335760117,-0.05829206854104996
1791103155902490600,0.19749072265625,0.055931709706783295,0.025716548785567284,-0.027816982939839363
1791103155912463600,0.207463623046875,0.054124753922224045,0.010641459375619888,-0.04439675807952881
1791103155922436400,0.217436279296875,-0.01170592475682497,-0.004795820452272892,0.05254629999399185
1791103155932409600,0.22740966796875,-0.045091044157743454,-0.048336371779441833,-0.003067428944632411
1791103155942382600,0.237382568359375,-0.0742366835474968,-0.043470513075590134,0.04056766629219055
1791103155952355600,0.24735546875,-0.08542248606681824,-0.06292543560266495,0.10234580934047699
1791103155962328600,0.25732861328125,0.006518619135022163,0.012412727810442448,0.02918531559407711
1791103155972301600,0.267301513671875,0.11740226298570633,0.0020793962758034468,0.09321942925453186
1791103155982274600,0.277274658203125,0.12926878035068512,0.09056372195482254,0.01607590541243553
1791103155992247600,0.28724755859375,0.05107037350535393,0.07212905585765839,0.10721433907747269
1791103156002220500,0.297220458984375,0.07166113704442978,0.12639042735099792,0.03026815690100193
1791103156012193800,0.30719384765625,0.07199189811944962,0.12521837651729584,-0.015143798664212227
1791103156022166500,0.31716650390625,0.04896381497383118,0.15083585679531097,0.016213057562708855
1791103156032139500,0.327139404296875,0.07766816020011902,0.11986701190471649,-0.054133277386426926
1791103156042112500,0.337112548828125,0.03497449681162834,0.14408713579177856,-0.017060475423932076
1791103156052085800,0.347085693359375,0.03930160030722618,0.1361655592918396,-0.10746654123067856
1791103156062058800,0.357058837890625,0.08434843271970749,0.11191348731517792,-0.03401309251785278
1791103156072031500,0.367031494140625,0.030187463387846947,0.11997540295124054,-0.06348363310098648
1791103156082004500,0.37700439453125,0.0005139900604262948,0.09116479754447937,-0.08769523352384567
1791103156091977500,0.3869775390625,-0.021567076444625854,0.07420365512371063,-0.024759940803050995
1791103156101949700,0.39694970703125,-0.013371998444199562,0.06057466194033623,-0.002867691917344928
1791103156111922400,0.40692236328125,-0.0449373796582222,0.04640078917145729,0.0022189458832144737
1791103156121895400,0.4168955078125,-0.04958166927099228,0.04680425673723221,-0.012563995085656643
1791103156131868700,0.42686865234375,-0.04205717146396637,0.04765300452709198,0.03387434408068657
1791103156141841700,0.436841552734375,-0.0019891150295734406,0.07085712999105453,-0.001591505017131567
1791103156151814700,0.446814697265625,-0.03900465741753578,0.06496834754943848,0.04990124702453613
1791103156161787400,0.456787353515625,-0.030493460595607758,0.05167517811059952,0.01635979861021042
1791103156171760600,0.4667607421875,-0.0358717143535614,0.05498788505792618,0.07579702883958817
1791103156181733600,0.476733642578125,-0.03164874017238617,0.06965657323598862,-0.01733664609491825
1791103156191706600,0.48670654296875,-0.07886844873428345,0.028743231669068336,0.03401282802224159
1791103156201679400,0.496679443359375,-0.11272681504487991,0.00959989707916975,0.00833862368017435
1791103156211652600,0.506652587890625,-0.09145534783601761,0.013274792581796646,0.08303123712539673
1791103156221625600,0.51662548828125,-0.03237631544470787,0.07494907826185226,-0.03245408087968826
1791103156231598600,0.5265986328125,-0.004180097486823797,0.03548369184136391,0.06732817739248276
1791103156241571600,0.536571533203125,0.03574547916650772,0.07146566361188889,-0.06256271153688431
1791103156251544600,0.546544677734375,0.0682016909122467,0.09992367029190063,0.010432667098939419
1791103156261517600,0.556517578125,-0.028915271162986755,0.07855206727981567,-0.010941331274807453
1791103156271490600,0.566490478515625,-0.018871426582336426,0.07402922213077545,-0.09691216796636581
1791103156281463600,0.576463623046875,-0.011322429403662682,0.08276785165071487,-0.06145217642188072
1791103156291436800,0.586436767578125,-0.039202794432640076,0.019334549084305763,0.09540588408708572
1791103156301409500,0.596409423828125,-0.015593074262142181,-0.019230153411626816,-0.04344974085688591
1791103156311382500,0.606382568359375,-0.04392777755856514,0.007239803206175566,-0.06811939924955368
1791103156321355500,0.61635546875,-0.08721346408128738,-0.040354348719120026,0.012830844148993492
1791103156331328500,0.62632861328125,-0.11123277992010117,-0.057984739542007446,0.029880667105317116
1791103156341301800,0.6363017578125,-0.13573972880840302,-0.060631390661001205,0.06568233668804169
1791103156351274500,0.6462744140625,-0.18987885117530823,-0.06640245765447617,-0.02033190242946148
1791103156361247500,0.65624755859375,-0.1829431802034378,-0.12822188436985016,0.11347809433937073
1791103156371220500,0.666220458984375,-0.1381613314151764,-0.09453929215669632,0.027774106711149216
1791103156381193700,0.67619384765625,-0.15780241787433624,-0.1410418152809143,0.13076892495155334
1791103156391166700,0.686166748046875,-0.17132355272769928,-0.12374085187911987,0.038840871304273605
1791103156401139500,0.696139404296875,-0.13144750893115997,-0.10632723569869995,0.017051953822374344
1791103156411112400,0.706112548828125,-0.15518160164356232,-0.08974479883909225,0.014158429577946663
1791103156421085700,0.716085693359375,-0.13244032859802246,-0.13936668634414673,0.07061851024627686
1791103156431058700,0.72605859375,-0.13590456545352936,-0.0743730366230011,-0.06126335635781288
1791103156441031700,0.73603173828125,-0.1703467071056366,-0.12366201728582382,0.014166419394314289
1791103156451004400,0.74600439453125,-0.135446235537529,-0.11664805561304092,-0.08529998362064362
1791103156460977700,0.755977783203125,-0.18516506254673004,-0.10916244238615036,0.048354748636484146
1791103156470950700,0.76595068359375,-0.13531707227230072,-0.1191418394446373,-0.03518648445606232
1791103156480923600,0.775923583984375,-0.14573483169078827,-0.14669090509414673,0.08636604994535446
1791103156490896400,0.785896484375,-0.09143723547458649,-0.09831112623214722,0.05938023701310158
1791103156500869600,0.79586962890625,-0.046781353652477264,-0.055926647037267685,0.05012335628271103
1791103156510842600,0.805842529296875,-0.02268081158399582,-0.04628414288163185,0.056177519261837006
1791103156520815600,0.815815673828125,-0.031808264553546906,-0.025967685505747795,0.04186036437749863
1791103156530788600,0.82578857421875,-0.0596231147646904,-0.02088024839758873,-0.0528099499642849
1791103156540761300,0.83576123046875,-0.05422462150454521,-0.042813245207071304,-0.05342034623026848
1791103156550734600,0.845734619140625,-0.09864109009504318,-0.07412642240524292,-0.0684584230184555
1791103156560707600,0.85570751953125,-0.09805679321289062,-0.07418448477983475,-0.04649932309985161
1791103156570680600,0.8656806640625,-0.13899436593055725,-0.11601235717535019,-0.05278438329696655
1791103156580653600,0.875653564453125,-0.15350939333438873,-0.14614416658878326,-0.0792897641658783
1791103156590626600,0.88562646484375,-0.17486289143562317,-0.17994020879268646,-0.022540729492902756
1791103156600598500,0.8955986328125,-0.13305819034576416,-0.191894069314003,0.015540343709290028
1791103156610571500,0.905571533203125,-0.16861271858215332,-0.1971287876367569,0.05404592305421829
1791103156620544800,0.915544677734375,-0.11842038482427597,-0.19653064012527466,0.017163274809718132
1791103156630517500,0.925517578125,-0.09455233812332153,-0.16532371938228607,0.004680505488067865
1791103156640490500,0.935490478515625,-0.07372881472110748,-0.14970266819000244,-0.011896606534719467
1791103156650463500,0.94546337890625,-0.07510513812303543,-0.1287587732076645,-0.036310870200395584
1791103156660436700,0.955436767578125,-0.05465658754110336,-0.13171514868736267,-0.05865292623639107
1791103156670409700,0.96540966796875,-0.02237614616751671,-0.0965409204363823,-0.07106778770685196
1791103156680382500,0.975382568359375,-0.006851514335721731,-0.10306007415056229,-0.1277284026145935
1791103156690355500,0.98535546875,-0.03290122374892235,-0.13305525481700897,-0.03574894368648529
1791103156700328700,0.99532861328125,-0.044809550046920776,-0.1355796605348587,-0.08435456454753876
1791103156710301700,1.0053017578125,-0.06433025002479553,-0.17999400198459625,0.013759488239884377
1791103156720274700,1.015274658203125,-0.034938275814056396,-0.2043001353740692,0.01672997698187828
1791103156730247400,1.025247314453125,-0.05157371237874031,-0.1593257486820221,0.046557117253541946
1791103156740220700,1.035220703125,-0.09170621633529663,-0.17602775990962982,0.06409509479999542
1791103156750193700,1.045193603515625,-0.01696140691637993,-0.163648322224617,0.02394767664372921
1791103156760166700,1.055166748046875,0.11906327307224274,-0.10468833148479462,-0.017425062134861946
1791103156770139600,1.0651396484375,0.15899445116519928,-0.08400329202413559,-0.020970262587070465
1791103156780112400,1.0751123046875,0.14700675010681152,-0.06224286928772926,-0.07079187780618668
1791103156790085600,1.085085693359375,0.14153289794921875,-0.050560113042593,-0.0003528688393998891
1791103156800058600,1.09505859375,0.14420883357524872,-0.02780207060277462,-0.059124305844306946
1791103156810031000,1.105031005859375,0.16941432654857635,-0.05977252125740051,-0.040828388184309006
1791103156820004400,1.11500439453125,0.06408923864364624,-0.050462909042835236,0.05355457216501236
1791103156829977300,1.124977294921875,0.06981769949197769,-0.060440972447395325,0.021261079236865044
1791103156839950300,1.134950439453125,0.13151435554027557,-0.04201029986143112,-0.010785269550979137
1791103156849923000,1.144923095703125,0.17481601238250732,-0.010879012756049633,0.026486733928322792
1791103156859896000,1.15489599609375,0.21251386404037476,0.03207724168896675,0.01053440012037754
1791103156869869300,1.164869384765625,0.20750606060028076,-0.0043595945462584496,-0.05174309015274048
1791103156879842300,1.17484228515625,0.15693822503089905,0.03117416426539421,0.05355323851108551
1791103156889815000,1.18481494140625,0.2564866542816162,0.07899894565343857,-0.07252666354179382
1791103156899788000,1.1947880859375,0.07872330397367477,-0.09292861074209213,0.11842171847820282
1791103156909761300,1.20476123046875,0.05927051231265068,-0.045344579964876175,0.001933454885147512
1791103156919734300,1.214734375,0.07027549296617508,-0.014788000844419003,-0.004700212739408016
1791103156929707300,1.224707275390625,0.042868904769420624,-0.04664153605699539,0.035356923937797546
1791103156939680000,1.234679931640625,0.11138112097978592,-0.019653063267469406,0.04945782944560051
1791103156949653200,1.2446533203125,0.1547648161649704,0.020123111084103584,-0.016860472038388252
1791103156959626200,1.254626220703125,0.18499009311199188,-0.0420161597430706,0.01447268296033144
1791103156969599200,1.26459912109375,0.1455926150083542,0.031977374106645584,-0.026317890733480453
1791103156979572200,1.274572265625,0.17566503584384918,0.05884973332285881,-0.09644851088523865
1791103156989545200,1.284545166015625,0.12605753540992737,0.04090855270624161,-0.06069290637969971
1791103156999518200,1.294518310546875,0.13248640298843384,0.051834434270858765,-0.09514089673757553
1791103157009491200,1.3044912109375,0.08100403845310211,0.03519154340028763,-0.07131092995405197
1791103157019464200,1.314464111328125,0.04587028548121452,0.024036360904574394,-0.06178560480475426
1791103157029437200,1.324437255859375,0.0870257094502449,0.026672357693314552,-0.027214843779802322
1791103157039410200,1.33441015625,0.1285952627658844,0.029501432552933693,0.04890655726194382
1791103157049382100,1.344382080078125,0.16883616149425507,0.08030682057142258,-0.02660311572253704
1791103157059355100,1.354355224609375,0.15519225597381592,0.08600092679262161,-0.0360243134200573
1791103157069328400,1.364328369140625,0.11137126386165619,0.08359476178884506,-0.05043627694249153
1791103157079301000,1.374301025390625,0.1507359892129898,0.09718460589647293,-0.1190667375922203
1791103157089274000,1.384274169921875,0.14597931504249573,0.10602044314146042,-0.06739475578069687
1791103157099247000,1.3942470703125,0.11010013520717621,0.06822193413972855,-0.026044117286801338
1791103157109220400,1.404220458984375,0.13992621004581451,0.09827090799808502,-0.08878366649150848
1791103157119193300,1.414193359375,0.12574221193790436,0.10297458618879318,-0.0698121041059494
1791103157129166000,1.424166015625,0.11988246440887451,0.0809028372168541,0.00315957423299551
1791103157139139000,1.43413916015625,0.1327386051416397,0.07696668803691864,0.031955536454916
1791103157149112300,1.4441123046875,0.15443484485149384,0.11743288487195969,0.009853163734078407
1791103157159085300,1.454085205078125,0.1379975527524948,0.11712342500686646,0.0545005276799202
1791103157169058300,1.464058349609375,0.1378372311592102,0.11698334664106369,0.05401263386011124
1791103157179031000,1.474031005859375,0.1803300976753235,0.12605327367782593,0.017050089314579964
1791103157189004300,1.48400439453125,0.16605661809444427,0.15453605353832245,-0.03188949078321457
1791103157198977300,1.493977294921875,0.16449972987174988,0.1310291290283203,0.05620335042476654
1791103157208950300,1.5039501953125,0.17151503264904022,0.14932504296302795,0.056653425097465515
1791103157218923000,1.513923095703125,0.16948384046554565,0.1846577227115631,0.025077922269701958
1791103157228896300,1.523896240234375,0.09685410559177399,0.12709376215934753,0.12688471376895905
1791103157238869200,1.533869140625,0.11757349967956543,0.16172471642494202,0.019533753395080566
1791103157248842200,1.54384228515625,0.1655048131942749,0.14424745738506317,0.09252513945102692
1791103157258815200,1.553815185546875,0.20663227140903473,0.1479090303182602,0.07550940662622452
1791103157268788200,1.563788330078125,0.16882577538490295,0.1940767914056778,0.057732805609703064
1791103157278761200,1.57376123046875,0.2018100917339325,0.1899837851524353,0.039198003709316254
1791103157288734200,1.583734130859375,0.17104284465312958,0.1945127546787262,0.05331834778189659
1791103157298707200,1.593707275390625,0.17448657751083374,0.1789867877960205,0.055331699550151825
1791103157308680200,1.60368017578125,0.11724406480789185,0.15213626623153687,0.14332839846611023
1791103157318653200,1.613653076171875,0.0720696672797203,0.14727307856082916,0.16470426321029663
1791103157328626200,1.623626220703125,0.09160608053207397,0.1583763211965561,0.06087906286120415
1791103157338599200,1.63359912109375,0.03953196108341217,0.16120512783527374,0.05031590163707733
1791103157348572200,1.643572265625,0.03754018619656563,0.14533455669879913,0.13033324480056763
1791103157358545400,1.65354541015625,0.08144638687372208,0.14067722856998444,0.012722985818982124
1791103157368518100,1.66351806640625,0.0793512836098671,0.10889319330453873,0.0774196907877922
1791103157378491100,1.6734912109375,0.06764642149209976,0.1540212631225586,-0.02387950010597706
1791103157388464000,1.683464111328125,0.06437738984823227,0.15704873204231262,0.032105471938848495
1791103157398437400,1.693437255859375,0.022710371762514114,0.14133821427822113,0.030855383723974228
1791103157408410400,1.703410400390625,0.025802036747336388,0.14042529463768005,0.07285609841346741
1791103157418383000,1.713383056640625,0.0010167949367314577,0.1744474321603775,0.0008972189389169216
1791103157428356000,1.723356201171875,-0.023000923916697502,0.13511520624160767,0.07430458813905716
1791103157438329300,1.733329345703125,-0.05739405006170273,0.1364382654428482,0.09372169524431229
1791103157448302300,1.74330224609375,-0.036266129463911057,0.14937856793403625,-0.008433698676526546
1791103157458274000,1.753274169921875,0.008582835085690022,0.14100345969200134,-0.027834294363856316
1791103157468247300,1.763247314453125,0.05753839388489723,0.15969139337539673,-0.004340420011430979
1791103157478220300,1.77322021484375,0.03507037088274956,0.1709432452917099,-0.04176954925060272
1791103157488193300,1.783193359375,-0.03807974234223366,0.16515779495239258,-0.09736676514148712
1791103157498166300,1.793166259765625,-0.06581763178110123,0.15900082886219025,-0.10398738831281662
1791103157508139000,1.803138916015625,-0.05862682685256004,0.1638890653848648,-0.07048987597227097
1791103157518112300,1.8131123046875,-0.06147587671875954,0.1493908166885376,-0.12097888439893723
1791103157528085200,1.823085205078125,-0.1421014815568924,0.11538651585578918,-0.09896333515644073
1791103157538058200,1.833058349609375,-0.12112056463956833,0.03518328815698624,-0.09831857681274414
1791103157548031000,1.843031005859375,-0.12373765558004379,-0.009244364686310291,-0.066471166908741
1791103157558004200,1.853004150390625,-0.14973729848861694,-0.023365776985883713,-0.03858627378940582
1791103157567977200,1.862977294921875,-0.18952199816703796,-0.06789463013410568,0.01284708920866251
1791103157577950200,1.8729501953125,-0.21206484735012054,-0.08556842803955078,0.006761766038835049
1791103157587923200,1.882923095703125,-0.22016511857509613,-0.07165687531232834,-0.03717266768217087
1791103157597896200,1.892896240234375,-0.23534274101257324,-0.06457553058862686,-0.05814266577363014
1791103157607869200,1.902869140625,-0.20179544389247894,-0.08455882966518402,-0.04899284243583679
1791103157617842200,1.91284228515625,-0.18082837760448456,-0.07260309904813766,-0.029938191175460815
1791103157627815200,1.922815185546875,-0.16901113092899323,-0.07940321415662766,-0.03364051878452301
1791103157637788400,1.932788330078125,-0.17742405831813812,-0.0835963562130928,-0.008617723360657692
1791103157647761200,1.94276123046875,-0.17277656495571136,-0.11406372487545013,-0.022960709407925606
1791103157657734100,1.952734130859375,-0.16246773302555084,-0.10764870047569275,-0.05163922533392906
1791103157667707100,1.96270703125,-0.16618044674396515,-0.11514975875616074,0.013526727445423603
1791103157677680000,1.97268017578125,-0.2057289332151413,-0.08835569769144058,0.07151173055171967
1791103157687653400,1.9826533203125,-0.1568830907344818,-0.060025785118341446,0.08017286658287048
1791103157697626000,1.992626220703125,-0.08025089651346207,-0.03484213724732399,0.04488331824541092
1791103157707599000,2.00259912109375,-0.06918440014123917,-0.035054124891757965,0.06324155628681183
1791103157717572000,2.012572021484375,-0.026159431785345078,-0.00806298665702343,-0.021893315017223358
1791103157727545300,2.02254541015625,-0.013658021576702595,0.03603469952940941,-0.05937331169843674
1791103157737518300,2.032518310546875,-0.028116056695580482,-0.008094944059848785,-0.0015872439835220575
1791103157747491000,2.042490966796875,-0.05856823921203613,-0.006040848325937986,0.015785355120897293
1791103157757464000,2.052464111328125,-0.07233811169862747,0.05916238948702812,-0.048594966530799866
1791103157767437300,2.062437255859375,-0.08629520982503891,0.0422329418361187,0.036129243671894073
1791103157777410300,2.072410400390625,-0.047982439398765564,0.006902380846440792,0.0592912882566452
1791103157787383300,2.08238330078125,0.06025135517120361,0.02599112130701542,0.081833615899086
1791103157797356000,2.09235595703125,0.032036229968070984,0.09263432770967484,0.05336282402276993
1791103157807330000,2.102330078125,0.04303295537829399,0.01278743427246809,0.10290481150150299
1791103157817303300,2.11230322265625,-0.013609551824629307,0.07651767879724503,0.012520851567387581
1791103157827275000,2.12227490234375,0.0008942894637584686,0.05962285026907921,-0.002989931032061577
1791103157837248000,2.132248046875,-0.02550882287323475,0.03387008234858513,-0.0013877731980755925
1791103157847221200,2.14222119140625,-0.04072239622473717,-0.025170866400003433,-0.045155227184295654
1791103157857194200,2.1521943359375,-0.11894955486059189,-0.034926824271678925,0.019475696608424187
1791103157867167000,2.1621669921875,-0.09668473154306412,-0.10172396153211594,-0.07993930578231812
1791103157877140000,2.172139892578125,-0.107901431620121,-0.1358523666858673,-0.04932493716478348
1791103157887113200,2.18211328125,-0.0750231146812439,-0.1731898933649063,-0.001683650421909988
1791103157897086200,2.192086181640625,-0.17035388946533203,-0.17328017950057983,0.00333161442540586
1791103157907059200,2.20205908203125,-0.16617566347122192,-0.2057584822177887,0.018810173496603966
1791103157917032000,2.212031982421875,-0.16361503303050995,-0.15900295972824097,0.04688362032175064
1791103157927005000,2.2220048828125,-0.043411921709775925,-0.11541447788476944,-0.016588296741247177
1791103157936978200,2.231978271484375,-0.031020766124129295,-0.13982181251049042,-0.023452328518033028
1791103157946951200,2.241951171875,-0.05270368978381157,-0.11597853153944016,-0.0019020296167582273
1791103157956924200,2.251924072265625,-0.03939187899231911,-0.02720525488257408,-0.006070409435778856
1791103157966897000,2.26189697265625,0.01170672383159399,-0.015932627022266388,-0.019136942923069
1791103157976870100,2.2718701171875,-0.0009419600828550756,-0.04765034466981888,0.016746755689382553
1791103157986843100,2.281843017578125,0.010839331895112991,0.0020295949652791023,-0.04944558069109917
1791103157996816100,2.291816162109375,-0.0033278861083090305,-0.003864246653392911,-0.009863017126917839
1791103158006788900,2.301788818359375,0.017235977575182915,-0.018994197249412537,-0.03402081876993179
1791103158016762000,2.31176220703125,-0.002180063631385565,-0.018911106511950493,0.04255038872361183
1791103158026735000,2.321735107421875,-0.0003384877636563033,0.021327126771211624,0.04141002520918846
1791103158036708000,2.3317080078125,-0.0062637547962367535,0.04519091546535492,0.03663444519042969
1791103158046681000,2.34168115234375,-0.022224612534046173,0.04926848039031029,0.024711737409234047
1791103158056654000,2.351654052734375,-0.0059873186983168125,0.06613960862159729,0.015667643398046494
1791103158066627000,2.361626953125,-0.013765613548457623,0.040774326771497726,0.019470904022455215
1791103158076600000,2.37160009765625,-0.005816876422613859,0.023868581280112267,0.016200274229049683
1791103158086573000,2.381572998046875,-0.030419956892728806,0.032833315432071686,0.0021164140198379755
1791103158096546000,2.391546142578125,-0.016331035643815994,-0.006474144756793976,-0.05510213226079941
1791103158106519000,2.40151904296875,-0.09018076211214066,-0.012470251880586147,-0.05313405767083168
1791103158116492000,2.411491943359375,-0.07596560567617416,-0.04524923861026764,-0.022700784727931023
1791103158126465000,2.421465087890625,-0.10348165035247803,-0.044191695749759674,-0.051898885518312454
1791103158136438000,2.43143798828125,-0.15104517340660095,-0.08045808970928192,0.017375262454152107
1791103158146411300,2.441411376953125,-0.15538932383060455,-0.07747402042150497,-0.012825783342123032
1791103158156384000,2.451384033203125,-0.11441925168037415,-0.041784998029470444,-0.050566237419843674
1791103158166356000,2.46135595703125,-0.11557559669017792,-0.0553056001663208,-0.02743455395102501
1791103158176329200,2.4713291015625,-0.11413349956274033,-0.053048569709062576,-0.029436452314257622
1791103158186302200,2.48130224609375,-0.11223173141479492,-0.04994731768965721,-0.012888634577393532
1791103158196275000,2.49127490234375,-0.08257263898849487,-0.02449655532836914,-0.0004295678809285164
1791103158206248000,2.501248046875,-0.06489431113004684,0.011600996367633343,0.0070368703454732895
1791103158216221200,2.51122119140625,-0.0633145272731781,0.02954457700252533,0.010989267379045486
1791103158226194200,2.521194091796875,-0.07340337336063385,0.036252547055482864,0.019824305549263954
1791103158236167200,2.531167236328125,-0.02899276837706566,0.022819828242063522,-0.005857356358319521
1791103158246140000,2.541139892578125,-0.05061816796660423,0.04180843383073807,-0.010823353193700314
1791103158256113200,2.551113037109375,-0.05915919318795204,-0.00896739587187767,0.0778236910700798
1791103158266086100,2.561086181640625,-0.07967458665370941,0.0023398532066494226,0.004553206264972687
1791103158276059100,2.57105908203125,-0.062067899852991104,0.012161591090261936,-0.009811085648834705
1791103158286032100,2.5810322265625,-0.07510806620121002,-0.012358665466308594,-0.042335204780101776
1791103158296005000,2.591005126953125,-0.091658815741539,-0.07060945779085159,0.07048428803682327
1791103158305978000,2.60097802734375,-0.09888769686222076,-0.04116128385066986,-0.009274458512663841
1791103158315951000,2.610951171875,-0.13186456263065338,-0.06660885363817215,0.018545720726251602
1791103158325924000,2.620924072265625,-0.0948982834815979,-0.07544974982738495,0.002267149044200778
1791103158335897000,2.63089697265625,-0.08554845303297043,-0.07231760770082474,-0.00865953415632248
1791103158345870000,2.6408701171875,-0.07990308851003647,-0.08867447823286057,0.018086858093738556
1791103158355843000,2.650843017578125,-0.08463232964277267,-0.07613897323608398,0.006059490609914064
1791103158365816000,2.660816162109375,-0.09064654260873795,-0.09456991404294968,-0.08514312654733658
1791103158375789000,2.6707890625,-0.10322518646717072,-0.10362306237220764,-0.022415027022361755
1791103158385762000,2.680761962890625,-0.006187588442116976,-0.09469694644212723,-0.02996588870882988
1791103158395735000,2.690735107421875,-0.024345286190509796,-0.05835092440247536,-0.030643396079540253
1791103158405708000,2.7007080078125,-0.04404229298233986,-0.10571790486574173,-0.007714112289249897
1791103158415681000,2.710680908203125,-0.056944508105516434,-0.0762026235461235,-0.0631030723452568
1791103158425654300,2.720654296875,-0.02099636197090149,-0.05179954692721367,-0.001014664419926703
1791103158435627000,2.730626953125,-0.004274906124919653,-0.05885745584964752,0.02245284430682659
1791103158445600000,2.74060009765625,0.03717666491866112,-0.0674714520573616,0.008330367505550385
1791103158455573000,2.750572998046875,0.006128998938947916,0.01696060784161091,-0.0737415999174118
1791103158465546200,2.760546142578125,0.0036879454273730516,-0.006411560345441103,0.21662844717502594
1791103158475519200,2.770519287109375,0.14213716983795166,0.03326607868075371,-0.1793750822544098
1791103158485491000,2.780490966796875,0.08436495065689087,0.07204729318618774,-0.07631740719079971
1791103158495464200,2.790464111328125,0.04053837060928345,0.049436524510383606,0.1828736811876297
1791103158505437200,2.800437255859375,0.12206865102052689,0.032838374376297,-0.05595940724015236
1791103158515410200,2.81041015625,0.09843149781227112,0.02737196907401085,-0.11026152968406677
1791103158525383000,2.8203828125,0.03835324943065643,0.04983413591980934,0.04899550601840019
1791103158535356200,2.830356201171875,0.08211271464824677,0.10430297255516052,-0.011505655013024807
1791103158545329200,2.8403291015625,0.1859070211648941,0.16512610018253326,-0.007677627261728048
1791103158555302100,2.85030224609375,0.1809721738100052,0.18492750823497772,0.08578867465257645
1791103158565275100,2.860275146484375,0.18422549962997437,0.1507841795682907,0.09154829382896423
1791103158575248100,2.870248046875,0.19873440265655518,0.14804379642009735,0.05443288013339043
1791103158585221000,2.88022119140625,0.20904695987701416,0.13837918639183044,0.12178263068199158
1791103158595194000,2.890194091796875,0.23315416276454926,0.16268877685070038,0.03176884725689888
1791103158605167000,2.9001669921875,0.17367830872535706,0.19022640585899353,0.09493103623390198
1791103158615140000,2.91014013671875,0.20241595804691315,0.16933390498161316,0.044252682477235794
1791103158625113000,2.920113037109375,0.27302542328834534,0.14277473092079163,0.013981062918901443
1791103158635086000,2.930086181640625,0.2733103632926941,0.1274580955505371,0.0051569449715316296
1791103158645059000,2.94005908203125,0.14933516085147858,0.08263842016458511,0.014602378010749817
1791103158655032000,2.950031982421875,0.09581387788057327,0.012228436768054962,-0.02779887430369854
1791103158665005000,2.960005126953125,0.02695997804403305,-0.019461048766970634,-0.036204610019922256
1791103158674978000,2.96997802734375,-0.014842063188552856,-0.06457579880952835,-0.05634423345327377
1791103158684951000,2.979950927734375,-0.031268175691366196,-0.11081945896148682,-0.009333847090601921
1791103158694924000,2.989924072265625,-0.049069009721279144,-0.10748597979545593,0.014609835110604763
1791103158704897300,2.999897216796875,-0.0400233156979084,-0.13152606785297394,0.03670288622379303
1791103158714870000,3.0098701171875,-0.03678011894226074,-0.14349351823329926,0.045806635171175
1791103158724843000,3.019843017578125,-0.00848403200507164,-0.1583867073059082,0.06498406082391739
1791103158734816000,3.02981591796875,0.015861786901950836,-0.09572972357273102,0.0009129316313192248
1791103158744789200,3.039789306640625,0.06187029182910919,-0.09593505412340164,-0.0014024205738678575
1791103158754762200,3.04976220703125,0.0401383638381958,-0.11855301260948181,0.0007480819476768374
1791103158764735000,3.05973486328125,0.05281661078333855,-0.09555821120738983,-0.011385013349354267
1791103158774708000,3.0697080078125,-0.020306870341300964,-0.06083991378545761,0.017533719539642334
1791103158784681000,3.079680908203125,-0.03758945316076279,-0.05236094072461128,0.00032437301706522703
1791103158794653200,3.089653076171875,-0.03627225384116173,-0.00424321461468935,-0.042873963713645935
1791103158804625700,3.099625732421875,-0.0023062974214553833,-0.043246541172266006,0.008564193733036518
1791103158814599000,3.109598876953125,-0.004378769546747208,-0.04779548570513725,-0.044253747910261154
1791103158824571600,3.119571533203125,-0.0017725999932736158,-0.06732950359582901,-0.048230912536382675
1791103158834544600,3.129544677734375,0.06079810485243797,-0.017284980043768883,-0.10443799197673798
1791103158844517600,3.139517578125,0.1444125771522522,0.045758433640003204,-0.046249255537986755
1791103158854491000,3.149490966796875,0.1274290680885315,0.0711442157626152,0.005542038008570671
1791103158864464000,3.1594638671875,0.12065797299146652,0.11723820865154266,-0.025682194158434868
1791103158874436600,3.1694365234375,0.08768884092569351,0.14482136070728302,-0.03425117954611778
1791103158884409600,3.17940966796875,0.0740760937333107,0.15050268173217773,-0.07140520960092545
1791103158894382600,3.189382568359375,0.0800599455833435,0.1346435695886612,-0.06027106195688248
1791103158904355800,3.19935595703125,0.23984003067016602,0.2788609266281128,-0.20129476487636566
1791103158914328800,3.209328857421875,-0.05831843242049217,0.23537389934062958,0.08153880387544632
1791103158924301600,3.219301513671875,0.19143840670585632,0.11254492402076721,-0.03855138644576073
1791103158934274600,3.229274658203125,0.16498816013336182,0.1318158209323883,0.03907389938831329
1791103158944247800,3.239247802734375,-0.006286657880991697,0.05385417863726616,0.05398759990930557
1791103158954220800,3.249220703125,-0.1744604855775833,-0.00780545873567462,0.19711652398109436
1791103158964193800,3.25919384765625,-0.1416761726140976,-0.06265592575073242,0.15646471083164215
1791103158974166500,3.26916650390625,-0.09626661241054535,-0.007831824012100697,0.100895456969738
1791103158984139800,3.279139892578125,-0.005390504375100136,0.004979046061635017,0.06885043531656265
1791103158994112800,3.28911279296875,-0.01864638924598694,-0.037040308117866516,0.07715523988008499
1791103159004085800,3.299085693359375,0.03458673879504204,-0.014957644045352936,-0.19348637759685516
1791103159014058500,3.30905859375,0.08681771904230118,0.06612788885831833,-0.030052173882722855
1791103159024031700,3.31903173828125,0.14832422137260437,0.01555019710212946,0.014872689731419086
1791103159034004700,3.329004638671875,0.116568423807621,-0.0009861685102805495,-0.15728390216827393
1791103159043977700,3.338977783203125,0.09888583421707153,0.08704835176467896,0.1164693534374237
1791103159053950700,3.34895068359375,0.10799544304609299,0.026576217263936996,0.019687417894601822
1791103159063923700,3.358923828125,0.01625620201230049,0.0021728731226176023,0.052078645676374435
1791103159073896700,3.368896728515625,0.04000627249479294,-0.043001264333724976,0.16451384127140045
1791103159083868700,3.37886865234375,0.029806097969412804,-0.054362308233976364,0.17173554003238678
1791103159093841700,3.388841552734375,0.05594635754823685,-0.05041390657424927,0.0376613587141037
1791103159103814700,3.398814697265625,-0.03074086830019951,-0.02894962579011917,0.06860329210758209
1791103159113787600,3.40878759765625,-0.061708636581897736,-0.03496890142560005,0.010371680371463299
1791103159123760600,3.4187607421875,0.03835218399763107,-0.02100248634815216,-0.0620226226747036
1791103159133733600,3.428733642578125,0.07199589908123016,0.012604208663105965,0.01877422071993351
1791103159143707000,3.438706787109375,0.06875403225421906,0.04205690696835518,-0.012035624124109745
1791103159153679600,3.4486796875,0.04176156222820282,0.06055469065904617,-0.04681757092475891
1791103159163652600,3.458652587890625,0.03614814952015877,0.08137102425098419,0.014480671845376492
1791103159173625600,3.46862548828125,0.0953558161854744,0.08888033777475357,-0.013914483599364758
1791103159183598800,3.478598876953125,0.1085864007472992,0.13921141624450684,-0.023540213704109192
1791103159193571800,3.48857177734375,0.1434711515903473,0.15424630045890808,-0.009377522394061089
1791103159203544600,3.498544677734375,0.08146769553422928,0.2169128656387329,-0.025217205286026
1791103159213517600,3.508517578125,0.09636861085891724,0.2220170795917511,-0.02835121378302574
1791103159223490800,3.51849072265625,0.12099113315343857,0.21963755786418915,-0.0028794098179787397
1791103159233463800,3.5284638671875,0.14636999368667603,0.26912015676498413,0.03725282847881317
1791103159243436800,3.538436767578125,0.2159208506345749,0.29998138546943665,0.0009190568816848099
1791103159253409500,3.548409423828125,0.17911116778850555,0.30159792304039,-0.07734858244657516
1791103159263382800,3.5583828125,0.14811010658740997,0.26367905735969543,0.024648355320096016
1791103159273355800,3.568355712890625,0.13314446806907654,0.2625266909599304,-0.08941536396741867
1791103159283328800,3.578328857421875,0.11252707988023758,0.2101638913154602,-0.023316774517297745
1791103159293301800,3.5883017578125,0.02954910323023796,0.20019488036632538,0.013819143176078796
1791103159303274800,3.598274658203125,-0.012165852822363377,0.16368453204631805,-0.01967623271048069
1791103159313247700,3.608247802734375,-0.05089167505502701,0.14268098771572113,-0.028417792171239853
1791103159323220700,3.618220703125,-0.04536401852965355,0.10818585753440857,0.016337428241968155
1791103159333193700,3.62819384765625,-0.06752018630504608,0.08663236349821091,0.0009150621481239796
1791103159343166500,3.63816650390625,-0.12053067237138748,0.05679111182689667,0.10056415945291519
1791103159353139700,3.6481396484375,-0.12783120572566986,0.05004559084773064,0.02738235518336296
1791103159363111700,3.658111572265625,-0.12440583854913712,0.05794026330113411,-0.043109387159347534
1791103159373084700,3.668084716796875,-0.13504250347614288,0.009823336265981197,0.05037582293152809
1791103159383057700,3.6780576171875,-0.12842801213264465,-0.017648501321673393,-0.01507162768393755
1791103159393030700,3.68803076171875,-0.1470850557088852,-0.02311677113175392,-0.029940055683255196
1791103159403003600,3.698003662109375,-0.16359452903270721,-0.06347378343343735,0.026669161394238472
1791103159412976600,3.7079765625,-0.1841815561056137,-0.0670541375875473,0.04649532958865166
1791103159422950000,3.717949951171875,-0.1478605717420578,-0.04989805072546005,0.06613747775554657
1791103159432922600,3.727922607421875,-0.16198943555355072,-0.05001256614923477,0.02002617157995701
1791103159442895600,3.7378955078125,-0.17361067235469818,-0.04302150383591652,0.014908109791576862
1791103159452868600,3.74786865234375,-0.1457233726978302,-0.02094709314405918,0.06602296233177185
1791103159462841900,3.757841796875,-0.15185265243053436,0.03695135936141014,-0.05723452568054199
1791103159472814800,3.76781494140625,-0.10550538450479507,0.00526640098541975,0.12156664580106735
1791103159482787600,3.77778759765625,0.002968891989439726,0.04327264055609703,-0.015908924862742424
1791103159492760600,3.787760498046875,0.021933794021606445,0.06337630748748779,0.057193782180547714
1791103159502733800,3.79773388671875,-0.03419845178723335,0.051248274743556976,0.03045244701206684
1791103159512706800,3.807706787109375,-0.024335432797670364,0.030005834996700287,-0.013187174685299397
1791103159522679800,3.8176796875,-0.10115138441324234,0.04085288941860199,-0.06124897673726082
1791103159532652500,3.827652587890625,-0.16189275681972504,0.04567188024520874,-0.010029464960098267
1791103159542625800,3.837625732421875,-0.170879065990448,0.05240568518638611,-0.05325922742486
1791103159552598800,3.847598876953125,-0.17177335917949677,0.003564641112461686,0.05872510001063347
1791103159562571800,3.85757177734375,-0.17028304934501648,-0.01455657184123993,-0.07366862893104553
1791103159572544800,3.867544677734375,-0.210533007979393,-0.03767387568950653,0.058695271611213684
1791103159582517500,3.877517578125,-0.19759003818035126,-0.08662064373493195,0.003058906877413392
1791103159592490800,3.88749072265625,-0.2209070771932602,-0.08822306990623474,0.07245635986328125
1791103159602463700,3.897463623046875,-0.1846369504928589,-0.08858605474233627,0.05416550114750862
1791103159612436700,3.907436767578125,-0.2119215726852417,-0.0787816271185875,0.052680786699056625
1791103159622409700,3.91740966796875,-0.16595914959907532,-0.08902814239263535,-0.030555512756109238
1791103159632382700,3.9273828125,-0.15062439441680908,-0.061652977019548416,-0.008670187555253506
1791103159642354700,3.937354736328125,-0.1403842717409134,-0.0891176238656044,0.04041986167430878
1791103159652327700,3.94732763671875,-0.1601763516664505,-0.10518553853034973,0.02634532004594803
1791103159662301000,3.957301025390625,-0.20415019989013672,-0.10349389910697937,0.00006631271389778703
1791103159672273700,3.967273681640625,-0.17626984417438507,-0.1247805505990982,0.00857404712587595
1791103159682246700,3.97724658203125,-0.12216532230377197,-0.13071326911449432,-0.022671490907669067
1791103159692219600,3.9872197265625,-0.08363630622625351,-0.14347779750823975,-0.030192524194717407
1791103159702193000,3.99719287109375,-0.08731013536453247,-0.1475793421268463,0.03160266578197479
1791103159712165600,4.00716552734375,-0.12576645612716675,-0.07491205632686615,-0.04104916751384735
1791103159722138600,4.017138671875,-0.16196680068969727,-0.14476917684078217,0.054970573633909225
1791103159732111600,4.027111572265625,-0.07505427300930023,-0.13506753742694855,0.09409160912036896
1791103159742084900,4.0370849609375,-0.15358902513980865,-0.11338621377944946,0.000031691615731688216
1791103159752057900,4.047057861328125,-0.0614875964820385,-0.1435859203338623,0.038296788930892944
1791103159762030600,4.057030517578125,-0.060746170580387115,-0.1313771903514862,0.001270594191737473
1791103159772003600,4.067003662109375,-0.011171693913638592,-0.13545289635658264,-0.05047409236431122
1791103159781976600,4.0769765625,-0.030376814305782318,-0.09914842247962952,-0.08747471868991852
1791103159791949800,4.08694970703125,-0.0017339842161163688,-0.08969073742628098,0.049075666815042496
1791103159801922800,4.0969228515625,-0.007607319392263889,-0.05945933237671852,-0.08121655881404877
1791103159811896000,4.10689599609375,-0.056587111204862595,-0.10152369737625122,-0.019211512058973312
1791103159821868800,4.116868896484375,-0.02040567249059677,-0.0963776707649231,-0.11297528445720673
1791103159831842000,4.126842041015625,0.06091341748833656,-0.12434671819210052,-0.013970676809549332
1791103159841815000,4.13681494140625,0.06788477301597595,-0.07960294932126999,0.04789402335882187
1791103159851788000,4.1467880859375,0.09236402064561844,-0.04248913750052452,0.08827366679906845
1791103159861761000,4.156760986328125,0.03964195027947426,-0.07258418947458267,-0.013845241628587246
1791103159871734000,4.166734130859375,-0.022464295849204063,-0.0975116416811943,-0.03260454908013344
1791103159881707000,4.17670703125,0.04368649423122406,-0.04045341536402702,-0.004282096866518259
1791103159891680000,4.186679931640625,0.033851705491542816,-0.06018451228737831,-0.014605307951569557
1791103159901652200,4.19665234375,0.08708377182483673,0.0014554174849763513,-0.1656145304441452
1791103159911625000,4.206625,0.07614350318908691,0.12636034190654755,-0.024533038958907127
1791103159921598000,4.216597900390625,0.2997821867465973,0.10641219466924667,-0.0730702131986618
1791103159931571000,4.226571044921875,0.24292609095573425,0.18429607152938843,-0.10751447826623917
1791103159941544000,4.2365439453125,0.24495568871498108,0.21065977215766907,-0.0269533209502697
1791103159951517200,4.24651708984375,0.1997850239276886,0.2304353415966034,0.0847495049238205
1791103159961490000,4.256489990234375,0.29622313380241394,0.23372913897037506,0.11103037744760513
1791103159971463000,4.266462890625,0.2061326652765274,0.3336610496044159,0.05798900127410889
1791103159981436000,4.276435791015625,0.29854461550712585,0.21106110513210297,0.17619340121746063
1791103159991409200,4.2864091796875,0.27632853388786316,0.20461918413639069,0.0496533066034317
1791103160001382100,4.296382080078125,0.312654584646225,0.21055883169174194,0.08026847243309021
1791103160011355000,4.30635498046875,0.3330828845500946,0.2573916018009186,0.0195529293268919
1791103160021328000,4.316327880859375,0.2927285432815552,0.2257481813430786,0.05349651351571083
1791103160031301000,4.326301025390625,0.19599959254264832,0.2662021219730377,-0.09923204779624939
1791103160041274000,4.336274169921875,0.14049425721168518,0.2252701371908188,0.06718756258487701
1791103160051246800,4.346246826171875,0.07822476327419281,0.15356318652629852,0.055333029478788376
1791103160061219800,4.3562197265625,0.05572318285703659,0.08664807677268982,0.02900901436805725
1791103160071193000,4.366193115234375,0.008885370567440987,0.04334348067641258,0.011432950384914875
1791103160081166000,4.376166015625,-0.1116170734167099,-0.0521063432097435,0.12088167667388916
1791103160091139000,4.38613916015625,-0.19079871475696564,-0.085701584815979,0.0028418591246008873
1791103160101111800,4.39611181640625,-0.24101820588111877,-0.11682861298322678,-0.035888493061065674
1791103160111085000,4.4060849609375,-0.2431015968322754,-0.13729794323444366,0.05152071639895439
1791103160121058000,4.41605810546875,-0.14869120717048645,-0.13692216575145721,-0.06378989666700363
1791103160131031000,4.426031005859375,-0.1101965457201004,-0.09070726484060287,-0.014533668756484985
1791103160141004000,4.436004150390625,-0.13754241168498993,-0.09371903538703918,0.02930862084031105
1791103160150977000,4.44597705078125,-0.11275184899568558,-0.11545708775520325,-0.016751017421483994
1791103160160950000,4.455949951171875,-0.15034183859825134,-0.07348007708787918,0.03628077730536461
1791103160170922000,4.465921875,-0.19010496139526367,-0.04796512797474861,0.0178809966892004
1791103160180895000,4.47589501953125,-0.13259932398796082,-0.04032478481531143,-0.10380415618419647
1791103160190868000,4.485867919921875,-0.11590902507305145,0.016039686277508736,-0.04658401384949684
1791103160200841000,4.495841064453125,-0.05296920984983444,0.05101311579346657,-0.10073992609977722
1791103160210814000,4.50581396484375,0.037163615226745605,0.03945686295628548,-0.04054636135697365
1791103160220787000,4.515786865234375,0.04646443575620651,0.0474330298602581,-0.05716075748205185
1791103160230760200,4.52576025390625,0.016882842406630516,0.0442899651825428,0.009649164974689484
1791103160240733000,4.53573291015625,-0.05619562789797783,0.06572495400905609,-0.005944442003965378
1791103160250706000,4.545705810546875,-0.04818430542945862,0.08046847581863403,0.007510646712034941
1791103160260679000,4.555678955078125,-0.0549391470849514,0.10618209838867188,0.0007877630414441228
1791103160270652200,4.565652099609375,-0.02762097492814064,0.09548391401767731,0.02947932854294777
1791103160280625200,4.575625244140625,-0.011991148814558983,0.1349727362394333,-0.043953344225883484
1791103160290598000,4.585597900390625,-0.00938950665295124,0.1206878051161766,-0.03437475115060806
1791103160300571000,4.59557080078125,-0.015371499583125114,0.10601910948753357,-0.023154055699706078
1791103160310544100,4.605544189453125,0.038721028715372086,0.0953395664691925,-0.032764606177806854
1791103160320517000,4.61551708984375,-0.05151059478521347,0.09232114255428314,-0.046792540699243546
1791103160330490000,4.625489990234375,-0.09503436833620071,0.022821692749857903,0.0223228819668293
1791103160340462800,4.635462890625,-0.14316381514072418,0.034444525837898254,0.02003815583884716
1791103160350436000,4.64543603515625,-0.1472799926996231,0.015626097097992897,0.022583872079849243
1791103160360409000,4.6554091796875,-0.19823426008224487,-0.008637430146336555,0.025831064209342003
1791103160370382000,4.665382080078125,-0.1741236001253128,-0.033137980848550797,-0.022167885676026344
1791103160380354800,4.675354736328125,-0.15482953190803528,-0.015442606061697006,-0.09020845592021942
1791103160390327800,4.685327880859375,-0.17609566450119019,-0.04080069437623024,-0.033963825553655624
1791103160400301000,4.695301025390625,-0.12565086781978607,-0.017470071092247963,-0.104426808655262
1791103160410274000,4.705274169921875,-0.12764158844947815,-0.003344397759065032,-0.11808589100837708
1791103160420247000,4.7152470703125,-0.15300792455673218,-0.0269559845328331,0.004567055031657219
1791103160430219800,4.7252197265625,-0.1382785141468048,0.01774277724325657,-0.09487724304199219
1791103160440193000,4.735193115234375,-0.13004322350025177,-0.020805679261684418,0.04935130476951599
1791103160450165000,4.7451650390625,-0.15684793889522552,-0.03863421082496643,0.10367073863744736
1791103160460138000,4.755137939453125,-0.1613614559173584,-0.04712942987680435,0.04368303343653679
1791103160470111000,4.765111083984375,-0.22603259980678558,-0.08061441779136658,0.03181944787502289
1791103160480084000,4.775083984375,-0.23242339491844177,-0.10653097182512283,0.059425242245197296
1791103160490057000,4.785056884765625,-0.18568438291549683,-0.07395119220018387,0.022640064358711243
1791103160500030000,4.795030029296875,-0.17585571110248566,-0.08052999526262283,0.042819634079933167
1791103160510003200,4.805003173828125,-0.15483538806438446,-0.12144653499126434,0.032170187681913376
1791103160519976000,4.814975830078125,-0.12961338460445404,-0.10288643091917038,0.016092417761683464
1791103160529949000,4.824948974609375,-0.18727321922779083,-0.08672583848237991,0.027842549607157707
1791103160539922000,4.834921875,-0.20087824761867523,-0.10544493049383163,0.08147195726633072
1791103160549895200,4.844895263671875,-0.2144465148448944,-0.0875796526670456,0.07839760184288025
1791103160559868200,4.8548681640625,-0.2148289531469345,-0.10350242257118225,0.08891548961400986
1791103160569841000,4.8648408203125,-0.1946808099746704,-0.1244087740778923,0.036558277904987335
1791103160579814000,4.87481396484375,-0.1940280646085739,-0.12064944952726364,0.05916771665215492
1791103160589787000,4.884786865234375,-0.16374684870243073,-0.12668204307556152,-0.04433603957295418
1791103160599760100,4.894760009765625,-0.10810116678476334,-0.10813233256340027,-0.13659219443798065
1791103160609733000,4.904733154296875,-0.07168430835008621,-0.10152023285627365,-0.08565285056829453
1791103160619705900,4.914705810546875,-0.091463603079319,-0.09153151512145996,-0.05577245354652405
1791103160629678800,4.924678955078125,-0.06559978425502777,-0.08272231370210648,-0.09008808434009552
1791103160639652000,4.934652099609375,-0.13796159625053406,-0.15754196047782898,0.09110620617866516
1791103160649625000,4.944625,-0.10469072312116623,-0.11081599444150925,0.03604881465435028
1791103160659598000,4.95459814453125,-0.2280893623828888,-0.26694434881210327,0.08577482402324677
1791103160669570800,4.96457080078125,-0.23155386745929718,-0.19332605600357056,0.12638883292675018
1791103160679544000,4.9745439453125,-0.23674435913562775,-0.21713285148143768,0.11479848623275757
1791103160689517000,4.98451708984375,-0.003924700431525707,-0.13549071550369263,-0.016084427013993263
1791103160699490000,4.994489990234375,-0.0032344090286642313,-0.14846722781658173,0.038603316992521286
1791103160709462000,5.0044619140625,0.07713739573955536,-0.07125287503004074,-0.08818578720092773
1791103160719435000,5.01443505859375,0.06326472014188766,-0.11520861089229584,-0.09179356694221497
1791103160729408000,5.024407958984375,0.10451042652130127,-0.05193803086876869,-0.1536654531955719
1791103160739381000,5.034381103515625,0.010266485624015331,-0.0560867041349411,-0.1304653286933899
1791103160749354000,5.04435400390625,0.03395450487732887,-0.009183644317090511,-0.11160802096128464
1791103160759327000,5.054326904296875,0.03465598076581955,-0.051532432436943054,-0.07527904212474823
1791103160769300000,5.064300048828125,0.10282038897275925,-0.04102892428636551,-0.0032376048620790243
1791103160779273000,5.07427294921875,0.04639599472284317,-0.05185414105653763,0.0727975070476532
1791103160789246200,5.08424609375,0.04057645425200462,0.049107626080513,0.1022198423743248
1791103160799219000,5.094218994140625,0.06248095631599426,0.04206809028983116,0.05744784697890282
1791103160809192000,5.10419189453125,0.16615168750286102,0.023740217089653015,0.153994619846344
1791103160819164200,5.1141640625,0.1956331431865692,0.10014950484037399,-0.04433311149477959
1791103160829137000,5.124136962890625,0.2992231845855713,0.2273801565170288,-0.2460814118385315
1791103160839110000,5.13410986328125,0.3772066831588745,0.1997285634279251,-0.05137317627668381
1791103160849083000,5.144082763671875,0.5252193212509155,0.19709761440753937,-0.09773268550634384
1791103160859055900,5.154055908203125,0.4756818413734436,0.2156742364168167,-0.3544699251651764
1791103160869029000,5.164029052734375,0.3343087434768677,0.35112687945365906,-0.6742364764213562
1791103160879001900,5.174001953125,0.20040659606456757,0.10573681443929672,0.4528345763683319
1791103160888974800,5.183974853515625,0.3375290334224701,0.2440693974494934,-0.4267057776451111
1791103160898947800,5.19394775390625,0.20921899378299713,-0.0119706429541111,0.10722765326499939
1791103160908921000,5.203921142578125,0.15739548206329346,-0.1289617121219635,0.053232062608003616
1791103160918894000,5.21389404296875,0.05253830924630165,-0.1544356495141983,-0.0309256911277771
1791103160928866800,5.22386669921875,-0.24592988193035126,-0.19203361868858337,0.11757136881351471
1791103160938839800,5.23383984375,-0.2567172646522522,-0.27937066555023193,0.1534031331539154
1791103160948813000,5.24381298828125,0.01110405009239912,-0.15305852890014648,-0.1870865374803543
1791103160958786000,5.2537861328125,-0.051713794469833374,-0.17815375328063965,-0.013164005242288113
1791103160968757800,5.2637578125,-0.19913093745708466,-0.08355481177568436,-0.2885817289352417
1791103160978731000,5.27373095703125,-0.1529780924320221,-0.18161027133464813,0.31997615098953247
1791103160988704000,5.2837041015625,0.08930964022874832,-0.20600029826164246,0.250190407037735
1791103160998677000,5.293677001953125,0.15434962511062622,-0.00418489146977663,-0.42019781470298767
1791103161008650000,5.30364990234375,-0.15018044412136078,-0.08706352859735489,0.6352763175964355
1791103161018623000,5.313623046875,0.2122717797756195,0.05163656175136566,0.14046204090118408
1791103161028596000,5.323595947265625,0.2204093337059021,-0.00552126532420516,-0.00993092730641365
1791103161038569000,5.33356884765625,-0.012109393253922462,0.07798507809638977,0.1924096643924713
1791103161048542000,5.3435419921875,0.08271778374910355,0.17103272676467896,-0.06267350167036057
1791103161058515000,5.353514892578125,0.32010743021965027,0.18721356987953186,-0.047572311013936996
1791103161068488000,5.363488037109375,0.2963203489780426,0.23202738165855408,0.07490593194961548
1791103161078461000,5.3734609375,0.27469921112060547,0.18421190977096558,0.18002276122570038
1791103161088434000,5.383433837890625,0.23554754257202148,0.22371378540992737,0.08929632604122162
1791103161098407000,5.393406982421875,0.21741487085819244,0.1801961362361908,0.08474897593259811
1791103161108380000,5.4033798828125,0.141684427857399,0.13407498598098755,0.07931745797395706
1791103161118353000,5.413352783203125,0.06187321990728378,0.046057507395744324,0.3051290214061737
1791103161128326000,5.423325927734375,-0.0070704263634979725,-0.0019528960110619664,0.326555997133255
1791103161138299000,5.433298828125,-0.036008067429065704,-0.03795696794986725,0.25285035371780396
1791103161148272000,5.443272216796875,-0.022787338122725487,0.0037292244378477335,0.010808172635734081
1791103161158244900,5.453244873046875,0.008763930760324001,-0.018136393278837204,-0.09472145140171051
1791103161168217900,5.4632177734375,-0.03749065101146698,-0.006265618838369846,-0.12003319710493088
1791103161178190800,5.47319091796875,0.07885459810495377,-0.002344913315027952,-0.05030711367726326
1791103161188164000,5.4831640625,0.09997719526290894,0.026807378977537155,0.10939839482307434
1791103161198137000,5.49313720703125,0.15493924915790558,-0.02617328055202961,0.025712553411722183
1791103161208109800,5.50310986328125,0.08951576799154282,-0.010186324827373028,-0.0038714371621608734
1791103161218082000,5.51308203125,-0.018487663939595222,0.007939415983855724,0.19838818907737732
1791103161228055000,5.523054931640625,-0.018858376890420914,-0.022072013467550278,0.28007346391677856
1791103161238028000,5.533028076171875,0.05236413702368736,-0.020849354565143585,0.05667579546570778
1791103161248000800,5.543000732421875,0.07735390961170197,0.008256332017481327,-0.1552567034959793
1791103161257974000,5.55297412109375,0.08868326246738434,0.003841609926894307,-0.01570679061114788
1791103161267947000,5.562947021484375,0.15982374548912048,0.059961870312690735,-0.251382976770401
1791103161277920000,5.572919921875,0.18871399760246277,0.0794554129242897,-0.146985724568367
1791103161287893000,5.58289306640625,0.24751313030719757,0.14522936940193176,-0.19403259456157684
1791103161297866000,5.592865966796875,0.24296151101589203,0.1471835970878601,-0.050153981894254684
1791103161307839000,5.6028388671875,0.15080974996089935,0.14028973877429962,-0.06470149755477905
1791103161317812000,5.61281201171875,0.07517144829034805,0.1320110261440277,-0.09364819526672363
1791103161327785000,5.622784912109375,0.08062267303466797,0.0765317901968956,-0.03502429649233818
1791103161337758000,5.632758056640625,0.10253223031759262,0.0653822049498558,0.0554635263979435
1791103161347731000,5.64273095703125,0.1732170581817627,0.08058539032936096,-0.10740954428911209
1791103161357704000,5.652703857421875,0.18895180523395538,0.0820181667804718,-0.15861041843891144
1791103161367677000,5.662677001953125,0.13491547107696533,0.13659033179283142,-0.06634706258773804
1791103161377650000,5.67264990234375,0.15544551610946655,0.15410009026527405,-0.07316794991493225
1791103161387623200,5.682623046875,0.1954941302537918,0.1688729077577591,-0.1873728185892105
1791103161397596000,5.692595947265625,0.2007879614830017,0.17649753391742706,-0.08460702747106552
1791103161407569000,5.70256884765625,0.17731885612010956,0.19200165569782257,-0.1150115430355072
1791103161417542000,5.7125419921875,0.1502283811569214,0.1854819804430008,-0.10626465082168579
1791103161427515100,5.72251513671875,0.08269461244344711,0.15385374426841736,-0.03885551914572716
1791103161437487900,5.73248779296875,0.0818282887339592,0.11125142127275467,-0.08589466661214828
1791103161447460900,5.7424609375,0.05170926824212074,0.1254471391439438,-0.022535402327775955
1791103161457433900,5.752433837890625,0.03123754821717739,0.16123628616333008,-0.005417668726295233
1791103161467407000,5.762406982421875,0.08363231271505356,0.14687733352184296,-0.020120713859796524
1791103161477380000,5.772380126953125,0.08828245848417282,0.16341689229011536,-0.027179423719644547
1791103161487352800,5.782352783203125,-0.006594785954803228,0.20359785854816437,0.013773336075246334
1791103161497325800,5.792325927734375,0.05884147807955742,0.19885078072547913,0.029155755415558815
1791103161507298000,5.802298095703125,0.05720283463597298,0.25718358159065247,0.08230499178171158
1791103161517271000,5.81227099609375,0.1296762377023697,0.2902289032936096,0.04566122964024544
1791103161527243800,5.822243896484375,0.10341826826334,0.3001244068145752,-0.00737376045435667
1791103161537217000,5.832217041015625,0.08644700795412064,0.2918054759502411,0.09391371160745621
1791103161547190000,5.84218994140625,0.050396326929330826,0.31160154938697815,0.07217565923929214
1791103161557163000,5.8521630859375,0.11591675132513046,0.3404313325881958,0.0238970760256052
1791103161567136000,5.862135986328125,0.13484862446784973,0.32628515362739563,0.14377367496490479
1791103161577108700,5.872108642578125,0.09790259599685669,0.3185252547264099,0.11701130867004395
1791103161587082000,5.88208203125,0.015539810992777348,0.31778889894485474,0.09499495476484299
1791103161597055000,5.892054931640625,-0.04177114740014076,0.27548137307167053,0.09927944839000702
1791103161607028000,5.902028076171875,-0.021952170878648758,0.22950243949890137,-0.007846738211810589
1791103161617001000,5.9120009765625,-0.08038245886564255,0.21488593518733978,0.032704416662454605
1791103161626974000,5.921973876953125,-0.10141131281852722,0.1283787488937378,0.09556646645069122
1791103161636947000,5.931947021484375,-0.109862320125103,0.10987616330385208,-0.01079565566033125
1791103161646920000,5.941919921875,-0.14325836300849915,0.059719521552324295,0.09152539074420929
1791103161656893000,5.951892822265625,-0.24285206198692322,0.036075979471206665,0.04482259973883629
1791103161666866200,5.9618662109375,-0.33678147196769714,-0.010974087752401829,0.041061416268348694
1791103161676839000,5.9718388671875,-0.3887418806552887,0.00033182985498569906,0.0845942497253418
1791103161686812000,5.98181201171875,-0.38746118545532227,-0.021321533247828484,0.04278714582324028
1791103161696785000,5.991784912109375,-0.3380206525325775,-0.026975158601999283,0.029858030378818512
1791103161706758100,6.001758056640625,-0.3003387749195099,-0.030724888667464256,0.036797162145376205
1791103161716731100,6.011731201171875,-0.23788286745548248,-0.005620867945253849,-0.004515922162681818
1791103161726703900,6.021703857421875,-0.24678608775138855,0.01245134323835373,0.04276131093502045
1791103161736676900,6.0316767578125,-0.2638838291168213,0.018938271328806877,0.05540067330002785
1791103161746649900,6.04164990234375,-0.28174832463264465,0.013396765105426311,0.030653515830636024
1791103161756623000,6.051623046875,-0.3263480067253113,0.016931045800447464,0.08374655991792679
1791103161766595800,6.061595947265625,-0.35047999024391174,-0.013652961701154709,0.1127326712012291
1791103161776568800,6.07156884765625,-0.32234689593315125,-0.01576697826385498,0.03045537695288658
1791103161786541800,6.081541748046875,-0.3184885084629059,-0.04590277746319771,0.054854460060596466
1791103161796515000,6.09151513671875,-0.3485976755619049,-0.046176549047231674,0.0920412465929985
1791103161806488000,6.101488037109375,-0.33352017402648926,-0.04494510591030121,-0.013060408644378185
1791103161816461300,6.11146142578125,-0.3193260729312897,-0.07168377190828323,-0.0016026903176680207
1791103161826434300,6.121434326171875,-0.38268613815307617,-0.07414719462394714,0.017108678817749023
1791103161836407300,6.1314072265625,-0.4716351628303528,-0.11222081631422043,-0.0032256206031888723
1791103161846379300,6.141379150390625,-0.5267841815948486,-0.1810302436351776,-0.04808497056365013
1791103161856352300,6.151352294921875,-0.5008450150489807,-0.2101135551929474,0.0043896883726119995
1791103161866325500,6.161325439453125,-0.519879162311554,-0.21939866244792938,0.061583202332258224
1791103161876298500,6.171298583984375,-0.506287157535553,-0.2854306697845459,0.043712858110666275
1791103161886271200,6.181271240234375,-0.5434667468070984,-0.29421377182006836,-0.012173841707408428
1791103161896244200,6.191244140625,-0.5478811860084534,-0.3030086159706116,-0.061715297400951385
1791103161906217200,6.20121728515625,-0.46517542004585266,-0.3308737874031067,0.007654191460460424
1791103161916190500,6.2111904296875,-0.4676835834980011,-0.31562933325767517,-0.04994572326540947
1791103161926163500,6.22116357421875,-0.4351051151752472,-0.3736207187175751,-0.0013374395202845335
1791103161936136200,6.23113623046875,-0.4506390690803528,-0.36296966671943665,-0.03423280641436577
1791103161946109200,6.241109130859375,-0.48128166794776917,-0.36866962909698486,0.051051732152700424
1791103161956082400,6.25108251953125,-0.4935316741466522,-0.31685519218444824,-0.0947190523147583
1791103161966055400,6.261055419921875,-0.3876015245914459,-0.39405250549316406,-0.015311578288674355
1791103161976028400,6.2710283203125,-0.37028616666793823,-0.38667821884155273,0.016925187781453133
1791103161986001200,6.281001220703125,-0.37326493859291077,-0.3999492824077606,0.04378156736493111
1791103161995974400,6.290974365234375,-0.3208909332752228,-0.3955039083957672,-0.008043278940021992
1791103162005947400,6.300947509765625,-0.3265424370765686,-0.3714473247528076,-0.033782199025154114
1791103162015920400,6.31092041015625,-0.28597956895828247,-0.3713269531726837,-0.01847541332244873
1791103162025893400,6.320893310546875,-0.22149856388568878,-0.35491546988487244,-0.06661923974752426
1791103162035866400,6.330866455078125,-0.1475686877965927,-0.3565482795238495,-0.06935350596904755
1791103162045839400,6.34083935546875,-0.18160201609134674,-0.35376179218292236,-0.08043172210454941
1791103162055812400,6.350812255859375,-0.11195476353168488,-0.365966796875,-0.09428389370441437
1791103162065785300,6.360785400390625,-0.11333055049180984,-0.3600468635559082,-0.056170593947172165
1791103162075758300,6.37075830078125,-0.07671235501766205,-0.3504030108451843,0.007817708887159824
1791103162085731300,6.3807314453125,-0.05722680315375328,-0.33431166410446167,-0.014936871826648712
1791103162095704300,6.390704345703125,-0.07650862634181976,-0.36831891536712646,0.03338272497057915
1791103162105677300,6.40067724609375,-0.06012565642595291,-0.3539642095565796,0.06805761158466339
1791103162115650300,6.410650390625,0.06246843934059143,-0.36206313967704773,0.08688456565141678
1791103162125623300,6.420623291015625,0.13958320021629333,-0.3413935601711273,0.05964495241641998
1791103162135596300,6.43059619140625,0.10311014205217361,-0.2907143831253052,0.04080868139863014
1791103162145569300,6.4405693359375,0.18014580011367798,-0.25848323106765747,-0.06971649825572968
1791103162155542300,6.450542236328125,0.19115984439849854,-0.22517026960849762,-0.05939541757106781
1791103162165515500,6.460515625,0.20515182614326477,-0.205400288105011,0.015913985669612885
1791103162175488300,6.47048828125,0.24336418509483337,-0.1627684086561203,-0.02833390235900879
1791103162185461200,6.480461181640625,0.2550663948059082,-0.14364637434482574,-0.005303152836859226
1791103162195434200,6.490434326171875,0.2596619427204132,-0.12756861746311188,0.018009360879659653
1791103162205407500,6.500407470703125,0.3121158182621002,-0.10595519840717316,0.003108441596850753
1791103162215380500,6.51038037109375,0.360097736120224,-0.07709930837154388,0.0026008430868387222
1791103162225353200,6.520353271484375,0.35726413130760193,-0.03476596996188164,0.04289473593235016
1791103162235325400,6.530325439453125,0.40692755579948425,0.003206978552043438,0.043473709374666214
1791103162245298400,6.54029833984375,0.45323511958122253,0.053168945014476776,0.0004468784318305552
1791103162255271400,6.550271484375,0.47911012172698975,0.05863242223858833,0.03281547129154205
1791103162265244200,6.560244140625,0.4752858281135559,0.09599124640226364,-0.05685076490044594
1791103162275217400,6.570217529296875,0.4476262331008911,0.08575192093849182,-0.01830443926155567
1791103162285190400,6.5801904296875,0.4251725971698761,0.0778505876660347,-0.005197691265493631
1791103162295163400,6.590163330078125,0.4574298858642578,0.062134210020303726,-0.048531584441661835
1791103162305136400,6.600136474609375,0.4000867009162903,0.062309179455041885,0.039986565709114075
1791103162315109400,6.610109375,0.3876020610332489,0.02965429797768593,0.059717126190662384
1791103162325082400,6.620082275390625,0.3254404067993164,0.06742564588785172,-0.03550313413143158
1791103162335055400,6.630055419921875,0.3492858111858368,0.026040654629468918,-0.03310868516564369
1791103162345028400,6.6400283203125,0.3654980957508087,0.0029941920656710863,0.036254942417144775
1791103162355001300,6.65000146484375,0.37382417917251587,0.0461999848484993,-0.05312633514404297
1791103162364974300,6.659974365234375,0.3400193452835083,0.047990962862968445,-0.030222084373235703
1791103162374947300,6.669947265625,0.33041253685951233,0.060567207634449005,-0.053519949316978455
1791103162384920300,6.67992041015625,0.343285471200943,0.06930370628833771,-0.022727683186531067
1791103162394893300,6.689893310546875,0.34607166051864624,0.08898473531007767,-0.012839898467063904
1791103162404866300,6.6998662109375,0.3588191568851471,0.11350338906049728,0.016266321763396263
1791103162414839300,6.70983935546875,0.366753488779068,0.1380540132522583,-0.004515922162681818
1791103162424812300,6.719812255859375,0.343700110912323,0.1743084192276001,-0.01985786110162735
1791103162434785300,6.729785400390625,0.4135305881500244,0.19764569401741028,-0.07056178152561188
1791103162444758500,6.739758544921875,0.4200175106525421,0.22214359045028687,-0.011392736807465553
1791103162454731300,6.749731201171875,0.4912962317466736,0.28971943259239197,-0.019955864176154137
1791103162464704300,6.759704345703125,0.4358915686607361,0.370565801858902,0.039044339209795
1791103162474677200,6.76967724609375,0.48840564489364624,0.3646826148033142,0.03750689700245857
1791103162484650500,6.779650390625,0.4331495761871338,0.411649614572525,0.01865331269800663
1791103162494623500,6.78962353515625,0.47779613733291626,0.41507068276405334,0.020414726808667183
1791103162504596200,6.79959619140625,0.38949236273765564,0.47519662976264954,0.06284713745117188
1791103162514569200,6.8095693359375,0.44315293431282043,0.45680561661720276,0.08172735571861267
1791103162524542200,6.819542236328125,0.4486536979675293,0.4989751875400543,-0.004251470323652029
1791103162534515500,6.829515380859375,0.41974586248397827,0.488315612077713,0.06715879589319229
1791103162544488400,6.839488525390625,0.4062122106552124,0.4877992272377014,-0.01678377389907837
1791103162554461200,6.849461181640625,0.3267171382904053,0.48938167095184326,0.020006464794278145
1791103162564434200,6.85943408203125,0.2861774265766144,0.4461652338504791,0.050518568605184555
1791103162574407400,6.869407470703125,0.2394711822271347,0.38877835869789124,0.07916725426912308
1791103162584380400,6.87938037109375,0.2084922194480896,0.39375582337379456,0.002662095706909895
1791103162594353400,6.889353515625,0.11367809772491455,0.32891690731048584,0.17763523757457733
1791103162604326100,6.899326171875,0.06890609860420227,0.32270029187202454,0.07270509749650955
1791103162614299400,6.90929931640625,0.07038068771362305,0.28693482279777527,0.08995652198791504
1791103162624271400,6.919271240234375,0.09211953729391098,0.29248806834220886,0.11605630069971085
1791103162634244400,6.929244384765625,0.04655258730053902,0.31247881054878235,-0.0070672305300831795
1791103162644217300,6.93921728515625,-0.01780855841934681,0.31054162979125977,0.07509235292673111
1791103162654190300,6.9491904296875,0.013402091339230537,0.3149760663509369,0.018747055903077126
1791103162664163300,6.959163330078125,0.0067875985987484455,0.3490362763404846,0.031353659927845
1791103162674136300,6.96913623046875,-0.012295548804104328,0.3158716857433319,0.10427181422710419
1791103162684109600,6.979109619140625,-0.05854480341076851,0.2878434956073761,0.06596144288778305
1791103162694082300,6.989082275390625,-0.10491922497749329,0.2499464601278305,0.05980394408106804
1791103162704055300,6.99905517578125,-0.18832384049892426,0.2350870817899704,0.08152415603399277
1791103162714028300,7.0090283203125,-0.18641488254070282,0.20047158002853394,0.11885607987642288
1791103162724001300,7.019001220703125,-0.21889133751392365,0.20123323798179626,0.0804935097694397
1791103162733974300,7.028974365234375,-0.2592398226261139,0.1609920859336853,0.10265927016735077
1791103162743947300,7.038947265625,-0.2770441174507141,0.16777221858501434,0.01611878164112568
1791103162753920300,7.048920166015625,-0.3020951449871063,0.15522687137126923,0.06215578317642212
1791103162763893200,7.058893310546875,-0.32769477367401123,0.14470578730106354,0.09833535552024841
1791103162773866500,7.068866455078125,-0.3084385395050049,0.11948990821838379,0.0313134491443634
1791103162783839200,7.078839111328125,-0.4287329912185669,0.10539034008979797,0.13301557302474976
1791103162793812200,7.088812255859375,-0.45891645550727844,0.055983640253543854,0.09607433527708054
1791103162803785200,7.09878515625,-0.48973187804222107,0.039212651550769806,0.07150214910507202
1791103162813758700,7.1087587890625,-0.47368714213371277,0.009159144014120102,0.130625918507576
1791103162823731700,7.118731689453125,-0.4667930006980896,-0.014533402398228645,0.06655079871416092
1791103162833704700,7.12870458984375,-0.5189582109451294,-0.05380650609731674,-0.004569185432046652
1791103162843677400,7.138677490234375,-0.530945897102356,-0.08553141355514526,-0.03880651667714119
1791103162853650700,7.148650634765625,-0.5587924718856812,-0.09429161250591278,-0.03371375426650047
1791103162863623700,7.158623779296875,-0.530640184879303,-0.10762766003608704,-0.11784860491752625
1791103162873596700,7.1685966796875,-0.5809131860733032,-0.130400612950325,-0.04326704517006874
1791103162883569700,7.178569580078125,-0.5857644081115723,-0.14670687913894653,-0.04692915827035904
1791103162893542700,7.188542724609375,-0.5380147099494934,-0.20245936512947083,0.00028282770654186606
1791103162903515600,7.198515625,-0.5902107954025269,-0.23884427547454834,0.01113148033618927
1791103162913488600,7.208488525390625,-0.621881902217865,-0.27617138624191284,0.03416223078966141
1791103162923461600,7.218461669921875,-0.6980984210968018,-0.26270192861557007,-0.05378387123346329
1791103162933434600,7.2284345703125,-0.6673420667648315,-0.3199918568134308,0.08786700665950775
1791103162943407600,7.23840771484375,-0.6685090661048889,-0.28015947341918945,0.0333385169506073
1791103162953380600,7.248380615234375,-0.5723181366920471,-0.3430905044078827,0.04589585214853287
1791103162963353600,7.258353515625,-0.6214965581893921,-0.3142806887626648,0.07179376482963562
1791103162973326600,7.26832666015625,-0.5980224013328552,-0.30132097005844116,-0.09429747611284256
1791103162983299800,7.2782998046875,-0.518383264541626,-0.30157050490379333,-0.04884610325098038
1791103162993272600,7.2882724609375,-0.47298192977905273,-0.26781946420669556,-0.1146104708313942
1791103163003245600,7.29824560546875,-0.4656180143356323,-0.24800235033035278,-0.01973695307970047
1791103163013218600,7.308218505859375,-0.4889947175979614,-0.21690994501113892,-0.06079117953777313
1791103163023191800,7.31819189453125,-0.4430384039878845,-0.2372186779975891,-0.0009547432418912649
1791103163033164800,7.328164794921875,-0.4652094841003418,-0.2551071345806122,-0.005952964071184397
1791103163043137500,7.338137451171875,-0.4721427857875824,-0.2760142683982849,-0.0012620720081031322
1791103163053110500,7.348110595703125,-0.3936176002025604,-0.30423977971076965,-0.005685316398739815
1791103163063083800,7.358083740234375,-0.35511335730552673,-0.2951453626155853,-0.041317347437143326
1791103163073055500,7.368055419921875,-0.3393538296222687,-0.3125840127468109,0.0670165866613388
1791103163083028500,7.378028564453125,-0.300733745098114,-0.2943469285964966,0.019288476556539536
1791103163093001700,7.388001708984375,-0.2510300874710083,-0.3040158152580261,0.028713136911392212
1791103163102974700,7.397974609375,-0.25107458233833313,-0.28777027130126953,-0.023367639631032944
1791103163112947700,7.40794775390625,-0.2745679020881653,-0.34635528922080994,0.016523050144314766
1791103163122920400,7.41792041015625,-0.3383285105228424,-0.3428574800491333,-0.00923531036823988
1791103163132893400,7.4278935546875,-0.34121379256248474,-0.3583157956600189,-0.0506645105779171
1791103163142866700,7.43786669921875,-0.332269549369812,-0.3775824308395386,-0.05155080929398537
1791103163152839700,7.447839599609375,-0.3178490698337555,-0.39211025834083557,-0.009488842450082302
1791103163162812700,7.457812744140625,-0.29124462604522705,-0.3932522237300873,-0.018491659313440323
1791103163172785400,7.467785400390625,-0.23571692407131195,-0.43078866600990295,0.031003456562757492
1791103163182758700,7.477758544921875,-0.19488054513931274,-0.4302195608615875,0.08117767423391342
1791103163192731600,7.487731689453125,-0.20466606318950653,-0.40076738595962524,0.001169127761386335
1791103163202704600,7.49770458984375,-0.13214898109436035,-0.42328736186027527,0.06619979441165924
1791103163212677600,7.507677734375,-0.11865741014480591,-0.3663524389266968,0.04902133718132973
1791103163222650600,7.517650634765625,-0.0681697353720665,-0.34729883074760437,0.049013350158929825
1791103163232623600,7.52762353515625,-0.11308527737855911,-0.30111536383628845,0.05507070943713188
1791103163242596600,7.5375966796875,-0.007114102132618427,-0.3118002414703369,0.022728482261300087
1791103163252569600,7.547569580078125,0.03459206596016884,-0.2401747852563858,-0.02718927711248398
1791103163262542800,7.55754296875,0.06215311959385872,-0.23334378004074097,-0.024274978786706924
1791103163272515600,7.567515625,0.14171159267425537,-0.2120685875415802,-0.02618473209440708
1791103163282488600,7.577488525390625,0.13948598504066467,-0.17239201068878174,0.002213619416579604
1791103163292461600,7.587461669921875,0.18166354298591614,-0.1709216833114624,0.022475481033325195
1791103163302434600,7.5974345703125,0.15812784433364868,-0.13524304330348969,-0.059545084834098816
1791103163312407800,7.60740771484375,0.2258286029100418,-0.12250035256147385,-0.03442588448524475
1791103163322380500,7.617380615234375,0.212983638048172,-0.08782146126031876,0.05653864145278931
1791103163332353500,7.627353515625,0.22563126683235168,-0.08050469309091568,0.06633614748716354
1791103163342326500,7.637326416015625,0.27103468775749207,-0.0769704133272171,0.005060538649559021
1791103163352299800,7.6472998046875,0.31149423122406006,-0.053820885717868805,-0.002254632068797946
1791103163362272800,7.657272705078125,0.30548933148384094,-0.02642574906349182,0.032875657081604004
1791103163372245500,7.66724560546875,0.3153750002384186,-0.03189561516046524,0.03868800774216652
1791103163382218500,7.677218505859375,0.3692723214626312,-0.03894686698913574,-0.014635401777923107
1791103163392191700,7.687191650390625,0.3169102966785431,-0.008962069638073444,0.02352290228009224
1791103163402164700,7.697164794921875,0.2854700982570648,0.0075194351375103,-0.032401081174612045
1791103163412137500,7.707137451171875,0.30653995275497437,-0.029045499861240387,-0.016977384686470032
1791103163422110500,7.7171103515625,0.29165127873420715,-0.010873420163989067,-0.004728708881884813
1791103163432083700,7.727083740234375,0.323562353849411,-0.03575213998556137,0.0942641869187355
1791103163442056700,7.737056640625,0.2593892216682434,-0.024473650380969048,-0.03105165995657444
1791103163452029700,7.74702978515625,0.2472369521856308,-0.03160985931754112,-0.0073428675532341
1791103163462002400,7.75700244140625,0.270999550819397,-0.03940759226679802,0.018810173496603966
1791103163471975700,7.7669755859375,0.3506174087524414,-0.05058381333947182,-0.07371443510055542
1791103163481948700,7.77694873046875,0.27291035652160645,-0.023630494251847267,0.005372927524149418
1791103163491921700,7.786921630859375,0.27110740542411804,-0.04784049466252327,0.09137891232967377
1791103163501894700,7.796894775390625,0.23920805752277374,-0.028184233233332634,-0.04602528363466263
1791103163511867600,7.80686767578125,0.25412094593048096,-0.017404289916157722,-0.10255274176597595
1791103163521840600,7.816840576171875,0.22204318642616272,0.011786884628236294,0.10238602757453918
1791103163531813600,7.826813720703125,0.31185483932495117,0.032279111444950104,-0.006382531952112913
1791103163541786600,7.83678662109375,0.2967959940433502,0.06966163218021393,-0.016686301678419113
1791103163551759600,7.846759521484375,0.34717392921447754,0.07278818637132645,0.081507109105587
1791103163561732600,7.856732666015625,0.3443762958049774,0.11395080387592316,0.04548785462975502
1791103163571705600,7.86670556640625,0.3378393054008484,0.1433129459619522,0.012136823497712612
1791103163581678600,7.8766787109375,0.34910285472869873,0.1559579074382782,0.05112443491816521
1791103163591651600,7.886651611328125,0.4356563985347748,0.16169169545173645,0.04404095932841301
1791103163601624800,7.896624755859375,0.3870800733566284,0.2278621941804886,-0.018384866416454315
1791103163611597600,7.90659765625,0.32378658652305603,0.20948638021945953,0.04159298166632652
1791103163621570600,7.916570556640625,0.3653255105018616,0.19221897423267365,-0.045691054314374924
1791103163631543600,7.92654345703125,0.34460586309432983,0.18308860063552856,0.02707822248339653
1791103163641516800,7.936516845703125,0.2750976085662842,0.1691325604915619,-0.04330779239535332
1791103163651489800,7.94648974609375,0.25673431158065796,0.1335495412349701,0.010614827275276184
1791103163661461500,7.95646142578125,0.23772761225700378,0.10636478662490845,0.03737293928861618
1791103163671434800,7.966434814453125,0.14851383864879608,0.07417009770870209,0.010556237772107124
1791103163681407700,7.97640771484375,0.16175347566604614,0.06295419484376907,0.04288488253951073
1791103163691380700,7.986380615234375,0.13651230931282043,0.08681239187717438,0.02002723701298237
1791103163701353500,7.996353515625,0.12742453813552856,0.03906351327896118,-0.00410499656572938
1791103163711326700,8.00632666015625,0.05968916416168213,0.05077849328517914,0.037159085273742676
1791103163721299700,8.0162998046875,0.16687606275081635,0.06586556881666183,-0.016627712175250053
1791103163731272700,8.026272705078124,0.16883109509944916,0.08296119421720505,0.07626627385616302
1791103163741245400,8.036245361328126,0.09292088449001312,0.07959655672311783,0.16570614278316498
1791103163751218400,8.046218505859375,0.09557046741247177,0.0788431465625763,0.02532746084034443
1791103163761191700,8.056191650390625,0.07550860941410065,0.07349046319723129,0.03192970156669617
1791103163771164700,8.06616455078125,0.062067899852991104,0.10430669784545898,0.06192035973072052
1791103163781137700,8.0761376953125,0.10474425554275513,0.09450599551200867,0.012133361771702766
1791103163791110400,8.0861103515625,0.1391453742980957,0.12593476474285126,-0.03879160434007645
1791103163801083600,8.096083740234375,0.15469397604465485,0.16769951581954956,-0.05871524289250374
1791103163811056600,8.106056640625,0.19176223874092102,0.18337701261043549,-0.0022248048335313797
1791103163821029400,8.116029296875,0.15251444280147552,0.17293688654899597,0.0740518569946289
1791103163831002400,8.12600244140625,0.14647093415260315,0.1611848920583725,0.06482800096273422
1791103163840975600,8.1359755859375,0.09102977812290192,0.15770387649536133,0.03465225175023079
1791103163850948600,8.145948486328125,-0.020854415372014046,0.1478576362133026,-0.02279799059033394
1791103163860921300,8.15592138671875,-0.014702247455716133,0.14340908825397491,-0.07919362187385559
1791103163870894300,8.165894287109374,0.014974421821534634,0.20104415714740753,0.03905712068080902
1791103163880867600,8.17586767578125,0.16758926212787628,0.22165969014167786,-0.08176250755786896
1791103163890840600,8.185840576171875,0.1801077127456665,0.24514876306056976,-0.0825824961066246
1791103163900813600,8.1958134765625,0.08858498930931091,0.1989290714263916,0.096561960875988
1791103163910786300,8.205786376953125,0.026578348129987717,0.17465490102767944,0.04522952809929848
1791103163920759600,8.215759521484374,0.04139990359544754,0.10027626901865005,0.08789177238941193
1791103163930732500,8.225732666015626,0.010696053504943848,0.11171960830688477,0.08766087889671326
1791103163940705500,8.23570556640625,-0.041848912835121155,0.07104221731424332,0.12858328223228455
1791103163950678500,8.245678466796875,-0.01429212000221014,0.060377322137355804,-0.04743196442723274
1791103163960651500,8.255651611328124,0.01293577253818512,0.0844016969203949,-0.09863842278718948
1791103163970624500,8.26562451171875,0.05651041492819786,0.11486213654279709,-0.1370726376771927
1791103163980597500,8.275597412109375,0.04632595181465149,0.13458576798439026,-0.13641616702079773
1791103163990570500,8.285570556640625,0.04065927863121033,0.15153387188911438,-0.20158185064792633
1791103164000543500,8.29554345703125,0.006216084118932486,0.11596947908401489,-0.18365664780139923
1791103164010516500,8.3055166015625,-0.06461068242788315,0.042746663093566895,-0.04130003601312637
1791103164020489500,8.315489501953126,-0.11996901780366898,0.04093491658568382,-0.06317710131406784
1791103164030462500,8.32546240234375,-0.13180889189243317,-0.008947688154876232,0.0225569736212492
1791103164040435500,8.335435546875,-0.17753005027770996,-0.050343599170446396,0.10883140563964844
1791103164050408700,8.34540869140625,-0.1870439201593399,-0.06457925587892532,0.0809294730424881
1791103164060381400,8.35538134765625,-0.20665410161018372,-0.051297809928655624,0.05792641639709473
1791103164070354400,8.3653544921875,-0.07229523360729218,-0.01865597628057003,0.03527969494462013
1791103164080327400,8.375327392578125,-0.000955009541939944,0.0533902533352375,0.0033396040089428425
1791103164090300700,8.38530078125,0.03357819840312004,0.1073693335056305,0.04886234924197197
1791103164100273700,8.395273681640624,0.09092245250940323,0.13792698085308075,0.06541309505701065
1791103164110246400,8.405246337890626,0.07740078121423721,0.1903265416622162,0.015839949250221252
1791103164120219400,8.415219482421875,0.055573247373104095,0.12135519087314606,0.18373680114746094
1791103164130192600,8.425192626953125,0.0011848403373733163,0.11600889265537262,0.05901165306568146
1791103164140165600,8.43516552734375,-0.06791619956493378,0.06725333631038666,0.12556032836437225
1791103164150138600,8.445138671875,-0.10304436087608337,0.02485981024801731,0.006353503558784723
1791103164160111400,8.455111328125,-0.12759710848331451,0.002487392397597432,-0.11710664629936218
1791103164170084400,8.46508447265625,-0.1398756057024002,0.0018815232906490564,-0.09224098175764084
1791103164180057600,8.4750576171875,-0.13204964995384216,-0.006686931010335684,-0.015008244663476944
1791103164190030600,8.485030517578124,-0.09029766917228699,-0.01555152889341116,-0.010292318649590015
1791103164200003300,8.49500341796875,-0.053955111652612686,0.0032442628871649504,-0.12423486262559891
1791103164209976300,8.504976318359375,-0.051171574741601944,-0.010294449515640736,-0.06580138206481934
1791103164219949600,8.514949462890625,-0.1750897914171219,-0.008557269349694252,0.188961923122406
1791103164229922600,8.524922607421875,-0.07921892404556274,-0.02630803734064102,0.03431190177798271
1791103164239895600,8.5348955078125,-0.11745738983154297,-0.02365179918706417,0.034924428910017014
1791103164249868300,8.544868408203126,-0.1780450940132141,-0.02094416320323944,0.11300777643918991
1791103164259841500,8.554841552734375,-0.039021436125040054,-0.03026176616549492,0.16373220086097717
1791103164269814500,8.564814453125,-0.044327784329652786,0.054727427661418915,-0.05272473022341728
1791103164279787500,8.57478759765625,-0.025016136467456818,0.0314045287668705,0.1037498340010643
1791103164289760500,8.584760498046874,0.07771769911050797,0.08075476437807083,-0.019660253077745438
1791103164299733500,8.5947333984375,0.18133090436458588,0.09903257340192795,0.016759006306529045
1791103164309706500,8.60470654296875,0.04116528108716011,0.13722896575927734,0.07791104167699814
1791103164319679500,8.614679443359375,0.04362577572464943,0.09426045417785645,0.04603726789355278
1791103164329652500,8.624652587890624,0.0007877630414441228,0.09502957761287689,-0.11023729294538498
1791103164339625500,8.63462548828125,-0.05492663010954857,0.05467842519283295,-0.0649329274892807
1791103164349598500,8.644598388671875,-0.0922124832868576,0.04067978635430336,-0.030795462429523468
1791103164359571500,8.654571533203125,-0.07587665319442749,-0.01053067110478878,-0.0008620652370154858
1791103164369544400,8.66454443359375,-0.0655723512172699,-0.050323888659477234,-0.023619309067726135
1791103164379517400,8.674517333984374,-0.0465182326734066,-0.03373559191823006,-0.09421651065349579
1791103164389490700,8.68449072265625,-0.0472886860370636,-0.0313027948141098,-0.057442788034677505
1791103164399463400,8.69446337890625,-0.11971575021743774,-0.009820139966905117,0.09378454834222794
1791103164409436400,8.7044365234375,-0.09950395673513412,-0.006069876719266176,0.01745275966823101
1791103164419409400,8.714409423828124,-0.09694678336381912,-0.053355634212493896,0.09114775061607361
1791103164429382700,8.724382568359376,-0.09781524538993835,-0.049974218010902405,0.06878066062927246
1791103164439355600,8.734355712890626,-0.07050692290067673,-0.04932786896824837,0.009846239350736141
1791103164449328400,8.744328369140625,-0.06995245069265366,-0.04662609100341797,0.00990376342087984
1791103164459301400,8.75430126953125,-0.023492276668548584,-0.046184804290533066,-0.07026377320289612
1791103164469274600,8.764274658203124,-0.13453570008277893,-0.03369378298521042,-0.02473970130085945
1791103164479247600,8.77424755859375,-0.041905105113983154,-0.022471753880381584,-0.10663163661956787
1791103164489219300,8.78421923828125,-0.06828824430704117,-0.028424451127648354,0.02900981344282627
1791103164499192600,8.794192626953125,-0.10302305221557617,-0.1079736053943634,0.1666875183582306
1791103164509165600,8.80416552734375,-0.15381166338920593,-0.0958612784743309,0.06384982168674469
1791103164519138600,8.814138671875,-0.14469780027866364,-0.15330912172794342,0.11854662001132965
1791103164529111300,8.824111328125,-0.09522292017936707,-0.1830691546201706,0.014167750254273415
1791103164539084500,8.83408447265625,-0.26812225580215454,-0.18440845608711243,0.1615353673696518
1791103164549057500,8.8440576171875,-0.06202395632863045,-0.178125262260437,-0.006800381932407618
1791103164559030500,8.854030517578124,-0.12507909536361694,-0.12583516538143158,-0.06392624974250793
1791103164569003500,8.86400341796875,-0.04953452944755554,-0.1207309439778328,-0.07349711656570435
1791103164578976500,8.8739765625,-0.03389272093772888,-0.07077057659626007,-0.13030314445495605
1791103164588949500,8.883949462890625,0.05783400312066078,-0.05349411815404892,-0.21182836592197418
1791103164598922500,8.893922607421874,0.0545031875371933,-0.057500578463077545,-0.06790980696678162
1791103164608895500,8.9038955078125,0.03178482875227928,-0.03349724039435387,-0.12522156536579132
1791103164618868500,8.913868408203125,-0.030299581587314606,0.01648656465113163,-0.07219590246677399
1791103164628841500,8.923841552734375,0.0027238810434937477,-0.014310495927929878,0.07583431154489517
1791103164638814500,8.933814453125,0.09167984873056412,-0.01218476053327322,0.010337325744330883
1791103164648787500,8.943787353515624,0.07601061463356018,0.010821755044162273,0.09326709806919098
1791103164658760400,8.953760498046876,0.10004723817110062,0.03226552903652191,0.11136966943740845
1791103164668733700,8.963733642578125,0.16971606016159058,0.0455578975379467,-0.012173575349152088
1791103164678706400,8.97370654296875,0.28560537099838257,0.11579317599534988,0.03642485290765762
1791103164688679400,8.983679443359375,0.35760313272476196,0.16953976452350616,0.08361393958330154
1791103164698652400,8.99365234375,0.4188622534275055,0.1847248375415802,0.019749470055103302
1791103164708625700,9.003625732421876,0.3745453655719757,0.18525400757789612,0.0464916005730629
1791103164718598700,9.0135986328125,0.3047785460948944,0.17575371265411377,0.03606239706277847
1791103164728571400,9.0235712890625,0.2516753673553467,0.09255416691303253,0.09378375113010406
1791103164738544400,9.03354443359375,0.2217118889093399,0.051172371953725815,0.05053002014756203
1791103164748517600,9.043517578125,0.15441301465034485,0.023483222350478172,-0.02779674343764782
1791103164758490600,9.05349072265625,0.09474088996648788,0.012507535517215729,-0.04555124044418335
1791103164768463600,9.063463623046875,0.16980314254760742,0.03455131873488426,-0.09102471172809601
1791103164778436400,9.073436279296875,0.18342602252960205,0.02714480273425579,-0.0763203352689743
1791103164788409300,9.083409423828124,0.1527453362941742,0.031738754361867905,-0.0902894139289856
1791103164798382600,9.093382568359376,0.15682023763656616,0.045764025300741196,-0.004279699642211199
1791103164808355600,9.10335546875,0.13557061553001404,0.038780152797698975,-0.09076958149671555
1791103164818328300,9.113328369140625,0.06831620633602142,0.013848171569406986,-0.022104237228631973
1791103164828301300,9.12330126953125,0.05510453134775162,0.0005004079430364072,0.0409809872508049
1791103164838274600,9.133274658203124,0.05552398040890694,-0.006970291491597891,0.06324820965528488
1791103164848247300,9.143247314453125,0.09410332888364792,-0.018878350034356117,0.057204168289899826
1791103164858220300,9.15322021484375,0.10879278928041458,-0.007653658743947744,0.05835145711898804
1791103164868193300,9.163193359375,0.1023748442530632,0.015107580460608006,0.1027442216873169
1791103164878166500,9.17316650390625,0.14460033178329468,0.07178764045238495,0.017429590225219727
1791103164888139500,9.183139404296876,0.20722535252571106,0.12379331141710281,-0.012252938002347946
1791103164898112300,9.1931123046875,0.2350258231163025,0.166452094912529,0.039865389466285706
1791103164908085200,9.203085205078125,0.22112838923931122,0.2043246477842331,0.05796396732330322
1791103164918058500,9.21305859375,0.1811026781797409,0.2464052438735962,-0.02033722959458828
1791103164928031500,9.223031494140624,0.19007885456085205,0.24298095703125,0.14116324484348297
1791103164938004200,9.233004150390625,0.20792949199676514,0.266253799200058,0.07652886211872101
1791103164947977200,9.242977294921875,0.1877232939004898,0.27078115940093994,0.05958662927150726
1791103164957950500,9.252950439453125,0.10428406298160553,0.3369476795196533,-0.1336187869310379
1791103164967923500,9.26292333984375,0.14378619194030762,0.3277706801891327,-0.04880349338054657
1791103164977896400,9.272896484375,0.281838595867157,0.3316229283809662,0.008204134181141853
1791103164987869200,9.282869140625,0.3013441264629364,0.3818855881690979,-0.17050328850746155
1791103164997842400,9.292842529296875,0.21433785557746887,0.2932814061641693,0.023314643651247025
1791103165007815400,9.3028154296875,0.13419188559055328,0.2899974584579468,-0.06798996776342392
1791103165017788400,9.312788330078124,0.054310377687215805,0.24725772440433502,0.14864060282707214
1791103165027761400,9.322761474609376,-0.019781960174441338,0.1863965094089508,0.06894072145223618
1791103165037734100,9.332734130859375,-0.04775740206241608,0.10452720522880554,0.05223311111330986
1791103165047707400,9.342707275390625,-0.03334756940603256,0.0881815254688263,0.06053365021944046
1791103165057680400,9.352680419921874,-0.012812201865017414,0.05267706140875816,0.03615853562951088
1791103165067653400,9.3626533203125,0.00959909800440073,0.051119644194841385,-0.07208404690027237
1791103165077626400,9.37262646484375,-0.048647962510585785,0.04055088758468628,-0.06695187091827393
1791103165087599400,9.382599365234375,-0.09331610053777695,0.027222033590078354,-0.06015335023403168
1791103165097572400,9.392572265625,-0.10662151873111725,0.015240471810102463,-0.015595205128192902
1791103165107545300,9.40254541015625,-0.18809613585472107,-0.025070466101169586,0.03125352784991264
1791103165117518300,9.412518310546876,-0.2593333125114441,-0.09818196296691895,-0.007186274044215679
1791103165127491600,9.42249169921875,-0.32520791888237,-0.13951022922992706,0.07246967405080795
1791103165137464300,9.43246435546875,-0.31048116087913513,-0.1373400092124939,0.033914290368556976
1791103165147437300,9.442437255859375,-0.29270830750465393,-0.13815467059612274,0.06468525528907776
1791103165157410300,9.452410400390624,-0.2243175208568573,-0.1097126454114914,0.03755855932831764
1791103165167383600,9.462383544921876,-0.13184352219104767,-0.06398218125104904,-0.0149211585521698
1791103165177356500,9.4723564453125,-0.06331825256347656,-0.012389025650918484,-0.013932060450315475
1791103165187329300,9.482329345703125,-0.057796455919742584,0.0614902600646019,0.03514520451426506
1791103165197302300,9.49230224609375,-0.02623293548822403,0.1365583837032318,-0.03247671574354172
1791103165207275300,9.502275146484376,-0.05825212225317955,0.12313071638345718,0.09926427155733109
1791103165217248500,9.51224853515625,-0.06256511062383652,0.1569637805223465,0.06626983731985092
1791103165227221500,9.522221435546875,-0.04063797369599342,0.15684527158737183,-0.0013523531379178166
1791103165237194200,9.5321943359375,-0.0037262949626892805,0.1382870376110077,-0.032175514847040176
1791103165247167200,9.542167236328124,0.01606019213795662,0.13599751889705658,0.021995846182107925
1791103165257140500,9.552140380859376,0.021495172753930092,0.1651463508605957,0.01577203907072544
1791103165267113500,9.562113525390625,0.06341998279094696,0.15874330699443817,0.014827148988842964
1791103165277086200,9.572086181640625,-0.02249758504331112,0.15755526721477509,-0.00603339122608304
1791103165287059200,9.58205908203125,-0.05338865518569946,0.10620419681072235,0.07070932537317276
1791103165297032400,9.592032470703124,-0.07398687303066254,0.0998871847987175,0.04505749046802521
1791103165307005400,9.60200537109375,-0.09422663599252701,0.09263219684362411,-0.004432831425219774
1791103165316978400,9.611978515625,-0.0816088393330574,0.049306295812129974,0.0011313108261674643
1791103165326951200,9.621951171875,-0.06377924233675003,0.05721242353320122,0.08233854919672012
1791103165336924400,9.63192431640625,-0.044522725045681,0.05754318833351135,0.07187099754810333
1791103165346897400,9.6418974609375,-0.07184755802154541,0.07248085737228394,-0.08352498710155487
1791103165356870400,9.651870361328125,-0.08379662781953812,0.02267761528491974,0.022287994623184204
1791103165366843400,9.661843505859375,-0.052919939160346985,0.05986519902944565,-0.01227743923664093
1791103165376816400,9.67181640625,-0.049490321427583694,0.05547790601849556,0.007405984681099653
1791103165386789400,9.681789306640624,-0.06042472645640373,0.020650416612625122,-0.010016947984695435
1791103165396761300,9.69176123046875,-0.04175383970141411,0.0002181128947995603,0.009665144607424736
1791103165406734600,9.701734619140625,-0.07536399364471436,0.018555574119091034,-0.054002515971660614
1791103165416707300,9.711707275390625,-0.09504395723342896,-0.013658021576702595,0.0194927416741848
1791103165426680300,9.721680419921874,-0.10891982913017273,-0.0393010675907135,-0.003497795667499304
1791103165436653300,9.7316533203125,-0.13037344813346863,-0.03242931142449379,-0.023927437141537666
1791103165446626300,9.741626220703125,-0.1932791769504547,-0.019354255869984627,-0.14906299114227295
1791103165456599600,9.751599609375,-0.14427702128887177,-0.07632619887590408,0.04740879312157631
1791103165466572300,9.761572265625,-0.18495707213878632,-0.020785706117749214,0.0070736221969127655
1791103165476545300,9.771545166015626,-0.12598855793476105,-0.008857673965394497,-0.13302595913410187
1791103165486518300,9.781518310546875,-0.16014279425144196,-0.04758349806070328,0.04628627374768257
1791103165496491500,9.791491455078125,-0.18013568222522736,-0.056839313358068466,0.0393974743783474
1791103165506464500,9.801464599609375,-0.21573123335838318,-0.04223986342549324,0.05326481908559799
1791103165516437200,9.811437255859374,-0.22228659689426422,-0.07621540874242783,0.07494507730007172
1791103165526410200,9.82141015625,-0.2613764703273773,-0.09826398640871048,0.07096312195062637
1791103165536383500,9.831383544921875,-0.280074805021286,-0.12016156315803528,-0.02791045978665352
1791103165546356500,9.8413564453125,-0.2408706694841385,-0.14363892376422882,0.037640318274497986
1791103165556329500,9.85132958984375,-0.285793662071228,-0.11533670872449875,-0.027714718133211136
1791103165566302200,9.86130224609375,-0.2808378040790558,-0.14533323049545288,-0.09561999887228012
1791103165576275500,9.871275390625,-0.2937551736831665,-0.15076394379138947,-0.08539585769176483
1791103165586248400,9.88124853515625,-0.28986671566963196,-0.21377886831760406,-0.049062084406614304
1791103165596221400,9.891221435546875,-0.2808729410171509,-0.2561825215816498,-0.06160503998398781
1791103165606194200,9.901194091796874,-0.32020169496536255,-0.26384681463241577,-0.04158099740743637
1791103165616167400,9.91116748046875,-0.36945074796676636,-0.29054421186447144,-0.10764843225479126
1791103165626140400,9.921140380859375,-0.3883972764015198,-0.3128833472728729,0.05059713125228882
1791103165636113400,9.931113525390625,-0.4071613848209381,-0.2705366909503937,0.16278812289237976
1791103165646086400,9.94108642578125,-0.3086065649986267,-0.2676476836204529,0.01426442340016365
1791103165656059400,9.951059326171874,-0.29372188448905945,-0.2153938114643097,0.07235835492610931
1791103165666032400,9.961032470703126,-0.26253148913383484,-0.15801067650318146,0.1471569538116455
1791103165676005400,9.97100537109375,-0.13956215977668762,-0.09127132594585419,0.07954941689968109
1791103165685978400,9.980978271484375,-0.0910382941365242,-0.031254325062036514,0.023542877286672592
1791103165695951400,9.990951416015625,-0.005350290797650814,-0.016336096450686455,0.04262682422995567
1791103165705924400,10.00092431640625,-0.027241474017500877,0.052933789789676666,-0.013562946580350399
1791103165715897300,10.0108974609375,0.01521996594965458,0.06547994166612625,0.055512260645627975
1791103165725870300,10.020870361328125,0.024837439879775047,0.09448149800300598,-0.07841438055038452
1791103165735843300,10.03084326171875,0.033605631440877914,0.050335872918367386,-0.008828379213809967
1791103165745816600,10.040816650390624,0.051891960203647614,0.08746113628149033,-0.02797411009669304
1791103165755789300,10.050789306640626,0.056600961834192276,0.05750909820199013,-0.05661134794354439
1791103165765762300,10.06076220703125,0.04779202491044998,0.02418762817978859,-0.0044168527238070965
1791103165775735300,10.0707353515625,0.010742392390966415,0.005980394314974546,-0.0013720606220886111
1791103165785708500,10.08070849609375,0.02467898093163967,-0.03206951916217804,-0.008035555481910706
1791103165795681500,10.090681640625,0.02719806507229805,-0.04928445816040039,0.027630029246211052
1791103165805654300,10.100654296875,0.059960540384054184,-0.04746045917272568,-0.037453632801771164
1791103165815627500,10.11062744140625,0.015749935060739517,-0.047624509781599045,-0.002612294629216194
1791103165825600500,10.1206005859375,0.03918442130088806,-0.060980528593063354,0.009583384729921818
1791103165835573800,10.13057373046875,0.10115192085504532,-0.066816046833992,0.061524879187345505
1791103165845546500,10.14054638671875,0.0716978907585144,-0.08518227189779282,-0.05513036251068115
1791103165855519500,10.15051953125,0.03858814015984535,-0.09891672432422638,0.023368438705801964
1791103165865492500,10.160492431640625,0.012749883346259594,-0.07716109603643417,0.027120035141706467
1791103165875465700,10.1704658203125,0.09252114593982697,-0.10848333686590195,0.04348808899521828
1791103165885438700,10.180438720703124,0.07145340740680695,-0.12609775364398956,0.10441349446773529
1791103165895411500,10.190411376953126,0.1372806280851364,-0.08959592878818512,0.018859442323446274
1791103165905384400,10.200384521484375,0.05365497246384621,-0.06993301212787628,-0.018519354984164238
1791103165915357700,10.210357666015625,0.0525209978222847,-0.07753686606884003,0.005471464246511459
1791103165925330700,10.22033056640625,0.12502023577690125,-0.004051466938108206,-0.07243611663579941
1791103165935303700,10.2303037109375,0.1847914159297943,0.02448670007288456,-0.019168900325894356
1791103165945276400,10.2402763671875,0.19134865701198578,0.0312868170440197,0.05041657015681267
1791103165955249700,10.250249755859375,0.15221430361270905,0.06132780387997627,0.020386232063174248
1791103165965222700,10.26022265625,0.16495274007320404,0.08502141386270523,0.027660923078656197
1791103165975195600,10.270195556640624,0.1784198135137558,0.08887394517660141,0.06292783468961716
1791103165985168600,10.280168701171876,0.1555784046649933,0.08307038247585297,0.10356314480304718
1791103165995141600,10.2901416015625,0.12349264323711395,0.08622117340564728,0.10666386038064957
1791103166005114600,10.300114501953125,0.13576582074165344,0.09954123944044113,0.03711274638772011
1791103166015087600,10.310087646484375,0.159483402967453,0.1309036910533905,0.012340822257101536
1791103166025060600,10.320060546875,0.14741049706935883,0.14948590099811554,-0.03136591240763664
1791103166035033300,10.330033447265626,0.18495626747608185,0.13373036682605743,-0.08958207815885544
1791103166045006600,10.340006591796875,0.18858562409877777,0.17080236971378326,-0.08181097358465195
1791103166054979600,10.3499794921875,0.11021119356155396,0.1991245597600937,-0.014849785715341568
1791103166064951600,10.35995166015625,0.10349176824092865,0.13845694065093994,0.005972937680780888
1791103166074924500,10.369924560546876,0.0516461506485939,0.11491406708955765,0.06817905604839325
1791103166084897500,10.3798974609375,0.0007669904152862728,0.07542764395475388,0.00890614278614521
1791103166094870500,10.38987060546875,-0.05564595013856888,0.03218190371990204,0.044620729982852936
1791103166104843500,10.399843505859375,-0.04472113400697708,0.013733122497797012,0.05205148458480835
1791103166114816800,10.409816650390624,-0.031004788354039192,0.0224472526460886,0.02598579414188862
1791103166124789500,10.41978955078125,-0.02564011514186859,0.009779127314686775,0.018258100375533104
1791103166134762500,10.429762451171875,0.034328412264585495,0.03247671574354172,-0.06625358760356903
1791103166144735500,10.439735595703125,0.026127474382519722,0.04286197945475578,-0.031717449426651
1791103166154708700,10.449708740234374,0.0009840379934757948,0.005398227367550135,0.00890960544347763
1791103166164681700,10.459681640625,-0.08683796226978302,0.021633923053741455,-0.0395524688065052
1791103166174654500,10.469654541015625,-0.0929832011461258,-0.0156119829043746,0.003154247999191284
1791103166184627500,10.47962744140625,-0.11635483801364899,-0.03615028038620949,0.02052844502031803
1791103166194600700,10.4896005859375,-0.1539759784936905,-0.03720462694764137,0.000993625377304852
1791103166204573700,10.49957373046875,-0.12248623371124268,-0.03358911722898483,0.016079368069767952
1791103166214546700,10.509546630859376,-0.08996131271123886,-0.02443450316786766,0.018435467034578323
1791103166224519400,10.51951953125,-0.03719024360179901,-0.03272785246372223,-0.021436316892504692
1791103166234492400,10.529492431640625,-0.005138569511473179,-0.007568437606096268,0.008792426437139511
1791103166244465700,10.539465576171875,0.03445997089147568,0.007384412921965122,0.00968831405043602
1791103166254438700,10.549438720703124,0.0443381704390049,-0.009490440599620342,-0.059429239481687546
1791103166264411600,10.55941162109375,-0.016686301678419113,-0.03229935094714165,-0.04821733012795448
1791103166274384400,10.56938427734375,-0.06629140675067902,-0.061094511300325394,-0.0059508332051336765
1791103166284357600,10.579357666015625,-0.09888769686222076,-0.06471987068653107,-0.11544030904769897
1791103166294330600,10.58933056640625,-0.11382456868886948,-0.1168869361281395,-0.0748225748538971
1791103166304303600,10.5993037109375,-0.17257656157016754,-0.14779424667358398,-0.07512670755386353
1791103166314276600,10.609276611328125,-0.14997777342796326,-0.18410831689834595,-0.06094271317124367
1791103166324249600,10.61924951171875,-0.14643257856369019,-0.21897362172603607,0.020506341010332108
1791103166334222600,10.62922265625,-0.12492436170578003,-0.22090467810630798,0.025537051260471344
1791103166344195600,10.639195556640624,-0.15371686220169067,-0.21227231621742249,0.0388089157640934
1791103166354168600,10.64916845703125,-0.17231211066246033,-0.2527291774749756,-0.044504351913928986
1791103166364141600,10.6591416015625,-0.13806599378585815,-0.2542690336704254,0.000218645524000749
1791103166374114600,10.669114501953125,-0.12783412635326385,-0.18855047225952148,-0.01798645779490471
1791103166384087600,10.679087646484374,-0.11826059967279434,-0.16898396611213684,-0.04066833481192589
1791103166394060500,10.689060546875,-0.03813806548714638,-0.12884825468063354,-0.026270486414432526
1791103166404033500,10.699033447265625,-0.0150428656488657,-0.059122707694768906,0.040456078946590424
1791103166414006500,10.709006591796875,0.010838799178600311,-0.03567463904619217,0.024455009028315544
1791103166423979500,10.7189794921875,0.017130250111222267,-0.031147798523306847,0.013666544109582901
1791103166433952500,10.728952392578124,0.13421213626861572,0.009044894017279148,0.05022561922669411
1791103166443925500,10.738925537109376,0.1919257640838623,0.06845255941152573,0.09795665740966797
1791103166453898800,10.748898681640625,0.1776283085346222,0.10167789459228516,0.03442881256341934
1791103166463871500,10.75887158203125,0.23444072902202606,0.1055101826786995,0.03410710394382477
1791103166473844500,10.768844482421875,0.24657489359378815,0.14823207259178162,-0.038534875959157944
1791103166483817500,10.7788173828125,0.2759692668914795,0.14824166893959045,-0.013730992563068867
1791103166493790700,10.788790771484376,0.25389939546585083,0.15351499617099762,-0.024019848555326462
1791103166503763700,10.798763671875,0.16789419949054718,0.15790867805480957,-0.06971383094787598
1791103166513736400,10.808736328125,0.13066266477108002,0.10348431020975113,-0.020739367231726646
1791103166523709400,10.81870947265625,0.11803849041461945,0.07999683171510696,0.033071666955947876
1791103166533682700,10.8286826171875,0.12761148810386658,0.04120256379246712,0.021885057911276817
1791103166543655700,10.83865576171875,0.0399751141667366,-0.004063184838742018,0.058989815413951874
1791103166553627400,10.84862744140625,0.05482622981071472,-0.050742007791996,0.07134315371513367
1791103166563600600,10.8586005859375,0.014567224308848381,-0.042270224541425705,0.06495263427495956
1791103166573573600,10.86857373046875,0.06652256846427917,-0.06838864833116531,-0.004372111521661282
1791103166583546600,10.878546630859375,0.04517307132482529,-0.05016516521573067,0.05728565901517868
1791103166593519600,10.88851953125,0.022110627964138985,-0.024391092360019684,-0.019240805879235268
1791103166603492600,10.89849267578125,0.052023787051439285,-0.03586079552769661,-0.008131163194775581
1791103166613465600,10.908465576171874,0.06523599475622177,-0.01955532468855381,-0.04689054191112518
1791103166623438600,10.9184384765625,0.08079843968153,-0.01278503704816103,0.03157922998070717
1791103166633411600,10.92841162109375,0.05763639882206917,0.003775297198444605,0.009554356336593628
1791103166643384600,10.938384521484375,0.0604763925075531,-0.0009331716573797166,-0.039795614778995514
1791103166653357600,10.948357666015625,0.08172468841075897,0.006462426856160164,-0.03279336541891098
1791103166663330600,10.95833056640625,0.07466305047273636,0.0353742353618145,0.020787836983799934
1791103166673303600,10.968303466796876,0.1734069436788559,0.057799648493528366,0.02810300700366497
1791103166683276500,10.978276611328125,0.171440988779068,0.09500107914209366,0.01920378766953945
1791103166693249500,10.98824951171875,0.22942307591438293,0.0964818000793457,-0.0650293305516243
1791103166703222500,10.998222412109374,0.25522857904434204,0.14919081330299377,-0.03381868451833725
1791103166713195500,11.008195556640626,0.2298281341791153,0.2039150446653366,-0.013944311067461967
1791103166723168500,11.01816845703125,0.259718120098114,0.20780059695243835,0.0015536881983280182
1791103166733141800,11.028141845703125,0.18849214911460876,0.22214651107788086,-0.03870052471756935
1791103166743114500,11.038114501953125,0.22713860869407654,0.2342737466096878,-0.05131937935948372
1791103166753087500,11.04808740234375,0.20969463884830475,0.23955506086349487,-0.022241655737161636
1791103166763060500,11.058060546875,0.18762849271297455,0.2317671775817871,0.0020839234348386526
1791103166773033700,11.06803369140625,0.1929715871810913,0.22773675620555878,-0.09471532702445984
1791103166783006700,11.0780068359375,0.1819399744272232,0.21806415915489197,-0.022704513743519783
1791103166792979500,11.0879794921875,0.12400183826684952,0.2082381546497345,0.0060264673084020615
1791103166802952400,11.097952392578126,0.07877311110496521,0.16906411945819855,0.038605447858572006
1791103166812925700,11.10792578125,0.07162598520517349,0.16669496893882751,-0.010889931581914425
1791103166822898400,11.1178984375,-0.02484063431620598,0.13346298038959503,0.029874809086322784
1791103166832871400,11.127871337890625,-0.024114390835165977,0.13058783113956451,0.007702660746872425
1791103166842844200,11.13784423828125,-0.05318226292729378,0.12673477828502655,0.010584733448922634
1791103166852817400,11.1478173828125,-0.06655851751565933,0.11393535882234573,-0.014870292507112026
1791103166862790400,11.157790283203125,-0.10611684620380402,0.12826795876026154,-0.056950367987155914
1791103166872763400,11.167763427734375,-0.05275695398449898,0.09492331743240356,-0.006217948626726866
1791103166882736400,11.177736328125,-0.06539738178253174,0.13998720049858093,-0.03424692153930664
1791103166892709400,11.18770947265625,-0.037393178790807724,0.1288945972919464,-0.0726504996418953
1791103166902682400,11.197682373046876,-0.0801912397146225,0.13210929930210114,-0.0030517163686454296
1791103166912655400,11.2076552734375,-0.08807233721017838,0.09915454685688019,0.05287732928991318
1791103166922628400,11.21762841796875,-0.11102984845638275,0.10403132438659668,0.0010029464028775692
1791103166932601000,11.22760107421875,-0.10363877564668655,0.11045247316360474,-0.026368489488959312
1791103166942574300,11.23757421875,-0.13740526139736176,0.12101377546787262,-0.006192381959408522
1791103166952546300,11.24754638671875,-0.15394003689289093,0.09842351078987122,0.07135620713233948
1791103166962519300,11.257519287109375,-0.09421864151954651,0.13125468790531158,-0.019566243514418602
1791103166972492300,11.2674921875,-0.06353423744440079,0.15816326439380646,-0.06726319342851639
1791103166982465300,11.27746533203125,-0.07386543601751328,0.11955089867115021,0.06198427453637123
1791103166992438300,11.287438232421875,-0.10733497887849808,0.13398975133895874,0.045340318232774734
1791103167002411300,11.297411376953125,-0.12579894065856934,0.1266506165266037,-0.018185129389166832
1791103167012384500,11.307384521484375,-0.19187302887439728,0.09325404465198517,0.0022242721170186996
1791103167022357200,11.317357177734374,-0.1584455668926239,0.07312002032995224,0.021195832639932632
1791103167032330200,11.327330322265626,-0.2304859310388565,0.10339882969856262,-0.00364719913341105
1791103167042303200,11.33730322265625,-0.18250510096549988,0.04369768127799034,-0.0346493236720562
1791103167052276500,11.3472763671875,-0.19717618823051453,0.03204954415559769,-0.022649120539426804
1791103167062249500,11.35724951171875,-0.1927553415298462,0.05846890062093735,0.0005944175645709038
1791103167072222200,11.36722216796875,-0.17326046526432037,0.03767174482345581,-0.04177354648709297
1791103167082195200,11.3771953125,-0.1637393981218338,0.05410504713654518,-0.06287243962287903
1791103167092168400,11.38716845703125,-0.16802895069122314,0.05380996689200401,0.03811196610331535
1791103167102141400,11.397141357421875,-0.20811006426811218,0.03600407391786575,0.07637626677751541
1791103167112114400,11.407114501953124,-0.2076312154531479,-0.014658837579190731,0.06777851283550262
1791103167122087200,11.417087158203126,-0.20435287058353424,0.001058872789144516,0.02425314113497734
1791103167132060400,11.427060302734375,-0.2107923924922943,-0.003552923211827874,0.0879301205277443
1791103167142033400,11.437033447265625,-0.20597900450229645,-0.029527531936764717,0.04761545732617378
1791103167152006400,11.44700634765625,-0.15106675028800964,-0.03466503694653511,-0.05566912144422531
1791103167161979400,11.4569794921875,-0.17091821134090424,-0.014844725839793682,0.0033659692853689194
1791103167171952000,11.4669521484375,-0.19201605021953583,-0.04619625583291054,-0.019277824088931084
1791103167181925400,11.47692529296875,-0.21231119334697723,-0.028611138463020325,-0.0258659515529871
1791103167191898400,11.4868984375,-0.26449477672576904,-0.030005834996700287,0.012072641402482986
1791103167201871400,11.496871337890624,-0.31195735931396484,-0.07898350059986115,0.013221529312431812
1791103167211844400,11.50684423828125,-0.30034199357032776,-0.11055580526590347,-0.006627542432397604
1791103167221817300,11.5168173828125,-0.33212095499038696,-0.11136087775230408,-0.017471667379140854
1791103167231790300,11.526790283203125,-0.24422438442707062,-0.17217975854873657,-0.004472512751817703
1791103167241763300,11.536763427734375,-0.21662631630897522,-0.12948289513587952,-0.03543415665626526
1791103167251736300,11.546736328125,-0.2442539483308792,-0.13998666405677795,0.08134785294532776
1791103167261709300,11.556709228515626,-0.1944216787815094,-0.14893728494644165,0.01239408552646637
1791103167271682300,11.566682373046875,-0.19312845170497894,-0.12067688256502151,-0.05204029753804207
1791103167281654300,11.576654296875,-0.23017248511314392,-0.14973916113376617,0.03713884577155113
1791103167291627500,11.58662744140625,-0.273349791765213,-0.1862231343984604,0.019543606787919998
1791103167301600300,11.596600341796876,-0.24009887874126434,-0.20141753554344177,0.0035206989850848913
1791103167311573200,11.6065732421875,-0.2874794602394104,-0.16780897974967957,0.011593272909522057
1791103167321546200,11.616546142578125,-0.24374182522296906,-0.19084905087947845,-0.029090506955981255
1791103167331519500,11.62651953125,-0.2472446709871292,-0.18299485743045807,-0.10215619206428528
1791103167341492500,11.636492431640624,-0.1991855353116989,-0.16155853867530823,0.0013227921444922686
1791103167351465200,11.64646533203125,-0.15937741100788116,-0.14570340514183044,-0.062584288418293
1791103167361438200,11.656438232421875,-0.17357152700424194,-0.14203117787837982,-0.0418771430850029
1791103167371411200,11.6664111328125,-0.13894616067409515,-0.13469789922237396,-0.013606356456875801
1791103167381384400,11.676384521484374,-0.10215885937213898,-0.10267950594425201,0.03337473422288895
1791103167391357400,11.686357421875,-0.12684929370880127,-0.13243740797042847,0.08868512511253357
1791103167401330200,11.696330078125,-0.08485070616006851,-0.1279395967721939,-0.007506918627768755
1791103167411303200,11.70630322265625,-0.09937212616205215,-0.1063900887966156,0.02171621471643448
1791103167421276400,11.7162763671875,-0.05524327978491783,-0.10639754682779312,0.08001307398080826
1791103167431249400,11.72624951171875,-0.04971962049603462,-0.12288890779018402,0.012133361771702766
1791103167441222400,11.736222412109376,-0.06381066888570786,-0.10072394460439682,-0.11270418018102646
1791103167451195100,11.746195068359375,-0.08645526319742203,-0.12288064509630203,-0.012602344155311584
1791103167461168400,11.75616845703125,-0.06285779178142548,-0.1184009462594986,-0.008730906993150711
1791103167471141400,11.766141357421875,-0.09074082225561142,-0.12513528764247894,-0.020241089165210724
1791103167481114400,11.7761142578125,-0.09724453091621399,-0.18073275685310364,0.014011423103511333
1791103167491087400,11.78608740234375,-0.10466622561216354,-0.1777271181344986,-0.05784279480576515
1791103167501060400,11.796060302734375,-0.12084785848855972,-0.20199544727802277,-0.033675406128168106
1791103167511033300,11.806033447265625,-0.10181504487991333,-0.21002992987632751,-0.03189694508910179
1791103167521006300,11.81600634765625,-0.0727892518043518,-0.21373039484024048,0.032528650015592575
1791103167530979300,11.825979248046876,-0.07357648015022278,-0.20249584317207336,0.06313902139663696
1791103167540952300,11.835952392578125,-0.10268829762935638,-0.1824164092540741,-0.0294343214482069
1791103167550925300,11.84592529296875,-0.05487336963415146,-0.2105788141489029,0.014571219682693481
1791103167560898300,11.855898193359375,-0.022961242124438286,-0.209883451461792,0.011217501014471054
1791103167570871300,11.865871337890624,-0.07624363899230957,-0.2084706574678421,0.06292703747749329
1791103167580843500,11.875843505859375,-0.0658397302031517,-0.22687309980392456,0.02184564433991909
1791103167590816300,11.885816162109375,-0.06776759773492813,-0.2118115872144699,0.007166033610701561
1791103167600789200,11.895789306640625,-0.060933392494916916,-0.1956147700548172,0.06452732533216476
1791103167610762200,11.90576220703125,-0.05768726393580437,-0.20184017717838287,0.008257131092250347
1791103167620735500,11.915735595703126,-0.02564064785838127,-0.21297591924667358,0.029773874208331108
1791103167630708200,11.925708251953125,0.011937619186937809,-0.2226911336183548,0.03573589399456978
1791103167640681200,11.93568115234375,0.02845614217221737,-0.18964529037475586,-0.07490406930446625
1791103167650654200,11.945654296875,0.004119910299777985,-0.19834770262241364,0.07609769701957703
1791103167660627500,11.95562744140625,0.017240505665540695,-0.18720370531082153,0.024626251310110092
1791103167670600400,11.965600341796875,0.04398663341999054,-0.1943361908197403,0.019661052152514458
1791103167680573200,11.9755732421875,0.07501938194036484,-0.1715773493051529,0.04914810508489609
1791103167690546200,11.985546142578125,0.07338127493858337,-0.1391136795282364,0.06138746067881584
1791103167700519400,11.99551953125,0.1147148609161377,-0.11988566070795059,-0.004575577098876238
1791103167710492400,12.005492431640626,0.17991118133068085,-0.07997152954339981,0.024562601000070572
1791103167720465400,12.01546533203125,0.20844775438308716,-0.03834099695086479,0.05204509198665619
1791103167730438100,12.025438232421875,0.24967561662197113,-0.019471436738967896,0.02280970849096775
1791103167740411400,12.035411376953125,0.21404491364955902,-0.008760468102991581,0.08031614124774933
1791103167750384400,12.04538427734375,0.25623470544815063,0.05549628287553787,0.012489693239331245
1791103167760357400,12.055357421875,0.25440752506256104,0.06287696957588196,0.06745946407318115
1791103167770330400,12.065330322265625,0.2971038520336151,0.028730181977152824,-0.02588459476828575
1791103167780303400,12.075303466796875,0.31939584016799927,0.06040368974208832,-0.018459435552358627
1791103167790276400,12.0852763671875,0.32640793919563293,0.11292362213134766,-0.014117683283984661
1791103167800249300,12.095249267578126,0.3108324408531189,0.1408625841140747,-0.006436061579734087
1791103167810222300,12.105222412109375,0.34831005334854126,0.14392387866973877,0.02365925721824169
1791103167820195800,12.11519580078125,0.3460649847984314,0.13381452858448029,0.023958329111337662
1791103167830168800,12.1251689453125,0.2773815393447876,0.11375639587640762,-0.018523083999753
