time,seconds_elapsed,z,y,x
1789998052832217900,1.5972177734375,-0.23338285758204813,0.01733171709792634,0.15594009429812936
1789998052842289000,1.607288818359375,-0.24227385098033274,0.013481996236150517,0.05866124077163736
1789998052852359000,1.61735888671875,-0.28585711058752367,-0.031434900279155464,0.12364613703272373
1789998052862431000,1.627430908203125,-0.37592761036991484,-0.1257551035758908,0.16867022050872624
1789998052872501800,1.637501708984375,-0.41218307706458035,-0.16571558432823888,0.14637958389543684
1789998052882572000,1.647572021484375,-0.4194972568136753,-0.19504434360254422,0.14689501595397933
1789998052892643000,1.65764306640625,-0.42835444545013523,-0.23901222701088137,0.11647694099154472
1789998052902714000,1.667714111328125,-0.5051121843946824,-0.3173749628407631,0.06956708019234581
1789998052912785200,1.67778515625,-0.5082079788994583,-0.3632789471158415,0.18079923896401331
1789998052922856000,1.68785595703125,-0.5047319141421789,-0.36440528168254344,0.1253876236586402
1789998052932927000,1.697927001953125,-0.5332118132979077,-0.4121867361398959,0.043466753369211665
1789998052942998000,1.707998046875,-0.5324073019198562,-0.3985000848947278,0.13885845242925401
1789998052953069000,1.718069091796875,-0.5583067791272509,-0.4097767869720973,0.1590303984358995
1789998052963140000,1.72814013671875,-0.6015495623783396,-0.4685563253220181,-0.014101627455275607
1789998052973211100,1.738211181640625,-0.5791350158262736,-0.4781429054721767,0.03778730191283799
1789998052983282000,1.748281982421875,-0.5189845407602073,-0.42403074854317646,0.04474476134889837
1789998052993353000,1.75835302734375,-0.4938102655732329,-0.4301402529599072,0.0004730237493012268
1789998053003424000,1.768424072265625,-0.49833910111077356,-0.42385207412127945,0.009327107934469262
1789998053013495000,1.7784951171875,-0.4719356163706662,-0.4095719295403738,-0.015788656469129407
1789998053023566000,1.788566162109375,-0.40644348469940356,-0.40216313932894565,-0.00997552882706405
1789998053033637000,1.79863720703125,-0.3588516137080988,-0.37254781036514895,0.015885543987203397
1789998053043708000,1.8087080078125,-0.40428629878603556,-0.4021913369175434,-0.012412573061623902
1789998053053779000,1.818779052734375,-0.41475386709902307,-0.4014630666980274,0.04046318337893066
1789998053063850000,1.82885009765625,-0.4057833722894724,-0.35714498373073555,0.1227881157496073
1789998053073921000,1.838921142578125,-0.4091304002959961,-0.3808540721585813,0.06823372682873517
1789998053083992000,1.848991943359375,-0.39743915911443833,-0.3963122643957594,0.052923640551140544
1789998053094063000,1.85906298828125,-0.3955586968094428,-0.34924202924169484,0.07227613628949747
1789998053104134000,1.8691337890625,-0.35650560462310676,-0.2926218794291956,0.08559955716835065
1789998053114205000,1.879204833984375,-0.3151492043578856,-0.2733540763922546,-0.01511180946470248
1789998053124276000,1.88927587890625,-0.24577922589262893,-0.22970195766291313,0.059507180460380366
1789998053134347000,1.899346923828125,-0.19966615113321962,-0.18359376908669933,0.09490898316544945
1789998053144418000,1.90941796875,-0.20542344569579216,-0.18232894286403079,-0.002267748480523093
1789998053154489000,1.919489013671875,-0.2280571566766938,-0.17708712561312204,-0.03487306822583174
1789998053164560000,1.929559814453125,-0.20723457868954875,-0.15103614791005868,0.06583406581196458
1789998053174631000,1.939630859375,-0.1786698751842849,-0.12944546229408105,0.027014426035491045
1789998053184702000,1.949701904296875,-0.17615149048966677,-0.13403391146554638,0.10228904315834017
1789998053194773000,1.95977294921875,-0.18917197695049984,-0.14986742129104616,0.05918275274027234
1789998053204844000,1.969843994140625,-0.16454697651217773,-0.14712125704567924,-0.08320594795851402
1789998053214915000,1.9799150390625,-0.14717430123727895,-0.11766556306784978,-0.021236652951008017
1789998053224985900,1.98998583984375,-0.11944723056092976,-0.12179876434797031,0.08328118066252968
1789998053235057000,2.000056884765625,-0.12032476622412688,-0.14789957443410778,0.0045883285275319955
1789998053245128000,2.0101279296875,-0.14489227572370963,-0.15071101581964375,0.00357507171330251
1789998053255199000,2.020198974609375,-0.15911913766080946,-0.17030033390785917,-0.021407216388152978
1789998053265270000,2.03027001953125,-0.17007671092760226,-0.19745732204912478,0.04605644679556784
1789998053275341000,2.040341064453125,-0.2155039129109794,-0.215763225663294,0.06501791515228961
1789998053285411800,2.050411865234375,-0.24751559519270364,-0.25763826101514276,-0.04757732991788771
1789998053295483000,2.06048291015625,-0.23486022827294048,-0.3070984242890423,-0.07405649418517242
1789998053305554000,2.070553955078125,-0.222028758493638,-0.339987436148136,0.02466342156597286
1789998053315625200,2.080625244140625,-0.21604554448871172,-0.40856051549945693,0.02176547089798611
1789998053325696300,2.0906962890625,-0.2589669575731177,-0.5061853298834379,0.025309220601505002
1789998053335767300,2.100767333984375,-0.32773578840172973,-0.5507397149181033,0.010393768122057572
1789998053345838300,2.11083837890625,-0.37293411019147543,-0.5795352693988695,0.005360588665467674
1789998053355909400,2.120909423828125,-0.40576371076878587,-0.63203604488388,0.0369734593570632
1789998053365980400,2.13098046875,-0.4494388187433122,-0.6907491936442269,0.076547573941076
1789998053376051200,2.14105126953125,-0.45547695890288936,-0.7221186983595314,0.15275110533260688
1789998053386122200,2.151122314453125,-0.45973354035894004,-0.7402545219248968,0.056885476239784884
1789998053396193300,2.161193359375,-0.483997767309462,-0.768611513706383,-0.03970126610305774
1789998053406264300,2.171264404296875,-0.45554171210237304,-0.8026060945059486,-0.0038715996507003633
1789998053416335400,2.18133544921875,-0.41812173856254803,-0.802407050986499,0.050634941357905056
1789998053426406400,2.191406494140625,-0.4423229940813263,-0.8544314005608371,-0.0011233156494385942
1789998053436477200,2.201477294921875,-0.4404880965714847,-0.9128556827346456,0.11467243938380553
1789998053446548200,2.21154833984375,-0.4251033480628075,-0.9214885845554864,0.12753938922757596
1789998053456619300,2.221619384765625,-0.45284206910238217,-0.9561689880609259,0.062229888994991774
1789998053466689300,2.231689208984375,-0.519063548469305,-0.9788490903381364,0.04261053987263455
1789998053476760300,2.24176025390625,-0.5214486316806469,-0.9748159529043141,0.10558474141474775
1789998053486831000,2.2518310546875,-0.4441203962590282,-0.9544021507586196,0.06560430054749357
1789998053496902100,2.261902099609375,-0.4062971425539095,-0.9150819339926095,0.02733346205591274
1789998053506973200,2.27197314453125,-0.36484798115309275,-0.905641211394861,0.001115289770537028
1789998053517044200,2.282044189453125,-0.3172451294049591,-0.8840793529293021,-0.007246493297759591
1789998053527115300,2.292115234375,-0.23239006662764283,-0.867854999092025,-0.054078036618500316
1789998053537186300,2.302186279296875,-0.12705083211827775,-0.8085651376436801,0.022599568017144755
1789998053547257000,2.312257080078125,-0.05493219577178418,-0.7235738818557621,0.16823510533558397
1789998053557328100,2.322328125,-0.027286994330427784,-0.6463878660922892,0.15045221148614019
1789998053567399200,2.332399169921875,-0.006948219726828742,-0.5599353939448697,0.15220943134948206
1789998053577470200,2.34247021484375,0.01737797280675293,-0.48058025338898486,0.1184351923559919
1789998053587541200,2.352541259765625,0.08565727230075297,-0.412637055934055,0.05711786548411624
1789998053597612300,2.3626123046875,0.15383012939998378,-0.3509485081220148,0.12438742486661337
1789998053607683000,2.37268310546875,0.20863508955007026,-0.28511345460603177,0.21386781579335293
1789998053617754000,2.382754150390625,0.33032453123705857,-0.2037017506087168,0.2460652444433853
1789998053627825200,2.3928251953125,0.38134442219583453,-0.09761498870982582,0.12938727814568057
1789998053637896200,2.402896240234375,0.3229355507144893,-0.08801710024569705,0.07970254753832066
1789998053647967200,2.41296728515625,0.3336315377089782,-0.10034637432195558,0.0038920430507463125
1789998053658038300,2.423038330078125,0.389164828735302,-0.05263300179449176,0.008234987380965512
1789998053668109000,2.433109130859375,0.39295174110098613,-0.04666748796173492,0.04180375500274816
1789998053678180000,2.44318017578125,0.3823948894373323,-0.06477424722746805,-0.055596323755408565
1789998053688251100,2.453251220703125,0.39880496146760713,-0.08612391678279148,-0.05515690677410352
1789998053698322200,2.463322265625,0.4187986594269655,-0.06480312657189617,0.006303377613242003
1789998053708393200,2.473393310546875,0.4212726902583261,0.0007331149558977482,0.016186259158094008
1789998053718464300,2.48346435546875,0.3377989862648951,-0.007450471609912147,-0.010943782505020809
1789998053728535300,2.493535400390625,0.2511516176307888,-0.06661720987438874,-0.02202837259386335
1789998053738606300,2.5036064453125,0.258703119791615,-0.03888237664646181,0.042307743955570784
1789998053748677400,2.513677490234375,0.29686650959378874,-0.008276721833599279,0.12450748707549832
1789998053758748400,2.52374853515625,0.3130022698803197,-0.013180640967943857,-0.02390248917851533
1789998053768819500,2.5338193359375,0.23588740698044147,-0.04112130080401952,-0.06666949314921713
1789998053778890500,2.543890380859375,0.2590612348417926,-0.04979602345111302,-0.06270426132951651
1789998053788961300,2.553961181640625,0.38034418265671277,0.0405826819250521,0.06926986960172249
1789998053799032300,2.5640322265625,0.418614750877105,0.09102716665111905,0.003969925088523587
1789998053809103400,2.574103271484375,0.3722420433634391,0.07277120938076341,0.075585262722473
1789998053819174400,2.58417431640625,0.2519039329173243,0.05902470939082602,0.044338012946171304
1789998053829245400,2.594245361328125,0.18095158712810935,0.06140741698341244,-0.0014584406155879006
1789998053839316500,2.60431640625,0.259923189486532,0.0841177153774637,-0.032199613992030696
1789998053849387300,2.61438720703125,0.3256667375330235,0.18793521085701195,-0.004195353163973265
1789998053859458300,2.624458251953125,0.2881481230004517,0.22218434890549066,-0.034578957505089734
1789998053869529300,2.634529296875,0.252007218539487,0.18572839268778402,-0.19022408777153926
1789998053879600400,2.644600341796875,0.2997684402170823,0.17005221911830354,-0.12437419796736596
1789998053889671400,2.65467138671875,0.3743250932816633,0.20347826982456865,0.012140347713605346
1789998053899742500,2.664742431640625,0.36816148082544886,0.2498152049387999,0.022676836233044624
1789998053909813200,2.674813232421875,0.2526809647521937,0.2502617750076795,-0.16404420238522738
1789998053919884300,2.68488427734375,0.19509871102466594,0.24395996304051631,-0.15967681729663932
1789998053929954300,2.694954345703125,0.23774271345951586,0.27840256205918085,-0.0854604632667934
1789998053940025300,2.705025390625,0.2690098058054862,0.3085046199951649,-0.07951628714862
1789998053950096400,2.715096435546875,0.2090682629091953,0.2902154859550141,-0.17748680948412207
1789998053960167200,2.725167236328125,0.23044707632651057,0.27945894103984414,-0.2527522255951711
1789998053970238200,2.73523828125,0.35615001880934044,0.3451639516581429,-0.023399098954479385
1789998053980309200,2.745309326171875,0.42799451675190037,0.37650563082593563,0.04237066947888741
1789998053990380300,2.75538037109375,0.43971271064602735,0.40638397407384996,0.03092823552837849
1789998054000451300,2.765451416015625,0.35521662247100955,0.4109521392682211,-0.09165213423846191
1789998054010522400,2.7755224609375,0.31850433421648816,0.38827097812847927,0.004835643263528563
1789998054020593200,2.78559326171875,0.37885582272060014,0.3757343975077805,0.07697719863655254
1789998054030664200,2.795664306640625,0.3922931949334258,0.4316220045405364,0.02885967406821052
1789998054040735200,2.8057353515625,0.3676534112812291,0.4656192050718971,0.01822747240215385
1789998054050806300,2.81580615234375,0.3482438107162509,0.4854014817058208,0.023627678153903705
1789998054060877300,2.825877197265625,0.3625148278655935,0.48671062886674776,0.05356842148436179
1789998054070948400,2.8359482421875,0.29681530518828525,0.4693831973049797,0.050182406853179255
1789998054081019100,2.84601904296875,0.19433484182494307,0.4918520764929827,-0.007580357250855962
1789998054091090200,2.856090087890625,0.11799691262729896,0.47723246379688244,-0.05991502877387908
1789998054101161200,2.8661611328125,0.12698502899979544,0.44259731718689704,0.07229670776215891
1789998054111232300,2.876232177734375,0.19754205815811868,0.3875729861378174,0.19717147298816776
1789998054121303300,2.88630322265625,0.15980793951456715,0.27623461871189237,0.09414441046437318
1789998054131374300,2.896374267578125,0.05287477884556008,0.15650331393302677,0.0400335066106907
1789998054141445000,2.906445068359375,0.011504314856790912,0.07670491268734954,0.019274957020056535
1789998054151516200,2.91651611328125,-0.012831908725959254,0.04577211428281699,0.07304594945928368
1789998054161587200,2.926587158203125,-0.050802710555189805,-0.03480034158778174,0.07227625337724661
1789998054171658200,2.936658203125,-0.08372914953874432,-0.12524110344045142,0.06101918244651028
1789998054181729300,2.946729248046875,-0.0959504600912451,-0.14742976395283144,0.052821183837071704
1789998054191800300,2.95680029296875,-0.1111662896833757,-0.17416081255786678,0.0995374655298975
1789998054201871000,2.96687109375,-0.11439623769680991,-0.20881661782533642,0.11058821164490265
1789998054211942100,2.976942138671875,-0.12725527119696256,-0.2181118677313456,0.1343052992778678
1789998054222013200,2.98701318359375,-0.16300652685667708,-0.22471769934610708,0.049621222331772755
1789998054232084200,2.997084228515625,-0.1579411422020341,-0.21573522833245762,-0.039315748225119816
1789998054242155300,3.0071552734375,-0.1491090144828457,-0.19036147927959518,-0.0921136334906675
1789998054252226300,3.017226318359375,-0.11525996219934277,-0.16225496271042933,-0.0641697597750955
1789998054262297000,3.027297119140625,-0.09996789708856614,-0.1409941648386499,-0.015241333271549846
1789998054272368000,3.0373681640625,-0.07061469671463454,-0.09765549506127594,-0.004459385144014813
1789998054282438400,3.0474384765625,-0.07104244700182916,-0.07419750087237262,0.03165069795039798
1789998054292509400,3.057509521484375,-0.040336314773788386,-0.04283152002073695,0.06968411193706749
1789998054302580500,3.06758056640625,-0.05382799235927288,-0.025115087192811306,0.0006936598513959925
1789998054312651300,3.0776513671875,-0.03253915040872925,0.004929120237320948,-0.05060650969390998
1789998054322722300,3.087722412109375,0.032498341312924395,0.021083426527483896,-0.0478722411985089
1789998054332793300,3.09779345703125,0.07727730116982229,0.026270994470074617,-0.017641133434320565
1789998054342864400,3.107864501953125,0.10768932644995874,0.0501681304688426,0.03832402831004789
1789998054352935200,3.11793505859375,0.06151124814490906,0.06415511353372753,-0.08479928664905113
1789998054363006200,3.128006103515625,-0.011534889266553489,0.07055303807665407,-0.15363351747389767
1789998054373077200,3.1380771484375,-0.04643087107530436,0.07973378616391463,-0.055527067188857256
1789998054383148300,3.148148193359375,-0.022308066505564026,0.07851871649332068,-0.01832993352868331
1789998054393219300,3.15821923828125,-0.03979006823556293,0.0537449716346063,-0.03471640402679944
1789998054403290400,3.168290283203125,0.004036032962893677,0.06423001486687836,0.055797704230943004
1789998054413361200,3.178361083984375,0.0475096681895623,0.10190309880500636,0.14177000897916112
1789998054423432200,3.18843212890625,0.017907017102089685,0.09080570553681966,0.06073055405712658
1789998054433503200,3.198503173828125,-0.010709012305264123,0.07258461300297239,-0.03004261276170075
1789998054443574300,3.20857421875,-0.018554534738582477,0.10332305152992048,-0.10677313178070753
1789998054453645300,3.218645263671875,-0.0016530881108516482,0.13932874859145888,-0.07539370551396446
1789998054463716400,3.22871630859375,-0.034137641985604164,0.13086976927475738,-0.0646505462275821
1789998054473787100,3.238787109375,-0.030616207367833576,0.12576063378679422,-0.05551510405989671
1789998054483858200,3.248858154296875,-0.043653581003740824,0.13634995888839874,-0.04051525297217989
1789998054493929200,3.25892919921875,-0.020207009573776864,0.11566540488011512,0.030272773595786305
1789998054504000300,3.269000244140625,-0.06793017439106634,0.08852752515900787,0.07042540760571361
1789998054514071300,3.2790712890625,-0.10117181567705551,0.06472664417220787,-0.0054842979836219954
1789998054524142300,3.289142333984375,-0.08638106732164218,0.0339041564542275,0.03646489042617525
1789998054534213400,3.29921337890625,-0.033007214875207795,0.02827890560529814,0.10917744793573814
1789998054544284200,3.3092841796875,-0.04929247944212514,-0.006937076598449704,0.049005336306093446
1789998054554355200,3.319355224609375,-0.11257508049197035,-0.07253610799472444,0.010136023875119311
1789998054564426200,3.32942626953125,-0.12973298044703085,-0.08606855282177314,0.03780268049298855
1789998054574497300,3.339497314453125,-0.15748218477261966,-0.09873345967859244,0.026059292468577636
1789998054584568300,3.349568359375,-0.18553246695771572,-0.13936355931342398,0.004129119300088105
1789998054594639400,3.359639404296875,-0.21573374858489486,-0.16876304339727505,0.05789715751309246
1789998054604709000,3.369709228515625,-0.20852624536597444,-0.1923066556706389,0.10869365031714143
1789998054614780200,3.3797802734375,-0.1937441646487089,-0.22944743434013115,0.03771544360190943
1789998054624851200,3.389851318359375,-0.21272583175499066,-0.2691535970648897,-0.006088625383474462
1789998054634922200,3.399922119140625,-0.20774133923968394,-0.27864205556762606,0.0032831138970301254
1789998054644993300,3.4099931640625,-0.17023853744018833,-0.28648663113672473,-0.009743709047098623
1789998054655064000,3.42006396484375,-0.08453016779956926,-0.26419587553744844,0.01334376022435646
1789998054665135000,3.430135009765625,-0.08952923949673797,-0.2569967211361498,0.0811969391076097
1789998054675206100,3.4402060546875,-0.13525789136081884,-0.2867724706055576,0.15131892048615528
1789998054685277200,3.450277099609375,-0.18037822874977102,-0.308761741301175,0.09350013794371514
1789998054695348200,3.46034814453125,-0.2266371798050862,-0.31042896396285075,-0.08359458174808053
1789998054705419300,3.470419189453125,-0.21041923178954042,-0.2539686488854762,-0.011418107735889391
1789998054715490000,3.480489990234375,-0.16451492598258513,-0.19680182378621797,0.008910253115359071
1789998054725561000,3.49056103515625,-0.1789725374293025,-0.20695897135508076,-0.0983982149369041
1789998054735632100,3.500632080078125,-0.19822209196011686,-0.20596803246202833,-0.12769573022841932
1789998054745703200,3.510703125,-0.11660245979180593,-0.11637666500781363,0.01529024342661019
1789998054755774200,3.520774169921875,-0.06390318778981288,-0.09308597469242352,0.03650498715438587
1789998054765845200,3.53084521484375,-0.12278598161696884,-0.12703376632653163,0.029261445286454628
1789998054775916000,3.540916015625,-0.20096674745812917,-0.1416190757247387,-0.01780046332483648
1789998054785987000,3.550987060546875,-0.2210105176820114,-0.1478728481120697,-0.04372501136518568
1789998054796058000,3.56105810546875,-0.22378990022264897,-0.15946595225938257,-0.09559604633432531
1789998054806129200,3.571129150390625,-0.18613781703082205,-0.1365096099005828,-0.06795836089548958
1789998054816200200,3.5812001953125,-0.15469458332628813,-0.13404203843012824,-0.06003453790833349
1789998054826271200,3.591271240234375,-0.13440103656137622,-0.14297597541674187,-0.014479713982936902
1789998054836342000,3.601342041015625,-0.1469927764855753,-0.11885978914704377,0.008181161545774652
1789998054846413000,3.6114130859375,-0.1855876671404877,-0.1257310131651092,-0.0018738398461386973
1789998054856484000,3.621484130859375,-0.2062030736694077,-0.1334809353145491,-0.054998903014316224
1789998054866555100,3.63155517578125,-0.18905620008219817,-0.14338719233549183,-0.08810952769532691
1789998054876626200,3.641626220703125,-0.17322895267754332,-0.1707807705576865,-0.13576667638453965
1789998054886696200,3.6516962890625,-0.1940217769401838,-0.20851766538766703,-0.09700808964073564
1789998054896767200,3.661767333984375,-0.2212985024756072,-0.2170900442070897,0.028312345906879647
1789998054906838300,3.67183837890625,-0.2263687996652391,-0.25125419685789,0.04225953429350464
1789998054916909300,3.681909423828125,-0.24597792745704722,-0.2932533805398138,0.04740842626683234
1789998054926980400,3.69198046875,-0.2796426595592797,-0.33020779386378063,0.08321898578347317
1789998054937051400,3.702051513671875,-0.3122309716055846,-0.38715213467539317,0.05919901381363317
1789998054947122200,3.7121220703125,-0.2960690489142356,-0.4134809587458778,-0.04187579661521959
1789998054957193200,3.722193115234375,-0.3266913794899774,-0.4433263760632539,-0.061884195064133035
1789998054967264300,3.73226416015625,-0.3143322717710878,-0.4798447633062325,0.009474042578859452
1789998054977335300,3.742335205078125,-0.2985295270122711,-0.519087274817619,0.1737096791404797
1789998054987406300,3.75240625,-0.3074662503144188,-0.5398534952976163,0.16121547465879374
1789998054997477400,3.762477294921875,-0.3351182323043583,-0.5769364294603168,0.08079112698422561
1789998055007548200,3.772548095703125,-0.365364108049047,-0.5968128737232453,0.05152971152107269
1789998055017619200,3.782619140625,-0.33917173612371354,-0.6019407541291834,0.08885260487524799
1789998055027690200,3.792690185546875,-0.2636374577999754,-0.6371435047268037,0.009034002190657687
1789998055037761300,3.80276123046875,-0.23839721889266874,-0.6294154150772207,0.005364189618690817
1789998055047832300,3.812832275390625,-0.2283593038445958,-0.6168597367793437,-0.002087778073356325
1789998055057903400,3.8229033203125,-0.2038393207337327,-0.6059963331333684,0.0005232055608479443
1789998055067974100,3.83297412109375,-0.18115439468789174,-0.582170023871278,0.008277148576851552
1789998055078045200,3.843045166015625,-0.19194219363233303,-0.5851170992486621,0.012147870473258103
1789998055088116200,3.8531162109375,-0.23773064866796195,-0.587708279391018,0.046117556268126796
1789998055098187300,3.863187255859375,-0.2720415131038011,-0.6064518039048127,0.015004666224847328
1789998055108258300,3.87325830078125,-0.26262557177735113,-0.5763379009571629,-0.018402326041205556
1789998055118329300,3.883329345703125,-0.21908512934601967,-0.5319887447128051,-0.09887656136201976
1789998055128400100,3.893400146484375,-0.10473622969149605,-0.47373233247860985,-0.025398699903536406
1789998055138471200,3.90347119140625,-0.030317921951690526,-0.4214971566178281,0.05288966033024215
1789998055148542200,3.913542236328125,-0.01867938218340854,-0.41235088003905085,-0.013822728707581791
1789998055158612200,3.9236123046875,-0.03462335634390631,-0.39534886468835484,0.03150461236004281
1789998055168683300,3.933683349609375,-0.07019491788767221,-0.3858359455421206,0.08892297411863093
1789998055178754000,3.943754150390625,-0.07797282060743799,-0.38398454301140433,0.06320472635061845
1789998055188825000,3.9538251953125,-0.09085862214984382,-0.3513572054958206,0.12832941673725487
1789998055198896000,3.963896240234375,-0.08333364700879739,-0.3492038277284601,0.16255396399364658
1789998055208967200,3.97396728515625,-0.01241781817151582,-0.34848846246500104,0.05726384156264671
1789998055219038200,3.9840380859375,0.09601728680985334,-0.2792580399328559,0.11581148460209727
1789998055229109200,3.994109130859375,0.08581072723822546,-0.23128303649534548,0.1726245135312139
1789998055239180000,4.004179931640625,0.02798837991652781,-0.2766660903097528,0.0762552259911334
1789998055249251000,4.0142509765625,-0.01656933367564699,-0.2834428174360062,0.08994122594372037
1789998055259322000,4.024322021484375,0.014278464362948625,-0.2666279838699055,0.1304879530885584
1789998055269393200,4.03439306640625,0.06051356233841689,-0.23283511360805814,0.08979789190477708
1789998055279464200,4.044464111328125,0.05601505221625952,-0.19599064235560856,-0.029851826826579417
1789998055289535200,4.05453515625,0.051571560232070116,-0.1977315273181137,-0.025202680146903227
1789998055299606000,4.06460595703125,0.06491066603563803,-0.19601077312734128,0.05311781112683761
1789998055309677000,4.074677001953125,0.09083247905437729,-0.17568942661195902,0.04252735089525146
1789998055319747800,4.084747802734375,0.13609161464383304,-0.13913497280959464,-0.059742872608234576
1789998055329819000,4.09481884765625,0.15763568834555433,-0.1094098881481033,-0.015821349263955273
1789998055339890000,4.104889892578125,0.15937733142631025,-0.09832740710752398,0.00829705825648465
1789998055349961000,4.1149609375,0.20201602019831078,-0.08234706110392292,-0.09785274707421067
1789998055360032000,4.125031982421875,0.2073898960351598,-0.045711834660315684,0.006402079149521019
1789998055370103000,4.13510302734375,0.18247105435621094,-0.03142930331776307,0.033691483556222056
1789998055380173800,4.145173828125,0.14692959318599888,-0.02183561000222562,-0.05187563235454732
1789998055390244900,4.155244873046875,0.15364445999655235,0.018051781153282154,0.040302435212406
1789998055400316000,4.16531591796875,0.1737944439540642,0.010984549597393629,0.018494085112491513
1789998055410386200,4.17538623046875,0.19003182161585952,0.002243523724012395,-0.03398651801818246
1789998055420457200,4.185457275390625,0.22165513935842165,0.02614628212871979,0.10052392878489734
1789998055430528000,4.195528076171875,0.2321310100937514,0.035786109795957886,0.08509868298218982
1789998055440599000,4.20559912109375,0.2275899884215228,0.04785136105151559,-0.00548038813071061
1789998055450670000,4.215670166015625,0.2025720939602886,0.052147707470997236,0.04153275641740017
1789998055460741000,4.2257412109375,0.1703810614787272,0.017152812652226457,0.0747304603753505
1789998055470812200,4.235812255859375,0.12121378536531142,-0.023370950461014017,0.06020003097580688
1789998055480883200,4.24588330078125,0.08650871704685786,-0.06588011671226549,0.021037388700841226
1789998055490954000,4.2559541015625,0.0839674043014994,-0.13684868355599666,-0.012588415583942287
1789998055501025000,4.26602490234375,0.0765670547992876,-0.1731963303063843,0.036398351581507275
1789998055511096000,4.276095947265625,0.12384123766632299,-0.20253541244799791,0.07622148864695477
1789998055521167000,4.2861669921875,0.15265253369771334,-0.20821412194702762,0.08994681412960004
1789998055531238100,4.296238037109375,0.1508292834149583,-0.2020570417920697,0.027437123901820622
1789998055541309200,4.30630908203125,0.0833728974050273,-0.2254512276754948,0.011919110405515201
1789998055551380000,4.3163798828125,0.03089172349274,-0.26349812135641953,-0.010110923856429288
1789998055561451000,4.326450927734375,-0.029659200598258988,-0.2835219034699285,0.056021835202470636
1789998055571522000,4.33652197265625,-0.03732818099468773,-0.2901095194046847,0.032039824852059286
1789998055581593000,4.346593017578125,0.026121757156495236,-0.3120254448055061,0.00034740686541491977
1789998055591664000,4.3566640625,0.04518755976328107,-0.30507178649821703,0.09223980103712628
1789998055601735200,4.366735107421875,0.11287466284897202,-0.29354590524133617,0.017540972900823033
1789998055611806000,4.376805908203125,0.18586941187999506,-0.26690898676761277,0.03736373521978153
1789998055621877000,4.386876953125,0.1863251659787562,-0.24899575670235527,0.007838852106510984
1789998055631948000,4.396947998046875,0.13962908224440532,-0.25739330956099915,-0.0530970020847609
1789998055642018000,4.40701806640625,0.13721961215528491,-0.2622893054277354,-0.04302254431484048
1789998055652089000,4.417089111328125,0.13209067820848736,-0.2339697635056808,0.0531353968553478
1789998055662160000,4.427159912109375,0.1624361566314799,-0.23244074942148996,0.07465822156689828
1789998055672231000,4.43723095703125,0.2174449279003658,-0.19859526299568847,0.08742530022133606
1789998055682302000,4.447302001953125,0.21776510849628705,-0.15565167761879278,0.008309845586308283
1789998055692373000,4.457373046875,0.2393094291441276,-0.13587707614314834,-0.028310585219948343
1789998055702444000,4.467444091796875,0.2842223712150885,-0.12238141948579227,0.013392853942259118
1789998055712515000,4.47751513671875,0.3559814620567937,-0.0804955163055842,0.1294055397875804
1789998055722585900,4.4875859375,0.3698579215280913,-0.03670145908305558,0.05056975318699128
1789998055732657000,4.497656982421875,0.3686423295852945,-0.0033697965100588597,0.018931773774959915
1789998055742728000,4.50772802734375,0.3259116455767572,0.038069975137147896,0.03832739865719563
1789998055752799000,4.517799072265625,0.31594709433251644,0.08554448307433113,-0.08478401999337536
1789998055762870000,4.5278701171875,0.3572892321897627,0.1434191248478947,-0.016610430214708843
1789998055772941000,4.537941162109375,0.36289060316813904,0.1840121882982802,-0.001006288103596648
1789998055783011800,4.54801171875,0.37788170956970046,0.22687486384794414,0.013121891312878078
1789998055793083000,4.558082763671875,0.39670528408981587,0.2922895391451778,0.052151096206349806
1789998055803154000,4.56815380859375,0.3958658109403104,0.35475606530147996,-0.005282894672885049
1789998055813225000,4.578224853515625,0.41573919867648756,0.41646977973772464,-0.08870097782828974
1789998055823296000,4.5882958984375,0.41953823632310777,0.4840062984364049,-0.0590142318449144
1789998055833367000,4.598366943359375,0.42848007486436074,0.5597908277817586,-0.058604583604023236
1789998055843437800,4.608437744140625,0.43720352283370884,0.6036796676147055,-0.04775244646086483
1789998055853508000,4.618508056640625,0.45831644427575247,0.6516284900006772,-0.005253386782985824
1789998055863579100,4.6285791015625,0.4560097938068446,0.7346098294206144,-0.0559057816767095
1789998055873650200,4.638650146484375,0.4614617244439691,0.8031344992463096,-0.13788140971779325
1789998055883721200,4.64872119140625,0.4872073442375189,0.8261596338994004,-0.1394883241306336
1789998055893792000,4.6587919921875,0.5312033466975528,0.8454886590506204,-0.08178446705525465
1789998055903863000,4.668863037109375,0.5282040982247487,0.8634038212139549,0.0017692232342978234
1789998055913934000,4.67893408203125,0.5090961828862197,0.8321791828447344,-0.024736671810690503
1789998055924005000,4.689005126953125,0.526614673958867,0.8208719562103823,-0.06739435102787188
1789998055934076200,4.699076171875,0.5007303333451405,0.808597672214459,0.0037582038779840105
1789998055944147200,4.709147216796875,0.4556343454282662,0.7778723666610834,-0.0573482049623433
1789998055954218000,4.719218017578125,0.41023033876856335,0.7256228196229735,-0.10612179591489515
1789998055964289000,4.7292890625,0.37632999268379425,0.6383812109610628,-0.005835928809735751
1789998055974360000,4.739360107421875,0.34187100133286286,0.5534474613429052,0.01665818418341467
1789998055984431000,4.74943115234375,0.30173978363782716,0.498689442644417,0.01004666257806615
1789998055994502100,4.759502197265625,0.18539285977149791,0.4277537910751471,0.06149907693862967
1789998056004573200,4.7695732421875,0.08902789968519957,0.33092301130988755,-0.006618495507891381
1789998056014644000,4.77964404296875,0.01365622930741498,0.24254608563977734,-0.09371334179536533
1789998056024715000,4.789715087890625,-0.036658158803048395,0.16736087426334473,0.01313754305980291
1789998056034786000,4.7997861328125,-0.05208435202962378,0.07126395636193866,0.07310080912560105
1789998056044857000,4.809857177734375,-0.10805580941796791,-0.041653140945711147,-0.0024195807709198915
1789998056054928100,4.81992822265625,-0.16202894087088673,-0.10080827825498864,0.02780606425047181
1789998056064998000,4.829997802734375,-0.16776473821091809,-0.16425064319309748,0.15112778133440136
1789998056075069000,4.84006884765625,-0.22714342073302218,-0.24612220325897713,0.03993782025254539
1789998056085140000,4.850139892578125,-0.31307138275144,-0.3405225047517101,0.052391350524914046
1789998056095211000,4.8602109375,-0.3715575347384781,-0.3952856797400642,0.03740982016780738
1789998056105282000,4.870281982421875,-0.40689847792800155,-0.43399440349957646,-0.028375599357172095
1789998056115353000,4.88035302734375,-0.48082500817786533,-0.4828516066617474,0.0656113457705953
1789998056125423900,4.890423828125,-0.4594782536118065,-0.48985377592013524,0.13827581855260285
1789998056135495000,4.900494873046875,-0.41998796545469674,-0.5037643900802146,0.17426367508749158
1789998056145566000,4.91056591796875,-0.4124433130948865,-0.5654100336616871,0.16688095199277234
1789998056155637000,4.920636962890625,-0.35176652251480744,-0.612396765199866,0.0808676949665383
1789998056165708000,4.9307080078125,-0.3335659668711304,-0.6337267981021977,0.04903416578313042
1789998056175779000,4.940779052734375,-0.3185501323479347,-0.681475868858527,-0.033438665280183674
1789998056185849900,4.950849853515625,-0.284986687759699,-0.6494097702580648,-0.04103225338502833
1789998056195921000,4.9609208984375,-0.3150883404212175,-0.5945893557251534,-0.0960111841240227
1789998056205992000,4.970991943359375,-0.3007796619831924,-0.564122227762689,0.0035874006048557203
1789998056216063000,4.98106298828125,-0.32310990302465886,-0.5290436942413534,0.05560743760242628
1789998056226134000,4.991134033203125,-0.27917297038305733,-0.5202497494945868,0.07385606203744495
1789998056236205000,5.001205078125,-0.21569377202484735,-0.4901102158285533,0.11683042970440433
1789998056246275800,5.01127587890625,-0.1408958728180691,-0.4021900376039041,0.06947809102898486
1789998056256347000,5.021346923828125,-0.04712526987166271,-0.3310462369991251,0.018379802169704054
1789998056266417200,5.031417236328125,0.06720216256981386,-0.2599353076338389,-0.0523708989964951
1789998056276488200,5.04148828125,0.12684794477429648,-0.1724802704363112,-0.084459920897778
1789998056286559200,5.051559326171875,0.14586572978894832,-0.12336209899935026,-0.007177648713043071
1789998056296630000,5.061630126953125,0.16177519552032188,-0.06751892207955051,0.031262736390637196
1789998056306701000,5.071701171875,0.15594717434323188,0.01900384253782049,-0.0160903495826861
1789998056316772000,5.081772216796875,0.14111137260895737,0.04928598264043191,0.014999326028069878
1789998056326843100,5.091843017578125,0.1512368276489478,0.07521923435586916,0.01686733163292618
1789998056336914200,5.1019140625,0.19320515069122624,0.12866783107049712,-0.09081014650810718
1789998056346985200,5.111985107421875,0.2447417944890191,0.1732036090531081,-0.034133726679440236
1789998056357056300,5.12205615234375,0.33088337726742983,0.23218838436293074,-0.0417928576868034
1789998056367127300,5.132127197265625,0.3871612122823399,0.29269338028965824,-0.05405392002228588
1789998056377198300,5.1421982421875,0.44506757431616084,0.3362117974668226,0.04047762422860968
1789998056387269400,5.152269287109375,0.48221328842815264,0.40923063807895044,-0.035570479461560174
1789998056397340400,5.16234033203125,0.4765305422666499,0.47394589199762055,-0.09016762404925299
1789998056407411500,5.172411376953125,0.4836684810221767,0.4681512527246911,-0.025438311624266158
1789998056417482500,5.182482421875,0.4877964786406745,0.4990952233402285,-0.02566846371855552
1789998056427553300,5.19255322265625,0.486952471369495,0.5637413259746054,-0.03454607716975648
1789998056437624300,5.202624267578125,0.5008292455605284,0.6031451763535753,-0.03275318497160199
1789998056447695400,5.2126953125,0.5224254429049581,0.6574957883750514,-0.08795625660125345
1789998056457766400,5.222766357421875,0.5320073750857052,0.7058791858991238,-0.12113174708258334
1789998056467836400,5.23283642578125,0.5404829519733712,0.7249277364089106,-0.05334377322368803
1789998056477907200,5.2429072265625,0.5536467186660613,0.7563408210513548,-0.10331188962377706
1789998056487978200,5.252978271484375,0.5542681679236796,0.776029685746332,-0.07585473276743233
1789998056498049300,5.26304931640625,0.5701350776187744,0.7688802509992785,-0.006704750024839302
1789998056508120300,5.273120361328125,0.5233419080634834,0.7600083071881751,-0.047079961762088375
1789998056518191400,5.28319140625,0.45143452859309935,0.7627262316151866,0.017044786333540528
1789998056528262400,5.293262451171875,0.38331958965006774,0.7809746312525421,-0.024562926686386165
1789998056538333200,5.303333251953125,0.30231906418984017,0.7572280610143176,-0.15835959528642693
1789998056548404200,5.313404296875,0.286072774729141,0.7254371212318738,-0.0906273213293985
1789998056558475300,5.323475341796875,0.31109891989917754,0.7150174275452607,-0.0010772880511210347
1789998056568546300,5.33354638671875,0.31895862676076653,0.7029759207109377,0.004524541060821995
1789998056578617300,5.343617431640625,0.32413249243039105,0.6593948469375105,-0.062154656343078714
1789998056588688400,5.3536884765625,0.27172248071183003,0.6320095546144096,-0.034628064847668574
1789998056598759200,5.36375927734375,0.2208173024151482,0.583370026216198,-0.06632883137939617
1789998056608830200,5.373830322265625,0.19465605925945095,0.5489230969803373,0.0265920950692045
1789998056618901200,5.3839013671875,0.14123603479375368,0.5478714984010318,0.05356724857794313
1789998056628972300,5.39397216796875,0.059686325423960775,0.48342823890082176,-0.017519225575688493
1789998056639043300,5.404043212890625,0.029829009803565308,0.45045383705394637,-0.02593974901254909
1789998056649114400,5.4141142578125,0.03771458752043358,0.41476467158657826,0.08934764398931887
1789998056659184000,5.42418408203125,0.01440297937959237,0.38714365186249267,0.08025587456205836
1789998056669255200,5.434255126953125,-0.022769594896936345,0.3867031847991913,0.03659732057799238
1789998056679326200,5.444326171875,0.010924077236189851,0.36126204003523915,0.08684014869951966
1789998056689397200,5.454397216796875,0.055744740401641756,0.38530663167912127,0.12624144215004482
1789998056699468300,5.46446826171875,0.03504723609048689,0.37768625165651104,0.08056791926532364
1789998056709539000,5.4745390625,0.01468920100951893,0.3360326247109078,0.16753250732282798
1789998056719610000,5.484610107421875,-0.008718654162357778,0.3222859331018439,0.18050516482637965
1789998056729681200,5.49468115234375,-0.07151429555052437,0.30892120495709313,0.12080887903655012
1789998056739752200,5.504752197265625,-0.11368390715983281,0.32065962191649094,0.1693737836272038
1789998056749823200,5.5148232421875,-0.1779202082699622,0.3144313974884304,0.042031520257810796
1789998056759894300,5.524894287109375,-0.22040684884979334,0.286688762783312,0.018537149263211886
1789998056769965000,5.534965087890625,-0.24425976811447067,0.25792770352603256,0.11886902514047558
1789998056780036000,5.5450361328125,-0.24967804254403492,0.20659868624356392,0.1786438761290581
1789998056790107100,5.555107177734375,-0.22050461350523273,0.17391752488596446,0.10606638661523203
1789998056800178200,5.56517822265625,-0.22779990119703636,0.16277877107098238,0.02257435812727796
1789998056810249200,5.575249267578125,-0.21695473740299856,0.13970133979886773,0.06467587354677624
1789998056820320300,5.5853203125,-0.18900396801571853,0.11732478099949639,0.11150553826790179
1789998056830390300,5.595390380859375,-0.19462841266268782,0.08479101988444286,0.08244575031460909
1789998056840461300,5.60546142578125,-0.22925438174491358,0.054470390443029856,0.1696824630909516
1789998056850532400,5.615532470703125,-0.26704092751712966,0.011438118653369697,0.16728822208850103
1789998056860603400,5.625603271484375,-0.3061689458251584,-0.023468100755617505,0.13877540352427972
1789998056870674400,5.63567431640625,-0.3310689604923182,-0.028553462759501044,0.1399787611715328
1789998056880745200,5.6457451171875,-0.33701940577098216,-0.03606138238694423,0.02257339662965345
1789998056890816300,5.655816162109375,-0.3118136961181505,-0.009730080366462257,-0.02458458924458822
1789998056900887300,5.66588720703125,-0.26700058860183307,0.028149808903238028,0.08763994777791236
1789998056910958300,5.675958251953125,-0.24974012271957555,-0.0037545047305406654,0.13982420201513196
1789998056921029400,5.686029296875,-0.2657665361181268,-0.02184966437599287,0.16099805756830468
1789998056931100400,5.696100341796875,-0.33815835465890787,-0.04470454822169087,0.11781695056962567
1789998056941171200,5.706171142578125,-0.3758901332507817,-0.0583648505986787,0.021943207658600233
1789998056951242200,5.7162421875,-0.4074055533932559,-0.09155549026824635,-0.012283087455109785
1789998056961313300,5.726313232421875,-0.4202038718600398,-0.11917852243758836,-0.012943683231277054
1789998056971384300,5.73638427734375,-0.38959222453823683,-0.13935930181205292,-0.008768809223508754
1789998056981455400,5.746455322265625,-0.4003218845872352,-0.190362624231227,0.07009749398949362
1789998056991526400,5.7565263671875,-0.40512772785471945,-0.23698856254463221,0.17145210596512847
1789998057001597200,5.76659716796875,-0.38285064352083276,-0.30772620800500905,0.11320998895289552
1789998057011667200,5.776667236328125,-0.4282628631139301,-0.36220315595697555,0.04626674276347649
1789998057021738200,5.78673828125,-0.4625817323404821,-0.4154679140700099,0.09322800464187649
1789998057031809300,5.796809326171875,-0.5000137767647287,-0.46329278671628954,0.08814064850621994
1789998057041880300,5.80688037109375,-0.5188932840516435,-0.49611606233193334,0.015488811299631752
1789998057051951000,5.816951171875,-0.5223540098249295,-0.5354013414138478,0.04292466346879067
1789998057062022100,5.827022216796875,-0.5775581996477707,-0.5826372745529489,-0.00582646152761801
1789998057072093200,5.83709326171875,-0.6069964386608577,-0.612924247711104,-0.039276569416112864
1789998057082164200,5.847164306640625,-0.6065393660860449,-0.6316924928319477,-0.10884311667854014
1789998057092235300,5.8572353515625,-0.5813995838755079,-0.6201788348206504,-0.12339074953791232
1789998057102306300,5.867306396484375,-0.540730652080965,-0.6175161454959032,0.01849979349992135
1789998057112377000,5.877377197265625,-0.46069482659890115,-0.6498933688774714,0.07514120149746747
1789998057122448100,5.8874482421875,-0.4477756369952011,-0.6694399008451568,-0.04160603737187257
1789998057132519200,5.897519287109375,-0.4551854090051632,-0.7202932284321661,0.05216650457345411
1789998057142590200,5.907590087890625,-0.46678433315581663,-0.7490735242955349,0.03476387282348843
1789998057152661200,5.9176611328125,-0.47959023889075986,-0.7058285281266674,0.0044434585197335565
1789998057162732300,5.927732177734375,-0.46069395662820434,-0.7299901948814739,0.123950981079635
1789998057172803000,5.937802978515625,-0.4647134767042684,-0.772848304886529,0.05515096654802005
1789998057182873300,5.947873291015625,-0.42768676475692813,-0.7087570491420906,0.011740406565533355
1789998057192944400,5.9579443359375,-0.35135579402384254,-0.6962896728495429,0.07936993502638716
1789998057203015400,5.968015380859375,-0.366412341443228,-0.7354655172396385,0.1366302206377042
1789998057213086500,5.97808642578125,-0.35200301960147085,-0.7376093580887919,0.03459736751147029
1789998057223157200,5.9881572265625,-0.30976131021836334,-0.7030206371827437,-0.04043498627943966
1789998057233228300,5.998228271484375,-0.28795116302526247,-0.6973534767110933,0.018228427464646188
1789998057243299300,6.00829931640625,-0.3111714756365431,-0.7008397753172846,0.0022041902300431924
1789998057253370400,6.018370361328125,-0.28107466529297276,-0.6393483885227303,-0.024951672251594795
1789998057263441400,6.02844140625,-0.18489143307804173,-0.5843475745367097,0.0901092224946086
1789998057273512400,6.038512451171875,-0.18383723104315142,-0.603421323130689,0.012179290248426884
1789998057283583200,6.048583251953125,-0.17882337403195797,-0.6164038886552606,-0.017124063411079575
1789998057293654300,6.058654296875,-0.14859882770298125,-0.5946238532836485,0.0816130581403665
1789998057303725300,6.068725341796875,-0.0912984535493073,-0.5837708285061978,0.1364605772018779
1789998057313796400,6.07879638671875,-0.054894626888554926,-0.5335607045353088,0.0967524944051744
1789998057323867000,6.088866943359375,-0.01898814584972911,-0.4740102950762498,-0.0060438252616397525
1789998057333938000,6.09893798828125,-0.013567452187858615,-0.48864603267378726,0.01923828395487857
1789998057344007700,6.109007568359375,0.02578929375069641,-0.44320808693139113,0.015121271337233719
1789998057354078700,6.11907861328125,0.125411503469138,-0.3701683482369495,0.030532852449697993
1789998057364149800,6.129149658203125,0.15253879308139015,-0.3225080137735336,0.046213645640049664
1789998057374220800,6.139220703125,0.14560526369771717,-0.2936362396998762,-0.04255859401903169
1789998057384291800,6.149291748046875,0.19711181861344917,-0.2429455821122683,-0.09123240366966642
1789998057394362600,6.159362548828125,0.25842656424793226,-0.14457302188000984,0.000812754159309634
1789998057404433700,6.16943359375,0.26411510090316626,-0.07199258643187462,-0.081434590285006
1789998057414504700,6.179504638671875,0.2728436276729477,-0.03853640562441591,-0.08343169307786756
1789998057424575700,6.18957568359375,0.29019311097910483,0.010715557396836215,-0.06849091393013554
1789998057434646800,6.199646728515625,0.3124149949429595,0.06583808053056561,-0.11541667639487892
1789998057444717800,6.2097177734375,0.34765399907622435,0.1199523795986552,-0.012022301356139407
1789998057454788600,6.21978857421875,0.35804779590502517,0.17411130600533412,-0.04752048428697235
1789998057464859600,6.229859619140625,0.3868630804821515,0.21630753613824613,-0.10094196735126242
1789998057474930700,6.2399306640625,0.4699469788017123,0.23906863193047934,-0.005429670984104232
1789998057485001700,6.250001708984375,0.5195773710600129,0.28403873762442156,0.02344045457626776
1789998057495072800,6.26007275390625,0.5528028745896685,0.3310971665202437,0.039347122616426346
1789998057505143800,6.270143798828125,0.5529234382686141,0.35568938493044483,-0.03926061724129899
1789998057515213800,6.2802138671875,0.5178447499792599,0.36950861296351944,-0.153388675579759
1789998057525284900,6.290284912109375,0.4927471557382056,0.360940904791689,-0.19803911757828832
1789998057535356000,6.30035595703125,0.5030006035686657,0.3318392065201742,-0.16241376696270343
1789998057545427000,6.310427001953125,0.5058439966590068,0.38071339453926156,-0.021016455067644504
1789998057555498000,6.320498046875,0.4873473156841945,0.40636859287184934,0.052602698127282736
1789998057565568800,6.33056884765625,0.5365922691560888,0.44196401263972807,-0.02020231119985484
1789998057575639800,6.340639892578125,0.534457581409708,0.540540222451403,-0.13749551389692713
1789998057585710800,6.3507109375,0.4954333099070981,0.5449522018110483,-0.16469175145452083
1789998057595782000,6.360781982421875,0.5337930855453609,0.5287623181779721,-0.1338779355215425
1789998057605853000,6.37085302734375,0.6215127067995888,0.5775894998673494,0.036144333029593134
1789998057615924000,6.380924072265625,0.6484404812625378,0.6067331324635,0.1916680507874257
1789998057625994800,6.390994873046875,0.5383370174569744,0.6220200661373252,0.01230420782296734
1789998057636065800,6.401065673828125,0.43399292724011573,0.5970102858028282,-0.1808621100470272
1789998057646136800,6.41113671875,0.34719772174456587,0.5482337755433204,-0.09784847136417583
1789998057656208000,6.421207763671875,0.3469259121272663,0.5484313298994584,-0.030978642750270104
1789998057666278000,6.43127783203125,0.34635439950312374,0.5497172895422117,-0.023406606194070683
1789998057676348700,6.4413486328125,0.3692232184891898,0.5359318704192034,-0.09864359606296347
1789998057686419700,6.451419677734375,0.4057345464832389,0.5253008289874531,-0.08861635806138024
1789998057696490800,6.46149072265625,0.3761777819080969,0.5383818887713829,-0.033371483755222774
1789998057706561800,6.471561767578125,0.3301560661517203,0.4926687290714819,0.07728559289810083
1789998057716632800,6.4816328125,0.3211155640368204,0.5078807382724453,0.16618630967175124
1789998057726703900,6.491703857421875,0.3052396641508851,0.5049027889134203,0.02603218882218997
1789998057736774700,6.501774658203125,0.3192054462170299,0.4749644934243685,-0.049377794884047144
1789998057746845700,6.511845703125,0.28606802909570894,0.42833609802841655,-0.0075172583525836495
1789998057756916700,6.521916748046875,0.27592852196773615,0.41809960487160985,0.07215256556959411
1789998057766987800,6.53198779296875,0.27271764902982454,0.41953823393370543,0.0651370557848834
1789998057777058800,6.542058837890625,0.2946482117721644,0.4505549112232121,-0.0003516381409896837
1789998057787129900,6.5521298828125,0.2737231132068922,0.4803483411876887,-0.015017340433183623
1789998057797200600,6.56220068359375,0.23914738272267683,0.47183437314984245,-0.0865793576885711
1789998057807271700,6.572271728515625,0.24344791843512423,0.465715426412215,0.026179394640331182
1789998057817341700,6.582341796875,0.2660823914547677,0.4800131153594901,0.06669427217958962
1789998057827412700,6.592412841796875,0.2086737719524295,0.508910460414637,0.010108773057291374
1789998057837483800,6.60248388671875,0.140673963840396,0.5404672557354413,-0.0025701590107613417
1789998057847554600,6.612554443359375,0.12200190985782478,0.5500040147482853,-0.03745680721221918
1789998057857625600,6.62262548828125,0.10518908076583665,0.5330972645660986,-0.06360160323309026
1789998057867696600,6.632696533203125,0.13002459776557723,0.5296330426876373,-0.04129503029256586
1789998057877767700,6.642767578125,0.1677282303444735,0.5223145164973799,0.05170325560670513
1789998057887838700,6.652838623046875,0.16876271192634426,0.5126245221537397,0.03171924674917038
1789998057897909800,6.66290966796875,0.1389634587260104,0.4752842110029054,-0.07984749663319395
1789998057907980800,6.672980712890625,0.12592854741990026,0.45434027437251423,-0.09065921657758698
1789998057918051800,6.6830517578125,0.09973088164121259,0.41616822745438425,-0.04926845843425118
1789998057928123000,6.693122802734375,0.06260862085172081,0.35179347846926357,-0.0123307978856602
1789998057938194000,6.70319384765625,0.034912732735402775,0.3080078870195175,0.06705092809298252
1789998057948265000,6.713264892578125,0.006938498308052624,0.28146164657430733,0.13401895695435478
1789998057958336000,6.7233359375,-0.03631216935969983,0.2663671182946233,0.08944732526781582
1789998057968406800,6.73340673828125,-0.12938131436944117,0.2124898146548264,0.013155319927005556
1789998057978476800,6.743476806640625,-0.20981087165934809,0.12630249902157176,0.07330265091484402
1789998057988547800,6.7535478515625,-0.24036736646487117,0.06878111908553525,0.1658655893590286
1789998057998619000,6.763618896484375,-0.23456006003585225,0.03298402595071519,0.12634556155121038
1789998058008690000,6.77368994140625,-0.23429206818244674,-0.024784328921394427,0.1380402626805673
1789998058018760700,6.7837607421875,-0.21924451999582104,-0.05026464766331953,0.11204472830595776
1789998058028831700,6.793831787109375,-0.20602269413716,-0.06930177949102057,0.08606356481499391
1789998058038902800,6.80390283203125,-0.18530414163288877,-0.07402693907157404,0.11859469816019164
1789998058048973800,6.813973876953125,-0.18436281007475644,-0.08176122101346392,0.07938976319331997
1789998058059044900,6.824044921875,-0.25900163483562577,-0.08971335261867636,0.04978260717042106
1789998058069116000,6.834115966796875,-0.27638018241005363,-0.11895633709459424,0.07282591543908862
1789998058079186700,6.844186767578125,-0.2550758744057669,-0.12942299326042309,0.07356899699566588
1789998058089257700,6.8542578125,-0.23307733465152844,-0.14291905777420855,-0.006518046794920191
1789998058099328800,6.864328857421875,-0.2068114974305006,-0.14835131327189607,-0.044295880472716306
1789998058109399800,6.87439990234375,-0.1863982413481522,-0.12642899910025787,0.002348596551582406
1789998058119469800,6.8844697265625,-0.14615108280851125,-0.12974734518313197,0.14671630168588717
1789998058129540600,6.89454052734375,-0.16336290059852213,-0.1376643092553912,0.12401372133326138
1789998058139611600,6.904611572265625,-0.15721090528192658,-0.12066134827709755,0.11086765630402327
1789998058149682700,6.9146826171875,-0.13812959275668799,-0.112197841082469,0.11218784297138952
1789998058159753700,6.924753662109375,-0.0923580618752288,-0.08162182316996122,0.26055047766731654
1789998058169824800,6.93482470703125,-0.07447900425147137,-0.09015345579925484,0.2696715984890921
1789998058179895800,6.944895751953125,-0.07726090226683954,-0.1040887513150841,0.15613587066198592
1789998058189966600,6.954966552734375,-0.055813013791516757,-0.08402700006846202,0.05916019301097125
1789998058200037600,6.96503759765625,-0.04158636456587512,-0.06683062080766584,-0.0344358191700229
1789998058210108700,6.975108642578125,-0.03148263455538976,-0.055546473640248506,-0.04741690289115471
1789998058220179700,6.9851796875,-0.045200989989107314,-0.028257809482068175,-0.02162317055511598
1789998058230250800,6.995250732421875,-0.09298401784328739,-0.02338759761455479,-0.09956059735065055
1789998058240321800,7.00532177734375,-0.07772592930331121,0.01497020346537872,-0.11875402075495187
1789998058250392600,7.015392578125,-0.08733971074811178,0.06640806522531913,-0.08303467763049874
1789998058260463600,7.025463623046875,-0.040975191470513615,0.12143679014204119,0.005795437909429621
1789998058270534000,7.035533935546875,-0.011407417075314145,0.16278605427597911,-0.010318919765810211
1789998058280605000,7.04560498046875,0.02190853304719402,0.2116121739882038,-0.07873748473751725
1789998058290676000,7.055676025390625,0.06810282894459538,0.2795323411555052,-0.1609558020611716
1789998058300746800,7.065746826171875,0.08144162734192172,0.2961068549487304,-0.08241677407654921
1789998058310817800,7.07581787109375,0.10889762587654132,0.312221314540622,0.03640190917169161
1789998058320889600,7.0858896484375,0.07824548195134534,0.33325314668129813,-0.018916987319697393
1789998058330960600,7.095960693359375,0.08110722928220562,0.3654061457645483,-0.0402721206674301
1789998058341031400,7.106031494140625,0.062265864640205476,0.3718505575022033,-0.05851029290138648
1789998058351102500,7.1161025390625,0.05028495132445157,0.36471550287944493,-0.03561602706875135
1789998058361173500,7.126173583984375,0.0883654487872046,0.35901875486784035,0.029104495829723947
1789998058371244500,7.13624462890625,0.06244335618812528,0.37387908595168223,0.060519857704702314
1789998058381315600,7.146315673828125,0.0495568450489057,0.3497205999785989,-0.0011874574117221133
1789998058391386600,7.15638671875,0.015670391137859126,0.3406482443239249,-0.03623239525762296
1789998058401457700,7.166457763671875,-0.012773498627205346,0.31401639387119823,0.026107862022819256
1789998058411527700,7.176527587890625,0.0183194829314337,0.28461735156481394,0.06625735264340032
1789998058421598700,7.1865986328125,-0.0007363619982239173,0.3091385023740075,0.023014402620020073
1789998058431669500,7.19666943359375,0.014172523188041249,0.3176158891201134,-0.06666960579500096
1789998058441740500,7.206740478515625,0.014399332916417514,0.3011211939024146,-0.07955161403185988
1789998058451811600,7.2168115234375,-0.034990159007035365,0.28157661810468937,-0.05432235702094777
1789998058461882600,7.226882568359375,-0.10842151418493513,0.24501975256745412,-0.040112800263239025
1789998058471953700,7.23695361328125,-0.1385731804365212,0.19454019047888474,-0.14843880241715118
1789998058482024700,7.247024658203125,-0.13466819982264014,0.14672997652403982,-0.07994180878668249
1789998058492095500,7.257095458984375,-0.1564448662581482,0.10869182009391673,0.11487567584972254
1789998058502166500,7.26716650390625,-0.21328934664240143,0.008665248013472463,0.05788188109189858
1789998058512237600,7.277237548828125,-0.25218108881133067,-0.05647577366392231,-0.008284823436152179
1789998058522308600,7.28730859375,-0.28368606072547226,-0.08313632808028505,0.041796899288693956
1789998058532379600,7.297379638671875,-0.30704268697762144,-0.15283411754365064,0.0524560368767949
1789998058542450700,7.30745068359375,-0.3006051329005323,-0.21531333386318563,0.06138535944664434
1789998058552520400,7.3175205078125,-0.3232777301777764,-0.26664173255238677,0.06359491209635279
1789998058562591500,7.327591552734375,-0.37049204227719157,-0.31734488775958664,0.04817783695099917
1789998058572662500,7.33766259765625,-0.38351427203392313,-0.3411828479075987,0.09821614118555697
1789998058582733600,7.347733642578125,-0.36690787340342423,-0.3517618995322102,0.11927687581930431
1789998058592804600,7.3578046875,-0.3815872184127883,-0.3896125823981463,0.1098777134386914
1789998058602875400,7.36787548828125,-0.41385704005503926,-0.40974749410654165,0.10705967422465257
1789998058612946400,7.377946533203125,-0.4041712234018008,-0.4245987627038175,0.11424960123153244
1789998058623017500,7.388017578125,-0.36048948152144766,-0.44061810244269767,0.06603887811408221
1789998058633088500,7.398088623046875,-0.3528395071798604,-0.4615206665690662,0.05086904765726472
1789998058643159600,7.40815966796875,-0.3701694885409903,-0.47980557476083274,0.0389808822345356
1789998058653230600,7.418230712890625,-0.33468666347413395,-0.4864397138684168,0.02059871377124946
1789998058663301400,7.42830126953125,-0.3225485219865644,-0.4735004623051596,0.08233404454968254
1789998058673372400,7.438372314453125,-0.35557613664051785,-0.47462107648553375,-0.029242812362200797
1789998058683442700,7.448442626953125,-0.34630951135864896,-0.4224154246169186,0.08824452048668141
1789998058693513700,7.458513671875,-0.31692132622042485,-0.41859424000264184,0.06019452523293817
1789998058703584800,7.468584716796875,-0.284860110146238,-0.42359230383103086,-0.007767988441460621
1789998058713655600,7.478655517578125,-0.22228241169554946,-0.3945934477105901,-0.06123667580077945
1789998058723726600,7.4887265625,-0.170734576269979,-0.3519696592754379,-0.017332341883319377
1789998058733797600,7.498797607421875,-0.1089153760705716,-0.3004411075685418,0.032399629076497134
1789998058743868700,7.50886865234375,-0.11588031235384061,-0.26486618955799957,0.017670285076538297
1789998058753939700,7.518939697265625,-0.1736917414020317,-0.27914010314894055,-0.014232520087507028
1789998058764010800,7.5290107421875,-0.1373287403900234,-0.28171674893364534,-0.014205704566848333
1789998058774081500,7.53908154296875,-0.10079259793223291,-0.2810824712607856,-0.07113926565276334
1789998058784152600,7.549152587890625,-0.03644935011655876,-0.2728310233991468,-0.01989112766000609
1789998058794223600,7.5592236328125,0.02457060822096741,-0.2678070109057253,0.06709498958956991
1789998058804294700,7.569294677734375,0.04056775537315895,-0.23751784844814475,0.12021433541352847
1789998058814365700,7.57936572265625,0.060076622913990116,-0.2191440422023115,0.04906423658911308
1789998058824435500,7.589435546875,0.0926708911082499,-0.20442968914085938,0.0913337978057392
1789998058834506500,7.599506591796875,0.06382825590410612,-0.19816338930280358,0.04688588889877681
1789998058844577500,7.60957763671875,0.04410326533258248,-0.21454266293309832,-0.00495284012735879
1789998058854648600,7.619648681640625,0.0541445948523411,-0.20526611931942715,0.034010728145634724
1789998058864719600,7.6297197265625,0.047403764393711204,-0.1860076036182218,0.06661872146331903
1789998058874790700,7.639790771484375,0.05957828399286107,-0.1796031224801831,0.07364854868408678
1789998058884861400,7.649861328125,0.06748131475012695,-0.16265103865281935,-0.03821176705734077
1789998058894932500,7.659932373046875,0.09437946962386254,-0.11107554313773968,-0.03190677079414304
1789998058905003500,7.67000341796875,0.11918819624260801,-0.06857964795086856,0.03073236616434514
1789998058915074600,7.680074462890625,0.17398569513563553,-0.03584925654557943,0.04800563339184917
1789998058925145600,7.6901455078125,0.18079432799303677,0.015305503232714972,0.04630438085994952
1789998058935216600,7.700216552734375,0.19655736842246388,0.050325217824993176,0.023033108772212846
1789998058945287400,7.710287353515625,0.21200170726915918,0.08599113161062884,0.047145476444101594
1789998058955357400,7.720357421875,0.22198825238041703,0.11920013370067799,0.09646471832105546
1789998058965428500,7.730428466796875,0.2107914493075297,0.14600678670126963,0.01310337119748661
1789998058975499500,7.74049951171875,0.19654131148116072,0.17211768064899005,-0.024787249176490746
1789998058985570600,7.750570556640625,0.20084867410358553,0.21036375142171249,-0.03484216460585985
1789998058995641300,7.760641357421875,0.22590808657646874,0.24071404093457494,-0.13298938727784754
1789998059005712400,7.77071240234375,0.25550408762219834,0.2756728510173992,-0.05651413567632564
1789998059015783400,7.780783447265625,0.27607469927572853,0.284873575723027,-0.019996008890974776
1789998059025854500,7.7908544921875,0.26259882267455303,0.3118014090690097,-0.10484128637488571
1789998059035925500,7.800925537109375,0.2502105154458543,0.3245343939103183,-0.010442565633589335
1789998059045996500,7.81099658203125,0.23292885206951033,0.3377878060196367,0.055681749363296264
1789998059056067600,7.821067626953125,0.2521137183801706,0.34033567554862654,0.14661318904639864
1789998059066138600,7.831138671875,0.2595364800412743,0.35863131704127,-0.05985705643979999
1789998059076209700,7.841209716796875,0.24624289147534315,0.3540980863666008,-0.05996118003037071
1789998059086279700,7.85127978515625,0.23814246396017374,0.3378763235875589,-0.044890500147078134
1789998059096350700,7.861350830078125,0.17959669575671855,0.2982705452486371,0.01916801808211507
1789998059106421500,7.87142138671875,0.19301256833244476,0.25845167697718796,0.07795997898876715
1789998059116492500,7.881492431640625,0.16073949385065725,0.25652134791661896,0.009636427379511302
1789998059126563600,7.8915634765625,0.1307221804752521,0.1988361336533648,-0.08111412434265829
1789998059136634600,7.901634521484375,0.1572184642324874,0.15678948550917643,-0.15890595606921085
1789998059146705700,7.91170556640625,0.16998156484935986,0.16174276885433722,-0.09354848626482556
1789998059156776700,7.921776611328125,0.19309972220338573,0.15772014378480093,-0.04771527121053673
1789998059166847500,7.931847412109375,0.19162027673416543,0.15743655721519983,-0.12626752485986537
1789998059176918500,7.94191845703125,0.17168927085711821,0.17016697502291953,-0.08526648649840522
1789998059186989600,7.951989501953125,0.14470810952587307,0.17863778932615604,-0.014409531781870617
1789998059197060600,7.962060546875,0.14753624536992202,0.19153198665037982,-0.08627713695967389
1789998059207131600,7.972131591796875,0.16491849108467418,0.2143697485684959,-0.039107317687777886
1789998059217201400,7.982201416015625,0.22104883920977683,0.24956279026202963,0.04120997494181664
1789998059227272400,7.9922724609375,0.22568694430259353,0.27919931714736185,0.020168343083346422
1789998059237343500,8.002343505859375,0.22625863057762785,0.2989716115111572,0.025361289743964944
1789998059247414500,8.01241455078125,0.19888086991363146,0.32472570240688775,0.04732419928016113
1789998059257485600,8.022485595703126,0.14974693829656607,0.3358556656517418,0.00036920763260676664
1789998059267556600,8.032556640625,0.1724698510996385,0.35080547554749386,-0.012948303245006506
1789998059277627400,8.04262744140625,0.1633470909884407,0.3723987075922476,-0.025611725549082746
1789998059287698400,8.052698486328126,0.19662713838232776,0.366864315627436,0.03973889467461746
1789998059297769500,8.06276953125,0.16935068531502934,0.39860435889589696,-0.033188956382712145
1789998059307840500,8.072840576171876,0.11506557123070774,0.3941435888614228,-0.09210788263182569
1789998059317911600,8.08291162109375,0.12617603128079116,0.37353092286621525,-0.10965104036183938
1789998059327981800,8.09298193359375,0.1345001908478331,0.38142142375708343,-0.04115861692972282
1789998059338052900,8.103052978515626,0.14246883461807044,0.4063205858048392,0.09895746019136648
1789998059348123000,8.113122802734376,0.09526542060164406,0.39027058150604393,0.0921305422821021
1789998059358194000,8.12319384765625,0.0686964804880052,0.3763285710925472,0.030664155842262696
1789998059368264700,8.1332646484375,0.009385664471092552,0.3542228335527378,0.0345928796784268
1789998059378335700,8.143335693359376,-0.009557548299273093,0.3509866040792101,-0.035610995065848944
1789998059388406800,8.15340673828125,-0.02573588119437135,0.35811686943829396,-0.030880246459374438
1789998059398477800,8.163477783203126,-0.022110781021499683,0.3451102112769783,-0.013892685991531352
1789998059408548900,8.173548828125,-0.032653923905506685,0.2979982884981005,-0.012418956712139873
1789998059418620000,8.183619873046876,-0.05875503848833293,0.26638457226378753,0.07797143593748836
1789998059428690700,8.193690673828126,-0.10134237343706103,0.25826296334550297,0.09428959416220516
1789998059438761700,8.20376171875,-0.10887654685629208,0.20841900704314642,0.07976831065821305
1789998059448832800,8.213832763671874,-0.0902382945837246,0.1926951552760106,0.09770878362986447
1789998059458903800,8.22390380859375,-0.09262856272723104,0.1639495906480278,0.12700651479410852
1789998059468973800,8.233973876953126,-0.1254843703768685,0.09025027846992137,0.10378572947376591
1789998059479044600,8.244044677734376,-0.1883639249661317,0.04661481034692393,0.06941302470091879
1789998059489115600,8.25411572265625,-0.19052973237290738,0.015635370657553636,-0.012132568761761022
1789998059499186700,8.264186767578124,-0.20923880405845605,-0.02557353416213035,-0.10227671909948799
1789998059509257700,8.2742578125,-0.20061083335716665,-0.0270108746749343,-0.09227921787530007
1789998059519328800,8.284328857421874,-0.13302078932048922,-0.02142191605035373,0.07500363252902602
1789998059529399800,8.29439990234375,-0.11937796884847797,-0.041823614657175406,0.16094842245179608
1789998059539470600,8.304470703125,-0.17698988330216497,-0.1233004975553763,0.061316630721994815
1789998059549541600,8.314541748046874,-0.2510649184616418,-0.16804312975839097,0.05215242771420629
1789998059559612700,8.32461279296875,-0.3100241313448569,-0.1842295400513929,0.02078425398399282
1789998059569683700,8.33468359375,-0.3042777969596928,-0.22456786149031785,0.07293549096800188
1789998059579754800,8.344754638671875,-0.2900169347510784,-0.2523428716988443,0.12326778195002037
1789998059589824800,8.35482470703125,-0.3046248276089677,-0.28459597713810625,0.03187868216108214
1789998059599895800,8.364895751953124,-0.3177350117747244,-0.3556158847112922,-0.029507682568101233
1789998059609966800,8.374966796875,-0.28681514225259497,-0.332816149893088,-0.008056709645225785
1789998059620038000,8.385037841796875,-0.23214695707253813,-0.2818796748089281,0.007241438707970967
1789998059630109000,8.39510888671875,-0.1817469868722282,-0.2829065710195179,0.07423948840477246
1789998059640180000,8.405179931640625,-0.1916823888440792,-0.31496123247170665,0.07951533620192404
1789998059650250800,8.415250732421875,-0.2903336475717144,-0.34439338645147616,-0.04014643374877909
1789998059660321800,8.42532177734375,-0.3349778499270113,-0.3191155150012877,-0.013991886258250574
1789998059670392800,8.435392822265625,-0.306606162936026,-0.2820079506768689,0.08629372218058332
1789998059680464000,8.4454638671875,-0.27495664509871165,-0.29150272432639746,0.15189172428580933
1789998059690535000,8.455534912109375,-0.2461879674150823,-0.2808951347488496,0.07333416622223973
1789998059700606000,8.46560595703125,-0.23092093645680994,-0.2147691354996827,0.051169124071298935
1789998059710676700,8.4756767578125,-0.22843451977879778,-0.18563205799896887,-0.02143145395028724
1789998059720746800,8.485746826171875,-0.17768438298667583,-0.1658569576103744,-0.040492137828549525
1789998059730817800,8.49581787109375,-0.14105326145590444,-0.11034027880375118,-0.004343811423738755
1789998059740888800,8.505888916015625,-0.08953403707884264,-0.09925192691349777,0.13051113810379747
1789998059750959900,8.5159599609375,-0.08623050635496579,-0.0826902955004152,0.08698391294669965
1789998059761030700,8.52603076171875,-0.0790941614870674,-0.05582253989512516,0.10930635581127167
1789998059771101700,8.536101806640625,-0.053595566402143344,-0.00958478670370337,0.21752850506310462
1789998059781172700,8.5461728515625,-0.07886250964712864,-0.0179406043218448,0.09672612476189701
1789998059791243800,8.556243896484375,-0.07893759595120085,-0.03176173524061397,-0.002174238325340443
1789998059801314800,8.566314697265625,-0.00960744295096561,0.02107384083922656,0.06222585081982572
1789998059811385900,8.5763857421875,0.022407155264821177,0.048166139228328395,-0.04817623624458177
1789998059821456600,8.58645654296875,0.027487870589422238,0.04811968754812754,-0.06738728409246679
1789998059831527700,8.596527587890625,0.007197931866707709,0.07634637605028483,-0.05064774192854662
1789998059841597700,8.60659765625,-0.019925303480274617,0.07756029450194843,-0.12073093722713472
1789998059851668700,8.616668701171875,0.01995384213100791,0.1397456245684903,-0.04986341737467569
1789998059861739800,8.62673974609375,0.02244169914746637,0.1809549467095014,-0.0404255862034404
1789998059871810600,8.636810546875,0.018894479850032137,0.15160228715709276,0.07654831152777215
1789998059881881600,8.646881591796875,0.015398329195901133,0.14989674008454276,0.08654493821456857
1789998059891952600,8.65695263671875,-0.006148777589470298,0.16922822585712038,0.02066740005364621
1789998059902023700,8.667023681640625,0.002912932512725639,0.1568666261061217,-0.041398945884075986
1789998059912094700,8.6770947265625,-0.000395147107937349,0.1573196588811491,0.012886612866319007
1789998059922165800,8.687165771484375,0.0010293544698250637,0.1455148968357221,0.028860769981985734
1789998059932236500,8.697236572265625,-0.03118860180287573,0.12308307253226014,-0.021064492316868078
1789998059942307600,8.7073076171875,-0.05260799145107645,0.10490802433527027,-0.07233621063227974
1789998059952377900,8.7173779296875,-0.06354000686439197,0.10154772999154946,0.004764549198477112
1789998059962449000,8.727448974609375,-0.08623649031206336,0.08509930714033342,-0.08018924719998666
1789998059972520000,8.73752001953125,-0.10198502338885676,0.07311802685430945,-0.08151524058681235
1789998059982590700,8.7475908203125,-0.0912229900457888,0.07388746488264034,-0.015430106704351063
1789998059992661800,8.757661865234375,-0.08809711050371583,0.05314037997753531,-0.010463423295597808
1789998060002732800,8.76773291015625,-0.12826430949012363,-0.006611434128700113,0.06874799784908898
1789998060012803800,8.777803955078125,-0.1725840617009144,-0.029753012062815314,-0.09438954807405313
1789998060022875000,8.787875,-0.23924557536861793,-0.056964232965296985,-0.11563610422571104
1789998060032946000,8.79794580078125,-0.22964393706700237,-0.09441947436006633,0.039252109920635804
1789998060043016700,8.8080166015625,-0.19158636496198872,-0.10435313676126129,0.08151599418190539
1789998060053087700,8.818087646484376,-0.2637164242910253,-0.17600355706743873,-0.01259213611992496
1789998060063158800,8.82815869140625,-0.30365626592923545,-0.22346744564950452,0.008736094914009205
1789998060073228800,8.838228759765625,-0.2728242058310878,-0.20918561998965243,-0.05035521890057358
1789998060083299800,8.8482998046875,-0.2299304578166903,-0.21802316419508863,0.013990565065485063
1789998060093370600,8.85837060546875,-0.20093121690257718,-0.2513236864405085,0.16125612450181667
1789998060103441700,8.868441650390626,-0.21407420050273185,-0.27735677143313825,0.051495442467871584
1789998060113512700,8.8785126953125,-0.3003672153542722,-0.329173610029923,-0.07924616171926023
1789998060123583700,8.888583740234376,-0.3471314413113671,-0.3304576768495547,-0.08336338023995485
1789998060133654800,8.89865478515625,-0.3282993272828165,-0.31858027805157263,-0.11052806153991218
1789998060143725800,8.908725830078126,-0.33566750182858796,-0.3502582512502959,-0.08283572096682759
1789998060153796600,8.918796630859376,-0.34198565371875106,-0.3936495768167699,-0.06318887675094326
1789998060163867600,8.92886767578125,-0.32421910543341453,-0.39093870972742345,-0.051709423540668334
1789998060173938700,8.938938720703124,-0.2961087499089987,-0.3743104109696579,0.06989527737137674
1789998060184009000,8.949009033203126,-0.27454750129973093,-0.39954675698578956,0.007270017969182014
1789998060194080000,8.959080078125,-0.3304197636591011,-0.44067664172352033,-0.00477411019156544
1789998060204150800,8.96915087890625,-0.37005431002513844,-0.4630148740845819,-0.05686138927102643
1789998060214221800,8.979221923828124,-0.35552227914368933,-0.47262398025438307,-0.01368239366050833
1789998060224292900,8.98929296875,-0.34919937038480964,-0.48249330207497604,0.1145884014782522
1789998060234364000,8.999364013671874,-0.33617614739504426,-0.5100841171861294,0.0423672156526539
1789998060244435000,9.00943505859375,-0.36131457964079716,-0.547960975978537,0.004405716207802131
1789998060254506000,9.019506103515624,-0.33908031654342885,-0.564585053247614,0.08272301717525612
1789998060264576800,9.02957666015625,-0.2576570085605147,-0.574608964297091,0.11280372558144611
1789998060274647800,9.039647705078124,-0.23761777543476936,-0.5921589985445233,0.1114122423801923
1789998060284718800,9.04971875,-0.23136847674341643,-0.6527213644071517,0.06973318003807616
1789998060294790000,9.059789794921874,-0.24098568704904716,-0.6899236266121535,-0.00906927343778674
1789998060304860000,9.06985986328125,-0.2110700343882149,-0.658244296889974,0.13580713346476236
1789998060314930700,9.0799306640625,-0.1856587205152166,-0.6761688240821936,0.20688834259622738
1789998060325001200,9.090001220703124,-0.21467696058731228,-0.6691089762953722,0.03930035647882548
1789998060335072300,9.100072265625,-0.253589161093116,-0.6432709994738465,-0.040684167192908134
1789998060345143300,9.110143310546874,-0.2120975186431338,-0.6406681849603253,-0.0014849816417347862
1789998060355214300,9.12021435546875,-0.12514623963536642,-0.6229447025359791,0.005885388268471088
1789998060365285000,9.13028515625,-0.03426432697362101,-0.5697527829023876,0.038236398219588845
1789998060375356200,9.140356201171874,-0.0020445288585770865,-0.533936788732311,0.013237696470602049
1789998060385427200,9.15042724609375,0.0020989289645407454,-0.515273196536108,-0.0020077549186404858
1789998060395498200,9.160498291015625,0.015780596635709625,-0.47998651795669717,-0.030282780998542518
1789998060405569300,9.1705693359375,0.08915479354023872,-0.4165248460801701,0.048290417582124996
1789998060415639000,9.18063916015625,0.11548142859173993,-0.32920548563923474,0.10051767647465301
1789998060425710000,9.1907099609375,0.10042972275903045,-0.3086786055515464,0.08002344509106317
1789998060435781000,9.200781005859374,0.14128138124525194,-0.2624381475789834,0.20956034559530604
1789998060445852200,9.21085205078125,0.18882533513264554,-0.20677738747368732,0.32994412815607016
1789998060455923200,9.220923095703125,0.23285163150422153,-0.10728293148536495,0.26075819548450424
1789998060465994200,9.230994140625,0.24001963346010402,-0.03628748629750231,0.13480265036211037
1789998060476065300,9.241065185546876,0.1553360048048661,-0.10129719093610652,0.10089524198301743
1789998060486136300,9.25113623046875,0.1371030817019364,-0.1120732856180164,0.03338371570121394
1789998060496207400,9.261207275390625,0.23923258376419096,0.021934791289644442,0.1532312417607618
1789998060506278400,9.2712783203125,0.27384737244306645,0.09966894863030816,0.22175631263197668
1789998060516349400,9.281349365234377,0.22289113349195722,0.08092919243031177,0.14822863885472595
1789998060526420500,9.29142041015625,0.18724541464865863,0.09699310546859742,0.060541541744261775
1789998060536490200,9.301490234375,0.198861880174871,0.14052111026348213,0.06349381376685781
1789998060546561300,9.311561279296876,0.24540078683458352,0.18645085467733588,0.15740794133798755
1789998060556632300,9.32163232421875,0.2675283202236043,0.2092874614492191,0.3409228714255737
1789998060566703400,9.331703369140625,0.2794865651258542,0.16785176490376047,0.42014780839837895
1789998060576774400,9.3417744140625,0.290596959436305,0.17021633234931283,0.17004881916062958
1789998060586845200,9.35184521484375,0.36268798550839465,0.24311360716123537,0.1589636228714047
1789998060596916200,9.361916259765623,0.3366553802318315,0.2443457873427891,0.14612096419818013
1789998060606987300,9.3719873046875,0.2719577041607649,0.1911935186183154,0.15008323439729246
1789998060617058300,9.382058349609377,0.24874770270809685,0.20860575744140133,0.17843261596958204
1789998060627129300,9.39212939453125,0.23588462878425417,0.22749454022840454,0.16080798109646646
1789998060637199000,9.40219921875,0.2454444487331221,0.1915097292686054,0.24732483354981205
1789998060647270100,9.412270263671877,0.18414670814251125,0.2074995785828039,0.24732265551835195
1789998060657341200,9.422341064453123,0.17542527723233853,0.2239340748767679,0.18031997371479497
1789998060667412200,9.432412109375,0.18600883732181867,0.23617537746609943,0.21932692377823546
1789998060677483300,9.442483154296877,0.2132643182807722,0.24280024173497594,0.28183239774690555
1789998060687554300,9.45255419921875,0.17657446342991753,0.212835283938357,0.18407428646773027
1789998060697625000,9.462625,0.09748667091474275,0.1619046473766743,-0.011532189875563146
1789998060707696000,9.472696044921875,0.09647011621839886,0.16265883423907754,0.056379800047111066
1789998060717767200,9.48276708984375,0.08950341540996955,0.17330518960590416,0.1565801533816783
1789998060727838200,9.492838134765623,0.07302214847732097,0.1430892114063543,0.16449853390285968
1789998060737909200,9.5029091796875,-0.008302752880487915,0.06441237506451235,0.16355465681871564
1789998060747980300,9.512980224609375,-0.06827706975627335,0.028366787469535592,0.01781115137555131
1789998060758050300,9.52305029296875,-0.07670645849223028,-0.006391771830746537,-0.019881319879491082
1789998060768121300,9.533121337890623,-0.09579127880317247,-0.09549850148926904,-0.12103589308175312
1789998060778192400,9.5431923828125,-0.08784667907327058,-0.15449451093288435,-0.08738230212872282
1789998060788263400,9.553263427734375,-0.08614724728423244,-0.11536942329761837,0.012770841670156356
1789998060798334500,9.56333447265625,-0.09560482582881114,-0.1418799551587155,-0.02784216686956536
1789998060808405200,9.5734052734375,-0.09870008984869949,-0.2741718224860642,-0.042825675748072514
1789998060818476300,9.583476318359375,-0.07192720226589726,-0.33080585062027296,-0.10691881190020296
1789998060828547300,9.59354736328125,-0.07382801725450368,-0.3175608006303765,-0.23948142482850165
1789998060838618400,9.603618408203126,-0.07867193562498635,-0.3173638048101493,-0.3004152306631409
1789998060848689400,9.613689453125,-0.08736214172024344,-0.3237244724109009,-0.39482138506674563
1789998060858759200,9.62375927734375,-0.07525810086208908,-0.29621897442146955,-0.2910950083529274
1789998060868830200,9.633830322265624,-0.06271967281989811,-0.3197113995881668,-0.19936089977130902
1789998060878901200,9.6439013671875,-0.10497472538640717,-0.3499181512825775,-0.4108196681494957
1789998060888972300,9.65397216796875,-0.1592726664573343,-0.3451445421669679,-0.43451867018368956
1789998060899043300,9.664043212890626,-0.14604322011348136,-0.3250245747525722,-0.3626032837488535
1789998060909114400,9.6741142578125,-0.10164750328929462,-0.31110093644986053,-0.15237199217561614
1789998060919185200,9.68418505859375,-0.04188185734184525,-0.2954755777387204,-0.08762883029733574
1789998060929256200,9.694256103515626,-0.03910985987236004,-0.2685079405006617,-0.30129173728504005
1789998060939327200,9.7043271484375,-0.11030245623839652,-0.2511119524503958,-0.5551408434806188
1789998060949398300,9.714398193359376,-0.16066088169294726,-0.2838598167894868,-0.49278297544311883
1789998060959468300,9.72446826171875,-0.07609553949528286,-0.2659825763791446,-0.3427733126843341
1789998060969539000,9.7345390625,0.03495838098150303,-0.20097132370669646,-0.24656411566790506
1789998060979610000,9.744610107421876,0.011017465899289793,-0.22356401015097618,-0.27104292528969387
1789998060989681200,9.75468115234375,-0.07620800286818359,-0.2615154159009463,-0.4053742158961306
1789998060999752200,9.764752197265626,-0.08764739970894062,-0.23953352106654244,-0.4655398304809929
1789998061009823200,9.7748232421875,-0.050460526540543976,-0.19197526281554708,-0.3546584355396551
1789998061019894300,9.784894287109376,-0.04482806214799464,-0.18363738393431886,-0.3327023198907002
1789998061029965000,9.794965087890626,-0.06117499147508824,-0.21932757464279812,-0.4367342701710517
1789998061040036000,9.8050361328125,-0.08474819155070622,-0.24214780973853603,-0.4817874834664719
1789998061050107100,9.815107177734374,-0.052092167196715146,-0.21691603636652124,-0.35753293215744036
1789998061060178200,9.82517822265625,0.0054103838712220385,-0.19064439146144885,-0.2312887452709224
1789998061070248400,9.83524853515625,0.04079062599721125,-0.1922606657142219,-0.17833814262613693
1789998061080319200,9.8453193359375,0.038417071619607016,-0.16549074711293915,-0.2046280820691567
1789998061090390300,9.855390380859374,0.046974546094782146,-0.133806159902733,-0.23894734191876724
1789998061100461300,9.86546142578125,0.0524763885114588,-0.13004349310539579,-0.2132237724354105
1789998061110532400,9.875532470703124,0.06567201467522606,-0.16749307129916396,-0.11617271947723344
1789998061120603400,9.885603271484374,0.04195055047268566,-0.152990980361592,-0.10444185650269157
1789998061130674400,9.89567431640625,0.04143032112594672,-0.1143036815572585,-0.12160238810602385
1789998061140745200,9.9057451171875,0.09011275902909331,-0.10157869232382913,-0.09336146246037616
1789998061150816300,9.915816162109374,0.11924929364660679,-0.06062006325876806,-0.04758217730535813
1789998061160887300,9.92588720703125,0.13205586403873099,-0.027986862851395025,0.02770272999883078
1789998061170958300,9.935958251953124,0.14686390288399562,0.0023432703085097444,-0.05546267740752885
1789998061181028400,9.9460283203125,0.16518639890254502,0.032756349100637294,-0.13593292796769857
1789998061191099100,9.95609912109375,0.1989314782103871,0.04407088830965973,-0.0189913739363591
1789998061201170200,9.966170166015624,0.16426489858239715,0.04470247698094856,0.021608035500233345
1789998061211241200,9.9762412109375,0.128021001387298,0.055200621888663474,0.02451267286321035
1789998061221312300,9.986312255859374,0.14095271457266226,0.09435724707661727,0.020704801302670068
1789998061231383300,9.99638330078125,0.17028385149356165,0.12706250406200845,0.04092212723244673
1789998061241454300,10.006454345703125,0.18307805802723506,0.10723404820360459,0.21273065812636266
1789998061251525000,10.016525146484376,0.1986117719766056,0.10674428607031045,0.06741995796022253
1789998061261596200,10.02659619140625,0.1996436976926933,0.14916452097211755,0.09435057203914629
1789998061271667200,10.036667236328125,0.10987201436718909,0.14125888233564216,-0.05553501927603196
1789998061281737200,10.0467373046875,0.06281724720204329,0.0698849406416563,-0.010428947819549802
1789998061291808300,10.056808349609376,0.10672712177819421,0.08715329797984864,0.09908912982407056
1789998061301879000,10.066879150390625,0.14161754299769438,0.09221601693054665,0.23770491198129015
1789998061311950000,10.0769501953125,0.18021858987048883,0.0681688108355247,0.25689066082756423
1789998061322021600,10.087021728515625,0.17760260545647255,0.08466969173234985,0.30197706404983576
1789998061332092700,10.0970927734375,0.15089797635439148,0.07053523061286408,0.2029232398000323
1789998061342163700,10.107163818359377,0.1082898343715782,0.07481705780807851,0.1429660222198896
1789998061352234500,10.117234375,0.050828849440230355,0.05019369201795913,0.18289664898422106
1789998061362305500,10.127305419921877,-0.011750496526832866,-0.007110019670043219,0.11906201941988082
1789998061372376600,10.13737646484375,0.016823390270155378,-0.013151837872847056,0.04844920931234755
1789998061382447600,10.147447509765623,0.04001231737964449,-0.018534266765736752,0.20342419562968753
1789998061392517600,10.157517578125,0.03299615300326113,-0.05521816172431509,0.2977857197438102
1789998061402588700,10.167588623046877,-0.0032684004779496988,-0.11616461380273563,0.0905211902168491
1789998061412659700,10.17765966796875,-0.008679848097169743,-0.12207280061217757,0.010078137477651879
1789998061422730800,10.187730712890623,0.007984171218851045,-0.11685143403372482,0.1252021442524901
1789998061432801800,10.1978017578125,0.047921554579616714,-0.1484110937218736,0.23577814599405153
1789998061442872800,10.207872802734377,0.0558893993231005,-0.12684665408099854,0.25403177842146674
1789998061452944000,10.21794384765625,0.09468834868765455,-0.058449846928296564,0.11097165764643775
1789998061463014700,10.2280146484375,0.1701121522131872,-0.025395140310588843,0.07500379970676568
1789998061473085700,10.238085693359375,0.20729434801215926,-0.010655491953501017,0.19820238132487097
1789998061483156700,10.24815673828125,0.19844062998296533,0.05127950121964353,0.2934702310033277
1789998061493226800,10.258226806640623,0.16052951176482538,0.12395631967398556,0.20505167258939236
1789998061503297500,10.268297607421877,0.19628104275036334,0.17349235331926216,0.12131201068750122
1789998061513368600,10.27836865234375,0.2663181846458973,0.25934042260689294,0.10451078937560367
1789998061523439600,10.288439697265623,0.3146568020130363,0.31641626241096715,0.07945477452354605
1789998061533510700,10.2985107421875,0.35725897389128186,0.34888701179404785,0.10331499034413166
1789998061543581700,10.308581787109375,0.3683226260844405,0.3912977303317235,0.24505909168831636
1789998061553652700,10.31865283203125,0.3483688465586756,0.4029779488175594,0.12044112152559326
1789998061563723800,10.328723876953124,0.29790354748215847,0.39164379383031395,0.11360757607323875
1789998061573794600,10.338794677734375,0.2521615056052268,0.37787245381974177,0.07702783564094838
1789998061583865600,10.348865478515624,0.221297340999389,0.3464888277388933,-0.03587314976110692
1789998061593935600,10.358935546875,0.2178714336513166,0.33514775503072686,-0.048207866253988825
1789998061604006700,10.369006591796875,0.19582091811819202,0.2750887943773113,-0.13401185230253826
1789998061614077700,10.37907763671875,0.12835621112038564,0.23290966475926098,-0.11024158058743103
1789998061624148500,10.3891484375,0.10967727897978125,0.2031797831914037,-0.04216186405690293
1789998061634219500,10.399219482421875,0.10997741907982583,0.187287604374822,-0.034874899470960216
1789998061644290600,10.40929052734375,0.09892092314224883,0.15813146118254967,-0.05002270316829851
1789998061654361600,10.419361572265624,0.13557424810116814,0.14492840963715004,0.03306052657413576
1789998061664432600,10.4294326171875,0.14715319479953798,0.11687763887636436,-0.009209835207854686
1789998061674503700,10.439503662109376,0.11929305848659928,0.09360218513081109,-0.010214544117721143
1789998061684574700,10.44957470703125,0.09519543916441611,0.07901791647203159,-0.05607025922645665
1789998061694644700,10.459644775390624,0.05288955531078405,0.08373993409244618,-0.05160838745858875
1789998061704715800,10.4697158203125,-0.025284856578494462,0.07078921766090705,-0.06227202207525827
1789998061714786800,10.479786865234376,-0.07582118942622876,0.0662627952572846,-0.03946747373146743
1789998061724857600,10.489857666015626,-0.11089747597726068,0.06624588943897512,-0.07905182009625807
1789998061734928600,10.4999287109375,-0.12394815540950305,0.08618871846569755,-0.07119263167196785
1789998061744999700,10.509999755859376,-0.0869796959403262,0.0859571475538846,-0.09090027539292958
1789998061755070700,10.52007080078125,-0.05755742189332203,0.09894723717393702,-0.05193076515375553
1789998061765141800,10.530141845703126,-0.04281295083660794,0.11855445319886576,-0.09803753523163665
1789998061775212800,10.540212890625,-0.0362071728783431,0.1129494672492411,-0.045843706316163274
1789998061785282600,10.550282470703126,-0.031139346634655823,0.10126318801295735,0.021785029686280735
1789998061795353600,10.560353515625,-0.04254373881480645,0.061429119363674255,0.06518658109963835
1789998061805424600,10.570424560546876,-0.09227768447025006,0.0004611853951293167,0.17595306050394657
1789998061815495700,10.58049560546875,-0.13135197692803005,0.00607266425728651,0.11245690251889735
1789998061825566700,10.590566650390626,-0.17769640439004192,-0.014234491105615296,0.08533670961360744
1789998061835637500,10.600637451171876,-0.23011958802333377,-0.0959288270233201,0.04745007367611437
1789998061845708500,10.61070849609375,-0.21682654389249367,-0.11756448606977642,-0.009431242217074825
1789998061855779600,10.620779541015626,-0.16141477342816182,-0.09151448358548683,0.020091153743541458
1789998061865850600,10.6308505859375,-0.15744020084968646,-0.09206942423431284,0.08112053858337878
1789998061875921700,10.640921630859374,-0.19487549610797825,-0.11633609151821331,0.007786756472053938
1789998061885992700,10.65099267578125,-0.24288972197643868,-0.10508237661238222,-0.03538602727605139
1789998061896062700,10.661062744140626,-0.24708095422241663,-0.11786763087283911,0.010440425250807244
1789998061906133800,10.6711337890625,-0.1903286996655782,-0.12027871987205101,0.04316880965830193
1789998061916204800,10.681204833984374,-0.16433218207800546,-0.10016389308760894,0.045212545145606936
1789998061926275800,10.69127587890625,-0.14876622224198874,-0.11061786201411056,-0.05530552898175707
1789998061936347000,10.701346923828124,-0.1652453731199809,-0.1368633411261762,-0.062200715170202786
1789998061946417700,10.711417724609374,-0.1996160417880342,-0.17094293690041149,-0.08262346614359847
1789998061956488700,10.72148876953125,-0.16360595299767985,-0.17819919317514796,-0.021286565746792458
1789998061966559700,10.731559814453124,-0.1676448053681653,-0.19302299988746524,0.02913418921793887
1789998061976630800,10.741630859375,-0.214780425589046,-0.22987677609667084,0.05794195288747231
1789998061986700800,10.75170068359375,-0.21587430998858495,-0.23331015342429087,0.14371008412890676
1789998061996771600,10.761771484375,-0.14813050338107195,-0.18903855858525379,0.13702701590734298
1789998062006842600,10.771842529296874,-0.094858990300481,-0.168057369179886,0.010675769359595234
1789998062016913700,10.78191357421875,-0.07102182810087088,-0.20987625019111386,0.044145823671664586
1789998062026984700,10.791984619140624,-0.09538842533269379,-0.19433029047244943,0.13390960818965958
1789998062037055700,10.8020556640625,-0.17607380027160222,-0.19717768076030798,0.13942530532109085
1789998062047126800,10.812126708984374,-0.1864999666070679,-0.20429147002917525,-0.019474654732471654
1789998062057197600,10.822197509765624,-0.1854734691954597,-0.20628658891409013,-0.015140693814176438
1789998062067268600,10.8322685546875,-0.1724604760497636,-0.20388191012221102,0.016710977965395654
1789998062077339600,10.842339599609376,-0.16115978604788506,-0.2038378656095007,-0.09121739474847537
1789998062087409700,10.85240966796875,-0.1266912654652188,-0.18825738618106197,-0.05009117160291801
1789998062097480700,10.862480712890624,-0.09437521449627982,-0.1772342030586467,-0.04457146154208054
1789998062107551500,10.872551513671874,-0.10184573220597497,-0.18603754967356365,-0.0671926507765837
1789998062117622500,10.88262255859375,-0.10127909164162856,-0.18794451263455164,-0.02812790262083298
1789998062127693600,10.892693603515625,-0.1083232073671574,-0.1826417769491752,0.04886318522110469
1789998062137764600,10.9027646484375,-0.14852248086213637,-0.1906274133909282,0.05647635460292135
1789998062147835600,10.912835693359376,-0.134310621395232,-0.20246706871654607,0.08447148872581824
1789998062157906700,10.92290673828125,-0.11588836566116555,-0.18770314322651496,0.05935864712602937
1789998062167977500,10.9329775390625,-0.07124962395365059,-0.2005100762945513,-0.08229785811450015
1789998062178048500,10.943048583984377,-0.025095166531170086,-0.20200521075408118,-0.12292240056269936
1789998062188118800,10.953118896484376,-0.030577787554755733,-0.1609483906956148,-0.06584151565704476
1789998062198189800,10.96318994140625,-0.0316040183414444,-0.1549250388866701,-0.017313771236690305
1789998062208260900,10.9732607421875,-0.06526008890290516,-0.171675963536861,0.14813273330751553
1789998062218331600,10.98333154296875,-0.09420011855123386,-0.19170422292066763,0.20458101832200762
1789998062228402700,10.993402587890625,-0.13501281132717527,-0.22537148294478732,0.1209226026401335
1789998062238473700,11.0034736328125,-0.11318848490926739,-0.23067279339767233,-0.00411445920183885
1789998062248544800,11.013544677734377,-0.11813197163200533,-0.2574017237627868,-0.03418755787681557
1789998062258615800,11.02361572265625,-0.13725063133196486,-0.26654770619321905,-0.025605731643986603
1789998062268686800,11.033686767578123,-0.16886752890426204,-0.2754627167444779,0.004824616474219276
1789998062278756600,11.043756591796877,-0.1703150249141653,-0.3050340828915741,0.02239784326278692
1789998062288827600,11.05382763671875,-0.13391224994318454,-0.32224882563113666,-0.05255458611775809
1789998062298898700,11.063898681640625,-0.11004989727637303,-0.3288407860012472,-0.06387476548292212
1789998062308969700,11.0739697265625,-0.10305656544956257,-0.3508930560846534,-0.13736919673972584
1789998062319040800,11.084040771484377,-0.07294664587405834,-0.37372280955826404,-0.24308151580124523
1789998062329112300,11.0941123046875,-0.08967270197564199,-0.3329758129156383,-0.18528594248663252
1789998062339183400,11.104183349609375,-0.0829819438824173,-0.3419688535592157,0.0056929054053516635
1789998062349254400,11.11425439453125,-0.09060563192177261,-0.372097212047197,0.0339858757492054
1789998062359325200,11.1243251953125,-0.10725884974643347,-0.3363204340516089,0.07190661501896893
1789998062369396200,11.134396240234375,-0.07121391114139464,-0.32402628337694134,0.05769674382224937
1789998062379466200,11.14446630859375,-0.030093453772436947,-0.3047371779127467,0.11507886373196942
1789998062389537300,11.154537353515623,0.01938416149344828,-0.28731063160052583,0.06068273708533112
1789998062399608300,11.1646083984375,0.0847293936150846,-0.2701067318748947,0.07235567294051061
1789998062409679000,11.17467919921875,0.07955395185402013,-0.2745611909249229,-0.001383457845102169
1789998062419750100,11.184750244140623,0.050298726222951305,-0.31417758262716217,-0.01989491182119449
1789998062429821200,11.1948212890625,0.07979690716067613,-0.3010016944678971,0.02631482629178151
1789998062439892200,11.204892333984375,0.10625138625268224,-0.24409984156853232,-0.0004142670139837997
1789998062449963300,11.21496337890625,0.1433992167569369,-0.2315278165122297,-0.028327800142729568
1789998062460034300,11.225034423828124,0.12184279955463256,-0.23316036640043367,-0.01279086598163631
1789998062470104300,11.235104248046875,0.10125280201367044,-0.19437798665362127,-0.08282125558441206
1789998062480175400,11.24517529296875,0.11601150948323066,-0.1593997974713821,-0.1915122740591286
1789998062490246400,11.255246337890624,0.10526639555445716,-0.128007641040239,-0.24401110407369386
1789998062500317400,11.2653173828125,0.14228661870733858,-0.07872072389759789,-0.1250746323874934
1789998062510388500,11.275388427734375,0.16763849921731802,-0.03250914608684421,-0.03721591081442397
1789998062520459300,11.285459228515624,0.1606651096224592,-0.03878513693208758,-0.02980312251597145
1789998062530530300,11.2955302734375,0.18842788141614747,-0.027446276355315498,-0.06946587484091772
1789998062540601300,11.305601318359376,0.2272648024786476,0.0250705469644716,0.06780508392029334
1789998062550672400,11.31567236328125,0.24817496284253432,0.03471111233894607,0.14945004686386906
1789998062560742400,11.325742431640624,0.26466084021370934,0.05557455895845399,0.09103748949446508
1789998062570813200,11.335813232421875,0.28342753285173455,0.10489573193187184,0.0161688699436067
1789998062580884200,11.34588427734375,0.28228596755305185,0.136214232026575,0.022144012738380393
1789998062590955300,11.355955322265626,0.3076071779087015,0.13671681992733478,-0.09305163404806874
1789998062601026300,11.3660263671875,0.3140222418564285,0.15186989946113988,0.039409083333934725
1789998062611097300,11.376097412109376,0.3446555044917175,0.1621286137270956,0.087874911023755
1789998062621168400,11.38616845703125,0.354010402422984,0.20182464790179758,-0.030627072378306443
1789998062631239200,11.3962392578125,0.355035771029165,0.24794773342468987,-0.019522760393273324
1789998062641310200,11.406310302734376,0.30803998992558884,0.22956883812475126,-0.09903056456721905
1789998062651381200,11.41638134765625,0.2955480578136221,0.23015268120941756,-0.1686408213878816
1789998062661451300,11.426451171875,0.29745849188432216,0.2453304362031812,-0.07897874536734496
1789998062671522300,11.436522216796876,0.3206920379045354,0.25403551347076897,-0.11730518039095016
1789998062681593000,11.446593017578126,0.3221889585638811,0.2688211309371498,-0.12981474472390173
1789998062691664100,11.4566640625,0.3539394821971615,0.272721918575067,-0.016407626979132554
1789998062701735200,11.466735107421876,0.3708880214531177,0.30502161717366694,0.06876911644482357
1789998062711806200,11.47680615234375,0.3252750041284796,0.324247961006127,0.022822018683602927
1789998062721877200,11.486877197265626,0.32323581218909875,0.3041298617776333,0.010391080386923485
1789998062731948300,11.4969482421875,0.32559143837880417,0.34511222039469963,0.022529494364772848
1789998062742019000,11.50701904296875,0.3818844222307625,0.31556550713414044,0.14679296033751318
1789998062752089300,11.51708935546875,0.39687743856496505,0.36405685870301985,0.17833683369315764
1789998062762160400,11.527160400390626,0.3548713358324323,0.3864579850257721,0.11291387978451745
1789998062772231400,11.5372314453125,0.34696749281781447,0.3574052718291997,0.0067305237451422174
1789998062782302500,11.547302490234374,0.32133045973030205,0.35292715332779945,-0.036920462108829405
1789998062792373200,11.557373291015624,0.29525455843326964,0.35205870876864487,0.001339554253202179
1789998062802444300,11.5674443359375,0.2800082841128073,0.3602731425582188,0.08937232365077749
1789998062812515300,11.577515380859374,0.16283707910975648,0.33227528321001215,-0.007000788192470518
1789998062822586400,11.58758642578125,0.21144969219773693,0.29069152946813676,-0.027893693317863823
1789998062832657400,11.597657470703124,0.1957503449865362,0.32842188514485465,0.02805994914036045
1789998062842727200,11.60772705078125,0.18490596828092645,0.3364457466284526,0.09651827447176103
1789998062852798200,11.617798095703124,0.1350464467687528,0.2736137429801236,0.03255755652568219
1789998062862869200,11.627869140625,0.1076583266427701,0.2643764448375882,-0.039205965314585665
1789998062872940300,11.637940185546874,0.07271937838595158,0.24044429253561647,-0.06530700744458326
1789998062883011300,11.64801123046875,0.08109059544837369,0.21130921295921282,-0.09276096075248608
1789998062893082400,11.658082275390624,0.061604278011855425,0.20134999299850753,0.012771118197696428
1789998062903153200,11.668153076171874,-0.00011181586866233506,0.14939221978755882,0.003889679074448425
1789998062913224200,11.67822412109375,0.002404543842389916,0.11014242133215028,-0.020391297882080817
1789998062923295200,11.688295166015624,-0.028555696429302873,0.10806520237614685,-0.22497672005763794
1789998062933365200,11.698365234375,-0.0810872609638571,0.10322889807202303,-0.04352442658513504
1789998062943436300,11.708436279296874,-0.07330218341974662,0.0369007684511736,0.05109785474219178
1789998062953507000,11.718507080078124,-0.0866994631917413,-0.01360511126520881,0.02451101998087652
1789998062963578000,11.728578125,-0.10288286105846119,-0.032428030564739314,0.03567456009717297
1789998062973649200,11.738649169921874,-0.10206252547738388,-0.04222334759519725,-0.07525111000437319
1789998062983720200,11.74872021484375,-0.10104294377104803,-0.1001379823457319,-0.18686759346031542
1789998062993791200,11.758791259765625,-0.07904378767120522,-0.1015571480963758,-0.025377438730547795
1789998063003862300,11.7688623046875,-0.0762955152290833,-0.0989560727223755,-0.06708774569348926
1789998063013933000,11.77893310546875,-0.09285147245074248,-0.12079477275177279,-0.12052623643569962
1789998063024003300,11.78900341796875,-0.07554053067499306,-0.12047042729384727,-0.02923421600017669
1789998063034074400,11.799074462890625,-0.047350051387811176,-0.1255144529407325,0.1307877498125984
1789998063044145400,11.8091455078125,-0.11294574174113985,-0.10094479858311117,-0.1583507906428871
1789998063054216400,11.819216552734376,-0.06815761390526402,-0.05991096647190915,-0.1502132041127024
1789998063064287200,11.829287353515625,-0.027817451201354225,-0.07295670616212159,-0.10096194689196285
1789998063074358300,11.839358154296876,-0.03366129832813939,-0.09531330155355257,-0.02592465262718309
1789998063084429300,11.84942919921875,-0.04502820826453308,-0.1384887067208147,0.12673906782994676
1789998063094500400,11.859500244140625,-0.07296632529566689,-0.13015103337758943,0.1920195666145086
1789998063104571400,11.8695712890625,-0.006284014739602064,0.02107018824210143,0.12728588340940783
1789998063114641200,11.87964111328125,0.09711317615538838,0.08693202521421028,0.07029941038972434
1789998063124712200,11.889712158203125,0.04784916575482776,0.06843327387525501,0.0018521969731855063
1789998063134783200,11.899783203125,0.0376141410591999,0.06560323419786131,0.2090752537164146
1789998063144854300,11.909854248046877,0.015037773375131144,0.12442234855986455,0.2030216282603413
1789998063154925300,11.91992529296875,-0.005896765982208325,0.1700607378295067,0.20972505631150318
1789998063164996400,11.929996337890625,-0.01051630670363135,0.22944047797925698,0.05097947782799537
1789998063175067100,11.940067138671877,-0.035780753275276314,0.2618975266086315,-0.009278041622468803
1789998063185138200,11.95013818359375,0.0029154531083511403,0.2996151822453988,0.00914116421807106
1789998063195209200,11.960209228515623,0.009174753404511689,0.32695233820749814,-0.009521908416203742
1789998063205279200,11.970279296875,0.07592895723032288,0.32468497974107763,-0.06698495623401708
1789998063215350300,11.980350341796877,0.13530818851136484,0.3631258118145101,0.024147063612057755
1789998063225421300,11.99042138671875,0.1285905963753354,0.3779713398498092,0.07745515132206152
1789998063235492400,12.000492431640623,0.11145398822967072,0.3558550413771786,0.153516533526203
1789998063245563400,12.0105634765625,0.039229447276143324,0.30213431138417507,-0.034772738234460414
1789998063255634400,12.020634521484377,-0.004887785970742762,0.21528901671648473,-0.05585934224988003
1789998063265705500,12.03070556640625,-0.05318746997701275,0.1746839328053837,-0.1651432245005871
1789998063275776500,12.040776611328123,-0.015579024037954622,0.1108831725813586,0.09513652362862055
1789998063285847300,12.050847412109375,0.019649124439222045,0.02421415171131324,0.19967991815698466
1789998063295917300,12.060917236328123,0.05712672285762419,0.008765184835589928,0.18990130393316884
1789998063305988400,12.07098828125,0.01409221055021645,0.012327403666240194,-0.04524231192662076
1789998063316059400,12.081059326171877,-0.07987587313006453,-0.08224122724936721,-0.1086177440620483
1789998063326130200,12.091130126953123,-0.16525876000122897,-0.10642755357129077,-0.22129181595711536
1789998063336201200,12.101201171875,-0.15664076022352308,-0.11574301795879097,-0.06009174777112326
1789998063346272300,12.111272216796875,-0.15088221447630185,-0.1965363228116136,-0.06503615688240394
1789998063356343000,12.121343017578123,-0.13792386485439523,-0.21286688759281402,-0.04127753912301243
1789998063366414000,12.1314140625,-0.13628824702736084,-0.19641827883499047,-0.14523244408046831
1789998063376484000,12.141484130859377,-0.1720335127105554,-0.22164863095776427,-0.11789597929688977
1789998063386555100,12.15155517578125,-0.1847417856725271,-0.25791389221735644,-0.028219782436782522
1789998063396626200,12.161626220703123,-0.16389468666917917,-0.2500312065959756,-0.0034480683021366875
1789998063406697000,12.171697021484375,-0.13913428474782966,-0.27019395488652886,0.07906729227726036
1789998063416768000,12.18176806640625,-0.18370419844528182,-0.2753765311842014,0.123890840196163
1789998063426839000,12.191839111328123,-0.18413358936806398,-0.26610961530130806,0.027315024169511017
1789998063436910000,12.20191015625,-0.12129631316972267,-0.2514218008996969,0.00738205087329164
1789998063446981000,12.211981201171875,-0.07228195870863274,-0.20788194268608132,-0.1460671732702608
1789998063457052200,12.22205224609375,-0.09079245721559785,-0.1480141953873885,-0.07650417452480245
1789998063467122200,12.2321220703125,-0.03195229064034035,-0.10593421530191309,-0.07170303484987221
1789998063477193200,12.242193115234375,-0.04647977970281111,-0.08099014433717201,0.036523193517240905
1789998063487264300,12.25226416015625,-0.03372584166947637,-0.023454126479630997,0.16257883999798337
1789998063497335300,12.262335205078124,-0.017845807908926155,0.026150223618739882,0.11875467621127515
1789998063507406300,12.27240625,0.012235276187130401,0.0914146766824276,0.05905385011678446
1789998063517477000,12.28247705078125,0.09289708332628403,0.16267185602002313,-0.01724372051578022
1789998063527548200,12.292548095703124,0.13831543780360114,0.2210244943863123,-0.06744606809378814
1789998063537619200,12.302619140625,0.1454205304034972,0.23043496051726223,-0.05964881715168806
1789998063547690200,12.312690185546876,0.14318617909485076,0.2364489517078759,0.0835845581942269
1789998063557760300,12.32276025390625,0.0750374530210435,0.20667366216595237,0.31434467473742256
1789998063567831000,12.3328310546875,0.05652188922380567,0.198387100841475,0.2620991692535937
1789998063577902000,12.342902099609375,0.042696387200759175,0.27008144317782923,0.060343950036491456
1789998063587973000,12.35297314453125,0.0652961021945307,0.2578981183018188,-0.023186113853866375
1789998063598044200,12.363044189453126,0.0724838944005558,0.17436871178414634,0.1155362849102626
1789998063608115200,12.373115234375,0.05908321284316838,0.12371327471969665,0.26759501648313433
1789998063618186200,12.383186279296876,0.07615607912487678,0.11755643380901593,0.14962615459313
1789998063628257000,12.393257080078126,0.0759901716713281,0.1721827230721467,-0.04013776261005998
1789998063638328000,12.403328125,0.08856893940184223,0.1861656106523753,-0.03733759765537718
1789998063648398000,12.413398193359376,0.06122477348507701,0.09321204151114335,0.036122216567478216
1789998063658469000,12.42346923828125,0.025135902873796693,0.004178162195555503,0.08134182334855634
1789998063668540200,12.4335400390625,0.04798284299487636,0.033120756267542656,0.041052107209011146
1789998063678611000,12.44361083984375,0.07070555049249504,0.08417729984163039,-0.11179099033431743
1789998063688682000,12.453681884765626,0.06173865340976251,0.05241655579023929,-0.08346854038301812
1789998063698753000,12.4637529296875,0.029054307591878163,0.03417926015135836,0.07611032402634475
1789998063708824000,12.473823974609376,0.06461485056285475,0.05154588876325632,0.20245622718588838
1789998063718895000,12.48389501953125,0.10048515991497702,0.084117877289293,0.13768251749181248
1789998063728965000,12.493965087890626,0.07696689596977523,0.12344659385767363,-0.0002580141775173978
1789998063739036200,12.5040361328125,0.05105109301161514,0.11996874080849106,-0.0909022949300243
1789998063749107200,12.514107177734376,0.12990900518680046,0.13765203745957622,-0.12717520877239308
1789998063759178200,12.52417822265625,0.17890479110664476,0.1708132495346685,0.05120676605879875
1789998063769249300,12.534249267578126,0.22615138673982563,0.19174180145038908,0.037381786237440526
1789998063779320300,12.5443203125,0.23423712795814225,0.21286669147932047,-0.014168448132739984
1789998063789391000,12.55439111328125,0.19852069899660163,0.2548762180257476,-0.07774643930224626
1789998063799462100,12.564462158203124,0.17157087559831746,0.21647153494306504,-0.05039561053150741
1789998063809533200,12.574533203125,0.10159891230880796,0.22334126955739098,-0.022148824788421537
1789998063819603200,12.584603271484376,0.05804644293306791,0.22837822215602152,-0.05162314183771546
1789998063829674200,12.59467431640625,0.04792710486248683,0.2491399170763405,-0.09234654775391359
1789998063839745000,12.6047451171875,0.1245041832212188,0.28087436693974815,-0.01866271584951674
1789998063849816000,12.614816162109374,0.1531211673250131,0.3366931171989536,-0.008094507078871025
1789998063859887000,12.62488720703125,0.16846910581017444,0.3284854818545378,-0.03243537883023418
1789998063869958100,12.634958251953124,0.17306694458363991,0.3174597701380956,0.02656067572587037
1789998063880029200,12.645029296875,0.14719136079990283,0.3193126979156376,0.004808017222321601
1789998063890100200,12.655100341796874,0.10051136247703328,0.31058717174090383,-0.027394358533642034
1789998063900170000,12.665169921875,-0.01528880663497825,0.2665792170188397,-0.06258901021750174
1789998063910241000,12.675240966796874,-0.07104159616495254,0.23766479775823102,-0.033865930809848566
1789998063920312000,12.68531201171875,-0.12129294896210459,0.22857302995221881,0.05983528393795271
1789998063930383000,12.695383056640624,-0.14776569326429706,0.17286478484039983,0.09445888604865132
1789998063940454100,12.7054541015625,-0.1942231953879858,0.08077856469269475,0.029740005582660226
1789998063950525000,12.71552490234375,-0.20859917300997094,0.043476387015785274,-0.03373368758947102
1789998063960596000,12.725595947265624,-0.20990741749516786,0.04474452469608278,-0.09124450936308479
1789998063970667000,12.7356669921875,-0.15299419538683107,0.04415909131150785,0.01030589679405782
1789998063980738000,12.745738037109374,-0.18095935305062938,-0.03348531670797325,0.1647366873543551
1789998063990808300,12.755808349609374,-0.22610523729975182,-0.13992890148318876,0.166251653835987
1789998064000879000,12.765879150390624,-0.25544895929876316,-0.1166678194241741,-0.03983670939395467
1789998064010950100,12.7759501953125,-0.19552742450186422,-0.07512865105617074,-0.1287887247089352
1789998064021021200,12.786021240234374,-0.1772032113828027,-0.15175134377617674,-0.10856058634586704
1789998064031092200,12.79609228515625,-0.19835020823875735,-0.19056240127485635,0.12770192419322055
1789998064041163300,12.806163330078125,-0.17947751203744855,-0.21229630428148888,0.2489936847541471
1789998064051234300,12.816234375,-0.20593439792823015,-0.23744812447643213,0.23326985659245592
1789998064061305000,12.82630517578125,-0.12304232488871132,-0.1617153251231132,0.011253280267234336
1789998064071375000,12.836375,-0.051974427592628464,-0.10870547699294691,-0.11390878661518417
1789998064081446100,12.846446044921874,-0.02974412051129987,-0.12850552443230803,-0.046706909819741196
1789998064091517200,12.85651708984375,-0.05783717801226885,-0.13556504026333838,0.03299507356100017
1789998064101588200,12.866588134765625,-0.13389997806111328,-0.1149605592776636,-0.009462978350191628
1789998064111659000,12.876658935546876,-0.15524970755111492,-0.10435269510272199,0.0008912609845298184
1789998064121730000,12.88672998046875,-0.17004734523285847,-0.058423720025107005,0.0918219836639943
1789998064131801000,12.896801025390625,-0.15584857556051565,0.023675897124363392,0.07596666174621527
1789998064141872000,12.9068720703125,-0.14120517273877814,0.05292194858215095,0.053926755467358735
1789998064151943200,12.916943115234377,-0.08253067622146425,0.07317656460364738,0.05650362235420835
1789998064162013000,12.927012939453125,0.00488159778351598,0.11488769017386034,0.007939995614278631
1789998064172084000,12.937083984375,0.07340286871232285,0.1401963397925208,0.04612410309329235
1789998064182155000,12.947155029296876,0.04655307967171708,0.13973024407994683,0.02801934615723168
1789998064192226000,12.95722607421875,-0.016827990746133684,0.12030259374815691,-0.038088662474585304
1789998064202297000,12.967297119140625,-0.057361891570417343,0.09294437824807725,-0.06478917669808447
1789998064212368100,12.9773681640625,-0.07546544047436714,0.0816866643262634,-0.10314921541123148
1789998064222439200,12.987439208984377,-0.11795216986215516,0.06472319609507406,-0.04408427547178844
1789998064232510200,12.99751025390625,-0.1268881641367526,0.013058845299768652,0.03450775165664149
1789998064242580200,13.007580322265625,-0.1171691220400319,-0.01873202456177565,0.027771148310037085
1789998064252651300,13.0176513671875,-0.10487863083480997,-0.04785439950208188,0.06542671200487608
1789998064262722300,13.027722412109377,-0.1154090504280982,-0.059201551362719054,0.041779691395675694
1789998064272793000,13.03779296875,-0.11050164340976501,-0.08276649764238321,0.0037416833092363583
1789998064282864000,13.047864013671877,-0.13263730789402275,-0.13356938045008715,-0.0888244448490505
1789998064292935200,13.05793505859375,-0.16342102757818028,-0.195465349545879,-0.19040964131771487
1789998064303006200,13.068006103515623,-0.1527955985190989,-0.1968950041067741,-0.08138070012763214
1789998064313077200,13.0780771484375,-0.11787466923244944,-0.16192460962515667,0.08532267156167735
1789998064323147000,13.08814697265625,-0.11484822577919715,-0.18372370946315092,0.2231273145345085
1789998064333218300,13.09821826171875,-0.1739519636267449,-0.1814448202417792,0.16961261603402708
1789998064343289300,13.108289306640623,-0.21776326299398896,-0.21698670068800696,-0.06526439740496165
1789998064353360100,13.118360107421877,-0.17988989666910984,-0.2069070966555638,0.05841247819211115
1789998064363431200,13.12843115234375,-0.17148549816444408,-0.19201586807427612,0.16215175492987374
1789998064373502200,13.138502197265623,-0.11562538059916201,-0.19976531047758359,0.08579406352864363
1789998064383573200,13.1485732421875,-0.11784125821536036,-0.2615500343492795,-0.09655820727900523
1789998064393644300,13.158644287109375,-0.08267052991413316,-0.24209009991014344,-0.2343145994564176
1789998064403714300,13.16871435546875,-0.028060125756792877,-0.18484306903737374,-0.24675985199265732
1789998064413785300,13.178785400390623,0.047708719091129004,-0.1449365447112105,-0.17895848953782076
1789998064423856400,13.1888564453125,0.06380682873693697,-0.09345779357525827,0.0267966243304378
1789998064433927400,13.198927490234375,0.04660386189039154,-0.06139377699791748,0.22275491040217166
1789998064443998500,13.20899853515625,0.016078898705745213,-0.024664673369886786,0.19992904903965586
1789998064454069200,13.2190693359375,-0.0441971798406218,0.011632718063929183,-0.12126024027501477
1789998064464140300,13.229140380859375,-0.061208313618079595,0.09742054719943581,-0.28492704215623954
1789998064474211300,13.23921142578125,-0.05143894214438029,0.11219344785423063,-0.0777027364147906
1789998064484281300,13.24928125,-0.018902621533011185,0.08843220666236357,-0.01150852212624705
1789998064494352400,13.259352294921875,0.02760509866762062,0.11370762166736098,-0.01443009190273381
1789998064504423400,13.26942333984375,0.12860702707064342,0.16819273657546255,0.09734344394327951
1789998064514494200,13.279494140625,0.13675699590151122,0.22228022908144943,-0.00995032915703521
1789998064524565200,13.289565185546875,0.062470268600091194,0.19737041866942054,-0.007495453646466862
1789998064534636300,13.29963623046875,0.07137662814508736,0.18717825738541571,0.06708240322227291
1789998064544707300,13.309707275390624,0.0843147802977171,0.20952497548700486,0.08076550343009652
1789998064554778400,13.3197783203125,0.06438680957304044,0.2295919286528743,-0.11686642863237655
1789998064564848000,13.32984814453125,0.05412246950354636,0.2146207220609674,-0.08324906040320666
1789998064574919200,13.339919189453123,0.02187731663794632,0.19254518153141717,0.0051897705685635025
1789998064584990200,13.349990234375,-0.013323841942166995,0.16913900635912332,0.015527208679271537
1789998064595061200,13.360061279296875,-0.03519214081268263,0.10899018914647124,-0.01767701860642205
1789998064605132300,13.37013232421875,-0.05209307990142802,0.08988005984926367,0.010033149119248656
1789998064615203300,13.380203369140624,-0.059225029211219464,0.08436582921371678,-0.04466297782368156
1789998064625274000,13.390274169921875,-0.07496859627441406,0.052565424054137576,-0.054833075376434705
1789998064635345200,13.40034521484375,-0.10666943667629199,0.0063720586114225375,0.039039597690859344
1789998064645416200,13.410416259765626,-0.12641350657385259,-0.036342772069570164,0.06260387349940083
1789998064655486500,13.420486572265624,-0.11992927674465284,-0.10841952653840409,0.18951658014901462
1789998064665557500,13.4305576171875,-0.12933922359219213,-0.14503026449012416,0.22778986264834972
1789998064675628300,13.440628173828124,-0.21259386299520988,-0.2179520133224215,0.020961254299270714
1789998064685699300,13.45069921875,-0.2400377078198919,-0.3125603930145638,-0.09318387376352141
1789998064695770400,13.460770263671876,-0.26503490637240634,-0.391222654192404,0.07944485539405892
1789998064705841400,13.47084130859375,-0.2773854218883489,-0.4071174243469682,0.023173604762317293
1789998064715912400,13.480912353515626,-0.21027233937685066,-0.40198524807187097,0.015366777830886972
1789998064725983500,13.4909833984375,-0.13431058771834198,-0.4099435625234146,0.02876816026489656
1789998064736053200,13.50105322265625,-0.09688757380999465,-0.3757300333880041,0.10158227499972437
1789998064746124300,13.511124267578126,-0.10962180885089162,-0.3711440788161626,0.07133119809603021
1789998064756195300,13.5211953125,-0.13710505138318899,-0.3635437991361645,-0.028611442068439425
1789998064766266400,13.531266357421876,-0.10738709490747206,-0.3448283125076186,-0.07197288636222818
1789998064776337400,13.54133740234375,-0.04841869514188981,-0.320205881948452,-0.019487573497397746
1789998064786408200,13.551408203125,-0.011803156030174013,-0.31147381056294027,0.04470320590314191
1789998064796479200,13.561479248046876,-0.030445899680042375,-0.2789153570031059,0.01670005684833002
1789998064806550300,13.57155029296875,-0.0752105038852535,-0.25682171380311253,-0.027164136705611575
1789998064816620300,13.581620361328126,-0.06522832645611143,-0.253337483263474,-0.10388205122467262
1789998064826691000,13.591691162109376,0.004190453262493661,-0.18780810631819378,-0.07984980057255454
1789998064836762000,13.60176220703125,0.04279181317311076,-0.12550039603406532,-0.09069602788861263
1789998064846833200,13.611833251953126,0.09184168711812517,-0.12412029267333693,-0.03324074376101128
1789998064856904200,13.621904296875,0.11087805121379259,-0.09209943760311218,0.0188315009083157
1789998064866975200,13.631975341796876,0.1362982614531946,-0.03966813176848525,0.03376346405725033
1789998064877046300,13.64204638671875,0.18646283643656766,-0.002585434181799291,0.009748400733933571
1789998064887117300,13.652117431640624,0.22664493470755434,0.044570526851741746,0.030795235659811827
1789998064897187300,13.662187255859376,0.2514226991454882,0.10694226132009033,0.06462117654701253
1789998064907258400,13.67225830078125,0.24385139343068563,0.15640060071774206,-0.06623915802050867
1789998064917329400,13.682329345703126,0.2218985815661466,0.2022228025538567,-0.07981303136443291
1789998064927400400,13.692400390625,0.20676121112228626,0.22889468883610112,-0.09469303146060727
1789998064937471200,13.70247119140625,0.19163516903864172,0.27084305232518413,-0.03146295434265497
1789998064947542300,13.712542236328124,0.19709215897139584,0.3048207930477667,-0.011541381713942422
1789998064957613300,13.72261328125,0.21231191605221483,0.33871591170974275,-0.11975626678985112
1789998064967684400,13.732684326171874,0.1613828140825534,0.3841040354895008,-0.12937766546903506
1789998064977754400,13.74275439453125,0.13793137108653594,0.39064318491318045,-0.08118796696133362
1789998064987825200,13.7528251953125,0.13755474023319914,0.40289170215112763,-0.01739177973379311
1789998064997896200,13.762896240234374,0.15120581899362395,0.3947424123527843,0.06579216122025079
1789998065007967200,13.77296728515625,0.13984845575751365,0.3860812511974395,-0.07241760945128503
1789998065018038300,13.783038330078124,0.12587210030085924,0.4129091457744862,-0.1337513532911571
1789998065028109300,13.793109375,0.11084011570533936,0.4011683612713818,-0.07527140495152133
1789998065038180400,13.803180419921874,0.07089796209694411,0.3762152574575436,-0.010210143376248204
1789998065048250000,13.81325,0.0357793753731493,0.3146980931041513,0.09331322308643338
1789998065058321200,13.823321044921874,-0.013521681275996348,0.23786635654684524,0.11808680455451333
1789998065068392200,13.83339208984375,-0.02377337960196042,0.21024782651037985,0.026464648102593497
1789998065078463200,13.843463134765624,-0.014083506588314264,0.16942836829487892,0.01861423812402274
1789998065088534300,13.8535341796875,-0.03191101806842731,0.10790123260364928,0.2006175923529593
1789998065098605000,13.86360498046875,-0.0726534424432541,0.0034970409361357703,0.17464863657175678
