time,seconds_elapsed,z,y,x
1789141117388456700,1.540456787109375,0.7229447581176233,0.252389428880917,-0.053253427984716106
1789141117398428700,1.5504287109375,0.024423984666226854,0.4078730870557432,-0.7295235802205947
1789141117408401700,1.560401611328125,-0.6005185677253464,0.7591896363088819,-0.43272926306474435
1789141117418374000,1.570373779296875,0.18365673056813325,-0.0608089034923689,0.17773018241850705
1789141117428345600,1.580345703125,0.16862061527842354,-0.6531655103593448,-0.10027857192964687
1789141117438318800,1.59031884765625,-0.6821642780050522,-0.8313637387371671,0.6172945623566766
1789141117448290800,1.600290771484375,-0.8747693070444081,-1.1490088514335361,0.9127512171797451
1789141117458263600,1.610263671875,-0.8773371401998603,-1.1489085335472837,0.9332255811853296
1789141117468235800,1.62023583984375,-0.7760374814448568,0.5591398281240589,0.1622851748245643
1789141117478207700,1.630207763671875,-0.6964790584320608,0.5278320231810468,0.19517634774727227
1789141117488180700,1.6401806640625,0.4456118229598611,0.09005028510695748,0.4587066252930139
1789141117498152700,1.650152587890625,1.1510603038993548,0.05546459209594825,0.8105234645215761
1789141117508125700,1.660125732421875,-0.07138721963080527,0.21506310143964288,0.37343478827649745
1789141117518097700,1.67009765625,-0.04039824851268554,-0.2292737847814227,-0.16815485706861685
1789141117528069600,1.680069580078125,0.1586035837119567,0.12496993831143476,0.08134479798322335
1789141117538043000,1.69004296875,0.026584301532044625,-0.038369797384524104,-0.34230461131974216
1789141117548014600,1.7000146484375,-0.8812993140282946,-0.27747152551320187,-0.45098707476119987
1789141117557986800,1.70998681640625,-0.973128332897949,-0.34471324831621064,0.11997515849372732
1789141117567959800,1.719959716796875,-0.4553862040916496,-0.2667109426213452,0.19727184729329872
1789141117577931500,1.729931640625,0.6336108688398405,-0.4629544697339991,-0.21975261751087016
1789141117587904800,1.73990478515625,0.6843300304714519,-0.6777378317085258,-0.8909014903339051
1789141117597876700,1.749876708984375,0.3330816379185933,-0.020818233987957322,-0.9076790435322742
1789141117607848700,1.7598486328125,-0.46431927826336783,0.5271031118676808,0.7394438286519284
1789141117617821700,1.76982177734375,0.27901914840432807,0.2618354098461551,0.0917814270640749
1789141117627793700,1.779793701171875,-0.6879350640385958,0.9153477305490612,0.2065013118557009
1789141117637765600,1.789765625,-0.8940521336695185,1.4001074726265248,1.655996758627786
1789141117647738600,1.799738525390625,0.07054128039593927,0.6089331168881875,0.06516682974390825
1789141117657710800,1.8097109375,0.4265226376378972,0.539481073284359,0.07223237185335188
1789141117667683600,1.81968359375,-0.4520574077529586,0.09843365191592088,0.5489721787031907
1789141117677655800,1.82965576171875,-0.05257927890071433,-0.5329543242418805,0.17004784367272793
1789141117687627800,1.839627685546875,-1.549193904546795,-0.3688833547118535,0.7844471844466289
1789141117697600500,1.8496005859375,-1.9541379542824682,-0.745949545420997,1.2435005458705752
1789141117707572700,1.85957275390625,-1.956187835661682,-0.7459028428531143,1.2420659478921703
1789141117717545700,1.869545654296875,0.35977032422730015,-0.7811914580551191,0.14902109576993244
1789141117727517700,1.879517578125,-0.17741221000600788,-0.8533256449883325,0.011598188510306692
1789141117737489700,1.88948974609375,1.1662490234288283,-0.390352183138148,-0.5834064237539818
1789141117747462700,1.899462646484375,1.7316253901733134,0.9034222255133857,-0.019639095702344997
1789141117757434600,1.9094345703125,2.11750036178974,0.42652055282829443,0.14071431176093196
1789141117767406600,1.919406494140625,1.3607676846138383,0.98152973374998,-0.27213554934283396
1789141117777379800,1.9293798828125,-0.05446885758767233,0.8570320587259399,0.6074574210165272
1789141117787351600,1.9393515625,-0.053250789852287844,0.8572016364127425,0.6003163560749881
1789141117797324500,1.949324462890625,0.37809967498753516,0.6650838624604907,-0.4655081686809205
1789141117807296800,1.959296875,-0.6074627086846317,0.1788816966910003,-0.467490137563094
1789141117817268700,1.969268798828125,0.5745277019875373,-1.3222140648064005,-0.21129817062916453
1789141117827241700,1.97924169921875,0.8249462777304987,-1.0187805679934463,-0.4702119719516909
1789141117837213700,1.989213623046875,0.8282780919476459,-1.0186316957502133,-0.4777761222505681
1789141117847185700,1.999185546875,-0.44555500712011464,-1.00754383393215,-0.3829827472136925
1789141117857158700,2.00915869140625,0.18573599273001415,0.16216607842528805,0.15514700143384075
1789141117867131000,2.019130859375,0.7715590224902805,0.6726294453928507,0.4106511051221593
1789141117877103900,2.029103759765625,0.28287062126495754,0.6038036093971619,-0.2525788523774191
1789141117887075600,2.03907568359375,0.7838842766996377,0.940184053011586,0.30184212892573825
1789141117897047800,2.0490478515625,0.6319308433306328,1.1788725977758978,0.22702635310203728
1789141117907020800,2.059020751953125,-0.6314256436617048,0.9631320144359868,0.21354733251948768
1789141117916992800,2.06899267578125,-0.7202688954547716,-0.22595508506347325,1.8444696455034832
1789141117926965800,2.0789658203125,-1.3138798086371335,-1.2673624708032734,1.5209556682450414
1789141117936937700,2.088937744140625,-1.4436523266198216,-1.2293814313269844,1.8670718527441221
1789141117946909700,2.09890966796875,-0.8401218321182208,-1.4403111020338257,0.829059391566168
1789141117956882700,2.108882568359375,1.0589860854571587,-0.44332350696396944,0.7188057304706836
1789141117966855000,2.11885498046875,0.6648142501283457,0.8746648368039052,0.0272001946198887
1789141117976826600,2.12882666015625,0.6563507651102615,0.8004303720881338,0.06897875029889247
1789141117986799600,2.138799560546875,0.34842415565942075,0.06197087445017638,0.6797891980801745
1789141117996771800,2.148771728515625,-0.2091892686753855,0.2695098892464551,0.6502132860741322
1789141118006744600,2.15874462890625,-1.3030914901489334,0.3364331984107291,0.5010820564093512
1789141118016716800,2.168716796875,-1.620998801166123,-0.5338012344633133,-0.2769810417446083
1789141118026688800,2.178688720703125,-1.6025392777220464,-0.6187670009419927,-0.040900009882527115
1789141118036661500,2.18866162109375,-0.5060065340046984,-0.439863385330374,-0.7118054081509204
1789141118046633700,2.1986337890625,-0.10886036734998544,0.010913735451671442,-0.5853760910788995
1789141118056605700,2.208605712890625,0.32117252533156376,0.0843120296932674,-0.6346961507093577
1789141118066578700,2.21857861328125,0.6312631917833307,0.38722123396288344,-0.9327069357911387
1789141118076550700,2.228550537109375,1.4592097204263663,0.1344767463016713,-1.3071540923519716
1789141118086523600,2.238523681640625,0.5786547811022524,0.0037342054109967054,-1.0287305207076713
1789141118096495600,2.24849560546875,0.510394845846696,-0.5034607774302172,-0.9291893427755953
1789141118106467800,2.2584677734375,-0.05948186081261384,-0.5624465233752695,-0.700452651407001
1789141118116440800,2.26844091796875,-0.17541338930891362,-0.27433933686930734,0.08948413808773029
1789141118126412500,2.27841259765625,-0.7074290011051164,0.535797132366572,-0.6463389835525599
1789141118136385800,2.2883857421875,-0.26807408989371184,0.7212781962454106,0.0714286621053421
1789141118146358300,2.298358154296875,-0.23599363328491527,0.03370689901664828,-0.06662562740360285
1789141118156330200,2.308330322265625,0.19361892967035674,-0.06976109070436302,0.6157309144208144
1789141118166303500,2.318303466796875,-0.35198767754382476,-0.11010905815697336,-0.27645477164186977
1789141118176275200,2.328275146484375,-0.30014999751356064,0.06710043819827335,0.012853841568062067
1789141118186247400,2.338247314453125,-0.23773933341911951,0.0634334724435444,0.45227472870186763
1789141118196220400,2.348220458984375,0.2592980749286459,-0.6114440904256371,0.5624480744496609
1789141118206192000,2.358192138671875,0.4354998994961444,-0.4565882896816767,0.5512081523077337
1789141118216165400,2.368165283203125,-0.4417478192575667,0.22846827333015898,0.7996589008963261
1789141118226137300,2.378137451171875,0.1071994376274321,0.10628065689486117,0.5263989088187585
1789141118236109300,2.388109375,1.1109208324961364,0.8396590041649352,0.689997213956798
1789141118246082300,2.398082275390625,0.9773526638775122,0.5204588631692446,-0.30105202165396505
1789141118256054500,2.408054443359375,1.068256655107294,-0.003474036445317608,0.2586858721137907
1789141118266026200,2.418026123046875,-0.3257804708618027,0.5957383159982096,-0.022602667573657188
1789141118275999200,2.427999267578125,0.2591057497369498,-0.28549497214463804,0.7459230729690136
1789141118285971500,2.437971435546875,0.26077659409265896,-0.28547748539426515,0.7418369881296787
1789141118295944400,2.4479443359375,-0.7841953164518596,-0.3666219903036118,1.005099526645331
1789141118305916400,2.45791650390625,-0.3759948287509554,-1.0509882413683493,0.8197539476204346
1789141118315888400,2.467888427734375,0.9254057922248503,-0.24677029410698195,-0.2849478837164302
1789141118325861400,2.477861328125,1.109325407119802,0.058129931669668636,-1.0253622057005247
1789141118335833300,2.487833251953125,1.15608151849106,0.0017349495213731018,-0.43470652751817485
1789141118345805300,2.497805419921875,0.49516950078311345,0.8011827728248557,-0.4678661807080019
1789141118355778600,2.507778564453125,0.8429488014390312,0.8970902696888505,-0.6961603124850392
1789141118365750300,2.517750244140625,0.23060100656228377,0.5150690860447668,0.2282999696344928
1789141118375723300,2.52772314453125,-1.1589081671090113,0.29911279253141343,-1.0069786393817173
1789141118385695500,2.537695556640625,-1.5139670226217776,-0.571809296800505,-0.6224606066961423
1789141118395667200,2.547667236328125,-0.2624891382109282,-1.2764726617720847,-1.231181142846809
1789141118405640400,2.557640380859375,-0.97403925703013,-1.1863753651726971,-0.5646391393494179
1789141118415612400,2.5676123046875,0.01102621647599268,-0.7489645039744931,-1.3628537364333253
1789141118425584400,2.57758447265625,-0.85178431012056,-0.8973790774547571,-0.030496822178264122
1789141118435557400,2.587557373046875,0.6028778556288589,-1.0265526141372296,-0.8681890270306697
1789141118445529300,2.597529296875,0.6818798040778985,-0.37159445496205085,-0.23115703129940696
1789141118455502300,2.60750244140625,0.2156522830085901,0.6305738684584304,-0.9604926127904744
1789141118465474300,2.617474365234375,0.7261131411114411,1.0240061215261256,-0.16015649730210615
1789141118475446300,2.6274462890625,1.8333600524614766,1.2268116174297028,-1.0359834082928567
1789141118485419300,2.637419189453125,1.1830558648074667,1.6106642744779809,-0.7376525078130552
1789141118495391500,2.6473916015625,-0.985766139179375,1.8002990589468302,-1.1872422347561529
1789141118505363200,2.65736328125,-0.9830983901144684,1.8001875574977986,-1.198859065411509
1789141118515336200,2.667336181640625,-0.37537236394590473,0.06511394119126887,-0.7755198023211441
1789141118525308400,2.677308349609375,-1.423472267921532,-1.1121472456704884,-0.3415459851840665
1789141118535281400,2.687281494140625,-1.5247423919852399,-2.0556180331509046,0.5859173344077957
1789141118545253400,2.69725341796875,-0.8433894171020231,-1.71418595196756,-0.9427266449172599
1789141118555225300,2.707225341796875,-0.7173754369966914,-0.5830775521661365,-0.16538353106260914
1789141118565198300,2.7171982421875,1.1580643656010858,-0.1689908401516442,-0.6723575148891787
1789141118575170300,2.72717041015625,0.8240501159712762,0.34192628390158075,-0.010643792907772618
1789141118585143300,2.737143310546875,-0.19848733376022795,0.6858019981874695,0.0323667319743293
1789141118595115500,2.747115478515625,0.24121207977529327,0.46006095150187853,0.03052231561724093
1789141118605087200,2.757087158203125,-0.21158906214330525,0.8821109506533319,0.23099440535312926
1789141118615060200,2.767060302734375,-0.5333856896831946,0.2355307097900769,0.7536024420915229
1789141118625032400,2.777032470703125,-0.4694818862352293,-0.20169856545937906,-0.11105041893412589
1789141118635004200,2.787004150390625,-0.260878346925031,0.12636267096513484,-0.3247232909970067
1789141118644977400,2.796977294921875,-0.2577060336057957,-0.2122865932872442,0.4386789579547735
1789141118654949400,2.806949462890625,0.009736300489606864,-0.9675660696456287,0.09066077243352033
1789141118664922000,2.816922119140625,-0.4288700494503873,-0.5794580679580584,0.2458688518676124
1789141118674894300,2.826894287109375,-0.43002997523903796,-0.13738734915057943,-0.1385510190224769
1789141118684866300,2.8368662109375,-0.3251870989772822,-0.11014699227158661,0.442008269668088
1789141118694839300,2.84683935546875,0.4242122182209395,-0.47471906897603405,-0.855527813421075
1789141118704811300,2.856811279296875,0.41968211197858385,-0.5274778412837838,-1.188289671718395
1789141118714783500,2.866783447265625,0.04393082491818187,-0.3063946873833133,-1.5458541415707112
1789141118724756200,2.876756103515625,-0.1949426297491885,-0.21073310844727264,-0.5912164175673374
1789141118734728400,2.886728515625,-0.7207347164458365,0.10607136451140385,-0.9574566247711083
1789141118744701400,2.896701416015625,-0.1068823565752112,-0.015051110966320851,-0.021051458269970263
1789141118754673200,2.906673095703125,0.7126123636628529,-0.27403992448229403,-0.21209295071922216
1789141118764645400,2.916645263671875,0.8311373982503647,0.3454896937634921,0.044451241608367796
1789141118774618400,2.926618408203125,0.789361721684628,0.23756951589452785,-0.20845009445194446
1789141118784590300,2.93659033203125,0.7848057034870003,0.23771507411184054,-0.2006189371672052
1789141118794562300,2.946562255859375,0.47991045481183997,0.2993901968015807,1.1617212746408248
1789141118804535300,2.956535400390625,0.1275222462148928,-0.44808870457542616,0.3916805509564038
1789141118814507300,2.96650732421875,-0.11787138980365146,-0.41402302561984916,0.762686226004975
1789141118824480300,2.976480224609375,-0.3609357394078255,-0.2849004932336402,0.7865644311306212
1789141118834452500,2.986452392578125,-0.48828601765989355,-0.9827671266149444,0.7170307175273918
1789141118844424200,2.996424072265625,-0.21299485146844174,0.4454416791058542,0.4707243444503948
1789141118854397200,3.006397216796875,0.6270972282267512,0.4507106017942364,1.155048738733711
1789141118864369400,3.016369384765625,1.3089811807605103,0.11940772426155484,0.13387643008924666
1789141118874341400,3.02634130859375,0.20514110504212718,0.9900829201347153,0.15425739364691135
1789141118884314400,3.036314453125,-0.24328218921520336,0.5145516248487071,0.38691885734278736
1789141118894286300,3.046286376953125,0.7558278268102053,0.09782583021736754,0.09536679132201405
1789141118904259300,3.05625927734375,0.5302741094333857,0.331071710535094,-1.2073480628492774
1789141118914231300,3.066231201171875,-0.8215301156131419,-0.6659169412829081,-0.048714289142474713
1789141118924203500,3.07620361328125,-0.12110466157179106,-1.150388795556718,-0.11389844391528423
1789141118934176500,3.086176513671875,-0.27938688910107456,-0.7524590360582492,-0.6095937734990025
1789141118944148200,3.096148193359375,-0.4030601565919128,-0.7649967470579627,-1.0892487294853845
1789141118954121500,3.10612158203125,0.48798058918359516,0.2544972470173647,-0.48625333063690024
1789141118964093400,3.116093505859375,0.908412205347478,1.47640857730764,-0.7542117219996208
1789141118974065400,3.1260654296875,2.0062958635062964,1.47815005685487,-0.5786377484769005
1789141118984038400,3.136038330078125,1.1732408684465971,0.4340558715376278,-0.0233967389551261
1789141118994010400,3.14601025390625,-0.5875113468259849,-0.37320692870088895,0.3212999122077613
1789141119003982300,3.155982421875,-0.20346655591240775,-0.7469067416668262,-0.34843607357355955
1789141119013955300,3.165955322265625,-0.4233501748519971,-0.6767214890928588,-0.05691102647135552
1789141119023927600,3.175927490234375,-0.9009733455047103,-0.9495740769237059,0.07336027056184867
1789141119033900300,3.185900390625,-0.8308594819551622,-1.117245119793854,0.43675969347928645
1789141119043872300,3.195872314453125,-0.11443795976044706,-0.7563283871014036,0.10518102671875883
1789141119053844500,3.205844482421875,0.8283968933176448,-0.19971514811108215,0.6382853863775271
1789141119063817200,3.215817138671875,1.4664660142343156,0.29605683552599305,0.8297990820212672
1789141119073789400,3.22578955078125,1.7361318866224589,0.39163318117310897,0.7923279768944556
1789141119083761400,3.235761474609375,0.9375164871166959,0.6911877088068273,0.8054140499950877
1789141119093734100,3.245734130859375,-0.10589810374530015,0.7527676713890258,1.1214004295675177
1789141119103706400,3.255706298828125,-0.3811971802957449,0.7805077992128279,0.9862251196594981
1789141119113679400,3.265679443359375,-1.146081021216801,0.07058955899460878,2.0163472007585486
1789141119123651300,3.2756513671875,-1.4890905957516827,-0.3944619522051841,0.7373217788474974
1789141119133623300,3.285623291015625,-0.18534640797120552,0.13717851591062277,0.6650853221462503
1789141119143596300,3.29559619140625,0.4178464997314095,0.6492796078813013,0.774321148303254
1789141119153568000,3.305568115234375,-0.2139580923850034,0.7841847636709804,0.044692659437530535
1789141119163540200,3.315540283203125,-0.3531751455432112,0.6509925086180746,0.34158411208477985
1789141119173513200,3.32551318359375,-0.3479319782899988,0.6509613374718515,0.34705238942361816
1789141119183485000,3.33548486328125,-2.309984621794497,-0.8341032126463321,1.0180902109580892
1789141119193458200,3.345458251953125,-2.8420490129451177,-1.423234766908483,0.16631419386498483
1789141119203430100,3.35543017578125,-1.0548478814042164,-1.4616129759650403,0.8934199114233033
1789141119213402000,3.365402099609375,-1.9364296426363963,-0.8319048116259588,-0.04383216238231356
1789141119223375000,3.375375,-0.28563554623454557,-0.32154939730033877,-0.5118838886321856
1789141119233347000,3.38534716796875,0.579424729300921,0.8969238986220845,-0.6067012659922771
1789141119243319000,3.395319091796875,1.2046252567267117,1.385841350743009,-0.19981905441699546
1789141119253292000,3.4052919921875,0.25560810388657956,0.5148260772742799,-0.5502255408800204
1789141119263264300,3.41526416015625,1.1671036178215104,0.07498294808883699,0.4786514233574636
1789141119273237000,3.425237060546875,0.11433038011289214,0.1470055476409413,-0.48392088148596285
1789141119283209000,3.435208984375,-0.4898954813473058,-0.3363523451014314,-0.2798011552075346
1789141119293181200,3.44518115234375,-0.6270180870961642,-0.3998331924190118,-0.6452545770516329
1789141119303154000,3.45515380859375,-0.4099994767742682,-0.5755313010664495,-0.7633168199897274
1789141119313126100,3.465126220703125,0.6248814665589154,-0.7049576308006625,-1.3694048580508762
1789141119323098000,3.47509814453125,-0.18171827006860763,-0.2794071518759875,-0.5398928424097532
1789141119333071000,3.485071044921875,-0.0720295976585686,0.34789600528797227,0.6530639958526439
1789141119343043000,3.49504296875,-0.057646566171413303,0.019272418603733663,0.18749018687270103
1789141119353016000,3.50501611328125,0.6559694291457089,0.24778244124534377,-1.0508172107784899
1789141119362988000,3.514988037109375,0.41653755417583543,0.5527444730852988,0.013858627727984364
1789141119372960000,3.5249599609375,0.8000372952305158,0.5259518604710588,0.06069741885949019
1789141119382933200,3.534933349609375,1.062722723697036,0.22524301616093823,-0.5563888657811643
1789141119392905000,3.544905029296875,0.23337957576796503,0.14095760731762833,0.6328277252457039
1789141119402877200,3.554877197265625,-0.19116260124621076,0.24307660117171412,0.8017452343666864
1789141119412850200,3.56485009765625,-1.5788883455046312,0.04409342913659283,1.0330081512667753
1789141119422822000,3.57482177734375,-0.4266822264802268,-0.8157261500979212,0.912532757245767
1789141119432795100,3.584795166015625,0.2712084038031084,-1.214515533677963,0.08922795667940434
1789141119442767000,3.59476708984375,-0.1668107306631334,-1.2205897888287887,-0.429020835824838
1789141119452739000,3.604739013671875,0.04102200291921323,-0.8717958296702053,0.9550454153962832
1789141119462712000,3.614712158203125,1.5284181888873232,-0.4104760610222027,0.10078737284760989
1789141119472684000,3.62468408203125,2.3117059879206905,0.7107281082809046,0.46976887640545045
1789141119482656000,3.634656005859375,0.9752226345255741,0.9631193754253251,-0.07828424205521951
1789141119492629000,3.64462890625,-0.5151072496267002,1.1619272031713719,-0.19754798805899573
1789141119502601200,3.654601318359375,0.4256577337407733,0.7832263065360908,-1.307697761483783
1789141119512574200,3.66457421875,-0.37626979261689963,1.1857048435520319,-0.07614459180002875
1789141119522546200,3.674546142578125,-0.61293190499187,0.5758520844563885,-0.22650926124535734
1789141119532518100,3.68451806640625,-1.0076068153058353,-0.613146410277966,0.29045601965033335
1789141119542491100,3.6944912109375,-0.06137191997226207,-0.8501825378374128,0.6405227125019594
1789141119552463000,3.704463134765625,-0.5701617343415398,-0.9195463187625399,0.23984952473848228
1789141119562435000,3.71443505859375,0.5989347554768323,-0.6538512045362368,0.657141236741414
1789141119572408300,3.724408203125,-0.33729807150467916,-0.5651548826302166,-0.5808994747509781
1789141119582380000,3.734380126953125,-0.24095913021795096,-0.5698006470482678,-0.1539154410514689
1789141119592353000,3.74435302734375,-0.3100496612781329,-0.11254785876479062,-0.14284854745061373
1789141119602325200,3.7543251953125,0.7456125960410288,0.39720525848689087,-0.6801336704184986
1789141119612297000,3.764296875,-0.6089915342991066,0.53485958322774,-0.9022586772723941
1789141119622270200,3.774270263671875,0.13038145231650816,0.13410841965203313,-0.5336226229946764
1789141119632242200,3.7842421875,1.0155855996164482,0.16287082890397253,-0.7453877649130373
1789141119642214100,3.794214111328125,0.3968715454834097,0.03156454593036934,-1.0062021462931405
1789141119652187100,3.804187255859375,-0.3550944298304391,-0.05558515319592069,-0.32939084922992184
1789141119662159000,3.8141591796875,-0.4915561635358576,-0.0577524053034697,-0.05321776923822527
1789141119672132000,3.824132080078125,-0.6821682476173534,-0.12104785945030916,0.37530857170504167
1789141119682104000,3.83410400390625,-1.4556077352516474,-0.2735358862340606,-0.18427602106686963
1789141119692076300,3.844076171875,-0.47516236067995193,-0.08835362690206722,0.6857639803323278
1789141119702049000,3.854049072265625,-0.1945616622771597,-0.49201989131397944,0.13120754487469125
1789141119712021000,3.86402099609375,-0.3209437564429274,-0.3331799076645969,0.6082125135344739
1789141119721993200,3.8739931640625,-0.5566025431205659,-0.8097838316390481,0.22257868110400802
1789141119731966000,3.883966064453125,-0.6214856907875279,-0.3298422368542094,0.29691818249757496
1789141119741938200,3.893938232421875,-0.2886089453259757,-0.15966411488582993,0.2940433661793645
1789141119751911200,3.9039111328125,-0.3454875714899839,0.40078160003232594,0.17719562333556035
1789141119761883100,3.913883056640625,0.14548335351536176,0.3429221518169277,-0.9543341707175015
1789141119771855000,3.923855224609375,0.3454821152812636,0.4764745881070168,-0.5292436827827754
1789141119781828000,3.933828125,0.09502298591288773,0.3352890719017911,-1.2879226348990978
1789141119791800000,3.943800048828125,-1.85924184587181,0.7457838330804938,-0.8330519607151944
1789141119801772000,3.95377197265625,0.9504852546227218,0.3973327584717814,-1.7973061684204872
1789141119811745300,3.963745361328125,0.2898896908348987,-0.0395311225753714,-1.09843818908922
1789141119821717000,3.973717041015625,-0.021730590683587223,-0.24831101903670882,-2.0311695458478374
1789141119831690000,3.98368994140625,0.02917852600709973,0.05989910820006988,-1.8015359929850272
1789141119841662200,3.993662109375,0.030103756083664866,0.059762395154336734,-1.808546701666596
1789141119851634000,4.003634033203125,0.39738244374190645,0.20432246992810177,-1.404929366612553
1789141119861607200,4.013607177734375,-0.20914333118055953,0.40332019025806876,-0.8588095815082324
1789141119871579100,4.0235791015625,-0.5499151246910501,0.08824936727835311,-0.6677122130276517
1789141119881551000,4.033551025390625,-0.05536684770942789,-0.17134588725840388,-0.5768788507255128
1789141119891524000,4.043524169921875,0.00758592854594308,-0.3482578599440199,-0.4921639206431996
1789141119901496000,4.05349609375,-0.07426162864935058,-0.4660477923696495,0.21148324826218423
1789141119911469000,4.063468994140625,-0.9123758136541735,-0.6456438501868865,-0.9139167247065655
1789141119921441000,4.07344091796875,-0.3011994561499598,-0.9238528840683016,0.5783021929491247
1789141119931413200,4.083413330078125,0.9129240128015355,-1.3375761769540733,0.6228531902399663
1789141119941386000,4.093385986328125,0.0412455760821943,-0.6567365452269047,-0.33938144735664894
1789141119951358000,4.10335791015625,-0.9700674999815146,-0.08656787918782813,0.7364242570622301
1789141119961330200,4.113330078125,0.9656964037809276,-0.0011707649448434426,1.57257852252142
1789141119971303000,4.123302978515625,1.5269574956793355,0.2550894517530871,0.4673734047279272
1789141119981275100,4.133275146484375,0.7299492760015843,0.5377450045265326,1.0508674608177029
1789141119991248100,4.143248046875,0.6202551943073353,0.5619670093525724,0.677135604710914
1789141120001220000,4.15322021484375,0.9583234000971754,0.5867299383435205,0.248807952900889
1789141120011192000,4.163192138671875,-0.7297828518475277,0.7036686808433522,0.5407511329236646
1789141120021165000,4.1731650390625,-0.02983313554336525,0.2278389903121178,0.4896088793523879
1789141120031137000,4.183136962890625,-0.29425193169513375,0.14914560968069107,0.3036661827275461
1789141120041109000,4.19310888671875,-1.3801991298961953,-0.5346995873972887,0.8696550946507385
1789141120051082200,4.203082275390625,-0.4978078642386684,-1.2692157737150351,-0.02926001945874959
1789141120061054000,4.213053955078125,0.6779784589765564,-0.7871039102113285,0.10046870168634457
1789141120071026200,4.223026123046875,-0.6980223474903772,-0.24197051778413456,0.13585008733271797
1789141120080999200,4.232999267578125,-0.03492018930426083,0.27187922705259987,-0.5286934822437516
1789141120090971000,4.242970947265625,0.024076506805706117,0.25593054611492305,-0.07681341187911948
1789141120100944100,4.252944091796875,0.8269237341634639,0.8433031399730122,-0.031157743598606635
1789141120110916000,4.262916015625,0.07298090754276063,0.9271701033047242,0.3684007017599523
1789141120120888000,4.27288818359375,0.8641504398786085,0.4820249262248056,0.5407588420482522
1789141120130861000,4.282861083984375,0.6242294952345352,0.18635920188882138,0.12344397675347459
1789141120140833000,4.2928330078125,0.4665129647354587,-0.23253156335882297,-1.258325223075985
1789141120150805500,4.302805419921875,0.5158493050048585,-0.5830725708808359,0.12155567225695889
1789141120160778500,4.312778564453125,-1.3756062939042182,-1.0088625214099989,-0.43848952680248005
1789141120170750700,4.322750732421875,-0.27103994669655396,-0.8382715636309175,-0.6688060514409057
1789141120180723700,4.3327236328125,-0.16053780436823542,-0.95168446682649,-0.07684649570531953
1789141120190695400,4.3426953125,0.28228700697710585,-0.2950569339608954,-0.35343271514093483
1789141120200667600,4.352667724609375,0.5337830793816897,-0.16386430791788478,-0.4226961062662069
1789141120210640600,4.362640625,0.5319673620772191,-0.16374841172340088,-0.4142031095828003
1789141120220612600,4.372612548828125,0.783768830705936,0.699668828933016,-0.5090859087330863
1789141120230584600,4.38258447265625,0.2945244513222903,0.6361205807531861,-0.05957262940449668
1789141120240557600,4.3925576171875,-0.09289016737034417,0.09545829164518992,0.5683739566303788
1789141120250529500,4.402529541015625,-0.851621142442426,-0.03817232187645802,0.8922523544556715
1789141120260502500,4.41250244140625,-1.327922900000554,-0.75304800676876,0.711029620622228
1789141120270474800,4.422474853515625,-0.6077229412585765,-0.9793598536563207,0.5971135798236006
1789141120280446500,4.432446533203125,-0.7583114858877749,-0.3325818188577468,1.161514889597626
1789141120290419500,4.44241943359375,-0.9159767220275759,0.26235887839135924,0.6942302319616223
1789141120300391700,4.4523916015625,0.2357883627302466,0.37158056893826497,0.4544659787481393
1789141120310363600,4.46236376953125,0.8981541971836544,0.42184521076125375,0.2448804488557565
1789141120320336600,4.472336669921875,0.033499668608544544,0.5877407450428325,1.0186661508314727
1789141120330308600,4.48230859375,-0.6134288832158636,0.2917675755399622,0.780935160921235
1789141120340281600,4.492281494140625,-1.2816751160852586,0.06090753187327496,0.4338657042322854
1789141120350253600,4.502253662109375,-1.1063412579555183,-0.023692414779716977,0.7522548233815906
1789141120360225800,4.512225830078125,-1.224902375177461,-0.37519682966048074,0.725923985205837
1789141120370198500,4.522198486328125,-1.1001911629334051,-0.5579086697612702,-0.22398925042332135
1789141120380170500,4.53217041015625,-0.5429825237646444,-0.039428606920217296,-0.32602188419988953
1789141120390142700,4.542142822265625,-0.4447650992839232,-0.1753355501371517,-0.5879011882033585
1789141120400115500,4.552115478515625,0.14033409364071103,0.17494925037330186,-0.9396083047894995
1789141120410087700,4.562087646484375,0.76055808929581,0.18618452733311786,-0.6610799120812177
1789141120420060700,4.572060791015625,1.6799158106408578,0.3248464572547086,-0.40222402858198447
1789141120430032400,4.582032470703125,0.7559583038759538,-0.24433349167004872,0.27884427931871797
1789141120440004600,4.592004638671875,0.2864989480095446,-0.42657592907877007,0.0003109311652314062
1789141120449977600,4.6019775390625,-0.7022420954342936,-0.41644246487569775,-0.41279522040784244
1789141120459949600,4.611949462890625,-0.7005039062807749,-0.4166157861627588,-0.3993592553346934
1789141120469921500,4.621921630859375,0.354750923858222,0.1252736858262893,0.9865479676252616
1789141120479894500,4.63189453125,0.3321361791127968,-0.5431726885536987,-0.06959177441426335
1789141120489866500,4.641866455078125,0.38788324441310507,-0.14509131206681253,0.7404344973475713
1789141120499839500,4.651839599609375,0.3848461429815667,0.13380229588774012,-0.17142977010479055
1789141120509811700,4.661811767578125,0.38150679543174576,0.13364889565976612,-0.16339098966792706
1789141120519783400,4.671783447265625,1.0874218199312469,-0.05890092818005252,1.650192241035672
1789141120529756700,4.681756591796875,0.6010960426868811,0.4043902326359629,1.485125409575395
1789141120539728600,4.691728759765625,0.22969885574497834,0.22663028559762843,0.2805946125193483
1789141120549700600,4.70170068359375,-0.48181299255023763,0.5681017750377855,1.0793536870551852
1789141120559673600,4.711673583984375,0.14944518421973665,1.0400071547843157,-0.37829231425608495
1789141120569645600,4.7216455078125,0.9414127547811781,0.9167713799605878,0.030863441262229556
1789141120579618800,4.731618896484375,-1.1749741845439958,0.16575561999703492,-0.17047534069693512
1789141120589590500,4.741590576171875,-0.6198758667748976,-0.35614131748269406,-0.2630192398696092
1789141120599562800,4.751562744140625,-0.31237019942348765,-1.035233894245727,-0.18830251519303037
1789141120609535700,4.76153564453125,0.3769570212413263,-0.8372194395792083,-0.6985470092025979
1789141120619507500,4.771507568359375,0.21691379197013644,0.002344219489247425,-1.3044444134805393
1789141120629479700,4.781479736328125,-0.5677260055475863,-0.23487122963255916,-1.9339416493732386
1789141120639452700,4.79145263671875,0.8670026791125471,-0.24454396816555946,-0.35631910939973716
1789141120649424600,4.801424560546875,2.2720299749663035,0.5062733912802362,-1.8082012272883532
1789141120659396600,4.811396728515625,0.4282280773152775,1.2138301008935004,-0.8419212288057661
1789141120669369600,4.82136962890625,0.10448218150451294,0.5044523913753182,-0.3339478885620714
1789141120679341600,4.831341552734375,0.2324036698175899,-0.07028650929804015,-0.020060892147415472
1789141120689314600,4.841314453125,-0.9359300164210067,-0.6155603913877694,0.35304023384221345
1789141120699286800,4.851286865234375,-1.8532115399749767,-0.8940793170528015,0.23337739575618213
1789141120709258500,4.861258544921875,-1.8497351791302439,-0.8941499314354686,0.23657633954836066
1789141120719231500,4.8712314453125,-0.46363798741910217,-1.3727969850604744,0.5850627425204983
1789141120729203700,4.88120361328125,-0.7888390578384632,-0.7846082570772742,-0.1508835332253567
1789141120739175700,4.89117578125,-1.305161694228154,-0.3670621519339922,0.2800308510416649
1789141120749148700,4.901148681640625,1.18752695230512,0.08575846820211558,1.0487281621925535
1789141120759120600,4.91112060546875,1.5750152235649835,1.1070318946626183,1.3527874071752717
1789141120769093600,4.92109375,1.071590696724585,0.8328536248906796,0.6362293357241887
1789141120779065600,4.931065673828125,0.8630215474026259,0.5901403619775049,1.3597678238668864
1789141120789037800,4.941037841796875,0.2971228312480168,0.27548177184866773,0.7184664659888976
1789141120799010600,4.951010498046875,-2.160532678143346,-0.34416597183868164,-0.171889643934144
1789141120808982500,4.960982421875,-2.7876584834987956,-0.6199210141021786,0.2381160600599714
1789141120818954800,4.970954833984375,-1.1382844200072788,-0.9165498356013817,-0.4648339041232634
1789141120828927500,4.980927490234375,-0.9026891668612402,-0.4966070317977538,-0.6934524775056774
1789141120838899700,4.990899658203125,-0.636275635687746,0.19153661927073692,-0.5316696564553199
1789141120848872700,5.000872802734375,1.0525902161325555,0.6821644070910539,-0.8056917294173357
1789141120858844400,5.010844482421875,2.420545428353765,0.6683717113520967,-1.2157564566576036
1789141120868816600,5.020816650390625,1.1592705677195247,0.9257666056390832,-0.4619159439989966
1789141120878789600,5.03078955078125,-0.32938340500991176,1.0142434693218163,-0.5791315476011725
1789141120888761600,5.04076171875,0.3566339445941679,0.6373380951016812,0.23431305670310126
1789141120898733600,5.050733642578125,0.682062044395742,0.4719496540075096,-0.38473386431146
1789141120908706600,5.06070654296875,-0.4152743409203072,0.34602837158584576,-0.07173421101367163
1789141120918678500,5.070678466796875,-1.5775449753198874,-0.03762599071107452,0.4620636569665877
1789141120928651500,5.080651611328125,-0.3398733558888824,-0.14639686891368606,-0.8567890821753781
1789141120938623700,5.090623779296875,-1.0848924514908955,0.18850064847883796,-0.04751048213971331
1789141120948595500,5.100595458984375,-0.9802074123475701,-0.8389274689536211,0.7019697681667058
1789141120958568400,5.110568359375,-0.9810109332437775,-0.8391192231366182,0.7088284762315165
1789141120968540700,5.120540771484375,-0.4064216911764186,-1.4956034240322973,0.766942830008468
1789141120978512600,5.1305126953125,-0.0298009166228542,-0.8071693591656486,1.7910407428353412
1789141120988485600,5.140485595703125,1.679695902094407,0.4246344625934382,1.017017180445885
1789141120998457600,5.15045751953125,0.621935565339469,0.7966796070579193,1.3729665784711766
1789141121008429600,5.1604296875,0.7632184935379531,1.1590225498929168,1.5618640546098552
1789141121018402600,5.170402587890625,0.8107927694746796,0.5298848834218087,0.9730075150203001
1789141121028374800,5.180374755859375,-0.02319298762824261,0.7514062480062457,1.0748207738464701
1789141121038347500,5.190347412109375,-0.38530026017360863,1.1417098831282526,0.9878633188301812
1789141121048319500,5.200319580078125,-0.48331475274736563,-0.053677644236227215,0.04921368289041755
1789141121058291700,5.210291748046875,-0.6555826174338498,-0.6786927259151485,0.5083439293612716
1789141121068264400,5.220264404296875,0.0001361877222294243,-1.2260776347980444,0.34447586763788607
1789141121078236700,5.230236572265625,1.5339927415150179,-1.9842547548191463,-0.7712013302644869
1789141121088208600,5.240208740234375,-1.1265833067748476,-0.7833177592738566,0.4795362393518264
1789141121098181400,5.250181396484375,-0.8490126993897051,-0.7676239175681258,0.16608609712978156
1789141121108153600,5.260153564453125,1.085103572006634,-0.1546650677814542,0.2535062638135897
1789141121118126600,5.270126708984375,0.80091218492209,1.6273763275256896,0.1970469990027596
1789141121128098600,5.2800986328125,0.35218682634032294,1.1254650139923068,0.2853300384551653
1789141121138070500,5.290070556640625,1.5488952267056144,0.19318480634788368,0.6801684669232115
1789141121148043000,5.30004296875,0.5276839750405378,0.3594437708215488,0.7330093163291564
1789141121158014700,5.3100146484375,-0.5371744626843427,-0.2737034610395867,0.6975270263798253
1789141121167987000,5.319987060546875,0.10346505885658834,-0.027881567524713526,0.0940078328223576
1789141121177960000,5.3299599609375,0.10598622216247645,-0.027709565073244527,0.08839189987110588
1789141121187932000,5.339931884765625,-1.1254272089666715,0.2613722803604019,-0.4398618022601751
1789141121197905000,5.34990478515625,-0.5383798424135324,-0.41296318414455113,-0.2106254140739197
1789141121207876900,5.359876953125,-0.5427948370857071,-0.4127031222950976,-0.21961537231419656
1789141121217848800,5.369848876953125,-0.541309091059296,-0.5295283933830375,0.23153565519946476
1789141121227821800,5.37982177734375,0.2932160831722357,-0.6940919663104591,-0.0759662154557626
1789141121237794000,5.3897939453125,0.4665967631432929,0.2508271670605948,0.08379982436337546
1789141121247765800,5.399765869140625,0.2912718614149323,0.7241654567958157,0.47075599871469886
1789141121257738800,5.40973876953125,0.5703531363934798,0.1539171523592348,0.38485708493053955
1789141121267711000,5.4197109375,1.2555718676911183,0.19286403239036165,-0.2634876765413199
1789141121277684000,5.42968408203125,0.7714469008582472,0.002205350434728831,0.3339562960199937
1789141121287656000,5.439656005859375,0.7740550786747412,0.002413094651221233,0.3235962035074893
1789141121297628000,5.4496279296875,0.6674321471369594,-0.38026669064093027,-0.8741934309989613
1789141121307601000,5.459600830078125,-0.17578278140462714,-0.3011233533396208,-0.6845103393129668
1789141121317572900,5.46957275390625,-1.4943087623327265,-0.4827915752692587,-0.3993444362661291
1789141121327544800,5.479544921875,-0.35978417063211293,-0.9219326864448246,0.3849515259565903
1789141121337518000,5.48951806640625,0.585465117048977,-1.4417165268330618,0.3811236734399813
1789141121347489800,5.49948974609375,-0.7951965208650301,-1.0642813378265152,0.32408870485582536
1789141121357462000,5.5094619140625,0.6967940483703023,-0.4520373446406101,0.5817769951069557
1789141121367435000,5.51943505859375,1.4618920464730947,0.7852691443613969,0.11419130640233424
1789141121377406700,5.52940673828125,0.6082002075785693,1.50939751763515,0.3739310947683278
1789141121387380000,5.5393798828125,-0.19002895137188577,1.9104203028823,0.7108813005541469
1789141121397352000,5.54935205078125,0.4538548278711983,1.3574488336145827,0.4592499381018373
1789141121407324000,5.559323974609375,-0.9615599989707267,0.8974888076290141,1.1551602097737181
1789141121417297000,5.569296875,-1.6340473013958507,-0.6965924764693258,0.12230503625897403
1789141121427268900,5.579268798828125,-2.164471265049358,-1.2841741517919074,0.28550269403040324
1789141121437240800,5.58924072265625,-1.7143371998881145,-1.7542094710447083,0.01896512791916776
1789141121447213800,5.5992138671875,-0.8949816459715256,-1.1644026925024058,-0.32255621956701985
1789141121457186000,5.60918603515625,-0.6234346757043363,-0.24196472765074595,0.45739707796961365
1789141121467158800,5.61915869140625,-0.46293681547388976,0.22334285770268322,0.06813615983293836
1789141121477131000,5.629131103515625,-0.59018060161736,0.3002620329460866,-0.5140860626779333
1789141121487103000,5.63910302734375,1.267804384871938,0.5261338214590489,0.5085689256413579
1789141121497075700,5.64907568359375,-0.4313050523552612,0.5008731436846505,0.2823674015308656
1789141121507048000,5.6590478515625,-1.1424886028975327,0.7385623696910326,-0.6609783956567313
1789141121517020000,5.66902001953125,-0.005439908667146242,0.3073568788679509,0.0028079734963509335
1789141121526993000,5.678992919921875,0.5375025917501546,0.060008990053465515,-1.1610716542441764
1789141121536964900,5.68896484375,-1.148667263384641,0.24789700656859728,-1.1604037008613661
1789141121546937900,5.698937744140625,-0.6912118941444433,-0.10152289286408708,-1.0110156516797537
1789141121556909800,5.708909912109375,0.5291983871295438,0.20452581015606072,-0.09657505995535967
1789141121566881800,5.7188818359375,-0.2583802012156343,0.003694117016061168,-0.1757557173417688
1789141121576855000,5.72885498046875,0.042803506727681705,0.173889058871524,-0.19792476145498183
1789141121586826800,5.73882666015625,0.6183507442481132,-0.2540849404662611,-0.40097460198871815
1789141121596799000,5.748799072265625,0.3730131548521093,-0.6067044542707128,0.25752431668061276
1789141121606772000,5.75877197265625,0.5548757039094949,-0.7883186430134861,-0.23978499116679322
1789141121616743700,5.76874365234375,-0.6543335138529164,-0.4015793034304466,-0.12348936803391203
1789141121626716000,5.7787158203125,-0.25819941207767966,-0.6082930205089035,0.7148421669619545
1789141121636689000,5.78868896484375,0.24473615957967204,-0.09637915682849527,0.5890334938301006
1789141121646660900,5.798660888671875,0.03551935063842877,0.6695777051501809,0.21642758144354088
1789141121656633900,5.8086337890625,1.4910914525931886,0.729995189268844,0.19271291367947094
1789141121666605800,5.818605712890625,2.5183974648369403,1.4305803463767433,0.23774826450274736
1789141121676577800,5.828577880859375,1.1859712115146563,1.2539230533071777,0.03267688270909778
1789141121686550800,5.83855078125,0.7081337890777059,0.171287207131521,-0.04626721923114431
1789141121696523000,5.84852294921875,0.25446576540873755,-0.8062667566466718,0.5250402944387007
1789141121706494700,5.85849462890625,-1.8513421278713362,-1.6926657894047195,0.524839467359997
1789141121716468000,5.868468017578125,-1.4002445540249342,-1.8493119803342393,1.019260575660865
1789141121726440000,5.87843994140625,-0.7646587519202307,-1.1986939138482062,-0.09155312705924226
1789141121736413000,5.888412841796875,0.021065875547704144,-0.4482069185160441,-0.09039690761206244
1789141121746385000,5.898385009765625,-0.02929414803117734,0.011151859790110729,-0.597126157124158
1789141121756356900,5.90835693359375,1.3276737965376202,1.0790842500021456,-0.34929790862622045
1789141121766329900,5.918329833984375,1.8043185713748695,1.283370616450585,-0.8706256902222205
1789141121776301800,5.9283017578125,0.42002755161157124,1.1127393947074937,0.27904873942041925
1789141121786274000,5.938274169921875,0.4208014083273386,1.1127341366462835,0.27340117488688226
1789141121796246800,5.948246826171875,0.920474777618149,0.09110383542800914,0.8955202563988817
1789141121806218800,5.95821875,-0.5218473515900494,-0.9017403329173105,-0.6653560332066791
1789141121816192000,5.96819189453125,-1.716313667543886,-1.2612890045915255,-0.3864017914809986
1789141121826163700,5.978163818359375,-0.7949494316865346,-1.6372887522098534,-0.910166255536448
1789141121836136000,5.988135986328125,0.016868330901272214,-0.9639504040385763,-1.1430931874957573
1789141121846109000,5.99810888671875,0.01434834758690646,-0.963948914652534,-1.141903784972645
1789141121856081000,6.008080810546875,0.008777086252989024,0.06534395000457292,-0.3358222535664654
1789141121866052900,6.018052978515625,0.787502322273516,0.48893923747961077,-0.032090013279038765
1789141121876025900,6.02802587890625,2.4563554179943545,1.1665277732468557,0.31107582983275933
1789141121885997800,6.037997802734375,0.9281522998482078,0.94902069974352,-0.06196475266146115
1789141121895969800,6.0479697265625,-0.001818416505074827,0.46881099217563293,-0.5842945216396238
1789141121905943000,6.057943115234375,-0.7396670409956791,-0.3223927291673135,0.4025919978767616
1789141121915914800,6.067914794921875,-0.9536009158635589,-0.3063738940318809,0.055929295594791525
1789141121925887700,6.0778876953125,-0.15945494765273413,0.017862010591490746,0.07721210121210073
1789141121935860000,6.08785986328125,-1.6798817506964674,0.03946695079765968,-0.2536392994464326
1789141121945831700,6.097831787109375,-0.8182382332564532,0.1327857341331559,0.3643462314886175
1789141121955805000,6.107804931640625,0.4619565669719754,0.0914549846275599,-0.23959973628872466
1789141121965777000,6.11777685546875,1.4469910829972201,-0.11991359347409707,-0.6381880578521784
1789141121975748900,6.127748779296875,0.3746230061792888,-0.34420026472158227,0.258212310721925
1789141121985721900,6.137721923828125,-1.02668185173682,-0.05109897565342849,0.34853900528750426
1789141121995693800,6.14769384765625,-1.4692676331559742,-0.34751868499616945,0.5066693532366398
1789141122005667000,6.1576669921875,-0.015768422394801113,-0.28281949138594414,0.8262443620097214
1789141122015638800,6.167638671875,-1.3920527337601236,-0.31613072175594303,0.24098965668412498
1789141122025611000,6.177611083984375,-1.6322235314679994,0.23089862889147514,-0.26680543406667023
1789141122035584000,6.187583984375,0.7359318115119623,0.19091842205879747,0.47722806744082147
1789141122045555700,6.1975556640625,0.7160788940871348,0.9887386508912053,0.5088890826936058
1789141122055528000,6.20752783203125,0.7740369402423737,0.7411286419150147,0.3618383867493791
1789141122065501000,6.2175009765625,0.2140432192901581,1.125366545663436,0.0054394048785802295
1789141122075473000,6.227472900390625,-0.08474709221894663,0.639491975770186,-0.6009169856938903
1789141122085446000,6.23744580078125,0.1450292740001287,-0.22588988260772191,-0.2033924228500433
1789141122095417900,6.24741796875,-0.17219726181250605,-0.9213834406497549,-0.7258619255873227
1789141122105389800,6.257389892578125,-0.8999467765715614,-1.2532777020835246,-0.4478732021869825
1789141122115362800,6.26736279296875,-0.35328988650840837,-1.1978131391263593,-0.8137483621256463
1789141122125335000,6.2773349609375,-0.20535679350259767,0.07853879716274502,-0.7770878889542933
1789141122135306800,6.287306640625,-0.33332408882215486,0.16208879988103145,-1.0833117564835306
1789141122145279700,6.29727978515625,0.8482862228595006,0.18910657375180154,-0.6721391668272213
1789141122155251700,6.307251708984375,0.344682834072125,0.9036113317182418,-0.9621676845081434
1789141122165223700,6.3172236328125,0.5948778756811679,0.30482492057171595,-0.5414103291774988
1789141122175196700,6.32719677734375,1.3762249810785112,0.45595893735836124,-0.2561819923218217
1789141122185168600,6.337168701171875,0.5997231601108369,0.3149401069052395,-0.6067265187529582
1789141122195142000,6.347141845703125,-0.16031712777136659,-0.6566381519150416,-0.10122919471904733
1789141122205113600,6.357113525390625,0.3102671654466393,0.13289294585968195,0.0015058850846155374
1789141122215085800,6.3670859375,-0.7247325323527812,0.3675706023127171,0.04887483300916281
1789141122225058800,6.377058837890625,-1.0823523393102534,-0.588889222177882,-0.10772890431268117
1789141122235030500,6.387030517578125,-0.8039680655724836,0.06770160439813863,0.22917459223941433
1789141122245002800,6.397002685546875,-0.2492260061086789,-0.4579706575860427,0.05515321620610777
1789141122254975700,6.406975830078125,-0.09081895588662939,-1.1347471116655286,0.11703651003604063
1789141122264947700,6.41694775390625,0.023057797645792685,-0.564773648678577,0.05395396314623452
1789141122274920700,6.426920654296875,-0.8136826014283555,-0.6695205263674241,0.04801960485754214
1789141122284892700,6.436892578125,-0.8184081156028393,-0.6697655875797525,0.036431045103335835
1789141122294864600,6.44686474609375,0.6040378866207208,0.5810572980988513,0.2579372194527252
1789141122304837600,6.456837646484375,0.7908689684498862,0.26864724816874863,0.11597720421948285
1789141122314809900,6.466809814453125,0.4775012928762343,0.08558665614910876,0.197586611733586
1789141122324781600,6.476781494140625,0.10083295186252855,0.40956788470601635,0.2154965946589673
1789141122334754800,6.4867548828125,-0.6006853747899623,0.0127084223197002,-0.31328970389475896
1789141122344726800,6.496726806640625,-0.6994036657933907,-0.6829970597301377,-0.9467431697327979
1789141122354699500,6.506699462890625,0.21978984132925342,-0.45928837486423063,-0.32051588305458506
1789141122364671700,6.516671630859375,0.022820486401779683,-0.8699248356949177,0.26566085087988783
1789141122374643700,6.526643798828125,0.16216156317779684,-0.7867866967432908,-0.194216391093024
1789141122384616700,6.53661669921875,-0.000570212636610586,-0.353355627211838,-0.12974541866745762
1789141122394588700,6.546588623046875,0.3696621157353626,0.33782230365103777,0.4914754028548382
1789141122404561000,6.556560791015625,0.4243764003264297,0.4490811902157273,0.32887279043625756
1789141122414533600,6.56653369140625,-0.05360354578419546,0.19838915750157626,0.17063781953873056
1789141122424505600,6.576505615234375,-0.07690704819626319,-0.2619823805783629,0.3034277658695201
1789141122434478800,6.586478759765625,1.0751485196169082,0.10425746798908615,0.04904509511565128
1789141122444450600,6.596450439453125,0.22067829130140845,-0.006090697684006754,-0.1641357871257215
1789141122454422800,6.6064228515625,0.3495603108860757,0.04457886105466518,-0.8741409549232428
1789141122464395800,6.616395751953125,0.2787678187845711,-0.36028197212912183,-0.33339150551046015
1789141122474367700,6.62636767578125,1.6268434316349625,-0.29152621437768345,-0.5103542683164132
1789141122484339700,6.636339599609375,0.7118729971679602,-0.6170663254158707,-1.0391505674681445
1789141122494312700,6.646312744140625,-0.2573931549512559,-0.15149899920205104,-0.8440522448812225
1789141122504284700,6.65628466796875,-1.0665866835668392,0.06818039969130182,0.4438352707967659
1789141122514256600,6.666256591796875,-1.0686062370208318,0.06830400735229245,0.4474801329489546
1789141122524230000,6.67622998046875,0.3908028769498608,-0.27188921856139153,0.040525546689215146
1789141122534201600,6.68620166015625,-0.6749601770514113,-0.11424392950463486,-0.2091758259880354
1789141122544174600,6.696174560546875,0.3182939854240269,-0.3170855473369739,-1.1808040071244665
1789141122554146800,6.706146728515625,0.2110072813522235,0.3725765826057638,-0.5371467304447073
1789141122564118500,6.716118408203125,0.1741459847900928,0.9750756161958994,0.17478882878164323
1789141122574091800,6.726091796875,-0.29719225559250645,0.7780739206273828,-0.5170812735283119
1789141122584063700,6.736063720703125,-0.33484222428649174,0.1478261393203974,0.09729616570970263
1789141122594035700,6.74603564453125,-0.5299427389526503,0.5311887515539604,0.5640151646907753
1789141122604008700,6.7560087890625,0.4450089621959277,0.5191575674695728,0.3824162019615725
1789141122613980700,6.765980712890625,0.3611428199467358,0.4875142766283153,0.3168445141069842
1789141122623954000,6.775953857421875,-1.1564193042874045,-0.10603441457294671,0.7255172568598074
1789141122633925600,6.785925537109375,-1.697169958057735,-0.8177589486894039,0.6874351751317654
1789141122643897900,6.79589794921875,-2.0045395736262943,-1.3419781256241936,1.5310047131414335
1789141122653870800,6.805870849609375,-1.459607750099946,-1.5943602883616705,1.2228786289693883
1789141122663842600,6.815842529296875,-0.9746010051320297,-1.2378525206924331,0.892805855070159
1789141122673814800,6.825814697265625,-0.5227408140119659,-0.32215613717891023,0.012715510208843357
1789141122683787800,6.835787841796875,0.9645592700827013,0.4033024705382272,0.4989086146530421
1789141122693759700,6.845759765625,1.9898405178274157,1.0927392010491714,-0.4130661166598889
1789141122703732700,6.855732666015625,1.201367468820619,1.2791229189286677,-0.3396357809378034
1789141122713704700,6.86570458984375,0.2979440748086397,0.3219322563036923,0.15442856410602732
1789141122723676700,6.8756767578125,-0.5267089258966082,0.04149627700408273,0.0643305143886428
1789141122733649700,6.885649658203125,-1.477323628315546,0.018189056251914547,0.5031771331262249
1789141122743622000,6.895621826171875,-0.9169607130344293,-0.5293839562832434,0.015112393779947988
1789141122753593600,6.905593505859375,-0.41661593724711127,-0.17051577274965343,-0.9631289752569977
1789141122763566800,6.91556689453125,-0.26050877087375196,-0.14404799484084096,-0.9272653800701963
1789141122773538800,6.925538818359375,0.8817621952246132,0.18340788780568915,-0.9888087512130824
1789141122783510800,6.9355107421875,0.9285875390096757,1.0063858273376574,-0.8446240834639137
1789141122793483800,6.94548388671875,1.032338869027824,0.7533578348083627,-0.620414204835084
1789141122803455700,6.955455810546875,0.9332238744794982,0.42935622595917433,0.21731428522506097
1789141122813428700,6.9654287109375,-0.035517017046569996,1.0564120674687627,0.6139995799567333
1789141122823400700,6.975400634765625,0.2568243485673097,0.14857386354644944,0.37753899213886977
1789141122833373000,6.985373046875,0.19322604733191942,-0.8747888849467897,0.6375437276326208
1789141122843345700,6.995345703125,-1.3324128058506008,-1.1633464329863388,0.31535279732242916
1789141122853317600,7.005317626953125,-1.389940625090341,-1.3355473277180225,0.12775603539999525
1789141122863289900,7.015289794921875,0.33343016845182794,-1.0058579200924125,0.5056369865786622
1789141122873262600,7.0252626953125,-0.011327083034377874,0.18445990369649296,0.2776961389953267
1789141122883234800,7.03523486328125,-0.009842017588682967,0.5080940557147815,-0.12827281790639822
1789141122893207800,7.045207763671875,0.786695316290021,0.2997635416790879,0.9648506591819547
1789141122903179500,7.055179443359375,1.3595505756886153,1.3933176102831841,0.6405049503146901
1789141122913151700,7.06515185546875,1.4960863829467652,1.3285741562301816,0.6612759311821657
1789141122923124700,7.075124755859375,1.74008675705695,0.34325854566986824,0.7375894726627719
1789141122933096700,7.0850966796875,0.6594726214143956,0.370175202767852,1.3586155542211964
1789141122943068700,7.095068603515625,-0.9277993330626662,0.38572349960480895,-0.3351688715173027
1789141122953041700,7.105041748046875,-1.4236577221842253,-0.07830943460534721,-0.6612408553304177
1789141122963013600,7.115013671875,-0.6846588371601644,-0.49137573065611345,-0.1000463290347287
1789141122972986600,7.124986572265625,-1.0443787217984102,-0.8986051489995561,-0.5021457034950254
1789141122982958800,7.134958740234375,-1.1060373448729177,-1.0054826884117716,-1.4879803173781478
1789141122992930600,7.1449306640625,0.9423762704754927,-1.2298791009430037,-0.29319595865597087
1789141123002903800,7.15490380859375,0.8832011120815567,-1.5876917911819977,-0.7438893016356362
1789141123012875800,7.164875732421875,-0.07875195882444169,-0.4900795385388559,-0.40233332856034654
1789141123022847700,7.17484765625,-0.652484502593386,0.30290282292448706,0.07330098552631951
1789141123032820700,7.18482080078125,-0.11993583554382968,0.45486508578156887,-0.6639022124514408
1789141123042792700,7.194792724609375,-0.9102531550780161,0.23173408503295848,-0.6460055999921146
1789141123052764700,7.2047646484375,-0.9951714094474513,-0.18213708281449592,-0.6566310804561855
1789141123062737700,7.214737548828125,-0.44464132131081185,-0.38766498316471426,-0.519797787074191
1789141123072710000,7.2247099609375,0.9122021425961634,0.31235646251061994,-0.015425734778282702
1789141123082682600,7.2346826171875,0.7256025270010028,0.8821927497213401,0.2429390524376793
1789141123092654600,7.244654541015625,1.4784204237306433,1.4203231129254987,-0.020119689933169264
1789141123102626800,7.254626708984375,1.1340084171502358,1.086888283751377,0.3149408219546868
1789141123112599600,7.264599609375,0.2622789904000238,0.6476184623501716,0.48308042795322953
1789141123122571800,7.27457177734375,-0.11766508150482093,-0.12851040383698226,0.6769488806620697
1789141123132543700,7.284543701171875,-1.4980273113361748,-1.1227528977025059,1.004375206889389
1789141123142516700,7.294516845703125,-2.5441479890945145,-1.7935560886466688,0.7759233366451259
1789141123152488700,7.30448876953125,-1.8113071949281436,-1.5512262275848294,0.6933309487747388
1789141123162461400,7.31446142578125,0.20414237668376833,-0.7171417508076479,0.40468660539838414
1789141123172433700,7.32443359375,-0.2183744019014026,-0.11018990767586696,0.48912282803159635
1789141123182405600,7.334405517578125,-0.07654419695013939,-0.32444502775644896,0.5687365078767557
1789141123192378600,7.344378662109375,1.0009697807744062,0.2843372871793768,0.6513391689763862
1789141123202350600,7.3543505859375,1.0811951634118027,0.813976704395871,0.49824637123726245
1789141123212322600,7.364322509765625,0.41665362877981504,1.0533099010200881,0.3193423505221905
1789141123222295600,7.374295654296875,0.4890083247824915,0.9543490324748892,0.08099969962201577
1789141123232267500,7.384267578125,-0.2524462092289705,-0.04310671156042888,0.4368862925807473
1789141123242239500,7.394239501953125,1.451091491118617,-0.1475481577066588,-0.22438046633900516
1789141123252212500,7.40421240234375,0.07873991803638052,0.02111012027865409,-0.15261617339796474
1789141123262184700,7.414184814453125,-1.102975890394031,-0.17708284852727746,-0.491361928039481
1789141123272157700,7.42415771484375,-1.4428860645210415,-0.6422700370944341,0.24500073023639607
1789141123282129400,7.43412939453125,-0.21554291979761755,-0.7037862491485022,-0.017005557109892627
1789141123292101600,7.4441015625,-0.6250110931249517,-1.0791045185625634,-0.3469182346206027
1789141123302074600,7.45407470703125,-0.34002953007367315,-0.24677366073778312,-0.5595292091901597
1789141123312046600,7.464046630859375,0.5317534977325868,-0.36006758496072694,-0.5521266637564965
1789141123322018600,7.4740185546875,1.7689271078214546,-0.20697887451728839,-0.6611951037618132
1789141123331991600,7.483991455078125,0.7672945363833005,1.3037618444191796,-0.288489756753862
1789141123341963500,7.493963623046875,1.3236662329498883,0.9826649420682413,-0.23496909206332492
1789141123351936500,7.5039365234375,1.256809370100082,0.6451888693557318,0.4291919082586326
1789141123361908700,7.51390869140625,-0.47123182379213824,0.6413006203157738,0.8247505624641133
1789141123371880400,7.52388037109375,-1.8460338689113756,-0.5504071878495501,0.22589297840209305
1789141123381853700,7.533853759765625,-1.1374231941078694,-1.126149947122428,0.11413986688833269
1789141123391825700,7.54382568359375,1.0250725826400096,-1.2357478979471688,-0.2594978488186945
1789141123401797600,7.553797607421875,0.35640028895066495,-1.1331706197789313,-0.17715686554364699
1789141123411770600,7.5637705078125,0.49272388263084477,-0.14528208001401244,0.5996651359145281
1789141123421742600,7.57374267578125,1.435832993162857,0.6967152550542438,0.3672923958576899
1789141123431715600,7.583715576171875,1.2394349652442307,1.2868743891274548,0.8032232368667452
1789141123441687600,7.5936875,0.5603165207329737,1.317724338782008,1.5846145052689045
1789141123451659800,7.60365966796875,-0.49217534127678014,1.2521015551725996,1.487462768749047
1789141123461632500,7.613632568359375,0.3884630466852326,0.3065770536097481,1.1178531172160158
1789141123471604500,7.6236044921875,0.48867351659138053,-0.5434463321526982,0.6390737927855422
1789141123481576700,7.63357666015625,-0.4706182735610406,-0.835055744083795,0.4386104462469266
1789141123491549400,7.643549560546875,-1.0303367332791995,-0.6403359855887236,1.2084790805308905
1789141123501521700,7.653521728515625,-0.3235056820784514,-0.5003510960978388,0.11834171002646722
1789141123511493600,7.66349365234375,-0.760111806586547,-0.17337047541417244,0.13518885900868663
1789141123521466400,7.67346630859375,-0.5795401991723288,-0.7824489718993528,1.3270641472285905
1789141123531438600,7.6834384765625,-0.4278612498694279,-1.0769425797462235,0.3773267639843649
1789141123541411600,7.69341162109375,-0.17362091018688,-0.08319152584303598,-0.3516524596126736
1789141123551383600,7.703383544921875,0.1381590582896665,-0.1610188479533223,0.5146731092803658
1789141123561355500,7.71335546875,0.0599660664783201,-0.3219803739543666,-0.09207176745346728
1789141123571328500,7.72332861328125,-1.0980649393343467,-0.1544721466163053,-0.29354744442581254
1789141123581300500,7.733300537109375,-0.16046523086845343,-0.5871612117197661,-0.08637987806856322
1789141123591272700,7.743272705078125,0.714984284597104,-0.08674576091953969,-0.36540175613437176
1789141123601245700,7.75324560546875,-0.40752008884205765,0.27538721557298873,-0.6948093057640231
1789141123611217400,7.763217529296875,0.8493176607959728,-0.01706281171136936,-0.5595478580440965
1789141123621190700,7.773190673828125,0.3052850791336095,0.42942519737904356,-0.9930333984514773
1789141123631162600,7.78316259765625,-0.5347898987133587,0.6618817053381163,-1.1692432962097727
1789141123641134600,7.793134521484375,0.7412672920622951,0.11722968681609672,0.010073737467023065
1789141123651107600,7.803107666015625,1.432315476990211,0.14176941450057776,-0.6207839965353209
1789141123661079600,7.81307958984375,0.023176854530147752,0.5299309141747786,-0.5818550276975423
1789141123671051500,7.823051513671875,0.1595563117945827,0.582490934096834,0.01583731140400625
1789141123681024500,7.8330244140625,-0.6782092273608362,0.8349648166660423,0.4170504483729387
1789141123690996700,7.842996826171875,-0.9714824014166474,1.1718749186873954,-0.17177012565737115
1789141123700968400,7.852968505859375,-1.2173676452431486,0.3762846675937061,-0.17210807283948037
1789141123710941400,7.86294140625,-1.2178291889315205,0.37630057234548914,-0.17962468099380974
1789141123720913700,7.87291357421875,-0.21506292819986178,-0.7666024168441968,-0.37420371601624164
1789141123730886700,7.88288671875,-0.3909864235473481,-1.1181568255614995,0.04993219384286811
1789141123740858600,7.892858642578125,0.2624645716559839,-0.9751280240353231,0.30881212699665
1789141123750830600,7.90283056640625,-0.1372116796597807,-0.3235066990640504,0.06597732173482929
1789141123760803600,7.912803466796875,0.18466818367192284,0.20781965389191093,0.7712797982412057
1789141123770775600,7.922775634765625,0.5983787446003841,0.4466339065096444,0.5255087844738008
1789141123780747800,7.932747802734375,0.44676935790262157,0.9238799195057915,0.5796644905000616
1789141123790720800,7.942720703125,0.13188497444697825,0.4214487952600399,0.9994741484788837
1789141123800692500,7.9526923828125,-0.061358978002570334,-0.1641077847423242,0.5869048693371747
1789141123810665700,7.962665771484375,-1.5798498757610826,-0.7783280018850776,0.48265859931926597
1789141123820637700,7.9726376953125,-1.2519983616681396,-0.7364096399051023,0.2723982810679685
1789141123830609700,7.982609619140625,-1.4064320743788932,-1.0193083800475047,0.0065803183926565695
1789141123840582700,7.992582763671875,-0.5426709929691905,-0.9544675111367851,-0.06273275051118615
1789141123850554600,8.0025546875,-0.5447465402998275,-0.9544982548341118,-0.06762174873256684
1789141123860526600,8.012526611328125,0.3410248293006002,-0.015434951233865775,-0.3903728057087738
1789141123870499600,8.02249951171875,1.3105078754899588,-0.000622004511103556,-0.19320075696921554
1789141123880471800,8.032471923828124,0.9602930238226282,0.5776865880808708,0.0756890242679057
1789141123890444500,8.042444580078126,0.05845012282441984,0.5205423524801883,-0.6918068893423213
1789141123900416500,8.05241650390625,-0.5597113071986717,-0.19344882458846996,0.12489019020761712
1789141123910388700,8.062388671875,0.31124973902803765,-0.4731619433889274,-0.07853736527247061
1789141123920361500,8.072361572265624,-1.3159719185634908,-0.4997871595673252,-0.09077178655283054
1789141123930333700,8.082333740234375,-1.2189815692271322,-0.8517841803850927,-0.9164705203721263
1789141123940305700,8.0923056640625,-0.25894941602042454,0.20792071610881874,-0.17907263252999428
1789141123950278400,8.1022783203125,0.4170290528998349,0.2419998374391944,-0.6596739035948683
1789141123960250600,8.112250732421876,0.4113761955738233,0.24199125823312972,-0.6595249624576923
1789141123970223600,8.1222236328125,0.37868152059962695,0.7151421408121686,-0.42305856930731456
1789141123980195600,8.132195556640625,0.9140551844990977,0.2798898341199888,0.1502246409362144
1789141123990167600,8.14216748046875,2.1977592087705453,0.5571601807439174,0.8312477651024124
1789141124000140500,8.152140625,0.8912551254094886,0.7078716884645756,0.4781824943176058
1789141124010112500,8.162112548828125,0.7238016845272371,-0.018583195105745964,0.39324594992290446
1789141124020084700,8.172084716796874,1.088941200192377,0.18832607140544264,0.7841119675993281
1789141124030057700,8.1820576171875,0.10454384536401894,0.5213482830107584,0.12541762762742595
1789141124040029400,8.192029541015625,-0.04655298507610449,0.07073332462027192,-0.4373320474496174
1789141124050001700,8.202001708984374,-0.4789587261191331,-0.05476610962024699,0.105861949688568
1789141124059974700,8.211974609375,-1.3576795714869747,0.4628336956370112,-0.02208097629681555
1789141124069946600,8.221946533203125,0.04891341539631705,-0.27461004994513344,0.5549840163428094
1789141124079919600,8.231919677734375,0.6029981126244325,-0.8753257126735652,0.809217624080122
1789141124089891600,8.2418916015625,-1.614985378324612,-1.0218165008095208,-0.039861280115437256
1789141124099863600,8.251863525390625,-0.40466303657544395,-1.0998970711024647,0.05875013382203782
1789141124109836500,8.26183642578125,0.7900928517047731,-1.0373316786517102,1.3700230144421497
1789141124119808800,8.271808837890624,0.7986974491678036,-0.026304105363933725,0.05798296128489814
1789141124129780500,8.281780517578126,1.7516397400580153,1.1011802708060203,0.3049081432005061
1789141124139753500,8.29175341796875,1.9834157123670244,1.52823169740207,-0.26983372054887483
1789141124149726700,8.301726806640625,0.2727799251597886,1.1323589746482121,0.1748725030133798
1789141124159699700,8.31169970703125,0.6086943557968255,0.6129039512461073,-0.6081485940194199
1789141124169671400,8.32167138671875,-0.6837535194514597,-0.34300038034752967,0.14956529040955133
1789141124179643600,8.3316435546875,-1.463502377108461,-0.8847219327959808,-0.49569914212832306
1789141124189616600,8.34161669921875,-0.8670781802618527,-1.2607506250767537,-0.09536369639575831
1789141124199588600,8.351588623046876,-0.18844609412122776,-1.120189930688961,-0.5955699317053226
1789141124209560600,8.361560546875,-0.18851288328940335,-1.1201924048218177,-0.5934878878612961
1789141124219533600,8.371533447265625,-0.09465958377786429,0.28781722464410503,-0.3228306474805205
1789141124229505500,8.381505615234374,-0.11092125438987913,0.28012007340825956,-0.502463668900033
1789141124239478500,8.391478515625,-0.04966699440724218,-0.05269138362154088,-0.2948380606297955
1789141124249450800,8.40145068359375,-0.11000927180172958,-0.013829194816139749,-0.38690805566042125
1789141124259422500,8.41142236328125,-0.6964773807922572,0.08413654124781322,-0.6831299801172643
1789141124269395700,8.421395751953124,0.03429813473071635,0.27854920614980805,-0.9243883549183675
1789141124279367700,8.43136767578125,-0.80454517001676,0.05343347298989644,-0.2703882879508466
1789141124289339600,8.441339599609375,-1.1097707621863464,0.4095539889900113,0.09188812898885361
1789141124299312600,8.451312744140624,-0.20277133980546724,0.45869696459667864,-0.4620102394522929
1789141124309284600,8.46128466796875,-0.5082318982631866,0.2799090625120068,-0.13226034584820887
1789141124319256600,8.471256591796875,-0.7841782547067246,-0.02203231176703156,0.3100246350132528
1789141124329229600,8.4812294921875,-0.8847969030516776,-0.11543613910131466,0.6687306677060956
1789141124339201800,8.491201904296876,-0.5202053589861374,-0.36047795762826773,-0.16730258778058926
1789141124349174800,8.5011748046875,-0.037612405142384515,-0.13934960445781505,-0.7519282451966361
1789141124359146500,8.511146484375,0.1651182325793698,-0.47591051314662347,-0.2736084677666922
1789141124369118700,8.52111865234375,-0.32165333892878456,-0.5040390575528435,-0.023190609104397547
1789141124379091700,8.531091796875,0.34602143302952637,-0.2898007163891245,0.09858752768716919
1789141124389063700,8.541063720703125,0.10227998766476168,-0.07252456909536803,-0.4352203394747945
1789141124399035600,8.55103564453125,0.3035538532841789,-0.11167217218861118,0.3220910385011771
1789141124409008600,8.561008544921876,-0.14163750939900036,0.3539117957541684,0.6101430872683877
1789141124418980600,8.570980712890625,-1.0231912087486181,0.03174035877042608,0.2047231902172565
1789141124428953600,8.58095361328125,0.1068473740546331,-0.06060534858435767,0.012499314083780667
1789141124438925800,8.59092578125,0.8505940321090655,0.024035014123175543,-0.11735054026646428
1789141124448897500,8.6008974609375,0.01878762991617552,-0.44007267303840414,-0.3721878481935875
1789141124458870500,8.61087060546875,0.017552860586979063,-0.44007379838351474,-0.37033411165387403
1789141124468842800,8.6208427734375,0.5840748466360756,0.2047456205702512,-0.08458343934027503
1789141124478814700,8.630814697265626,0.8721639256259006,-0.2320177339208398,-0.21226164826761504
1789141124488787700,8.64078759765625,0.28805262373940915,0.9016489130908688,0.692155505952495
1789141124498759700,8.650759765625,-0.3596731561044921,0.7854882167322585,0.11777107106883648
1789141124508731600,8.660731689453126,1.9502947043780587,0.1366976146415399,-0.4239295152294263
1789141124518704600,8.67070458984375,1.948888962512748,0.1366909185117782,-0.42057297438454383
1789141124528676900,8.6806767578125,-0.23460501009503662,-0.3176518316454201,-0.20928624399176995
1789141124538649600,8.690649658203125,-0.043475690311602054,-0.6787808115392148,-0.6620315287786102
1789141124548621600,8.70062158203125,0.5642709140684239,-0.16119597973770672,0.8560681397288331
1789141124558593800,8.71059375,0.7035230791139053,-0.8618882358734401,0.10994678612724877
1789141124568566500,8.72056640625,-0.1021014378310171,-0.46559234171177405,0.2608844445807037
1789141124578538800,8.730538818359374,-0.32955477322486737,0.5569814944024399,0.8802439227729567
1789141124588510700,8.7405107421875,0.11239337945413222,0.32928453880532943,0.39293946793931184
1789141124598483500,8.7504833984375,0.440132446367289,-0.020665187879835466,0.4447121213680074
1789141124608455700,8.76045556640625,-0.46501642904700907,-0.34172902565095603,1.259598957008493
1789141124618428700,8.7704287109375,-0.6419649235607805,-0.6826842874287825,1.1759444241812111
1789141124628400600,8.780400634765625,0.6622758446999615,-0.6815360699914881,0.658517568075587
1789141124638372600,8.79037255859375,0.14436882631511316,-0.25497790014779625,0.7912602814558622
1789141124648345600,8.800345703125,0.8131042312095241,0.5847134672451213,0.5563514745581432
1789141124658317600,8.810317626953125,1.335553562807423,0.7982774528848898,-0.050530189730924595
1789141124668289500,8.82028955078125,0.7116039857397594,0.9514082258996662,0.12280132845163981
1789141124678262800,8.8302626953125,-0.2828552660220245,0.4655232004421519,0.1328483427317812
1789141124688234500,8.840234375,-0.001250231387527839,-0.3745185632949325,0.320797554529238
1789141124698206700,8.850206787109375,0.005092821600809141,-0.2529432259928894,0.20791236102373206
1789141124708179700,8.8601796875,-0.9794370821790185,-0.07497303519878847,-1.0035641826680615
1789141124718151700,8.870151611328126,-1.365983419608391,-0.5494662891515644,-0.6069109767915142
1789141124728124700,8.880124755859375,0.024246931622699735,-0.4072948983659942,-0.1690710593271194
1789141124738096600,8.8900966796875,0.438526013696423,0.21928716124578124,-0.047901736923892387
1789141124748068600,8.900068603515624,0.1651578624381093,0.5281094319524079,0.025728734374067922
1789141124758041600,8.91004150390625,0.15549602774246088,0.24296454025080225,-0.33827417155773937
1789141124768013800,8.920013916015625,0.9852606551737503,-0.02729966952264387,-0.10141727727746834
1789141124777985500,8.929985595703124,0.5782128574084482,-0.35988215527801604,-0.36687077824960945
1789141124787958500,8.93995849609375,0.5822803916882241,-0.35987152280144186,-0.36507228567383854
1789141124797930800,8.9499306640625,0.06447714447380203,0.10205643418562993,-0.4038805224778406
1789141124807903500,8.959903564453125,-0.5245772674315319,0.05173851967247273,0.06253202137125709
1789141124817875700,8.969875732421874,-0.0032195368479151546,0.09855000181088158,0.12128796565706293
1789141124827847700,8.97984765625,-0.017314251541743826,0.355081810090763,0.06920969085264132
1789141124837820400,8.9898203125,-1.078032586909608,-0.1238602807265454,-0.25948206759103304
1789141124847792600,8.999792724609375,-1.074928303561733,-0.12386441445686303,-0.25972825228843227
1789141124857764600,9.0097646484375,-0.5838826674421381,-0.3058883350807753,0.5880685081752071
1789141124867737600,9.019737548828124,-0.20025427952993574,-0.5509376490781215,0.2347809285048986
1789141124877709600,9.02970947265625,-0.07122556728522281,-0.45717543866673027,0.4635067361264058
1789141124887681800,9.039681884765624,-0.27976860958144223,-0.1283812215684806,0.784430383300979
1789141124897654500,9.049654541015624,0.008554821230729683,0.052241830375110404,-0.27251405192362005
1789141124907626800,9.059626708984377,-0.7213035690021221,0.2332762375145896,0.5648900447399455
1789141124917599700,9.069599853515625,-0.1056384979686573,0.3491686887018315,0.3819166951486157
1789141124927571500,9.079571533203126,-0.9607770342602343,0.08842449528446639,0.4775035373097406
1789141124937543700,9.089543701171875,-0.5114668532988089,-0.41565267016656743,0.5198343753824548
1789141124947516700,9.0995166015625,0.1635750038084451,-0.8117718281841857,0.1840734584205064
1789141124957488600,9.109488525390624,0.3113241534206041,-0.7016175473919808,-0.3515468187451399
1789141124967460600,9.119460693359375,-0.6801428332003386,-0.3320422583433952,-0.2304367981468205
1789141124977433600,9.12943359375,-0.20122391123925396,-0.1725418019154497,0.1629105712331993
1789141124987405600,9.139405517578124,1.0642043968067583,0.3533229941116359,0.5215706545247618
1789141124997378600,9.149378662109376,-0.1154761279001022,0.526802141709801,-0.10523909100162114
1789141125007350800,9.159350830078123,-1.1348493288875614,0.3936483899801086,-0.8172228780525258
1789141125017322500,9.169322509765625,-0.5536131699744757,0.05905912970167113,-0.14733731030807304
1789141125027295500,9.17929541015625,-0.32940044145348585,0.07423423126788703,-0.6690438720452019
1789141125037267700,9.189267822265624,0.020847334796250356,-0.3447768068138421,-0.5752447266939197
1789141125047239400,9.199239501953125,0.2941339648645332,-0.23432748215925792,0.15860275147905342
1789141125057212700,9.209212646484374,0.2654569397531198,0.11199259010189509,0.11947561156236088
1789141125067184600,9.2191845703125,0.8197086342396387,0.3721423860584166,0.17728672761961026
1789141125077157600,9.22915771484375,1.9039072601838125,0.702383314472114,0.12682683928458668
1789141125087129600,9.239129638671876,-0.30295270828512166,0.7656866858244787,-1.0412657728998012
1789141125097101600,9.2491015625,-0.7424920944960418,0.21886075586579862,-0.4695905641783835
1789141125107074800,9.25907470703125,0.7969205377061843,-0.06519365043342756,0.10573164627172923
1789141125117046500,9.269046630859377,0.5624876155795242,-0.6107591005407464,-0.3600803793730969
1789141125127018800,9.279018798828124,-1.503119370774362,-1.055969366873323,0.86452530961955
1789141125136991700,9.28899169921875,-0.9048106199827083,-0.8442854785424712,0.2846453164281164
1789141125146963700,9.298963623046877,-0.1985127532149854,-0.8090484312670593,-0.21292293948946614
1789141125156934700,9.3089345703125,0.5154629063848167,-0.9184498141873104,0.21496441473169448
1789141125166907600,9.31890771484375,0.37115520223221277,-0.09509422534548384,0.2860494439013934
1789141125176879600,9.328879638671877,1.5031635377192911,0.23611551170872594,-0.6888269791443783
1789141125186852600,9.3388525390625,1.9221648236467757,0.477567343445936,0.9770745472043354
1789141125196824600,9.348824462890626,1.1472282852732,0.9742006728495841,-0.2945976932984943
1789141125206796500,9.358796630859375,-0.12972827105703902,0.7398920072240565,-0.3281097244192478
1789141125216769800,9.368769775390623,0.27799784079416456,-0.06098979635778284,0.05288869196862781
1789141125226741500,9.378741455078124,-0.17253008553271001,0.026594398302758854,0.19470357373329708
1789141125236713700,9.388713623046876,-0.6259498584413091,-0.39909742862416486,-0.9230982381128836
1789141125246686700,9.398686767578123,-1.9860547909644741,-0.9106378943865104,-0.19387765484101635
1789141125256658400,9.408658447265625,-0.6402549729765938,-1.1065118795064575,-0.10623087383885592
1789141125266631700,9.418631591796874,-0.020573286175229744,-0.6357364783853462,-0.10640254775849863
1789141125276603600,9.428603759765624,0.44735493462440373,0.048179187078870714,-0.45779250608990363
1789141125286575600,9.43857568359375,0.4417625849198866,0.04811482633201843,-0.46133678935943967
1789141125296548600,9.448548583984374,1.7096563431399427,0.3220415286701559,-0.6902784627713491
1789141125306520600,9.4585205078125,1.3851682119706126,0.4333303912834126,-0.059556602342197534
1789141125316492500,9.468492431640623,0.35961625798602376,0.5217505912082873,0.2543239918466252
1789141125326465500,9.478465576171876,-0.27474846287512694,0.3554106029029144,-0.726602235039506
1789141125336437800,9.488437744140626,-1.0185028273616241,-0.10876909825515846,-0.6039264636607229
1789141125346409500,9.498409423828123,-1.1456504692524263,-0.39205222083793895,0.007310110533270847
1789141125356382700,9.5083828125,-0.4246036347871208,-0.6688924877957882,-0.9334145653428001
1789141125366354700,9.518354736328124,-0.6867273803823524,-0.5703330356784571,-0.7339108207747224
1789141125376327700,9.52832763671875,0.42730594580382303,-0.1420732713024926,-0.19479313663438905
1789141125386299600,9.538299560546877,0.43682501488333914,-0.07527343748661218,0.08626124916725994
1789141125396271600,9.548271728515624,0.7611007880619896,0.26398250387215394,-0.4076891289426536
1789141125406244600,9.55824462890625,-0.21593511550461858,0.2091261164850479,-0.5273872041667217
1789141125416216600,9.568216552734375,0.4189278547940675,0.30954609288131935,-0.2897141013503941
1789141125426188800,9.578188720703125,-0.42525713398494647,0.02939227848321813,-0.156245879638478
1789141125436161500,9.58816162109375,-0.6268882336876856,-0.014795304754883094,-0.17197567578963333
1789141125446133500,9.598133544921875,-0.6164301639511252,-0.08833297948865966,-0.06072113497567831
1789141125456105700,9.608105712890625,-0.695004489401569,0.11515839193635546,-0.22512483537489697
1789141125466078500,9.618078369140624,-0.513920395658202,0.22557054346365704,-0.13872881453155422
1789141125476050700,9.62805078125,-0.3034499748426392,-0.13654290220483029,0.4018589947576929
1789141125486023700,9.638023681640624,-1.0314214392456376,-0.34741436300089057,0.4748198333157581
1789141125495995600,9.64799560546875,-1.2178874008953329,-0.45702302538418504,0.15221549528457928
1789141125505967600,9.657967529296876,-0.43208324431108963,-0.2918956101098053,0.3225033775578936
1789141125515940600,9.667940673828124,0.09189331761130251,-0.5156059855155752,-0.41641054554212403
1789141125525912600,9.67791259765625,-0.4653581318307335,-0.6084655969792626,-0.008658639462689676
1789141125535884500,9.687884521484374,-0.29797069949645316,-0.18483979906428838,-0.2993729309352116
1789141125545857800,9.69785791015625,0.23902773479716574,0.049438593726188466,-0.014322692738504861
1789141125555829500,9.70782958984375,-0.3443030744486855,0.3493752625520408,-0.31219742394069544
1789141125565802500,9.717802490234376,0.016805597292354167,0.5103133395765854,-0.14361163557325574
1789141125575774700,9.727774658203124,0.1707295648084581,0.7122709580143107,0.2401006129314499
1789141125585746400,9.737746337890623,0.45277051915776395,0.625601300394853,0.08983059736624928
1789141125595719700,9.7477197265625,1.3032863160194519,0.49773124764887045,-0.4201954613977309
1789141125605691600,9.757691650390624,0.40978270382061527,0.4080632033358196,0.2117797089518341
1789141125615663600,9.76766357421875,-0.9936931919538559,0.2696731877365735,-0.5325284768912197
1789141125625636600,9.77763671875,-0.43521846189186914,0.0750710090312478,-0.3052855226885333
1789141125635608600,9.787608642578125,0.18181245816010377,0.022312691629051782,0.4500874608376018
1789141125645581800,9.797581787109374,-0.15078344835659055,-0.5582155421346358,-0.29419808154269544
1789141125655553500,9.807553466796875,-0.9308155012879592,-0.4806898797174177,-0.6275335610724733
1789141125665525800,9.81752587890625,-0.8880404931982355,0.19983927128325085,-0.26769618598299866
1789141125675498800,9.827498779296874,-0.4026067504008273,-0.7451043618884856,-0.12810737726700167
1789141125685470500,9.837470458984376,0.02838180142852688,-0.392736893179478,0.3783120928718041
1789141125695442700,9.847442626953123,-0.7989072464108262,-0.2830416661184404,1.3462188485107567
1789141125705415700,9.857415771484376,1.1314394474925284,-0.8411849536248259,0.2028736369706687
1789141125715387600,9.8673876953125,1.2562421068398162,0.17891517726557052,0.6674929935026535
1789141125725359600,9.877359619140623,0.7629947959089747,0.9921631884628868,0.14680776155974137
1789141125735332600,9.88733251953125,1.0915621202477495,0.015142802010004265,-0.109454928315245
1789141125745304600,9.8973046875,1.499900776397349,0.22422097669071478,-0.29527035361405674
1789141125755277600,9.907277587890626,-0.225455721671679,0.6677429766486457,-0.016247340206406405
1789141125765249800,9.917249755859377,-0.06325761352917547,-0.18231589132912282,0.3068762794519592
1789141125775221500,9.927221435546874,1.1448293741502378,-0.14217977686742125,0.11231555530877531
1789141125785194800,9.93719482421875,1.1459484318871898,-0.14212659754017062,0.1165760677050429
1789141125795166700,9.947166748046875,1.2584760403131017,-1.4803917760507435,0.4874503597537341
1789141125805138700,9.957138671875,-3.10369473577977,-0.35746583740750987,1.1283744631426789
1789141125815111700,9.967111572265624,-1.364583848445192,-0.3560040646653048,0.39084000055815327
1789141125825083600,9.977083740234375,3.383648353608246,-0.544548731678521,-0.44031610309801067
1789141125835055600,9.9870556640625,-0.5928781860567218,0.17959796281544926,0.046030025341710294
1789141125845028600,9.997028564453124,-1.3431060210345034,0.3580437600344824,0.40141076549901145
1789141125855000800,10.007000732421876,-1.3495428015180264,0.3580751714556057,0.4076035527227633
1789141125864973600,10.0169736328125,1.8864319908481302,0.4362658602101612,0.023452443092164106
1789141125874945500,10.026945556640625,-1.382408276702101,1.144435068681596,0.6861797985435644
1789141125884917800,10.036917724609374,0.7276076969184458,0.6949309276150984,-0.17110140068276294
1789141125894890500,10.046890380859375,0.5842644048546594,0.7692073858241549,0.27073009694372324
1789141125904862700,10.05686279296875,0.017266743507804022,0.4903503999276535,0.15104309324187373
1789141125914834700,10.066834716796874,-0.5851302006466599,-0.12482022888384729,-0.012847031062200358
1789141125924807400,10.076807373046876,-0.9098060975978391,-0.5705161021507477,0.5751643141933502
1789141125934779600,10.086779541015623,-1.4261759294942589,-0.7354223363097983,0.38485130656391614
1789141125944751600,10.096751708984376,-0.2526470048408284,-0.9770312037124692,-0.359723050075864
1789141125954724600,10.106724609375,-0.6741317101569106,-1.0736625516846288,0.4779066342605517
1789141125964696600,10.116696533203124,1.008610903225282,-0.352151838047996,0.675127469761965
1789141125974669600,10.126669677734377,0.8457328484136221,0.380130623082385,0.6195094141933258
1789141125984641500,10.1366416015625,0.5264265904893674,0.913140539754422,0.132950290950315
1789141125994613800,10.14661376953125,0.45148084088622514,0.3561781282365795,0.8269591515373567
1789141126004586800,10.156586669921875,0.3030262083688974,-0.5502452230626806,0.19120135585762202
1789141126014558500,10.166558349609376,-1.1675805460597874,-0.6992359837271958,0.6431223612073401
1789141126024530700,10.17653076171875,-1.9994397990358974,-0.9674383352611017,0.353013785355629
1789141126034503700,10.186503662109375,0.3489318556481928,-0.26873735079601185,0.04182877024895906
1789141126044475600,10.1964755859375,-0.5594770578624406,0.1921509922226628,0.37769864473337256
1789141126054448600,10.20644873046875,-0.857978484954631,0.21167536607659518,0.24869123427638296
1789141126064420600,10.216420654296876,0.046443903821958024,0.406350885630591,0.06475786245255853
1789141126074392600,10.226392578125,0.6533985041328241,0.4883155589761,0.6653889835893446
1789141126084365600,10.236365478515625,1.5797262212012526,0.3315726404065031,0.6487546280686373
1789141126094337800,10.246337890625,0.3723772719784751,0.042427611577074906,-0.40594968894731814
1789141126104309500,10.2563095703125,-0.9214701993995721,0.0730290716758497,0.44528285161032993
1789141126114282500,10.266282470703125,-0.6454699906663135,-0.5461232122992803,0.7621402695104239
1789141126124254700,10.276254638671874,0.3160018317880602,-0.24897967563883733,-0.19189510254908113
1789141126134226700,10.286226806640624,-0.36692218722207076,0.19300267342766955,0.7054384745937964
1789141126144199700,10.29619970703125,-1.4129860408426778,0.19161272414159758,0.2426542052512383
1789141126154171600,10.306171630859374,-0.507314715080127,0.6022116722063043,0.8734883475049203
1789141126164144600,10.31614453125,0.400622935152766,0.6834764951479582,1.4620072724592392
1789141126174116600,10.32611669921875,0.3883382397101033,0.8805669625499835,0.09377752210657073
1789141126184088800,10.3360888671875,-0.9974078948677917,0.814196330540146,-0.9849728426112402
1789141126194061800,10.346061767578124,-0.945148410259874,-0.09613969940971404,0.26013517189608
1789141126204033500,10.356033447265624,0.31349228816479263,-0.7865232100993559,-0.49125823047010503
1789141126214005800,10.366005859375,-0.8842844383793027,-0.6142565083067161,-0.05290245716943593
1789141126223978800,10.375978759765625,-0.5059571109154709,-0.5963086017833827,0.2930981017329632
1789141126233950700,10.38595068359375,0.31538824514842967,-0.5582738075614497,0.29486188565027555
1789141126243922700,10.395922607421875,0.06823921401986158,0.20015410053672053,-0.05372290888000561
1789141126253895700,10.405895751953125,0.1931236976906088,1.1141257424960878,-0.33540374822493263
1789141126263867600,10.41586767578125,0.9118284075660497,0.7697596800596468,-0.8496804786909326
1789141126273840600,10.425840576171876,0.6997906354796061,0.03650965929726686,-0.9470766456512887
1789141126283812900,10.435812744140623,-0.04370389320928719,0.25160454569523344,-0.11058093113348527
1789141126293784600,10.44578466796875,0.41252763273624665,-0.23763027402722012,0.04973400363215129
1789141126303757600,10.455757568359376,0.19363000943625847,-0.5206603317086681,0.637922597290003
1789141126313729800,10.465729736328123,-0.11059841509518349,0.09649510098310136,0.4624174634767891
1789141126323701500,10.475701416015625,-1.0292710561266674,-0.320991029064258,0.5768662216759523
1789141126333674800,10.4856748046875,0.1993587796923462,-1.0235718366156212,0.6303160783789091
1789141126343646700,10.495646728515624,0.9411881927039945,-0.27124794365387006,0.4144525504150691
1789141126353619700,10.50561962890625,0.1736908938460562,-0.1923636731001905,0.0026597782724511088
1789141126363591700,10.515591796875,1.148504669010861,-0.06983742219596302,0.20882241109026894
1789141126373563600,10.525563720703126,1.0483095144227306,0.7320366762798113,0.3605763973487155
1789141126383537000,10.535536865234375,0.08366342820274308,0.9839177350239519,-0.15339063289631785
1789141126393508600,10.545508544921876,0.08052274130908792,0.6273765610248787,0.0666167443735483
1789141126403480800,10.555480712890626,0.6445918074447161,0.13310653642153694,0.14031376133358842
1789141126413453800,10.565453857421875,-0.5909580742503144,-0.4393328136048581,0.5229722000101328
1789141126423425800,10.57542578125,-1.6405746927668368,-0.6653075697501897,-0.20834951277632607
1789141126433397800,10.585397705078124,-1.0452948518472756,-0.3503786355591158,0.4615530175701372
1789141126443370800,10.595370849609376,0.3170950335932638,-0.5374240388407077,-0.025206393327555147
1789141126453342700,10.6053427734375,0.5602249977807097,0.3243398911832973,-0.2491364531116822
1789141126463315700,10.615315673828125,0.18505976605951097,0.8349127412115678,0.9184258937867288
1789141126473288000,10.625287841796874,1.2233018564451446,0.9579001437958441,0.777163401315174
1789141126483259600,10.635259765625,1.3421754733515234,0.408218414266113,0.30688695095352353
1789141126493232600,10.645232666015623,-0.0851192107565101,-0.11083226445430254,0.8817550730764311
1789141126503204900,10.655204833984374,-0.618602838976802,-0.4676389968018421,0.12875999388507803
1789141126513176600,10.665176513671875,-0.48837192341240004,-0.364764879967514,-0.9830877710864155
1789141126523149800,10.67514990234375,-0.48673008354201946,-0.36452981414210095,-0.9959883286483027
1789141126533121800,10.685121826171876,0.47592069525837105,-0.5487051321153201,-0.6232089548155072
1789141126543093800,10.69509375,0.7804839161810454,-0.695562232752178,-0.954971392247943
1789141126553066800,10.705066650390624,-0.5737951893079666,-0.5714263196912481,-0.47190603049158203
1789141126563038700,10.715038818359377,0.14789364589952975,-0.28018506983706215,0.14489272037209178
1789141126573011700,10.72501171875,0.019376739303103598,-0.41345040970318464,-0.7047185487580478
1789141126582983700,10.734983642578126,0.07111157504571454,-0.06539989323683414,-0.12805857923284994
1789141126592956000,10.744955810546877,-0.030769223472616326,0.5138155029144514,-0.396576944057419
1789141126602928600,10.7549287109375,0.17578783144359095,0.6008628339315125,-1.5519422736420847
1789141126612900600,10.764900634765626,0.513973219330225,1.0469593567495443,-0.7702975678622995
1789141126622872800,10.774872802734375,-0.2580162282071844,0.520168636202188,-0.7084135555063161
1789141126632845600,10.784845458984377,-0.4768216264968305,0.6390327468731153,-0.5182976777472881
1789141126642817800,10.79481787109375,-1.344177272216303,0.15472692330444926,0.18509205774324444
1789141126652789800,10.804789794921875,-1.051433742454167,-0.18029492475589878,0.8521635308089067
1789141126662762800,10.8147626953125,0.326993608794807,-0.3311780649248959,-0.7109999116701073
1789141126672734700,10.824734619140624,-1.2509926509749023,0.11389535688607376,-0.3170164151014756
1789141126682707700,10.834707763671876,-0.9573248519331718,0.3054766684300152,-0.03171534089564679
1789141126692679700,10.8446796875,0.027217712026482828,0.2091578844531733,-0.6908110568652558
1789141126702651600,10.854651611328125,0.2302016163228153,-0.14851964071724733,-0.4507652271546866
1789141126712625000,10.864625,-0.6880949111009276,-0.7252718109430603,0.031140679535736
1789141126722596600,10.8745966796875,-1.5646502172151033,-0.7564376984720623,-0.010873871149945947
1789141126732568800,10.88456884765625,-1.3957858970063592,-0.6453444638419888,-0.134745355877247
1789141126742541800,10.894541748046874,-0.19652010284702956,-0.759114933177155,-0.4056943206151796
1789141126752513500,10.904513427734376,-1.0287962840263387,-0.358794463642693,-0.33756220362042566
1789141126762486800,10.91448681640625,0.39627909223602303,0.1673836382520986,-0.5193197368537725
1789141126772458800,10.924458740234376,0.6654095884875098,-0.0583800837076551,0.06387159809231722
1789141126782430700,10.9344306640625,1.7094997992411922,0.033341405915185494,0.3729270367781758
1789141126792403700,10.94440380859375,1.4876952725175512,0.2404183410488592,0.31607881051414316
1789141126802375700,10.954375732421877,0.495991032437437,0.16827369937822093,0.48806181028586154
1789141126812347600,10.96434765625,0.05394846848446777,-0.050302942731345265,-0.371628131441539
1789141126822320600,10.974320556640626,-0.3205157748586997,0.026158435566660886,-1.0071565518014964
1789141126832292900,10.98429296875,0.4059061134930494,-0.14729709227825896,-0.9443518983795619
1789141126842264600,10.9942646484375,0.22571628653991938,-0.12901314886301563,-0.8108104406970944
1789141126852237800,11.00423779296875,-0.3657637095847007,0.09250895262037902,-0.8066663444545366
1789141126862209800,11.014209716796875,0.49713370372532,-0.578836477577642,0.5142848304596701
1789141126872182500,11.0241826171875,0.13307743204923575,0.10595096170653757,-0.27302807100753984
1789141126882154800,11.03415478515625,0.3727087676734078,0.07503223397139633,-0.24731014391616724
1789141126892126700,11.044126708984376,0.2168270034751756,-0.21961375506955821,0.3024607260097992
1789141126902099700,11.054099609375,0.6529216094553174,-0.2812578320923064,0.2358126452323129
1789141126912071700,11.06407177734375,-0.4009549624545712,-0.10582387724408296,-0.2597369919257772
1789141126922044000,11.0740439453125,0.37479342536402294,-0.05714235034053027,0.38166266282694666
1789141126932016600,11.0840166015625,1.355162099325386,-0.1251686973232375,-0.7490785736536165
1789141126941988600,11.093988525390625,0.09525519899386256,0.41041560787746817,-0.12228357892244786
1789141126951960800,11.1039609375,0.20712165975244556,-0.18825320912393995,-0.24614462447297755
1789141126961933600,11.11393359375,0.2032650912668234,-0.18832959374004649,-0.24838400620989984
1789141126971905800,11.12390576171875,-0.022772325393212292,1.0789474396907912,0.09940946696178396
1789141126981878800,11.133878662109376,1.1578636980515222,0.3829292761813675,-0.13691547519386837
1789141126991850500,11.1438505859375,0.8271185722504936,-0.31106677474879957,0.26726190136784006
1789141127001822700,11.15382275390625,0.2265420718904182,-0.6690913818888207,0.3810982827640514
1789141127011795700,11.163795654296877,0.7564958632930701,-1.0676361005931194,-0.44118235487454477
1789141127021767700,11.173767578125,-0.9448396007979319,-1.0789981971354392,0.06697175713769567
1789141127031739600,11.18373974609375,-0.8468827883047542,-0.9308345094165664,0.701203553711254
1789141127041712600,11.193712646484377,-0.600659815724508,-0.9404376303054641,-0.395983672880192
1789141127051684600,11.2036845703125,0.12479366869397265,-0.2711861875216258,-0.1988324573890184
1789141127061656800,11.21365673828125,0.9251551365303871,0.15056357826005026,0.4066622488276192
1789141127071629800,11.2236298828125,1.6639865218167846,0.28651634170779905,0.6482767369979807
1789141127081601500,11.2336015625,1.043091932372357,0.4088763180564726,0.15434475723225824
1789141127091574800,11.24357470703125,-0.3551937484342635,-0.3312195985149468,0.9660543892498977
1789141127101546800,11.253546630859375,0.695233638615555,-0.6217782255584947,0.6246803811819057
1789141127111518700,11.263518798828123,-0.9507343264607363,-0.4347898185911185,0.2798025068999449
1789141127121491700,11.27349169921875,-2.3409248723221223,-0.7043685649814899,-0.2319011896840466
1789141127131463700,11.283463623046876,-0.48396556875361557,-0.7714269274971038,-0.5497863773320237
1789141127141435600,11.293435546875,0.5665160659931427,-0.36989868500192963,-0.7646011908642489
1789141127151409000,11.303408935546877,-0.1732688808226479,0.018233884465756665,0.21482315514331007
1789141127161380900,11.313380859375,0.709841996253589,0.12041585689944576,0.2327622916159994
1789141127171352800,11.323352783203124,1.2648235323216135,0.7802189066656168,0.0381474435435054
1789141127181325800,11.333325927734377,1.4657912432288884,1.1616207722142944,0.4145906253963985
1789141127191297800,11.3432978515625,1.4678524333038183,1.1618319001643176,0.4243379478949691
1789141127201270800,11.353270751953126,-0.8211174052445519,0.35617797890146446,0.09025660007441556
1789141127211243000,11.363242919921875,-0.81689856970375,0.3564228872243525,0.10277768569263394
1789141127221214700,11.373214599609376,-0.0679909223014678,0.9007304340895251,-0.09536637247333138
1789141127231187700,11.383187744140624,-0.2269128197208344,1.0152314817809414,0.1796847979892367
1789141127241160000,11.393159912109375,-0.1729025932547192,0.7003366017250284,0.6698611489649657
1789141127251131600,11.403131591796877,-1.5537844260581928,0.1817882549594021,0.04507552784553589
1789141127261105000,11.41310498046875,-0.5117230998385695,0.16838146140855645,-1.0173718789636512
1789141127271076900,11.423076904296876,-0.5428624256409494,0.1952951135612312,0.3469397489702024
1789141127281048800,11.433048828125,-1.642931798454243,-1.0209420950132804,0.07714571497927201
1789141127291021800,11.443021728515625,-1.9092860967647014,-1.8911185472431753,0.33696072357538326
1789141127300993800,11.452993896484376,-0.15826206419593808,-2.0628820872734837,0.6010341379097308
1789141127310967000,11.462967041015624,-0.1504226663122283,-1.008991476018604,0.8200693108769831
1789141127320938800,11.472938720703125,1.2506238609285159,0.07995026775226588,-0.1138219885035898
1789141127330911000,11.482910888671874,1.26404346926538,0.48044152166591275,0.23315324378713262
1789141127340884000,11.492884033203126,1.0740469241800485,0.49136613703948734,0.16878600160777876
1789141127350856000,11.50285595703125,-0.3473427216830011,0.6972570264271605,-0.14105841234956232
1789141127360828000,11.512827880859374,-0.6847657760711992,0.44849773393915726,-0.48760819890452317
1789141127370801000,11.52280078125,-0.2912222848276064,0.41124840872289803,0.23216469382135735
1789141127380772900,11.53277294921875,-0.4851047024266223,0.1261193376470026,-0.5192181182733573
1789141127390745900,11.542745849609377,-0.5284394285183653,-0.48650469970227966,0.22271911947359285
1789141127400718000,11.552718017578124,0.2728517483719382,-1.1004052929708892,0.01996430899617174
1789141127410689800,11.562689697265624,0.18727547591838684,-0.43991194256309496,0.07834656275549497
1789141127420662800,11.572662841796877,0.041159844569514104,-0.153709771384957,-0.05426762968985926
1789141127430635000,11.582635009765625,0.04792377942764973,-0.34808449837304645,0.2351943236094268
1789141127440606700,11.592606689453126,0.4505027756503967,0.3696954203278473,-0.22160741683722737
1789141127450580000,11.602580078125,-0.33473422883142645,0.2448873249267077,-0.8637801994507214
1789141127460552000,11.612552001953125,-0.33572533296225954,0.24488785801247537,-0.8620866609087108
1789141127470524000,11.62252392578125,0.39402209534314325,0.8140735932218276,-1.1095833369937211
1789141127480497000,11.632496826171876,0.3247814986596775,0.06866832435189466,-0.4890772581173393
1789141127490468900,11.64246875,0.06801892176507311,0.17476752953918545,0.3776355289633098
1789141127500440800,11.65244091796875,0.5068320728768339,0.4170411035261776,-1.0236534599402536
1789141127510413800,11.662413818359376,-0.3920222742121458,0.3329647296308446,-0.4979846281136243
1789141127520386000,11.672385986328123,-0.2050454381899041,0.24351419972726393,-0.26855298878917927
1789141127530358800,11.68235888671875,-0.2497952841224965,-0.31259275522357266,-0.38632969142974466
1789141127540331000,11.6923310546875,-0.9505321374937195,-0.80608374822017,-0.048694393978169485
1789141127550303000,11.702302978515624,0.17905966872809376,-0.8220957818030112,-0.21981787761002
1789141127560275700,11.712275634765623,0.8354149994664032,-0.9137389531649099,-0.3702014894874476
1789141127570248000,11.722248046875,0.7699460667646487,-0.05565996025268472,0.4815376994434965
1789141127580220000,11.732219970703126,1.4052853364712568,0.1303197186998881,-0.502121059503312
1789141127590193000,11.74219287109375,1.808791605225889,0.9951318820257552,-0.44705310992424574
1789141127600164900,11.752164794921876,0.6553333234717034,0.7219134715001472,-0.4952381647725492
1789141127610137900,11.762137939453124,0.5237196747494923,0.2041210748903982,-0.5177962428397472
1789141127620109800,11.77210986328125,-0.466346719694705,0.07824888250637016,-0.11905926954389882
1789141127630081800,11.782081787109377,-0.14632724268304037,-0.06869682922925471,0.2308353571020576
1789141127640055000,11.792054931640624,1.0662081765066496,-0.6395965158350461,-0.30248822788402785
1789141127650026800,11.80202685546875,-0.6557914547201332,-0.5091446490024216,0.7044560043260923
1789141127659999000,11.8119990234375,0.27583180965506154,-0.09820279835341619,-0.2693308866384403
1789141127669972000,11.821971923828125,0.06967129529382445,0.26739468413184203,-0.4667499742149965
1789141127679943700,11.831943603515626,0.5053280977189213,-0.033647752336889214,-0.28452489811849274
1789141127689916000,11.841916015625,-0.004385556080064731,-0.19841060237071906,-0.3622540103135563
1789141127699889000,11.851888916015625,-0.8856441247110293,-0.50437267673615,-0.3880410495851328
1789141127709860900,11.86186083984375,-0.8863174999676131,-0.504407926136948,-0.3947114315936302
1789141127719833900,11.871833740234376,1.254289488986812,-0.9608901601137672,-0.6690310326508444
1789141127729805800,11.881805908203123,-0.10980204712396273,-0.3502540876635014,-0.40647225171499646
1789141127739777800,11.89177783203125,-1.1211969510399433,0.11103753931843549,-0.6478353320249719
1789141127749750800,11.901750732421876,-0.5031241656854747,0.7007877159418553,-1.2370664457985578
1789141127759723000,11.911722900390624,0.5806291129483702,0.2550631829989447,-0.18498356006215552
1789141127769694700,11.92169482421875,0.5032814447102837,0.38019556437215524,-0.5452593265456701
1789141127779668000,11.93166796875,-1.1460712855329651,0.283965919478639,-0.15123113908880356
1789141127789640000,11.941639892578126,-1.0878077426391897,-0.08666719927174053,-0.44048891470546336
1789141127799612000,11.95161181640625,-0.4337232888431136,0.10965929429782659,0.11148983852394735
1789141127809585000,11.9615849609375,-0.5182764733872643,0.05442794564094251,0.36534969000625567
1789141127819556900,11.971556884765626,-0.6814675390854432,-0.9313564884738299,0.08303516226253639
1789141127829530000,11.981530029296875,-0.5365816340717215,-0.8286926241277893,0.12267073247995357
1789141127839501800,11.991501708984377,-1.0620716959394558,-0.4834477273940438,-0.0015780447711960684
1789141127849474000,12.00147412109375,-0.7394399175612442,-0.3387137875339665,1.0993704069516173
1789141127859447000,12.011447021484376,0.45329608252662223,-0.2951500127799161,0.04654250737289181
1789141127869418800,12.021418701171877,0.04291517901590152,0.3213273082464614,0.6771408027500808
1789141127879391000,12.031390869140624,0.10836793180138986,0.6566616964963676,-0.9468584794591726
1789141127889363700,12.04136376953125,1.277310365718152,0.70516752168196,-0.21975762576925162
1789141127899336000,12.0513359375,-0.07368799508129345,0.689613921209089,-0.07017228986319324
1789141127909308000,12.061307861328125,-0.19501705815651893,0.7226399730682921,1.151908180394836
1789141127919280600,12.07128076171875,-0.5415952577990326,-0.0592738950173368,-0.2995048012356026
1789141127929252900,12.0812529296875,-0.3148759531188761,-0.7949923664697003,0.6261164820557011
1789141127939225900,12.091225830078123,-0.9414622212279073,-1.3040240371081246,0.3760278139185246
1789141127949197800,12.10119775390625,-0.5496754795424628,-0.6070912242963913,0.12263620820877033
1789141127959169800,12.111169677734376,-0.5546250932158289,-0.6071010611028478,0.12275275372943519
1789141127969143000,12.12114306640625,0.7012766741322924,0.0460924523159025,0.248954152609462
1789141127979114800,12.13111474609375,0.9098721307585952,0.44407756409832055,-0.20574036616934502
1789141127989087000,12.1410869140625,0.7688974780068475,0.2638826368357588,-0.25573717835854765
1789141127999060000,12.15106005859375,0.7929282819282589,0.4232752109020052,0.07723779753821493
1789141128009031700,12.16103173828125,-0.060531344094111005,0.3234570895144712,-0.3210171210739254
1789141128019005000,12.1710048828125,0.277841594262564,-0.6253045661586785,-0.32131719588201824
1789141128028977000,12.180976806640626,-0.7152848973483366,-0.2844978379578488,-0.00465834532246301
1789141128038948900,12.190948974609377,-0.2226698198929527,0.20935041176960908,-1.1623441977134712
1789141128048921900,12.200921875,0.6028898518265537,0.08197756443295742,-0.6157378032942673
1789141128058893800,12.210893798828126,0.7551310003756365,0.8044402947550842,0.5352491992178517
1789141128068865800,12.22086572265625,-0.054540865384407056,0.2175629034095199,0.19131032661452493
1789141128078838800,12.2308388671875,0.6640375973629872,-0.2570310060620519,0.21446690760939202
1789141128088811000,12.24081103515625,0.49643506936397863,0.04983051979821955,0.729497351924868
1789141128098782700,12.25078271484375,-0.11371441765253568,-0.669188421848081,0.5006230565536857
1789141128108755700,12.260755615234377,-1.0992065318357713,-0.7882720585501143,-0.7158655213446735
1789141128118728000,12.27072802734375,0.9747497801183228,-0.5641498790392678,0.1744824770917748
1789141128128701000,12.280700927734374,0.7782818395007811,-0.25763763388333005,-0.481339170685688
1789141128138673000,12.2906728515625,0.6513714396593715,-0.024118752415419154,0.15054831298768936
1789141128148644900,12.300644775390625,-0.7304777074981577,0.15052296314321537,1.3278997123159049
1789141128158617900,12.310617919921874,-0.24569202471974186,0.5655461802502387,0.6663393473602506
1789141128168590000,12.320590087890626,1.063773097166829,-0.05321226713939972,0.37877507123659865
1789141128178562000,12.33056201171875,-0.2528491686025676,-0.28574563078339243,0.9840010535248865
1789141128188535000,12.34053515625,-0.25150753009099536,-0.28571468717754467,0.9855891260316619
1789141128198507000,12.350507080078126,0.9096206535086525,-0.3024875490005458,0.05097846414469156
1789141128208479200,12.360479248046875,1.9614152993216738,0.35243154940368704,0.5479386928299801
1789141128218452000,12.370451904296877,-0.4847256329471643,0.5465893766374358,0.36385598726181834
1789141128228424200,12.380424072265624,-0.7571853012669341,-0.23912646753984737,0.2225489357338843
1789141128238397200,12.390397216796876,0.4030613932219288,-0.6323525665609375,0.8955715576223551
1789141128248369000,12.400368896484377,0.13789460215669214,0.012123302107024798,-0.23199714611531705
1789141128258341000,12.410341064453124,-0.25840814238501353,-0.2568681039543215,-0.5369189034017825
1789141128268314000,12.420314208984376,-0.20295096309996685,-0.26541886339011406,0.15667454859005453
1789141128278286000,12.4302861328125,0.013511962803077943,0.6378883039146206,0.08705705336908934
1789141128288258000,12.440258056640625,0.0159786526210048,0.6379119333366012,0.08786070214711483
1789141128298231000,12.45023095703125,1.1065341817570558,0.09860817361975162,-0.11725025611733146
1789141128308203000,12.460203125,-0.07310946235828698,-0.06139151699643122,-0.017723332792694217
1789141128318175000,12.470175048828125,-1.4997895226486324,-0.24983923914344006,-0.90294675923337
1789141128328148200,12.480148193359376,-0.42333965261206646,-0.5353097764866173,-0.3741591890803881
1789141128338120000,12.490119873046876,-0.7023226578765563,-0.4026291966699315,-0.4596689983492744
1789141128348093000,12.500093017578124,-0.44279392957819763,-0.33212026172103665,-0.004634809493440467
1789141128358065200,12.510065185546877,0.011648353732510797,-0.2585174853572064,0.1211909238000683
1789141128368036900,12.520036865234376,-0.6021461637469366,-0.04293165289473083,0.7807113774565017
1789141128378010000,12.530010009765626,-0.5840871909841853,0.29647968252068263,0.32367126523479534
1789141128387982000,12.539982177734377,1.0547879048297126,0.7007249327588705,0.8908218953240663
1789141128397954000,12.5499541015625,0.48644578525988275,0.28483544500025537,0.6768846799408685
1789141128407927000,12.559927001953126,1.09173532861125,0.506009369315592,1.2426035465351697
1789141128417899000,12.56989892578125,0.6429138049342207,0.5832860669244782,0.12205287696235452
1789141128427871000,12.57987109375,-0.6300059889858745,0.7827451170734084,0.2597565151436273
1789141128437844000,12.589843994140624,-0.982351191703723,0.25583637128630465,-0.04917793941709684
1789141128447816200,12.599816162109375,-1.2764461871531243,0.35131832240059657,0.001309609988232766
1789141128457789200,12.6097890625,-1.1765535167927503,-0.102541335271789,-0.24149959796974488
1789141128467761200,12.61976123046875,-0.3195493385777355,-0.925990701575534,-0.3277853559501205
1789141128477733000,12.629733154296876,-0.6045971103713411,-1.5924805024937703,0.350969181847011
1789141128487706000,12.6397060546875,-0.25336597590448545,-1.3317766158459294,0.3876464353643925
1789141128497678000,12.649677978515625,0.5020905162199117,-1.0069801186644682,0.2491379870933061
1789141128507650000,12.659650146484376,0.22717960277558805,0.02195037036577624,0.5218431041233977
1789141128517623300,12.669623291015624,-0.4587792760828414,0.23613102011696765,0.5679365930329543
1789141128527595000,12.679594970703125,-0.4602061251720823,0.23615749625456728,0.5745921523324977
1789141128537568000,12.689568115234374,0.6367264431295254,0.028987375077981208,0.30715167375732666
1789141128547540200,12.699540283203126,0.07818808998394045,0.7836777401390039,-0.1216007501167361
1789141128557512000,12.709511962890623,-0.8758157702626185,0.6036059184089245,-0.654403861412476
1789141128567485200,12.719485107421876,-0.5766307673648378,0.036760245814528004,-0.11303909014292508
1789141128577457200,12.72945703125,0.5662728611599491,0.03740650480447322,0.176745185572799
1789141128587429000,12.73942919921875,0.31103615665586515,0.1313272167207959,-1.1315094720792187
1789141128597402000,12.749402099609377,0.6709238670883148,0.8314978325174608,0.1775903250224567
1789141128607374000,12.7593740234375,0.659591892757605,0.6549554866183114,-0.9687289442443664
1789141128617346000,12.769345947265624,0.8043645432719788,0.2578830012955359,-0.4749668351114928
1789141128627319000,12.779319091796877,-0.39575524969797987,0.7814474910116131,0.12462593500531559
1789141128637291300,12.789291259765625,-0.8282936241688177,0.051996689177902566,-0.6957617215328838
1789141128647264000,12.799263916015626,-1.2480129695936417,-0.8878493577864184,-0.5610010993434921
1789141128657236200,12.809236328125,-0.6241112739167783,-0.5700359649599889,0.3159265613561635
1789141128667208200,12.819208251953125,0.48936529791817174,-1.107733680374685,0.06716859693995389
1789141128677181000,12.829180908203124,0.49207932384945413,-0.7121887152720021,-0.39484538785604595
1789141128687153200,12.839153076171876,-0.05205241901361314,0.07243581897829372,0.3886572784979131
1789141128697125000,12.849125,1.5233681400109502,0.5124616286242984,0.22325502569325825
1789141128707098000,12.85909814453125,1.411807112946698,0.23055991199485873,-0.13411768968447585
1789141128717070000,12.869070068359376,0.4954868069067077,0.14651059986289203,0.3367574713091312
1789141128727042300,12.879042236328123,-0.3084725813743815,0.12259016027333677,0.4073956325019905
1789141128737015000,12.88901513671875,-0.05340664617182399,-0.5251772136315241,-0.8465963375816121
1789141128746987000,12.898987060546874,0.5628891423105278,0.039452131226857555,0.480883618660998
1789141128756959200,12.908959228515624,0.2812931457958448,-0.3401886778815024,-0.16076172282627058
1789141128766932000,12.918931884765623,0.02894878505144232,-0.45218589693959493,-0.3693643504111977
1789141128776904200,12.928904296875,0.14970628226977775,-0.10029456675021642,0.465050423641649
1789141128786877200,12.938877197265626,0.1468490882283413,-0.10029366028380668,0.46415532827916456
1789141128796849000,12.948848876953123,0.5769532030984817,-0.459362740366675,-0.7434278269190893
1789141128806821000,12.958821044921876,-0.5595441403871515,-0.37480252936166203,-0.05871032525152397
1789141128816794000,12.968794189453124,-0.3801648442957625,0.12012027351408448,-0.0757159585588131
1789141128826766000,12.97876611328125,1.04726016901625,0.3381220708769597,-0.38068007986048763
1789141128836738000,12.988738037109377,1.4858632129634675,0.6058860824519736,-0.056098042500095174
1789141128846711000,12.9987109375,0.39773470996883,0.6466431596373619,-0.7711755324520894
1789141128856683000,13.00868310546875,-0.6324443273929405,0.7935938576192371,-0.8015704862112473
1789141128866656000,13.018656005859375,0.3031238650677179,0.13311768665187235,-0.5286320526176873
1789141128876628200,13.028628173828125,-0.08110023476313924,0.12960576782631958,-0.13374171195527368
1789141128886600000,13.038599853515626,-1.4780137083910265,-0.42281041024702026,-0.05237912416182377
1789141128896573200,13.0485732421875,-0.9562705024988088,-0.34017761964030735,-0.8310950247359357
1789141128906545200,13.058545166015625,-0.47821913364713486,-0.579318134801185,0.7177864472290432
1789141128916517000,13.06851708984375,-0.24950765005163156,-0.3961891277551986,0.0068348444491122635
1789141128926490000,13.078489990234376,0.17180410412037497,-0.3684808877015835,-0.6237613134706836
1789141128936462000,13.088462158203123,0.9641615752361363,-0.13851317852629627,-1.085325141979091
1789141128946434000,13.09843408203125,0.6203155430292041,0.6370016592875712,-0.8290373192677494
1789141128956407000,13.108406982421876,0.09492425505097518,0.6443468667438982,-1.2815567409534454
1789141128966379300,13.118379150390624,0.2757461958056767,0.49981680204221296,0.2049523904338836
1789141128976351000,13.12835107421875,-1.040534852379116,-0.16775887322601332,-0.5381712278125944
1789141128986324000,13.138323974609374,-1.1810886928432667,0.07415954661720106,0.21026505067627752
1789141128996296200,13.148296142578126,-0.8772321452113307,-0.531844748291627,0.07464712829065756
1789141129006269000,13.15826904296875,-0.34154328458564687,-0.4062335351036362,0.004715544431268078
1789141129016241200,13.1682412109375,-0.28641235541259763,-0.5276359515929828,0.18587540435709266
1789141129026213000,13.178213134765626,-0.16950229066087652,-0.3752306220288571,0.5690835389815511
1789141129036185900,13.188185791015623,0.4536076082455369,-0.34232767356311206,0.11019284972772089
1789141129046158000,13.198157958984376,0.2017278715722131,-0.10981672033493087,0.4142981450126915
1789141129056130000,13.208130126953124,-0.48735952442987146,-0.13468646915448707,0.7395493647633826
1789141129066103000,13.21810302734375,-0.14191331365066007,-0.23032053272358619,-0.02270618307679711
1789141129076075000,13.228074951171877,-0.14123340494450587,-0.23052375959798305,-0.03530867929261035
1789141129086047200,13.238047119140624,-0.2934597613122384,0.29557927986645943,0.01454582802988033
1789141129096020000,13.24802001953125,-0.32896517329854913,0.3612350610331683,-0.6435206949562653
1789141129105992200,13.2579921875,-1.336722381472727,0.28554106837357396,-0.224469640867503
1789141129115965200,13.267965087890625,-0.7711125892518558,0.13499132926256519,-0.03786437997903808
1789141129125937000,13.27793701171875,-0.4351378235466931,-0.11200113202781488,-0.30931274339928333
1789141129135909000,13.2879091796875,-0.45747525890091395,-0.247762719518804,0.010418297980677225
1789141129145882000,13.297882080078123,-1.5064374902698918,-0.35240173817318865,0.703897405866784
1789141129155854000,13.30785400390625,0.26836846232951034,-0.8047558571791038,0.6280193545952721
1789141129165826000,13.317825927734376,0.34071286939364837,-0.765552730237325,0.07245654193462324
1789141129175798800,13.327798828125,-1.1511759393039696,0.10866162497249027,-0.8563270381747046
1789141129185771000,13.33777099609375,-0.6518704433938098,-0.14164403057230016,-1.02188708351158
1789141129195743000,13.347742919921876,0.8683525095782213,0.17249994036981048,-0.7430690986156757
1789141129205716000,13.357716064453124,0.9965996251909499,0.6234063215931884,-0.49945043447916854
1789141129215688000,13.36768798828125,0.47153565649170304,0.052249102026919875,-0.6547032815877348
1789141129225661000,13.377660888671874,0.43284928787721005,1.1237580582546776,-0.09101618961387702
1789141129235633000,13.3876328125,0.04490987695453616,0.456833158581914,0.010008988775540332
1789141129245604900,13.39760498046875,0.7964978426102411,-0.19269882234364183,-0.04433272257090481
1789141129255578000,13.407578125,-0.2763635560559269,-0.4152376725944772,-0.20608934823905867
1789141129265549800,13.4175498046875,-0.43746684590232,-1.0526122193079435,-0.7497540804954947
1789141129275522000,13.42752197265625,0.014944184730868339,-0.7941363817331788,-0.44802697687647625
1789141129285495000,13.4374951171875,0.01082888703329574,-0.7946257771302039,-0.45847097959698124
1789141129295467000,13.447467041015624,-0.25348145547903744,-0.053041438322732073,-0.23557487749333814
1789141129305439000,13.45743896484375,0.7583564490819938,-0.28030228826614206,0.21050614268311302
1789141129315412000,13.467411865234377,1.1250593292303248,-0.16708569693821165,0.3570410923862032
1789141129325384000,13.477384033203125,1.592278204716614,0.2796410879299215,-0.1172664405599969
1789141129335357000,13.48735693359375,1.4898046457549392,-0.04427058752947246,-0.5912886453829519
1789141129345329200,13.4973291015625,-0.34748049051419183,0.8053545873919645,-0.2806549399812384
1789141129355300900,13.50730078125,-0.6577535522007817,0.6005207874858777,-1.160948143927221
1789141129365273900,13.51727392578125,0.32453111280054686,-0.32708290611578505,0.31695200955534486
1789141129375246000,13.52724609375,0.19831905935622834,-0.45845295690334636,0.7367907642193918
1789141129385217800,13.5372177734375,-1.0717300376648222,-0.5162409847111038,-0.5688796433721965
1789141129395191000,13.54719091796875,0.048545949640906604,-0.5482425340068251,-0.7686533636945888
1789141129405163000,13.5571630859375,0.8643657163955258,-0.6944442285116186,0.0156570088826386
1789141129415135000,13.567135009765623,0.07908025645599051,0.040156577216243924,-0.7672637301154885
1789141129425108000,13.57710791015625,-0.43253169529674357,0.32219362398055756,-0.03491070153605277
1789141129435080000,13.587079833984374,0.40242124280334773,0.09429565954558819,0.5093273376037657
1789141129445052000,13.597052001953124,-0.2286675173306042,-0.004219402501195854,0.48305787793156746
1789141129455025000,13.60702490234375,-0.8158592460202709,-0.30860657526991625,0.14657529992737475
1789141129464997000,13.6169970703125,-0.2579837478432274,-0.9351584469337871,0.5601270248282816
1789141129474970000,13.62697021484375,-0.26149917873012585,-0.8851111387348976,-0.08349580531565214
1789141129484942000,13.636942138671875,-0.26575811606654454,-0.11369042381895765,-0.36268453867109873
1789141129494914000,13.6469140625,-0.16844205756758177,0.13130019076482527,-0.4999269283126359
1789141129504887000,13.656886962890624,0.8498313230698522,0.690866611630865,-1.2265587962262188
1789141129514859000,13.66685888671875,-0.18956379371748855,0.6399001497472483,-1.0642992288749693
1789141129524831000,13.6768310546875,0.2843314701768719,-0.061073645049626445,-0.35537420971753586
1789141129534804200,13.68680419921875,-0.5516012259527128,-0.563043806020845,-0.41321739221478593
1789141129544776000,13.69677587890625,-0.5105500514724866,-0.3871392167610417,0.14521217299102263
1789141129554749000,13.7067490234375,-0.06767141545148006,-0.6127143024830594,-0.5956247012914984
1789141129564721200,13.71672119140625,-0.042178605602117863,-0.15893037185261633,0.22962351461997546
1789141129574692900,13.72669287109375,-0.7420585403331945,-0.07771383135164069,0.11758003313497645
1789141129584666000,13.736666015625,0.14329544780120632,0.15404957255172963,0.899002954196869
1789141129594638000,13.74663818359375,-0.3845847010744682,-0.02584353994471008,0.5234802187017448
1789141129604610000,13.756610107421874,-0.8819283325448415,0.15796921384281862,0.354522310778278
1789141129614583000,13.7665830078125,-0.9089881139638559,0.007253486453452384,0.20001365853341907
1789141129624555000,13.776554931640623,-0.22553616691688835,0.36079647781532614,0.6887510366574815
1789141129634527000,13.78652685546875,0.19317839184023053,0.6175279943460563,0.06840038878104418
1789141129644500000,13.7965,0.027412634283760045,0.8460491065534269,0.2067915694427056
1789141129654472200,13.80647216796875,-0.30336647679125833,0.5083851113877974,0.5849056549695046
1789141129664444000,13.81644384765625,0.2361049387822451,0.2037517168889262,1.0800632873142972
1789141129674417000,13.8264169921875,0.12753258614104732,-0.2440423206543966,0.9146744227584235
1789141129684389000,13.83638916015625,-0.9229365263852346,-0.39211761444291404,0.5148117752718184
1789141129694361900,13.84636181640625,-0.9069062495474542,-0.8305546226109622,1.8778906169773446
1789141129704334000,13.856333984375,0.0808138918419915,-1.074538970801205,2.0945666567571557
1789141129714306000,13.86630615234375,0.20548093972720702,-0.8225457809159255,1.095335789621393
1789141129724279000,13.876279052734375,0.07014067291338755,0.22234953223584183,0.9540846187735149
1789141129734251000,13.8862509765625,0.5407614062146149,0.06644408810811968,-0.15939733175310947
1789141129744223200,13.89622314453125,1.7331130473634129,-0.7840100492795886,0.15855029296369502
