time,seconds_elapsed,z,y,x
1789997780746571000,0.065571044921875,-1.2206199169158936,-0.3963735103607178,0.045214395970106125
1789997780756642000,0.07564208984375,-1.171868085861206,-0.4081478714942932,0.08193513005971909
1789997780766714000,0.085714111328125,-1.1390007734298706,-0.388536274433136,0.10697686672210693
1789997780776785200,0.09578515625,-1.0476040840148926,-0.3499228358268738,0.06614953279495239
1789997780786856000,0.10585595703125,-0.9425071477890015,-0.37821081280708313,0.03201255947351456
1789997780796927000,0.115927001953125,-0.8607627749443054,-0.33370324969291687,0.02627371810376644
1789997780806998000,0.125998046875,-0.7894003987312317,-0.3353130519390106,0.04332280904054642
1789997780817070000,0.136070068359375,-0.7115002870559692,-0.28490155935287476,0.059255968779325485
1789997780827141000,0.14614111328125,-0.605841875076294,-0.2086578905582428,0.05483062192797661
1789997780837212200,0.156212158203125,-0.5520420670509338,-0.21767829358577728,0.05302872881293297
1789997780847283200,0.166283203125,-0.5363933444023132,-0.22140714526176453,0.04032968357205391
1789997780857354000,0.17635400390625,-0.46261340379714966,-0.19514545798301697,0.0284770205616951
1789997780867425800,0.18642578125,-0.4369345009326935,-0.17531801760196686,0.043177127838134766
1789997780877496800,0.196496826171875,-0.3992960453033447,-0.18265342712402344,0.040529411286115646
1789997780887568000,0.20656787109375,-0.36279621720314026,-0.16222494840621948,-0.0045533813536167145
1789997780897639000,0.216638916015625,-0.35552844405174255,-0.1455003023147583,0.016262151300907135
1789997780907710000,0.2267099609375,-0.2749614417552948,-0.13944153487682343,-0.026377752423286438
1789997780917781000,0.236781005859375,-0.2441137731075287,-0.11788324266672134,-0.033146973699331284
1789997780927853000,0.24685302734375,-0.27014774084091187,-0.13659021258354187,-0.05695168673992157
1789997780937923800,0.256923828125,-0.2191902995109558,-0.12408719956874847,-0.06398509442806244
1789997780947995000,0.266994873046875,-0.21035796403884888,-0.15171074867248535,-0.04200011119246483
1789997780958066000,0.27706591796875,-0.09732489287853241,-0.16500312089920044,-0.0608086884021759
1789997780968137000,0.287136962890625,-0.027546662837266922,-0.12668965756893158,-0.033699825406074524
1789997780978209000,0.297208984375,-0.05865717679262161,-0.13924486935138702,-0.029747961089015007
1789997780988280000,0.307280029296875,-0.11174686253070831,-0.15638548135757446,-0.008834203705191612
1789997780998351000,0.31735107421875,-0.14200997352600098,-0.15522807836532593,0.004038185812532902
1789997781008422100,0.327422119140625,-0.146696999669075,-0.10545516759157181,0.020867539569735527
1789997781018494200,0.337494140625,-0.13767313957214355,-0.1222088485956192,0.02562873810529709
1789997781028565000,0.34756494140625,-0.13274981081485748,-0.11614297330379486,0.019481610506772995
1789997781038636000,0.357635986328125,-0.17332972586154938,-0.15324586629867554,0.03573967516422272
1789997781048707000,0.36770703125,-0.21278952062129974,-0.13555538654327393,0.01797189749777317
1789997781058778000,0.377778076171875,-0.23047050833702087,-0.14719046652317047,0.019281107932329178
1789997781068849200,0.38784912109375,-0.21187326312065125,-0.14332641661167145,-0.08901667594909668
1789997781078921000,0.3979208984375,-0.24895058572292328,-0.20532692968845367,-0.03605572506785393
1789997781088992000,0.407991943359375,-0.3483206629753113,-0.27589529752731323,0.029355362057685852
1789997781099063000,0.41806298828125,-0.34799548983573914,-0.24679706990718842,0.04277689754962921
1789997781109134000,0.428134033203125,-0.292349249124527,-0.19507035613059998,-0.033410582691431046
1789997781119205000,0.438205078125,-0.3391082286834717,-0.2571832537651062,-0.013464837335050106
1789997781129277000,0.44827685546875,-0.3702445924282074,-0.3257298171520233,0.013036011718213558
1789997781139348000,0.458347900390625,-0.2970332205295563,-0.37345021963119507,0.0151862483471632
1789997781149419000,0.4684189453125,-0.22448641061782837,-0.3713168501853943,-0.09075305610895157
1789997781159490000,0.478489990234375,-0.22852084040641785,-0.38776054978370667,-0.06598512083292007
1789997781169560800,0.488560791015625,-0.3123241066932678,-0.4079197645187378,-0.04225016385316849
1789997781179633000,0.4986328125,-0.330809086561203,-0.4435632526874542,-0.044702135026454926
1789997781189704000,0.508703857421875,-0.28419625759124756,-0.4033772647380829,-0.04924874007701874
1789997781199775000,0.51877490234375,-0.30337873101234436,-0.41283974051475525,-0.06456458568572998
1789997781209846000,0.528845947265625,-0.2509574890136719,-0.42562636733055115,-0.03315069153904915
1789997781219917000,0.5389169921875,-0.2286500334739685,-0.48171839118003845,-0.04759727790951729
1789997781229989000,0.548989013671875,-0.14184142649173737,-0.49820950627326965,-0.0662950873374939
1789997781240060200,0.55906005859375,-0.07677268981933594,-0.472595751285553,0.045721735805273056
1789997781250131200,0.569131103515625,0.0063202958554029465,-0.42024433612823486,0.028987199068069458
1789997781260202000,0.579201904296875,0.13097354769706726,-0.3615085780620575,-0.06954576075077057
1789997781270273000,0.58927294921875,0.15627306699752808,-0.3919442594051361,-0.07060640305280685
1789997781280345000,0.599344970703125,0.1738954782485962,-0.3711915910243988,0.029937779530882835
1789997781290416000,0.609416015625,0.2507997751235962,-0.23287978768348694,0.06926519423723221
1789997781300487200,0.619487060546875,0.32013463973999023,-0.1372842788696289,0.06484674662351608
1789997781310558200,0.62955810546875,0.45412588119506836,-0.09335168451070786,0.022101370617747307
1789997781320629000,0.63962890625,0.5662057995796204,-0.0698905736207962,0.017352687194943428
1789997781330701000,0.649701171875,0.5551463961601257,-0.028853144496679306,0.057187240570783615
1789997781340771800,0.659771728515625,0.5789673328399658,0.0082476194947958,0.07517210394144058
1789997781350843000,0.6698427734375,0.6424180269241333,0.029227036982774734,0.03901355341076851
1789997781360914000,0.679913818359375,0.6577724814414978,0.06708253920078278,0.03412451967597008
1789997781370985000,0.68998486328125,0.6259714961051941,0.06763476133346558,0.029134536162018776
1789997781381057000,0.70005712890625,0.6599898934364319,0.04448629543185234,0.056623153388500214
1789997781391128000,0.710128173828125,0.6483032703399658,0.05402678623795509,0.04784001410007477
1789997781401199000,0.72019921875,0.6110826730728149,0.08250263333320618,0.05038493126630783
1789997781411270000,0.730269775390625,0.6021665930747986,0.09374649077653885,0.055454596877098083
1789997781421341000,0.7403408203125,0.6183570623397827,0.11405255645513535,0.06761112064123154
1789997781431413000,0.7504130859375,0.6559110283851624,0.07005123049020767,0.10021825134754181
1789997781441484000,0.760484130859375,0.6516856551170349,0.07654561847448349,0.07595552504062653
1789997781451555000,0.77055517578125,0.6870896816253662,0.13153792917728424,-0.015426837839186192
1789997781461626000,0.780626220703125,0.6741195321083069,0.17970599234104156,0.008418840356171131
1789997781471697200,0.790697265625,0.6498741507530212,0.17218825221061707,-0.0015897899866104126
1789997781481769000,0.80076904296875,0.643927812576294,0.1632717102766037,0.05583701655268669
1789997781491840000,0.810840087890625,0.6611163020133972,0.18978102505207062,0.03615889698266983
1789997781501911000,0.8209111328125,0.6347177028656006,0.23055322468280792,0.02489558793604374
1789997781511982000,0.830982177734375,0.5696240067481995,0.23771917819976807,0.03156065195798874
1789997781522053000,0.84105322265625,0.5146704912185669,0.24299409985542297,-0.0028433939442038536
1789997781532125000,0.851125,0.4440170228481293,0.2772260904312134,0.05845802277326584
1789997781542196000,0.861196044921875,0.40338677167892456,0.2815798223018646,-0.0066868881694972515
1789997781552267000,0.87126708984375,0.38339880108833313,0.24734163284301758,-0.0459175780415535
1789997781562338000,0.881338134765625,0.4053206145763397,0.2114427536725998,-0.06611180305480957
1789997781572408800,0.891408935546875,0.44417160749435425,0.16745275259017944,-0.053144365549087524
1789997781582481000,0.90148095703125,0.4413001835346222,0.14653176069259644,-0.04156121239066124
1789997781592552000,0.911552001953125,0.37833160161972046,0.15105114877223969,-0.056565459817647934
1789997781602623000,0.921623046875,0.3177790343761444,0.15683765709400177,-0.022199762985110283
1789997781612694000,0.931694091796875,0.30265337228775024,0.17191025614738464,-0.014266442507505417
1789997781622765000,0.94176513671875,0.30688220262527466,0.1939721405506134,-0.022501736879348755
1789997781632837000,0.951837158203125,0.33195650577545166,0.21889540553092957,0.0014408902497962117
1789997781642908200,0.961908203125,0.397083580493927,0.218209370970726,-0.016032375395298004
1789997781652979200,0.971979248046875,0.40656566619873047,0.2056044489145279,-0.02731144241988659
1789997781663050000,0.982050048828125,0.367258757352829,0.20853152871131897,-0.010157754644751549
1789997781673121000,0.99212109375,0.3440670073032379,0.19971373677253723,0.028222450986504555
1789997781683193000,1.002193115234375,0.3613612949848175,0.2170138955116272,-0.014253636822104454
1789997781693264100,1.01226416015625,0.42642372846603394,0.21552328765392303,-0.009277033619582653
1789997781703335200,1.022335205078125,0.41492554545402527,0.20293718576431274,0.01671355403959751
1789997781713406200,1.03240625,0.36142972111701965,0.18360720574855804,0.015614422038197517
1789997781723477200,1.042477294921875,0.2896929681301117,0.17633330821990967,0.07183775305747986
1789997781733549300,1.05254931640625,0.19029349088668823,0.17726297676563263,0.0969812348484993
1789997781743620400,1.062620361328125,0.11132597923278809,0.18136557936668396,0.09106342494487762
1789997781753691100,1.072691162109375,0.03599344193935394,0.20543944835662842,0.061207275837659836
1789997781763762200,1.08276220703125,-0.03998121619224548,0.17904779314994812,0.033163923770189285
1789997781773833200,1.092833251953125,-0.0851893201470375,0.15532048046588898,0.05640746280550957
1789997781783905300,1.1029052734375,-0.10166949778795242,0.11170614510774612,0.05364230275154114
1789997781793976300,1.112976318359375,-0.13390128314495087,0.0731901228427887,0.05223614349961281
1789997781804047400,1.12304736328125,-0.19168762862682343,0.043607197701931,0.09585845470428467
1789997781814118400,1.133118408203125,-0.2511698305606842,0.02435104176402092,0.0635838583111763
1789997781824190500,1.1431904296875,-0.31917816400527954,0.01809607818722725,0.00683109974488616
1789997781834261500,1.153261474609375,-0.36305877566337585,-0.014319958165287971,-0.004133378155529499
1789997781844332300,1.163332275390625,-0.37226319313049316,-0.04621530696749687,0.02971513383090496
1789997781854403300,1.1734033203125,-0.40147289633750916,-0.0792320966720581,0.03443605825304985
1789997781864474400,1.183474365234375,-0.41493889689445496,-0.11813848465681076,-0.0067052519880235195
1789997781874546200,1.193546142578125,-0.43754374980926514,-0.15674112737178802,-0.014692015945911407
1789997781884617200,1.2036171875,-0.4775409698486328,-0.18556399643421173,-0.039110537618398666
1789997781894688300,1.213688232421875,-0.4960183799266815,-0.1697341799736023,-0.0408666618168354
1789997781904759300,1.22375927734375,-0.4722922742366791,-0.15928979218006134,-0.06415307521820068
1789997781914830000,1.233830078125,-0.47045573592185974,-0.1653195023536682,-0.06277833133935928
1789997781924902100,1.243902099609375,-0.4631589353084564,-0.13767109811306,-0.08361276984214783
1789997781934973200,1.25397314453125,-0.47921890020370483,-0.15513938665390015,-0.04530299827456474
1789997781945044200,1.264044189453125,-0.44112876057624817,-0.16058528423309326,-0.0718131735920906
1789997781955115300,1.274115234375,-0.40860840678215027,-0.11498043686151505,-0.04924682155251503
1789997781965186300,1.284186279296875,-0.3632427752017975,-0.05324250087141991,-0.05786987021565437
1789997781975258400,1.29425830078125,-0.2840156853199005,-0.06326918303966522,0.023109152913093567
1789997781985329400,1.304329345703125,-0.25649937987327576,-0.04685505852103233,0.05261271446943283
1789997781995400400,1.314400390625,-0.23897267878055573,-0.016472531482577324,0.01691359281539917
1789997782005471200,1.32447119140625,-0.19971874356269836,-0.02476055547595024,-0.009430929087102413
1789997782015542300,1.334542236328125,-0.12281374633312225,-0.02423825114965439,0.07812316715717316
1789997782025614300,1.3446142578125,-0.07811231911182404,0.0026279850862920284,0.05611772835254669
1789997782035685400,1.354685302734375,-0.027561631053686142,-0.0002087852917611599,0.0419832319021225
1789997782045756400,1.36475634765625,0.02575698494911194,0.0249295923858881,0.05216928943991661
1789997782055827500,1.374827392578125,0.0407671183347702,0.04501307010650635,0.01845206506550312
1789997782065898500,1.3848984375,0.07824312895536423,0.05692192539572716,-0.026726597920060158
1789997782075970300,1.39497021484375,0.1404244303703308,0.07844993472099304,-0.027999814599752426
1789997782086041000,1.405041015625,0.15337112545967102,0.08074478060007095,-0.0742887482047081
1789997782096112000,1.415112060546875,0.21116013824939728,0.07667134702205658,-0.05532441288232803
1789997782106183200,1.42518310546875,0.27983930706977844,0.10532855987548828,-0.014771128073334694
1789997782116254200,1.435254150390625,0.28638750314712524,0.11203586310148239,-0.027810463681817055
1789997782126326300,1.445326171875,0.28466203808784485,0.11317169666290283,-0.004297946579754353
1789997782136397300,1.455397216796875,0.2606404423713684,0.12658384442329407,0.01753915101289749
1789997782146468400,1.46546826171875,0.2469472587108612,0.11487790942192078,-0.003675057552754879
1789997782156539100,1.4755390625,0.2643089294433594,0.09886414557695389,0.015870915725827217
1789997782166610200,1.485610107421875,0.26816412806510925,0.11885437369346619,0.009080121293663979
1789997782176682200,1.49568212890625,0.2306731641292572,0.12255588918924332,-0.0028382549062371254
1789997782186753300,1.505753173828125,0.19519932568073273,0.09713974595069885,-0.0698455199599266
1789997782196824300,1.51582421875,0.18287299573421478,0.09176195412874222,-0.046195872128009796
1789997782206895400,1.525895263671875,0.19200684130191803,0.07033389061689377,-0.07650957256555557
1789997782216966400,1.53596630859375,0.1923833042383194,0.052786000072956085,-0.09778796881437302
1789997782227038500,1.54603857421875,0.1739521026611328,0.041050247848033905,-0.061842482537031174
1789997782237109500,1.556109619140625,0.14543259143829346,0.0321466401219368,-0.06432991474866867
1789997782247180300,1.56618017578125,0.1251012235879898,0.0392058789730072,0.014343060553073883
1789997782257251300,1.576251220703125,0.10091713815927505,0.04970478266477585,0.06326431035995483
1789997782267322400,1.586322265625,0.0786009132862091,0.06374549865722656,0.09738286584615707
1789997782277394200,1.596394287109375,0.07059915363788605,0.07379169017076492,0.11095912754535675
1789997782287465200,1.60646533203125,0.05998992174863815,0.054920002818107605,0.06346537917852402
1789997782297536300,1.616536376953125,0.03735600784420967,0.012205343693494797,0.07641074061393738
1789997782307607300,1.626607177734375,-0.010415243916213512,-0.017889708280563354,0.06405846029520035
1789997782317678300,1.63667822265625,-0.09103811532258987,-0.014122391119599342,0.0635218471288681
1789997782327750100,1.646750244140625,-0.16091281175613403,-0.025532972067594528,0.006797586567699909
1789997782337821200,1.6568212890625,-0.20277152955532074,-0.021420862525701523,0.03647182136774063
1789997782347892200,1.666892333984375,-0.19229598343372345,-0.04503617435693741,0.027343569323420525
1789997782357963300,1.67696337890625,-0.22516976296901703,-0.052727870643138885,0.0592503622174263
1789997782368034300,1.687034423828125,-0.2521129548549652,-0.07417111098766327,0.0314357727766037
1789997782378106400,1.6971064453125,-0.2752869129180908,-0.07519553601741791,0.009487585164606571
1789997782388177400,1.707177490234375,-0.2859840393066406,-0.10104284435510635,-0.007007768377661705
1789997782398248200,1.717248291015625,-0.2461179494857788,-0.09853336215019226,0.0333745963871479
1789997782408319200,1.7273193359375,-0.24197620153427124,-0.1125173568725586,0.03570646047592163
1789997782418390300,1.737390380859375,-0.22107604146003723,-0.11380260437726974,-0.013558038510382175
1789997782428462300,1.74746240234375,-0.21192675828933716,-0.10931571573019028,0.010040231980383396
1789997782438533400,1.757533447265625,-0.20794974267482758,-0.08395969122648239,0.0018450849456712604
1789997782448604400,1.7676044921875,-0.2258847951889038,-0.07316084206104279,0.0054595270194113255
1789997782458675500,1.777675537109375,-0.24150076508522034,-0.0604533851146698,0.0021545784547924995
1789997782468746500,1.78774658203125,-0.21886548399925232,-0.03547479957342148,-0.02283466048538685
1789997782478818300,1.797818359375,-0.1663113236427307,-0.01573258638381958,-0.018557032570242882
1789997782488889300,1.807889404296875,-0.13509801030158997,-0.01573817990720272,0.04265732318162918
1789997782498960400,1.81796044921875,-0.07578213512897491,-0.044860005378723145,0.01963554136455059
1789997782509031200,1.82803125,-0.013854590244591236,-0.04457717761397362,0.01668502576649189
1789997782519103200,1.838103271484375,0.007415951695293188,-0.047850269824266434,-0.0007048185216262937
1789997782529174300,1.84817431640625,0.027522286400198936,-0.032514456659555435,0.007254570722579956
1789997782539245300,1.858245361328125,0.05699947103857994,-0.02427028864622116,-0.029054995626211166
1789997782549316400,1.86831640625,0.12002530694007874,-0.0006219502538442612,-0.03476560860872269
1789997782559387100,1.87838720703125,0.1469338983297348,0.02780241332948208,-0.060692790895700455
1789997782569459200,1.888459228515625,0.17490987479686737,0.04931436479091644,-0.10002528131008148
1789997782579530200,1.8985302734375,0.17195424437522888,0.08496342599391937,-0.0905497670173645
1789997782589601300,1.908601318359375,0.16681699454784393,0.10753318667411804,-0.05907892808318138
1789997782599672300,1.91867236328125,0.18502755463123322,0.11608301848173141,-0.03584121912717819
1789997782609743400,1.928743408203125,0.18083679676055908,0.12307035177946091,-0.04587068408727646
1789997782619815400,1.9388154296875,0.19766348600387573,0.1124485582113266,-0.08590304106473923
1789997782629886500,1.948886474609375,0.24309301376342773,0.11976107209920883,-0.102256178855896
1789997782639957500,1.95895751953125,0.289226770401001,0.1051986888051033,-0.068071648478508
1789997782650028300,1.9690283203125,0.30816903710365295,0.1008838415145874,0.00019608985166996717
1789997782660099300,1.979099365234375,0.29768848419189453,0.11517703533172607,0.04132197052240372
1789997782670171100,1.989171142578125,0.2628066837787628,0.15936820209026337,0.03416738659143448
1789997782680242200,1.9992421875,0.25578081607818604,0.19207365810871124,0.0008576721884310246
1789997782690313200,2.009313232421875,0.26368480920791626,0.1879284530878067,-0.05363539606332779
1789997782700384500,2.019384521484375,0.2371247261762619,0.13836529850959778,-0.021347766742110252
1789997782710455600,2.02945556640625,0.1845422089099884,0.10334021598100662,-0.0501173660159111
1789997782720527600,2.039527587890625,0.16704991459846497,0.08096498996019363,-0.05122238025069237
1789997782730598700,2.0495986328125,0.15452799201011658,0.09234867244958878,-0.08482028543949127
1789997782740669700,2.059669677734375,0.1425258070230484,0.09559983015060425,0.00002227764343842864
1789997782750740500,2.069740478515625,0.14139661192893982,0.06327837705612183,0.07497107982635498
1789997782760812800,2.079812744140625,0.11971013247966766,0.06191059947013855,0.08292432129383087
1789997782770883600,2.089883544921875,0.045037224888801575,0.08688359707593918,0.027111660689115524
1789997782780954600,2.09995458984375,0.0021208974067121744,0.08845530450344086,0.0007500412757508457
1789997782791025700,2.110025634765625,0.018275367096066475,0.059924326837062836,0.0037628752179443836
1789997782801096700,2.1200966796875,-0.01642695441842079,0.037772417068481445,-0.042523663491010666
1789997782811168800,2.130168701171875,-0.08026611804962158,0.003916185349225998,-0.040718574076890945
1789997782821239800,2.14023974609375,-0.1254701018333435,0.009608512744307518,-0.01722712814807892
1789997782831310800,2.150310791015625,-0.11810911446809769,0.021691273897886276,-0.0028316760435700417
1789997782841381600,2.160381591796875,-0.16224947571754456,0.04662928357720375,-0.02814554050564766
1789997782851452700,2.17045263671875,-0.14589953422546387,0.032394688576459885,-0.0040282197296619415
1789997782861524500,2.1805244140625,-0.11443424224853516,0.02893337793648243,-0.006914741359651089
1789997782871595500,2.190595458984375,-0.11103631556034088,0.03225567191839218,0.020234322175383568
1789997782881666600,2.20066650390625,-0.12561094760894775,0.03336946293711662,0.029478883370757103
1789997782891737600,2.210737548828125,-0.10106218606233597,0.044869791716337204,0.042672984302043915
1789997782901808600,2.22080859375,-0.07047247141599655,0.04973074421286583,0.1004742980003357
1789997782911880700,2.230880615234375,-0.08505381643772125,0.05492657050490379,0.13039730489253998
1789997782921951500,2.240951416015625,-0.12815357744693756,0.05492444708943367,0.12087750434875488
1789997782932022500,2.2510224609375,-0.1391628235578537,0.0645509734749794,0.09882652759552002
1789997782942093600,2.261093505859375,-0.13300378620624542,0.08271549642086029,0.11469978839159012
1789997782952164600,2.27116455078125,-0.1614796370267868,0.060371045023202896,0.08077031373977661
1789997782962236700,2.281236572265625,-0.16621960699558258,0.04717192053794861,0.03331921622157097
1789997782972307700,2.2913076171875,-0.183970108628273,0.015027564950287342,-0.011331342160701752
1789997782982378800,2.301378662109375,-0.21264664828777313,-0.006704964675009251,-0.023505738005042076
1789997782992449800,2.31144970703125,-0.2215043157339096,-0.03062894009053707,-0.04711306467652321
1789997783002520600,2.3215205078125,-0.22025327384471893,-0.03440496698021889,-0.014721812680363655
1789997783012592600,2.331592529296875,-0.2267513871192932,-0.05475763976573944,0.03255701810121536
1789997783022663700,2.34166357421875,-0.2555772364139557,-0.044525161385536194,0.058113809674978256
1789997783032734700,2.351734619140625,-0.2877711057662964,-0.05801088362932205,0.0523131787776947
1789997783042805800,2.3618056640625,-0.330782949924469,-0.0701882615685463,0.006835464388132095
1789997783052877600,2.371877685546875,-0.3396238386631012,-0.0993751809000969,-0.04344954341650009
1789997783062948600,2.381948486328125,-0.3407377600669861,-0.12867774069309235,-0.03236474469304085
1789997783073019600,2.39201953125,-0.3537544906139374,-0.1266803741455078,-0.026164637878537178
1789997783083090400,2.40209033203125,-0.36300355195999146,-0.11010292917490005,0.005311537533998489
1789997783093161500,2.412161376953125,-0.37683868408203125,-0.08193467557430267,0.027735885232686996
1789997783103233500,2.422233642578125,-0.374856561422348,-0.08293310552835464,0.058025602251291275
1789997783113304600,2.4323046875,-0.34428641200065613,-0.07759453356266022,0.0837530717253685
1789997783123375600,2.442375732421875,-0.28231608867645264,-0.06673267483711243,0.025578973814845085
1789997783133446700,2.45244677734375,-0.2579556405544281,-0.03052087314426899,0.046209950000047684
1789997783143517700,2.462517578125,-0.23088878393173218,-0.04107843339443207,0.061000894755125046
1789997783153589800,2.47258984375,-0.19722776114940643,-0.05816687270998955,0.024841560050845146
1789997783163660800,2.482660888671875,-0.2279256135225296,-0.06913889944553375,0.0076378509402275085
1789997783173731600,2.492731689453125,-0.2654687464237213,-0.06013954430818558,-0.020253967493772507
1789997783183802600,2.502802734375,-0.2820514440536499,-0.07399743050336838,-0.08808504790067673
1789997783193873700,2.512873779296875,-0.2892020344734192,-0.11764610558748245,-0.10335508733987808
1789997783203945700,2.52294580078125,-0.2576479911804199,-0.14840401709079742,-0.062214743345975876
1789997783214016800,2.533016845703125,-0.23062704503536224,-0.14302043616771698,-0.034179914742708206
1789997783224087800,2.543087890625,-0.2369127720594406,-0.11904148757457733,-0.016067221760749817
1789997783234158800,2.553158935546875,-0.230642631649971,-0.11802123486995697,-0.010078305378556252
1789997783244229600,2.563229736328125,-0.20725764334201813,-0.13007263839244843,-0.0054598841816186905
1789997783254301400,2.573301513671875,-0.21517547965049744,-0.13575023412704468,0.006315016187727451
1789997783264372500,2.58337255859375,-0.2251458764076233,-0.13663025200366974,-0.06740420311689377
1789997783274443500,2.593443603515625,-0.21459470689296722,-0.18313489854335785,-0.09297773987054825
1789997783284514600,2.6035146484375,-0.1846877783536911,-0.1889200210571289,-0.0940387174487114
1789997783294585600,2.613585693359375,-0.15089307725429535,-0.17716029286384583,-0.0025050765834748745
1789997783304657700,2.62365771484375,-0.18803703784942627,-0.1588214635848999,0.023976759985089302
1789997783314728700,2.633728759765625,-0.21660050749778748,-0.14943914115428925,0.03657937049865723
1789997783324799500,2.643799560546875,-0.2462480068206787,-0.1583901047706604,0.029015792533755302
1789997783334870500,2.65387060546875,-0.26507440209388733,-0.15267975628376007,0.03373038396239281
1789997783344942600,2.663942626953125,-0.29677847027778625,-0.1601250022649765,0.038260407745838165
1789997783355013600,2.674013671875,-0.3382393717765808,-0.15370039641857147,0.02533821389079094
1789997783365084700,2.684084716796875,-0.34258776903152466,-0.18002475798130035,0.028099939227104187
1789997783375155700,2.69415576171875,-0.3439246714115143,-0.1912185549736023,-0.03953929245471954
1789997783385226800,2.704226806640625,-0.30111730098724365,-0.2238367348909378,-0.04305632784962654
1789997783395298800,2.714298828125,-0.2540847957134247,-0.22762960195541382,-0.012837172485888004
1789997783405369900,2.724369873046875,-0.24035635590553284,-0.21599331498146057,-0.02259199507534504
1789997783415440600,2.734440673828125,-0.26259109377861023,-0.19796104729175568,-0.0564303882420063
1789997783425511700,2.74451171875,-0.2743546962738037,-0.18656179308891296,-0.033811356872320175
1789997783435582700,2.754582763671875,-0.27344441413879395,-0.1953590214252472,-0.00579037657007575
1789997783445654500,2.764654541015625,-0.2495136260986328,-0.22089849412441254,0.029939360916614532
1789997783455725600,2.7747255859375,-0.2263859510421753,-0.22630150616168976,-0.013174287043511868
1789997783465796600,2.784796630859375,-0.20619529485702515,-0.22390015423297882,-0.07166311889886856
1789997783475867600,2.79486767578125,-0.1474076211452484,-0.215501606464386,-0.02507031336426735
1789997783485938400,2.8049384765625,-0.08028258383274078,-0.21121196448802948,0.010632545687258244
1789997783496010500,2.815010498046875,-0.013036968186497688,-0.2018967717885971,-0.01757991686463356
1789997783506081500,2.82508154296875,0.03691820427775383,-0.19615016877651215,-0.009652461856603622
1789997783516152600,2.835152587890625,0.07185621559619904,-0.19164623320102692,-0.006791427731513977
1789997783526223600,2.8452236328125,0.07596222311258316,-0.16289034485816956,-0.03442522510886192
1789997783536295700,2.855295654296875,0.07921048253774643,-0.16032972931861877,-0.016326382756233215
1789997783546366700,2.86536669921875,0.11060898005962372,-0.16543787717819214,-0.012536697089672089
1789997783556437800,2.875437744140625,0.14342497289180756,-0.14555896818637848,-0.042468760162591934
1789997783566508500,2.885508544921875,0.19409789144992828,-0.12593398988246918,-0.014245649799704552
1789997783576579600,2.89557958984375,0.23835057020187378,-0.1036880612373352,-0.007636482827365398
1789997783586651600,2.905651611328125,0.271137535572052,-0.09858691692352295,-0.010009865276515484
1789997783596722700,2.91572265625,0.27924713492393494,-0.07483018934726715,-0.015485590323805809
1789997783606793700,2.925793701171875,0.3159022033214569,-0.07986652106046677,-0.021582655608654022
1789997783616864800,2.93586474609375,0.3906901478767395,-0.08251716196537018,-0.006009554956108332
1789997783626935800,2.945935791015625,0.4539030194282532,-0.015635628253221512,0.008773606270551682
1789997783637007600,2.956007568359375,0.4704311490058899,0.04404314607381821,0.04574546962976456
1789997783647078700,2.96607861328125,0.48311182856559753,0.05772367864847183,0.011571039445698261
1789997783657149400,2.9761494140625,0.5003046989440918,0.06286997348070145,0.0031330795027315617
1789997783667220500,2.986220458984375,0.47462427616119385,0.01847892999649048,0.012949176132678986
1789997783677291500,2.99629150390625,0.45948395133018494,-0.0035259691067039967,0.0045189401134848595
1789997783687363600,3.006363525390625,0.43527451157569885,0.00319087877869606,-0.0041290889494121075
1789997783697434600,3.0164345703125,0.4259156286716461,0.04814743623137474,-0.017562607303261757
1789997783707505400,3.02650537109375,0.42774367332458496,0.08644112944602966,-0.009812818840146065
1789997783717576400,3.036576416015625,0.3720993101596832,0.07196018844842911,-0.017874738201498985
1789997783727648500,3.0466484375,0.31076979637145996,0.060805872082710266,-0.0262833833694458
1789997783737719600,3.056719482421875,0.28896382451057434,0.03778364509344101,-0.036175161600112915
1789997783747790600,3.06679052734375,0.2516101002693176,0.03289053589105606,-0.023094549775123596
1789997783757861600,3.076861572265625,0.21931344270706177,0.022138560190796852,-0.027845628559589386
1789997783767932400,3.086932373046875,0.20020760595798492,0.00866037979722023,-0.037207670509815216
1789997783778004500,3.09700439453125,0.17295947670936584,-0.005595254711806774,-0.07921397686004639
1789997783788075500,3.107075439453125,0.15758447349071503,-0.02176397666335106,-0.025166762992739677
1789997783798146600,3.117146484375,0.1495712846517563,-0.025889214128255844,0.015887727960944176
1789997783808217600,3.127217529296875,0.09473872929811478,-0.029479674994945526,0.07671087980270386
1789997783818288600,3.13728857421875,-0.0018016619142144918,-0.01741209626197815,0.0535040944814682
1789997783828360400,3.1473603515625,-0.06873971968889236,0.01933237724006176,0.01860920526087284
1789997783838431500,3.157431396484375,-0.06297504156827927,0.003531842026859522,0.04506637901067734
1789997783848502500,3.16750244140625,-0.08004926145076752,-0.021251831203699112,0.0535573735833168
1789997783858573300,3.1775732421875,-0.10137345641851425,-0.03370983153581619,0.040272727608680725
1789997783868644400,3.187644287109375,-0.12367844581604004,-0.01461460255086422,0.005731781478971243
1789997783878716400,3.19771630859375,-0.17329633235931396,-0.02027808129787445,0.02408815175294876
1789997783888787500,3.207787353515625,-0.209657222032547,-0.0350932851433754,0.011223237961530685
1789997783898858500,3.2178583984375,-0.21244768798351288,-0.05743267759680748,-0.006013272795826197
1789997783908929500,3.227929443359375,-0.20021392405033112,-0.08864599466323853,-0.013809677213430405
1789997783919001600,3.238001708984375,-0.20106667280197144,-0.12132377922534943,-0.0488576777279377
1789997783929072600,3.24807275390625,-0.1836850345134735,-0.08915510028600693,-0.04626884311437607
1789997783939143400,3.258143310546875,-0.16886693239212036,-0.10617030411958694,-0.04135531187057495
1789997783949214500,3.26821435546875,-0.15803119540214539,-0.1228817030787468,-0.04441630095243454
1789997783959285500,3.278285400390625,-0.13575412333011627,-0.12137382477521896,-0.02142496407032013
1789997783969357600,3.288357666015625,-0.12293452024459839,-0.12796808779239655,-0.01324400957673788
1789997783979428600,3.2984287109375,-0.09737297147512436,-0.10952596366405487,0.01426138449460268
1789997783989499600,3.308499755859375,-0.0538845956325531,-0.10905497521162033,0.028973989188671112
1789997783999570700,3.31857080078125,-0.016172640025615692,-0.1103663221001625,0.03887082636356354
1789997784009641500,3.328641357421875,-0.0073505486361682415,-0.09792112559080124,0.009243457578122616
1789997784019713300,3.33871337890625,0.0068510244600474834,-0.10296835005283356,-0.006092621013522148
1789997784029784300,3.348784423828125,0.035271044820547104,-0.06970571726560593,0.030997443944215775
1789997784039855400,3.35885546875,0.032623063772916794,-0.0635056123137474,0.0072622885927557945
1789997784049926400,3.368926513671875,0.04250384494662285,-0.07805433869361877,0.007625028025358915
1789997784059998500,3.37899853515625,0.10224653035402298,-0.09458564966917038,0.01248263381421566
1789997784070069500,3.389069580078125,0.13079455494880676,-0.08354387432336807,0.018290767446160316
1789997784080140500,3.399140625,0.15963418781757355,-0.05337212607264519,0.004088129848241806
1789997784090211600,3.409211669921875,0.16735443472862244,-0.038230497390031815,-0.041410427540540695
1789997784100282400,3.419282470703125,0.17237316071987152,-0.037628091871738434,-0.05866611376404762
1789997784110354400,3.4293544921875,0.22053533792495728,-0.03834160044789314,-0.06425821036100388
1789997784120425500,3.439425537109375,0.262775182723999,-0.05918296426534653,-0.04094569757580757
1789997784130496500,3.44949658203125,0.28523382544517517,-0.07907257974147797,0.01807313784956932
1789997784140567600,3.459567626953125,0.3040330708026886,-0.047535959631204605,0.0014408989809453487
1789997784150638600,3.469638671875,0.31272122263908386,-0.004979738965630531,-0.014381444081664085
1789997784160710700,3.479710693359375,0.2886715233325958,0.01843530498445034,-0.02601679414510727
1789997784170781700,3.48978173828125,0.33434903621673584,0.03880361467599869,-0.050259582698345184
1789997784180852500,3.4998525390625,0.40399283170700073,0.04741574451327324,0.01433006301522255
1789997784190923500,3.509923583984375,0.44055256247520447,0.056747034192085266,0.03262518346309662
1789997784200994600,3.51999462890625,0.4920985698699951,0.05950421094894409,0.03750915452837944
1789997784211066400,3.53006640625,0.5019215941429138,0.0743449255824089,0.020382139831781387
1789997784221137400,3.540137451171875,0.5092402100563049,0.08451500535011292,-0.0014286163495853543
1789997784231208400,3.55020849609375,0.4843289256095886,0.1328212320804596,-0.030150873586535454
1789997784241279500,3.560279541015625,0.4447309076786041,0.16161133348941803,-0.05226496234536171
1789997784251351600,3.5703515625,0.42005351185798645,0.15677769482135773,-0.045850738883018494
1789997784261422600,3.580422607421875,0.3991279900074005,0.1830894649028778,-0.032200440764427185
1789997784271493400,3.590493408203125,0.38289040327072144,0.1502363532781601,-0.005715229548513889
1789997784281564400,3.600564453125,0.3947468101978302,0.16369277238845825,0.037307340651750565
1789997784291635500,3.610635498046875,0.3916769027709961,0.17297843098640442,-0.01206396333873272
1789997784301707500,3.62070751953125,0.3797776401042938,0.16969262063503265,0.004794645588845015
1789997784311778600,3.630778564453125,0.3738369941711426,0.19124706089496613,0.003493943251669407
1789997784321849600,3.640849609375,0.3270774781703949,0.16491025686264038,-0.02318667061626911
1789997784331920600,3.650920654296875,0.2997344732284546,0.15083137154579163,-0.08142094314098358
1789997784341991400,3.660991455078125,0.2820042073726654,0.12808026373386383,0.011773986741900444
1789997784352063500,3.6710634765625,0.23987933993339539,0.1439659148454666,0.01904495805501938
1789997784362134500,3.681134521484375,0.2532912790775299,0.13204054534435272,0.04288690909743309
1789997784372205600,3.69120556640625,0.2266312837600708,0.14833687245845795,-0.0342627577483654
1789997784382276600,3.701276611328125,0.19973574578762054,0.13175417482852936,-0.02239597775042057
1789997784392348400,3.711348388671875,0.16195304691791534,0.10760904103517532,0.02076958678662777
1789997784402419500,3.72141943359375,0.12848936021327972,0.1304136961698532,0.03877362236380577
1789997784412490500,3.731490478515625,0.0677124410867691,0.12791788578033447,0.029383642598986626
1789997784422561300,3.741561279296875,0.07713364064693451,0.08872973918914795,0.039782218635082245
1789997784432632300,3.75163232421875,0.08080551028251648,0.0873752012848854,0.03669508174061775
1789997784442704400,3.761704345703125,0.04454817250370979,0.07902272790670395,0.003308627288788557
1789997784452775400,3.771775390625,0.017803823575377464,0.07183928042650223,-0.023935027420520782
1789997784462846500,3.781846435546875,-0.03842216357588768,0.08193346112966537,-0.03512509912252426
1789997784472917500,3.79191748046875,-0.09839536994695663,0.0758194848895073,-0.04023144021630287
1789997784482988500,3.801988525390625,-0.11487314105033875,0.03685317561030388,-0.014446183107793331
1789997784493060600,3.812060546875,-0.15768398344516754,0.03683631122112274,0.04391089081764221
1789997784503131600,3.822131591796875,-0.1682756394147873,0.03454466164112091,0.04514846205711365
1789997784513202400,3.832202392578125,-0.14748583734035492,0.01267768070101738,-0.02072080969810486
1789997784523273500,3.8422734375,-0.15514402091503143,-0.005858452990651131,-0.012789917178452015
1789997784533345500,3.852345458984375,-0.15311121940612793,-0.02874871715903282,-0.034961819648742676
1789997784543416600,3.86241650390625,-0.16373802721500397,-0.02355848252773285,-0.05015595257282257
1789997784553487600,3.872487548828125,-0.1585177630186081,-0.03044489398598671,-0.04487758129835129
1789997784563558700,3.88255859375,-0.12295576930046082,-0.024046117439866066,-0.02712787687778473
1789997784573629700,3.892629638671875,-0.10602737963199615,0.014985613524913788,0.038966208696365356
1789997784583701500,3.902701416015625,-0.1142224594950676,0.020390765741467476,-0.011071392334997654
1789997784593772300,3.912772216796875,-0.09292800724506378,0.03921094164252281,0.03239830955862999
1789997784603843300,3.92284326171875,-0.039924975484609604,0.05628366395831108,0.05207134783267975
1789997784613914400,3.932914306640625,-0.016489489004015923,0.06572030484676361,0.07088017463684082
1789997784623986400,3.942986328125,0.005275726318359375,0.059845104813575745,0.06203022599220276
1789997784634057500,3.953057373046875,0.018318504095077515,0.04341942444443703,0.06692378968000412
1789997784644128500,3.96312841796875,0.004670601803809404,0.06271695345640182,0.04420596361160278
1789997784654199600,3.973199462890625,-0.012223523110151291,0.07787938416004181,-0.029370753094553947
1789997784664270600,3.9832705078125,0.0736042931675911,0.08805958181619644,-0.022722171619534492
1789997784674342700,3.9933427734375,0.1459629088640213,0.07857504487037659,0.06770672649145126
1789997784684413400,4.003413330078125,0.12557029724121094,0.07356376945972443,-0.004297689069062471
1789997784694484500,4.013484375,0.10702242702245712,0.09526035934686661,-0.056936848908662796
1789997784704555000,4.023554931640625,0.10581628233194351,0.1053103357553482,-0.05974728241562843
1789997784714626000,4.0336259765625,0.11546412855386734,0.11039204895496368,-0.04335767403244972
1789997784724698000,4.043697998046875,0.13005505502223969,0.13298337161540985,-0.017142316326498985
1789997784734769200,4.05376904296875,0.14748410880565643,0.14995206892490387,0.05476701259613037
1789997784744840200,4.063840087890625,0.18464478850364685,0.1298084557056427,0.08196800947189331
1789997784754911200,4.0739111328125,0.1919431835412979,0.11768542230129242,0.06370958685874939
1789997784764983300,4.0839833984375,0.1685236096382141,0.13003556430339813,0.07472841441631317
1789997784775054300,4.094054443359375,0.1424906998872757,0.1390824168920517,0.0789644867181778
1789997784785125400,4.10412548828125,0.153786763548851,0.16175630688667297,0.03794888034462929
1789997784795196200,4.114196044921875,0.17611707746982574,0.1416456699371338,-0.014012585394084454
1789997784805267200,4.12426708984375,0.1342223584651947,0.09842762351036072,-0.00446781562641263
1789997784815339000,4.134339111328125,0.09529183059930801,0.08125380426645279,-0.0072048138827085495
1789997784825410000,4.14441015625,0.059370845556259155,0.10101845115423203,-0.0019605173729360104
1789997784835481000,4.154481201171875,0.04472027346491814,0.06917547434568405,0.020399941131472588
1789997784845552000,4.16455224609375,0.06663648784160614,0.051151204854249954,0.0669032633304596
1789997784855623200,4.174623046875,0.05229925364255905,0.059871528297662735,0.11908180266618729
1789997784865695200,4.1846953125,-0.004894260782748461,0.04556875303387642,0.10659264028072357
1789997784875766000,4.19476611328125,-0.061603132635354996,0.03428484499454498,0.08367960900068283
1789997784885837000,4.204837158203125,-0.09085769206285477,0.03570137917995453,-0.017315447330474854
1789997784895908000,4.214908203125,-0.09784722328186035,-0.008509235456585884,-0.018730662763118744
1789997784905980200,4.224980224609375,-0.07184091955423355,-0.03224892169237137,-0.006076121237128973
1789997784916051200,4.23505126953125,-0.08353422582149506,-0.0247992891818285,0.04014705866575241
1789997784926122200,4.245122314453125,-0.0992002785205841,0.0026051714085042477,0.029478702694177628
1789997784936193300,4.255193359375,-0.11084287613630295,0.014076145365834236,-0.010998380370438099
1789997784946264000,4.26526416015625,-0.11769518256187439,0.006555911619216204,-0.044556874781847
1789997784956336400,4.27533642578125,-0.09016912430524826,-0.02139340154826641,-0.0427057258784771
1789997784966407200,4.2854072265625,-0.024132050573825836,-0.03499709442257881,-0.04296644777059555
1789997784976478200,4.295478271484375,-0.015710651874542236,-0.00015190104022622108,-0.0028816410340368748
1789997784986549200,4.30554931640625,0.0014464976266026497,0.012854712083935738,0.0028287088498473167
1789997784996621000,4.31562109375,0.019150594249367714,0.03442603722214699,0.07249779254198074
1789997785006692000,4.325692138671875,0.0359298400580883,0.04407253861427307,0.13391907513141632
1789997785016763100,4.33576318359375,0.06046164035797119,0.05956980213522911,0.07098644971847534
1789997785026834200,4.345834228515625,0.07489890605211258,0.1103709265589714,0.040748391300439835
1789997785036905000,4.355905029296875,0.08936764299869537,0.13989727199077606,0.0007919483468867838
1789997785046977000,4.36597705078125,0.11479630321264267,0.1240495890378952,-0.01008892897516489
1789997785057048000,4.376048095703125,0.15353277325630188,0.15301822125911713,-0.022207126021385193
1789997785067119000,4.386119140625,0.22356219589710236,0.13200348615646362,-0.031433649361133575
1789997785077190100,4.396190185546875,0.2566150426864624,0.1421736627817154,-0.01596198044717312
1789997785087261200,4.40626123046875,0.29503512382507324,0.15637043118476868,0.030997006222605705
1789997785097333200,4.416333251953125,0.2739757299423218,0.1775088608264923,0.016754647716879845
1789997785107404300,4.426404296875,0.27863678336143494,0.17829635739326477,0.01985163800418377
1789997785117475000,4.43647509765625,0.2772673964500427,0.1986570954322815,-0.005423910450190306
1789997785127546000,4.446546142578125,0.25342223048210144,0.22641442716121674,-0.020784491673111916
1789997785137618200,4.4566181640625,0.22637015581130981,0.2187681943178177,-0.024153374135494232
1789997785147689200,4.466689208984375,0.2319508045911789,0.19976919889450073,-0.02238583378493786
1789997785157760300,4.47676025390625,0.246286079287529,0.19107504189014435,0.00865890085697174
1789997785167831300,4.486831298828125,0.24273528158664703,0.191828191280365,-0.011503624729812145
1789997785177902300,4.49690234375,0.22249209880828857,0.19207315146923065,-0.01195581629872322
1789997785187974100,4.50697412109375,0.21051666140556335,0.19423671066761017,0.026964951306581497
1789997785198045200,4.517045166015625,0.19903740286827087,0.19424369931221008,0.020441267639398575
1789997785208116000,4.527115966796875,0.17268063127994537,0.20611393451690674,0.044446203857660294
1789997785218187000,4.53718701171875,0.13447801768779755,0.16589516401290894,0.035063594579696655
1789997785228259000,4.547259033203125,0.08534508943557739,0.16275715827941895,0.04831095412373543
1789997785238330000,4.557330078125,0.04659643396735191,0.1739514172077179,0.035740599036216736
1789997785248401200,4.567401123046875,0.029842492192983627,0.15945182740688324,0.016053181141614914
1789997785258472200,4.57747216796875,0.002613070886582136,0.14778663218021393,0.0258844755589962
1789997785268543200,4.587543212890625,-0.056421488523483276,0.12734739482402802,0.024647703394293785
1789997785278615300,4.597615234375,-0.10500415414571762,0.09496109932661057,0.04191141203045845
1789997785288686000,4.60768603515625,-0.16953814029693604,0.06607432663440704,0.06122039631009102
1789997785298757000,4.617757080078125,-0.2622201144695282,0.05384034663438797,0.022629056125879288
1789997785308828200,4.627828125,-0.3404901325702667,0.04349716007709503,0.0028976963367313147
1789997785318899200,4.637899169921875,-0.38843780755996704,0.028438344597816467,-0.005460925865918398
1789997785328971300,4.64797119140625,-0.4526871144771576,-0.02370688132941723,0.03734219819307327
1789997785339042300,4.658042236328125,-0.5262287259101868,-0.04789203032851219,0.018723532557487488
1789997785349113300,4.66811328125,-0.596895694732666,-0.061802785843610764,0.007375536952167749
1789997785359184400,4.678184326171875,-0.6443185806274414,-0.06689957529306412,0.0013077592011541128
1789997785369256200,4.688256103515625,-0.6663674116134644,-0.08176001161336899,-0.011633871123194695
1789997785379327000,4.698326904296875,-0.6904492974281311,-0.11193891614675522,-0.0031596531625837088
1789997785389398000,4.70839794921875,-0.6974558234214783,-0.1382077932357788,0.038344383239746094
1789997785399469000,4.718468994140625,-0.6865811944007874,-0.1320463865995407,0.054803501814603806
1789997785409540000,4.7285400390625,-0.6970101594924927,-0.11936627328395844,0.05662590265274048
1789997785419612200,4.738612060546875,-0.6833950877189636,-0.10696426033973694,0.027536986395716667
1789997785429683200,4.74868310546875,-0.642207145690918,-0.08969046175479889,0.013782026246190071
1789997785439754200,4.758754150390625,-0.5734755992889404,-0.14895470440387726,0.009427489712834358
1789997785449825000,4.768824951171875,-0.5125073194503784,-0.17273086309432983,0.0027418897952884436
1789997785459897000,4.77889697265625,-0.5001755356788635,-0.16063116490840912,-0.015397179871797562
1789997785469968100,4.788968017578125,-0.4521086513996124,-0.13202962279319763,0.009202972054481506
1789997785480039200,4.7990390625,-0.3975215554237366,-0.1292099952697754,0.015433735214173794
1789997785490110200,4.809110107421875,-0.33825743198394775,-0.11037399619817734,-0.021396450698375702
1789997785500181200,4.81918115234375,-0.231354758143425,-0.06979280710220337,-0.032449107617139816
1789997785510253300,4.82925341796875,-0.15938416123390198,-0.0736466646194458,0.0490843690931797
1789997785520324400,4.839324462890625,-0.09752016514539719,-0.0653844103217125,0.08228439837694168
1789997785530395100,4.84939501953125,-0.047270841896533966,-0.03840659186244011,0.05816735327243805
1789997785540466200,4.859466064453125,-0.0194028839468956,-0.016643840819597244,0.003488377667963505
1789997785550538000,4.8695380859375,0.04517264664173126,-0.004918476101011038,-0.0002736033929977566
1789997785560609000,4.879609130859375,0.06887219101190567,0.02554800733923912,0.002096367534250021
1789997785570680000,4.88968017578125,0.10023650527000427,0.01897932030260563,0.01901969127357006
1789997785580751000,4.899751220703125,0.1784808337688446,0.0177676510065794,-0.0021631268318742514
1789997785590823200,4.9098232421875,0.20719343423843384,0.03728090226650238,-0.030853360891342163
1789997785600894200,4.919894287109375,0.2124624401330948,0.04648534953594208,-0.049438200891017914
1789997785610965200,4.92996533203125,0.22736309468746185,0.0469287633895874,-0.05151120573282242
1789997785621036000,4.9400361328125,0.20424240827560425,0.07321164757013321,-0.061026159673929214
1789997785631107000,4.950107177734375,0.21997156739234924,0.08442702144384384,-0.05754567310214043
1789997785641179100,4.96017919921875,0.22608715295791626,0.07333701848983765,-0.031975604593753815
1789997785651250200,4.970250244140625,0.24333511292934418,0.05428476631641388,0.03398743271827698
1789997785661321200,4.9803212890625,0.21121899783611298,0.0640585646033287,0.06921999156475067
1789997785671392300,4.990392333984375,0.13786329329013824,0.09106115996837616,0.01930808834731579
1789997785681464300,5.00046435546875,0.09561380743980408,0.11266013979911804,0.015268610790371895
1789997785691535400,5.010535400390625,0.06917927414178848,0.10281896591186523,0.040183812379837036
1789997785701606000,5.02060595703125,0.010397475212812424,0.07866174727678299,0.07135850936174393
1789997785711677000,5.030677001953125,-0.0676264837384224,0.09490250051021576,0.05932288244366646
1789997785721748000,5.040748046875,-0.1386163979768753,0.07914025336503983,0.03150082379579544
1789997785731819800,5.05081982421875,-0.18546485900878906,0.0471908338367939,0.032793521881103516
1789997785741890800,5.060890869140625,-0.22599001228809357,0.03347709774971008,0.026147063821554184
1789997785751961600,5.070961669921875,-0.26006194949150085,-0.01775919273495674,0.01390770636498928
1789997785762032600,5.08103271484375,-0.3179697096347809,-0.06781867146492004,-0.005254786461591721
1789997785772104700,5.091104736328125,-0.3779515326023102,-0.11646903306245804,0.028705045580863953
1789997785782175700,5.10117578125,-0.4509405493736267,-0.158527672290802,0.03999154269695282
1789997785792246800,5.111246826171875,-0.5416984558105469,-0.20071187615394592,0.010896241292357445
1789997785802317800,5.12131787109375,-0.6186102628707886,-0.2464587390422821,0.03111683949828148
1789997785812388900,5.131388916015625,-0.665721595287323,-0.29250213503837585,0.030553847551345825
1789997785822461000,5.1414609375,-0.6907801628112793,-0.348048597574234,-0.047464024275541306
1789997785832532000,5.151531982421875,-0.7205747961997986,-0.3837485611438751,-0.061775319278240204
1789997785842602800,5.161602783203125,-0.7464447021484375,-0.3846682012081146,0.0015605251537635922
1789997785852673800,5.171673828125,-0.739905595779419,-0.4216453731060028,0.01022272277623415
1789997785862745900,5.181745849609375,-0.6901283264160156,-0.4516861140727997,-0.012422689236700535
1789997785872817000,5.19181689453125,-0.6553080677986145,-0.4375697672367096,0.0059818848967552185
1789997785882888000,5.201887939453125,-0.6018275022506714,-0.42112284898757935,0.010460558347404003
1789997785892959000,5.211958984375,-0.5008769035339355,-0.41952866315841675,0.001373320585116744
1789997785903030000,5.222030029296875,-0.41261398792266846,-0.43085354566574097,0.031486477702856064
1789997785913101800,5.232101806640625,-0.3388065993785858,-0.36228275299072266,0.03963415324687958
1789997785923172600,5.242172607421875,-0.2728840410709381,-0.282988965511322,0.012119460850954056
1789997785933243600,5.25224365234375,-0.19293196499347687,-0.3040013313293457,0.04662897065281868
1789997785943314700,5.262314697265625,-0.09375301003456116,-0.27035075426101685,0.0741705521941185
1789997785953386800,5.27238671875,-0.021025536581873894,-0.17709006369113922,0.03246065974235535
1789997785963457800,5.282457763671875,0.06614579260349274,-0.1375962495803833,0.023783840239048004
1789997785973528800,5.29252880859375,0.15834468603134155,-0.1511559933423996,-0.006325592752546072
1789997785983599900,5.302599853515625,0.21192502975463867,-0.11905137449502945,-0.05460100993514061
1789997785993670700,5.312670654296875,0.2893681526184082,-0.1049448698759079,-0.019607871770858765
1789997786003742700,5.32274267578125,0.37422889471054077,-0.08776496350765228,-0.030473027378320694
1789997786013813800,5.332813720703125,0.4280737638473511,-0.05677109956741333,-0.013081786222755909
1789997786023884800,5.342884765625,0.4721885621547699,-0.015329858288168907,-0.029733246192336082
1789997786033955800,5.352955810546875,0.5426102876663208,0.018642224371433258,0.002896867459639907
1789997786044028000,5.36302783203125,0.5853074789047241,0.05014899745583534,0.052553340792655945
1789997786054099000,5.373098876953125,0.6122248768806458,0.04133739694952965,0.039733681827783585
1789997786064170000,5.383169921875,0.6388927698135376,0.04369967058300972,0.07775463163852692
1789997786074241000,5.393240966796875,0.6321967840194702,0.10774682462215424,0.04112923890352249
1789997786084311800,5.403311767578125,0.6472906470298767,0.15501965582370758,-0.1238410696387291
1789997786094383600,5.413383544921875,0.6831945776939392,0.13072337210178375,-0.09761612862348557
1789997786104454700,5.42345458984375,0.6659782528877258,0.024974144995212555,0.004229823127388954
1789997786114525700,5.433525634765625,0.6105842590332031,-0.013641688972711563,-0.006835611537098885
1789997786124596700,5.4435966796875,0.6417370438575745,-0.023260673508048058,0.06546679884195328
1789997786134668800,5.453668701171875,0.6697854995727539,-0.000012075062841176987,0.12481028586626053
1789997786144739800,5.46373974609375,0.6634748578071594,-0.010977018624544144,0.19291186332702637
1789997786154811000,5.473810791015625,0.6850632429122925,0.0003648512065410614,0.27362748980522156
1789997786164881700,5.483881591796875,0.6422579288482666,0.04543022811412811,0.22105109691619873
1789997786174952700,5.49395263671875,0.5392172932624817,0.02990213967859745,0.11373289674520493
1789997786185024800,5.504024658203125,0.4321534335613251,0.03981504216790199,-0.06399369984865189
1789997786195095800,5.514095703125,0.46618810296058655,0.12836940586566925,-0.10750362277030945
1789997786205166800,5.524166748046875,0.5580580830574036,0.09202893823385239,0.19771775603294373
1789997786215238000,5.53423779296875,0.4983207583427429,-0.01740407571196556,0.56422358751297
1789997786225310000,5.54431005859375,0.3507894277572632,-0.03969147801399231,0.5148928165435791
1789997786235381000,5.554381103515625,0.3883437216281891,0.16032125055789948,0.2690688967704773
1789997786245452000,5.5644521484375,0.39714422821998596,0.19714002311229706,0.17622290551662445
1789997786255522800,5.574522705078125,0.14349302649497986,0.07119967043399811,0.19912129640579224
1789997786265593900,5.58459375,0.0827711969614029,0.08654074370861053,0.3265647292137146
1789997786275665700,5.594665771484375,0.18756899237632751,0.13653358817100525,0.2989906370639801
1789997786285736700,5.60473681640625,0.15309938788414001,0.11823559552431107,0.25765329599380493
1789997786295807700,5.614807861328125,0.14287391304969788,0.10217699408531189,0.2842065989971161
1789997786305878800,5.624878662109375,0.17498324811458588,0.1011030524969101,0.2752978205680847
1789997786315950800,5.634950927734375,0.18172556161880493,0.09510747343301773,0.2881331741809845
1789997786326022000,5.64502197265625,0.15031151473522186,0.0709582045674324,0.20981228351593018
1789997786336092700,5.6550927734375,0.10261030495166779,0.07074382156133652,0.20074181258678436
1789997786346163700,5.665163818359375,0.06513787806034088,0.06104794517159462,0.2614368200302124
1789997786356235800,5.67523583984375,0.03180309012532234,0.05539805069565773,0.23889127373695374
1789997786366306800,5.685306884765625,0.0023789312690496445,0.06479679048061371,0.17360742390155792
1789997786376377900,5.6953779296875,-0.01256566308438778,0.04956776648759842,0.12031783163547516
1789997786386449000,5.705448974609375,0.01687062904238701,0.04826008528470993,0.07161179184913635
1789997786396520000,5.71552001953125,-0.004080191254615784,0.09084615856409073,-0.034379348158836365
1789997786406592000,5.725592041015625,-0.022415518760681152,0.08027417212724686,-0.05045529082417488
1789997786416662800,5.735662841796875,0.011215945705771446,0.07474332302808762,-0.1035669818520546
1789997786426733800,5.74573388671875,0.04510540887713432,0.0735698714852333,-0.0909198522567749
1789997786436804900,5.755804931640625,0.061244163662195206,0.054371677339076996,0.024884244427084923
1789997786446876700,5.765876708984375,0.04842139035463333,0.04857572168111801,0.03278769925236702
1789997786456947700,5.77594775390625,-0.0693071037530899,0.09642739593982697,-0.1822737455368042
1789997786467018800,5.786018798828125,-0.13643433153629303,0.09981513768434525,-0.2892209589481354
1789997786477089800,5.79608984375,-0.0760388970375061,0.10308230668306351,-0.18010351061820984
1789997786487160800,5.806160888671875,-0.02684471756219864,0.12221334874629974,-0.18774281442165375
1789997786497233000,5.81623291015625,-0.08369788527488708,0.11089011281728745,-0.2587874233722687
1789997786507303700,5.8263037109375,-0.08543383330106735,0.10022765398025513,-0.25170743465423584
1789997786517374700,5.836374755859375,-0.022283358499407768,0.09354258328676224,-0.3772272765636444
1789997786527445800,5.84644580078125,-0.003131731180474162,0.0848529189825058,-0.370797336101532
1789997786537517800,5.856517822265625,-0.025291629135608673,0.10339624434709549,-0.20078060030937195
1789997786547588900,5.8665888671875,-0.07490719854831696,0.10869072377681732,-0.1804388165473938
1789997786557660000,5.876659912109375,-0.18502119183540344,0.13870641589164734,-0.40950876474380493
1789997786567731000,5.88673095703125,-0.21512393653392792,0.15261828899383545,-0.5155861973762512
1789997786577803000,5.896802978515625,-0.09387819468975067,0.21320971846580505,-0.6024699807167053
1789997786587873800,5.906873779296875,-0.022941799834370613,0.16383226215839386,-0.48479393124580383
1789997786597944800,5.91694482421875,-0.032164860516786575,0.0935082957148552,-0.3400399386882782
1789997786608016000,5.927015869140625,-0.10122989118099213,0.14311562478542328,-0.36959728598594666
1789997786618087000,5.9370869140625,-0.16338780522346497,0.21834221482276917,-0.42546960711479187
1789997786628158700,5.94715869140625,-0.17120803892612457,0.20596030354499817,-0.4431559145450592
1789997786638229800,5.957229736328125,-0.14486324787139893,0.16464056074619293,-0.41375061869621277
1789997786648300800,5.96730078125,-0.1678338348865509,0.12331783771514893,-0.4409031271934509
1789997786658371800,5.977371826171875,-0.14375992119312286,0.049844421446323395,-0.3978286385536194
1789997786668444000,5.98744384765625,-0.13551080226898193,0.010774337686598301,-0.2524363100528717
1789997786678514700,5.9975146484375,-0.14255060255527496,0.01071468461304903,-0.20635217428207397
1789997786688585700,6.007585693359375,-0.12455380707979202,0.030455268919467926,-0.2609778642654419
1789997786698656800,6.01765673828125,-0.11108087748289108,0.04679296165704727,-0.2908875644207001
1789997786708727800,6.027727783203125,-0.09862960129976273,0.019185824319720268,-0.3190177381038666
1789997786718800000,6.0377998046875,-0.10001470893621445,0.0027698329649865627,-0.32662585377693176
1789997786728871000,6.047870849609375,-0.0950792208313942,-0.009381263516843319,-0.27711209654808044
1789997786738941700,6.057941650390625,-0.09317772835493088,-0.01670602150261402,-0.1743609458208084
1789997786749012700,6.0680126953125,-0.09585652500391006,0.0003402605652809143,-0.09204715490341187
1789997786759084800,6.078084716796875,-0.08721616119146347,0.021234357729554176,-0.14036834239959717
1789997786769155800,6.08815576171875,-0.05846865475177765,0.03975731506943703,-0.25637805461883545
1789997786779227000,6.098226806640625,-0.03784620016813278,0.027545124292373657,-0.30534133315086365
1789997786789298000,6.1082978515625,-0.06015755236148834,-0.015215469524264336,-0.24852783977985382
1789997786799369000,6.118368896484375,-0.0835515558719635,0.027579663321375847,-0.31307142972946167
1789997786809440800,6.128440673828125,-0.06119886040687561,0.04443010315299034,-0.25654181838035583
1789997786819511600,6.138511474609375,-0.04380761831998825,0.009971732273697853,-0.22100116312503815
1789997786829582600,6.14858251953125,0.011068984866142273,-0.014585316181182861,-0.117991141974926
1789997786839653600,6.158653564453125,0.0598708800971508,-0.047819703817367554,0.03333180397748947
1789997786849725700,6.1687255859375,0.06480878591537476,-0.010823709890246391,0.12736962735652924
1789997786859796700,6.178796630859375,-0.002818455221131444,0.01987188495695591,0.2203269898891449
1789997786869867800,6.18886767578125,-0.02880987897515297,0.030275829136371613,0.08465197682380676
1789997786879938800,6.198938720703125,-0.06171350181102753,0.05481499433517456,-0.10550278425216675
1789997786890011000,6.209010986328125,-0.07048214226961136,0.033066436648368835,-0.19484572112560272
1789997786900082000,6.21908203125,0.025267284363508224,-0.006823987700045109,0.057328466325998306
1789997786910152700,6.229152587890625,0.1731446534395218,-0.08351907134056091,0.3153754770755768
1789997786920223700,6.2392236328125,0.04917958006262779,-0.11125802248716354,0.35178515315055847
1789997786930294800,6.249294677734375,0.031880296766757965,0.01604575105011463,0.20312215387821198
1789997786940366800,6.259366943359375,0.0749707818031311,0.11439096182584763,0.13621395826339722
1789997786950438000,6.26943798828125,0.037068843841552734,0.08856169879436493,0.17762558162212372
1789997786960509000,6.279509033203125,-0.008943655528128147,0.03142757713794708,0.3134044408798218
1789997786970580000,6.289580078125,0.04302622750401497,0.006414438132196665,0.34562763571739197
1789997786980651800,6.29965185546875,0.06652409583330154,0.009409163147211075,0.3187062740325928
1789997786990722600,6.30972265625,-0.03253810480237007,0.0148896723985672,0.3540986180305481
1789997787000793600,6.319793701171875,-0.12204854190349579,-0.0028850636444985867,0.43669816851615906
1789997787010864600,6.32986474609375,-0.17879720032215118,-0.012827245518565178,0.3242911994457245
1789997787020936700,6.339936767578125,-0.17257578670978546,-0.01818659156560898,0.18218544125556946
1789997787031007700,6.3500078125,-0.1536538004875183,-0.03684075176715851,0.17181482911109924
1789997787041078800,6.360078857421875,-0.11314418911933899,-0.0937274768948555,0.19899530708789825
1789997787051149800,6.37014990234375,-0.08171678334474564,-0.1169593334197998,0.30108439922332764
1789997787061220900,6.380220947265625,-0.11582868546247482,-0.0932936891913414,0.3245449662208557
1789997787071293000,6.39029296875,-0.10784208029508591,-0.10592705011367798,0.3321736454963684
1789997787081363700,6.40036376953125,-0.11789950728416443,-0.08698372542858124,0.2091909945011139
1789997787091434800,6.410434814453125,-0.13737991452217102,-0.09118977189064026,0.18134789168834686
1789997787101505800,6.420505859375,-0.1295800507068634,-0.07951873540878296,0.20397409796714783
1789997787111577900,6.430577880859375,-0.05785881355404854,-0.06406127661466599,0.14064306020736694
1789997787121649000,6.44064892578125,0.016706231981515884,-0.08275613188743591,0.11270172148942947
1789997787131720000,6.450719970703125,0.06658315658569336,-0.0791654884815216,0.15862709283828735
1789997787141791000,6.460791015625,0.12249941378831863,-0.04748452827334404,0.18424297869205475
1789997787151862800,6.47086279296875,0.15301460027694702,-0.009894434362649918,0.14239783585071564
1789997787161933600,6.48093359375,0.18369954824447632,0.03244290500879288,0.049884408712387085
1789997787172004600,6.491004638671875,0.17518937587738037,0.049772486090660095,-0.04158933460712433
1789997787182075600,6.50107568359375,0.2687866985797882,0.04696471616625786,-0.07857664674520493
1789997787192146700,6.511146728515625,0.3517467677593231,0.05130516737699509,-0.08007359504699707
1789997787202218800,6.52121875,0.3262973129749298,0.04734557867050171,-0.05870625004172325
1789997787212289800,6.531289794921875,0.358737975358963,0.023682089522480965,-0.0009657364571467042
1789997787222360800,6.54136083984375,0.32430970668792725,0.04629392549395561,0.002623139414936304
1789997787232431900,6.551431884765625,0.26563653349876404,0.07117477059364319,0.005292692221701145
1789997787242504000,6.56150390625,0.27565693855285645,0.08402106165885925,0.028497345745563507
1789997787252574700,6.57157470703125,0.23636378347873688,0.053092826157808304,-0.009655890055000782
1789997787262645800,6.581645751953125,0.22558890283107758,0.0011745011433959007,-0.06136755272746086
1789997787272716800,6.591716796875,0.1971956193447113,-0.01296115294098854,-0.08539354801177979
1789997787282788900,6.601788818359375,0.16217878460884094,-0.008877195417881012,-0.04234647378325462
1789997787292860000,6.61185986328125,0.11034256219863892,0.028956390917301178,-0.027324361726641655
1789997787302931000,6.621930908203125,0.03708912432193756,0.042415738105773926,-0.024734970182180405
1789997787313002000,6.632001953125,0.008923329412937164,0.048941828310489655,-0.018164414912462234
1789997787323072800,6.64207275390625,-0.02936680056154728,0.06046745926141739,0.01376209408044815
1789997787333144600,6.65214453125,-0.08838731050491333,0.03823697566986084,0.026114895939826965
1789997787343215600,6.662215576171875,-0.1371423304080963,0.005759724415838718,0.017038043588399887
1789997787353286700,6.67228662109375,-0.1858455389738083,0.009141830727458,-0.008652940392494202
1789997787363357700,6.682357666015625,-0.2315238118171692,0.03142183646559715,-0.0065461136400699615
1789997787373429800,6.6924296875,-0.20733360946178436,0.05274491012096405,-0.01851809024810791
1789997787383500800,6.702500732421875,-0.17743004858493805,0.04117000848054886,0.022195249795913696
1789997787393571800,6.71257177734375,-0.16780729591846466,0.012191485613584518,-0.009211700409650803
1789997787403642600,6.722642578125,-0.15829342603683472,-0.0013597426004707813,0.031282730400562286
1789997787413713700,6.732713623046875,-0.1676841825246811,-0.019964979961514473,0.07059875875711441
1789997787423785700,6.74278564453125,-0.15965448319911957,0.00020899763330817223,0.06763651967048645
1789997787433856800,6.752856689453125,-0.17216554284095764,0.01931077614426613,0.026438482105731964
1789997787443927800,6.762927734375,-0.18852746486663818,0.0076527888886630535,0.006718840915709734
1789997787453998800,6.772998779296875,-0.16642794013023376,-0.037113774567842484,0.03338718041777611
1789997787464071000,6.78307080078125,-0.13649214804172516,-0.051560357213020325,0.04177453741431236
1789997787474142000,6.793141845703125,-0.12233379483222961,-0.04481901973485947,0.06839920580387115
1789997787484213000,6.803212890625,-0.10353214293718338,-0.036085981875658035,0.06704871356487274
1789997787494283800,6.81328369140625,-0.08546586334705353,-0.04167885705828667,0.025721270591020584
1789997787504355600,6.82335546875,-0.07944685220718384,-0.047145262360572815,0.01588781550526619
1789997787514426600,6.833426513671875,-0.06979361921548843,-0.03497753664851189,-0.030978219583630562
1789997787524497700,6.84349755859375,-0.03596615418791771,-0.02067209966480732,-0.016328969970345497
1789997787534568700,6.853568603515625,0.010778405703604221,-0.017246130853891373,-0.003989734221249819
1789997787544640800,6.863640869140625,0.05273597687482834,-0.011386643163859844,0.0019736161921173334
1789997787554711800,6.8737119140625,0.07872487604618073,0.0006992160342633724,0.07083627581596375
1789997787564782800,6.883782958984375,0.12477279454469681,0.033901646733284,0.04749926179647446
1789997787574853600,6.893853515625,0.15759359300136566,0.10212893784046173,-0.008235880173742771
1789997787584924700,6.903924560546875,0.1942799687385559,0.1635534167289734,0.011131159029901028
1789997787594996700,6.913996826171875,0.24132682383060455,0.18676428496837616,-0.036239560693502426
1789997787605067800,6.92406787109375,0.3043670356273651,0.1846710443496704,-0.09320750087499619
1789997787615138800,6.934138916015625,0.3755267858505249,0.1971886307001114,-0.02316928654909134
1789997787625209900,6.9442099609375,0.4528290331363678,0.2043410837650299,-0.02071278728544712
1789997787635282000,6.954281982421875,0.48302894830703735,0.2790917754173279,-0.037788182497024536
1789997787645353000,6.96435302734375,0.4741470515727997,0.2941274642944336,0.009275732561945915
1789997787655424000,6.974424072265625,0.45051562786102295,0.27588316798210144,0.022183798253536224
1789997787665494800,6.984494873046875,0.3827507197856903,0.2912067472934723,0.04347097501158714
1789997787675566600,6.994566650390625,0.31325894594192505,0.27891620993614197,0.0547846220433712
1789997787685637600,7.0046376953125,0.26866406202316284,0.2561571002006531,0.06639041006565094
1789997787695708700,7.014708740234375,0.21142752468585968,0.2199525088071823,0.07217693328857422
1789997787705780500,7.024780517578125,0.1248239204287529,0.18358437716960907,0.06334748864173889
1789997787715851300,7.034851318359375,0.02963010035455227,0.13451240956783295,0.0780654326081276
1789997787725923300,7.04492333984375,-0.038744959980249405,0.07105807960033417,0.05090918391942978
1789997787735994400,7.054994384765625,-0.12178260087966919,0.005987553391605616,0.01296817697584629
1789997787746065400,7.0650654296875,-0.21606117486953735,-0.02318870835006237,0.05238695815205574
1789997787756136400,7.075136474609375,-0.2934299111366272,-0.05237193405628204,0.03719925135374069
1789997787766208500,7.08520849609375,-0.3541121780872345,-0.09349673241376877,0.013860906474292278
1789997787776279600,7.095279541015625,-0.40346914529800415,-0.11432413011789322,0.07974804192781448
1789997787786350600,7.1053505859375,-0.46624305844306946,-0.12415971606969833,0.092437744140625
1789997787796421400,7.11542138671875,-0.524914026260376,-0.11261427402496338,0.026699457317590714
1789997787806493200,7.1254931640625,-0.5770957469940186,-0.11514268070459366,-0.08068106323480606
1789997787816564200,7.135564208984375,-0.5540288686752319,-0.15407860279083252,-0.038746919482946396
1789997787826635300,7.14563525390625,-0.5257666110992432,-0.1618126928806305,-0.01704135537147522
1789997787836706300,7.155706298828125,-0.5243769884109497,-0.13466084003448486,-0.04303888604044914
1789997787846778400,7.1657783203125,-0.5001515746116638,-0.1277022659778595,-0.05727801099419594
1789997787856849400,7.175849365234375,-0.4620848000049591,-0.12234224379062653,-0.028860460966825485
1789997787866920400,7.18592041015625,-0.44133371114730835,-0.14151646196842194,-0.013146745972335339
1789997787876991500,7.195991455078125,-0.4037121832370758,-0.12655454874038696,0.04033723473548889
1789997787887062300,7.206062255859375,-0.36873501539230347,-0.07695502787828445,0.02341524511575699
1789997787897134300,7.21613427734375,-0.3571736216545105,-0.10914810746908188,0.017080120742321014
1789997787907205400,7.226205322265625,-0.2942521870136261,-0.1306733787059784,0.011412116698920727
1789997787917276400,7.2362763671875,-0.26035308837890625,-0.13917578756809235,0.06558827310800552
1789997787927347500,7.246347412109375,-0.23483149707317352,-0.138154998421669,0.03818726912140846
1789997787937419500,7.25641943359375,-0.1798378974199295,-0.1259380728006363,0.10203973948955536
1789997787947490600,7.266490478515625,-0.17865332961082458,-0.12081389129161835,0.1293581873178482
1789997787957561600,7.2765615234375,-0.167467400431633,-0.11308315396308899,0.08677903562784195
1789997787967632400,7.28663232421875,-0.13765545189380646,-0.07469954341650009,0.05946458876132965
1789997787977704200,7.2967041015625,-0.09674188494682312,-0.08359407633543015,0.01591658405959606
1789997787987775200,7.306775146484375,-0.04181578755378723,-0.09327200055122375,-0.03390822932124138
1789997787997846300,7.31684619140625,-0.02116064541041851,-0.08284303545951843,-0.07592863589525223
1789997788007917300,7.326917236328125,-0.00018345838179811835,-0.09487412869930267,-0.10572461783885956
1789997788017989400,7.3369892578125,0.03941827639937401,-0.07871247082948685,-0.13079215586185455
1789997788028060400,7.347060302734375,0.09683922678232193,-0.07204684615135193,-0.06882039457559586
1789997788038131500,7.35713134765625,0.14854224026203156,-0.05556837469339371,-0.015585669316351414
1789997788048202500,7.367202392578125,0.17473310232162476,-0.03953588008880615,0.04209413751959801
1789997788058273300,7.377273193359375,0.1769360899925232,-0.0015135258436203003,-0.023448396474123
1789997788068345300,7.387345458984375,0.17678748071193695,0.048278529196977615,-0.036532506346702576
1789997788078416400,7.39741650390625,0.1800176352262497,0.04379540681838989,-0.017612863332033157
1789997788088487400,7.4074873046875,0.21296066045761108,0.056928522884845734,-0.001256526098586619
1789997788098558500,7.417558349609375,0.24025708436965942,0.08049715310335159,0.008769211359322071
1789997788108630500,7.427630615234375,0.2247428297996521,0.0826396644115448,-0.022536246106028557
1789997788118701600,7.43770166015625,0.19514136016368866,0.0789346918463707,-0.018684521317481995
1789997788128772600,7.447772705078125,0.1670338213443756,0.10592662543058395,-0.022126389667391777
1789997788138843400,7.457843505859375,0.13795888423919678,0.11931639909744263,-0.0414753220975399
1789997788148915200,7.467915283203125,0.13555936515331268,0.11423535645008087,-0.059615977108478546
1789997788158986200,7.477986328125,0.16891129314899445,0.06781411916017532,-0.004483482800424099
1789997788169057300,7.488057373046875,0.1474025398492813,0.024907132610678673,-0.012230086140334606
1789997788179128300,7.49812841796875,0.10962626338005066,0.012814003974199295,0.0053672888316214085
1789997788189199400,7.508199462890625,0.07648108899593353,-0.005812142975628376,-0.016014698892831802
1789997788199271400,7.518271484375,0.06312721222639084,-0.030804086476564407,0.015179959125816822
1789997788209342500,7.528342529296875,0.05474251136183739,-0.0576586052775383,0.030044924467802048
1789997788219413200,7.538413330078125,0.03208630532026291,-0.048368725925683975,-0.01020768005400896
1789997788229484300,7.548484375,0.019611790776252747,-0.053907036781311035,-0.03864145278930664
1789997788239556400,7.558556396484375,0.020120372995734215,-0.05369386449456215,-0.007738393731415272
1789997788249627400,7.56862744140625,-0.007891819812357426,-0.04448465257883072,0.037889279425144196
1789997788259698400,7.578698486328125,-0.0027285097166895866,-0.03829098865389824,-0.020309844985604286
1789997788269769500,7.58876953125,0.008474876172840595,-0.054639603942632675,0.038489822298288345
1789997788279841500,7.598841552734375,0.007989674806594849,-0.07899709045886993,0.051127586513757706
1789997788289912600,7.60891259765625,0.008391546085476875,-0.04429903253912926,-0.02965354546904564
1789997788299983600,7.618983642578125,0.04361555725336075,-0.03610430657863617,-0.0136873759329319
1789997788310054400,7.629054443359375,0.0720653086900711,-0.026097213849425316,-0.04231662303209305
1789997788320126200,7.639126220703125,0.07699166238307953,-0.008211198262870312,0.0005426990101113915
1789997788330197200,7.649197265625,0.08180053532123566,0.020923782140016556,0.00889197550714016
1789997788340268300,7.659268310546875,0.0967748835682869,0.0020276205614209175,0.013646258041262627
1789997788350339300,7.66933935546875,0.1333475410938263,-0.027035191655158997,0.01608145236968994
1789997788360410400,7.679410400390625,0.14931727945804596,0.0061976173892617226,-0.007124277297407389
1789997788370482400,7.689482421875,0.14187215268611908,0.04405578225851059,-0.013419723138213158
1789997788380553500,7.699553466796875,0.15092037618160248,0.07033693790435791,-0.03579745814204216
1789997788390624300,7.709624267578125,0.17490799725055695,0.042338863015174866,0.022363845258951187
1789997788400695300,7.7196953125,0.16381151974201202,0.017563585191965103,0.05216062441468239
1789997788410767400,7.729767333984375,0.13464032113552094,0.03426879271864891,0.079838328063488
1789997788420838400,7.73983837890625,0.10774712264537811,0.0869184136390686,0.05215023458003998
1789997788430909400,7.749909423828125,0.12959516048431396,0.10635096579790115,0.0585375614464283
1789997788440980500,7.75998046875,0.1400882750749588,0.11060944944620132,0.014520295895636082
1789997788451052500,7.770052490234375,0.12401636689901352,0.08346651494503021,0.005710824858397245
1789997788461123600,7.78012353515625,0.12788575887680054,0.08799821138381958,0.04963460937142372
1789997788471194600,7.790194580078125,0.08644510805606842,0.0846886932849884,0.08425889909267426
1789997788481265400,7.800265380859375,0.024285556748509407,0.078942209482193,0.038120441138744354
1789997788491337200,7.810337158203125,0.00934948492795229,0.06810794025659561,0.04569021239876747
1789997788501408300,7.820408203125,-0.004678487777709961,0.049496207386255264,0.019590161740779877
1789997788511479300,7.830479248046875,-0.036886755377054214,0.033500198274850845,-0.04154456406831741
1789997788521550300,7.84055029296875,-0.04679647460579872,0.026202810928225517,-0.05819118767976761
1789997788531622400,7.850622314453125,-0.06673582643270493,0.03098425082862377,-0.0634048581123352
1789997788541693400,7.860693359375,-0.07881179451942444,0.03945977985858917,-0.030354490503668785
1789997788551764500,7.870764404296875,-0.09455373883247375,0.03643522784113884,0.009791864082217216
1789997788561835300,7.880835205078125,-0.09061907976865768,0.02764858864247799,0.020062873139977455
1789997788571906300,7.89090625,-0.10891100764274597,0.038473811000585556,0.07816638797521591
1789997788581978400,7.900978271484375,-0.16017870604991913,0.03631984442472458,0.04376048222184181
1789997788592049400,7.91104931640625,-0.2166566401720047,0.021462332457304,-0.022557025775313377
1789997788602120400,7.921120361328125,-0.22862714529037476,-0.003024386242032051,-0.06684673577547073
1789997788612191500,7.93119140625,-0.2093362659215927,-0.010877516120672226,-0.06302323192358017
1789997788622263600,7.941263671875,-0.19526194036006927,-0.05529073625802994,0.0003767928574234247
1789997788632334600,7.95133447265625,-0.2262803018093109,-0.07717925310134888,0.026521844789385796
1789997788642405600,7.961405517578125,-0.24372415244579315,-0.08290800452232361,0.03026810847222805
1789997788652476400,7.971476318359375,-0.2711200714111328,-0.057186927646398544,0.015235363505780697
1789997788662548200,7.98154833984375,-0.23340509831905365,-0.07234051823616028,0.030824711546301842
1789997788672619300,7.991619384765625,-0.20081253349781036,-0.08185040205717087,0.045404985547065735
1789997788682690300,8.001690185546876,-0.18067261576652527,-0.1281849592924118,0.02791200391948223
1789997788692761300,8.01176123046875,-0.14713701605796814,-0.1510029286146164,0.05737641826272011
1789997788702833400,8.02183349609375,-0.13589289784431458,-0.12084013223648071,0.06378397345542908
1789997788712904400,8.031904541015624,-0.11765184253454208,-0.09598858654499054,0.02198432944715023
1789997788722975500,8.0419755859375,-0.05465339124202728,-0.07024282962083817,0.013747991062700748
1789997788733046500,8.052046630859374,0.028920333832502365,-0.04396381974220276,0.0011304671643301845
1789997788743118600,8.06211865234375,0.0633339062333107,-0.046918608248233795,0.012642248533666134
1789997788753189600,8.072189697265625,0.10181178897619247,-0.01534976251423359,-0.012580017559230328
1789997788763260700,8.0822607421875,0.12963473796844482,0.024565894156694412,0.01477810088545084
1789997788773331500,8.09233154296875,0.15914788842201233,0.046657878905534744,0.04455357417464256
1789997788783403500,8.102403564453125,0.1947893500328064,0.05687849223613739,0.041597723960876465
1789997788793474600,8.112474609375,0.1858200877904892,0.09803152084350586,-0.013479906134307384
1789997788803545600,8.122545654296875,0.19278211891651154,0.12640243768692017,-0.07179008424282074
1789997788813616600,8.13261669921875,0.23342382907867432,0.10495733469724655,-0.01312544010579586
1789997788823687700,8.142687744140625,0.23514753580093384,0.08992576599121094,0.027109332382678986
1789997788833759500,8.152759521484375,0.209933802485466,0.11254025995731354,-0.0001481216459069401
1789997788843830500,8.16283056640625,0.21176832914352417,0.12825006246566772,-0.009133889339864254
1789997788853901600,8.172901611328125,0.2375250905752182,0.13466347754001617,-0.03135264292359352
1789997788863972400,8.182972412109375,0.23299174010753632,0.12469498068094254,0.007057059556245804
1789997788874044400,8.19304443359375,0.21156129240989685,0.14256052672863007,-0.009217518381774426
1789997788884115500,8.203115478515626,0.15248608589172363,0.11940454691648483,-0.04063616693019867
1789997788894186500,8.2131865234375,0.07203119248151779,0.10162314772605896,-0.0008394859032705426
1789997788904257500,8.223257568359376,0.05774005502462387,0.10664492100477219,0.01057535968720913
1789997788914329600,8.23332958984375,0.041700370609760284,0.09263482689857483,0.06355788558721542
1789997788924400600,8.243400634765624,-0.023776359856128693,0.10303167998790741,0.08188281953334808
1789997788934471700,8.2534716796875,-0.10905689746141434,0.09126104414463043,0.017868949100375175
1789997788944542500,8.26354248046875,-0.18778370320796967,0.04240969568490982,0.003792556468397379
1789997788954614500,8.273614501953125,-0.22215500473976135,0.035571761429309845,-0.0011627872008830309
1789997788964685600,8.283685546875,-0.2866867482662201,0.033190954476594925,0.019938237965106964
1789997788974756400,8.29375634765625,-0.321359783411026,0.00023593474179506302,0.029442261904478073
1789997788984827400,8.303827392578125,-0.3527457118034363,-0.007421235553920269,-0.013980844989418983
1789997788994898400,8.3138984375,-0.35765525698661804,-0.039566654711961746,-0.06740225851535797
1789997789004970500,8.323970458984375,-0.35220083594322205,-0.04755294322967529,-0.08649632334709167
1789997789015041500,8.33404150390625,-0.3731369972229004,-0.06298889219760895,-0.039028674364089966
1789997789025112600,8.344112548828125,-0.3860284984111786,-0.10186201333999634,-0.010766420513391495
1789997789035183400,8.354183349609375,-0.37489914894104004,-0.11073832958936691,0.032145626842975616
1789997789045255400,8.36425537109375,-0.4285248816013336,-0.14697162806987762,0.07079768925905228
1789997789055326500,8.374326416015625,-0.4761912226676941,-0.1727592796087265,0.038300737738609314
1789997789065397500,8.3843974609375,-0.5217198729515076,-0.15541324019432068,0.06741734594106674
1789997789075468500,8.394468505859376,-0.5225952863693237,-0.16558144986629486,-0.0005518526304513216
1789997789085540600,8.40454052734375,-0.5267261266708374,-0.22095558047294617,-0.05322199687361717
1789997789095611600,8.414611572265626,-0.515032947063446,-0.2672644853591919,-0.03523394465446472
1789997789105682700,8.4246826171875,-0.4945262670516968,-0.325982928276062,0.0018979901215061545
1789997789115753500,8.43475341796875,-0.4704259932041168,-0.315927654504776,-0.04548230767250061
1789997789125825300,8.4448251953125,-0.442244291305542,-0.3035852909088135,-0.022055821493268013
1789997789135896300,8.454896240234374,-0.40637442469596863,-0.2961270809173584,0.00598753010854125
1789997789145967400,8.46496728515625,-0.345753014087677,-0.3110450804233551,-0.004861379507929087
1789997789156038400,8.475038330078124,-0.2816286087036133,-0.2935190796852112,-0.045546755194664
1789997789166110500,8.4851103515625,-0.20993851125240326,-0.26400119066238403,0.014986610040068626
1789997789176181500,8.495181396484375,-0.15175749361515045,-0.24779531359672546,-0.003969238139688969
1789997789186252500,8.50525244140625,-0.08686380833387375,-0.2141396701335907,0.013276590034365654
1789997789196323600,8.515323486328125,-0.010741343721747398,-0.17815610766410828,0.028395622968673706
1789997789206395600,8.525395751953125,0.07405821233987808,-0.1509600430727005,0.028066467493772507
1789997789216466400,8.535466552734375,0.17642320692539215,-0.13930977880954742,0.01700476184487343
1789997789226537500,8.545537353515625,0.24251118302345276,-0.07310967147350311,0.033171214163303375
1789997789236608500,8.5556083984375,0.27252471446990967,-0.02153249830007553,-0.010995983146131039
1789997789246679600,8.565679443359375,0.3195045292377472,-0.02401420846581459,-0.010602622292935848
1789997789256751600,8.575751708984376,0.34981927275657654,-0.02184373140335083,-0.013634897768497467
1789997789266822700,8.58582275390625,0.42796602845191956,-0.03185970336198807,-0.029856210574507713
1789997789276893700,8.595893798828126,0.5194941163063049,-0.010072648525238037,-0.008938413113355637
1789997789286964500,8.605964599609376,0.552103579044342,0.03424792364239693,-0.05226884037256241
1789997789297036300,8.616036376953126,0.52984219789505,0.06181510537862778,-0.05920318141579628
1789997789307107300,8.626107421875,0.502326250076294,0.04699734225869179,-0.02965833619236946
1789997789317178400,8.636178466796874,0.5030357241630554,0.05190422013401985,0.008908762596547604
1789997789327249400,8.64624951171875,0.4816027581691742,0.05748320370912552,0.006081015802919865
1789997789337321500,8.656321533203124,0.45791366696357727,0.012862473726272583,0.003529973793774843
1789997789347392500,8.666392578125,0.4038962125778198,0.02000448852777481,0.03197013959288597
1789997789357463600,8.676463623046875,0.33520475029945374,0.033565837889909744,0.005473549477756023
1789997789367534600,8.68653466796875,0.3147081136703491,-0.009906517341732979,-0.05268750339746475
1789997789377606700,8.696606689453125,0.2960638701915741,-0.04667944461107254,-0.054443590342998505
1789997789387677400,8.706677490234375,0.26891306042671204,-0.040585048496723175,-0.016414709389209747
1789997789397748500,8.71674853515625,0.244745671749115,-0.037937331944704056,-0.025058796629309654
1789997789407819500,8.726819580078125,0.23147407174110413,-0.065357506275177,-0.01906481944024563
1789997789417891600,8.7368916015625,0.19629397988319397,-0.044377125799655914,-0.012883355841040611
1789997789427962600,8.746962646484375,0.15520507097244263,-0.05900835990905762,-0.045691635459661484
1789997789438033700,8.75703369140625,0.14701132476329803,-0.05409855768084526,-0.04432836174964905
1789997789448104700,8.767104736328125,0.173506960272789,-0.02000492811203003,-0.015128664672374725
1789997789458176500,8.777176513671876,0.1559191793203354,-0.007159170228987932,0.0006532275583595037
1789997789468247300,8.787247314453126,0.18828991055488586,-0.028865264728665352,0.022914856672286987
1789997789478318300,8.797318359375,0.16231609880924225,0.0027312771417200565,0.008737253025174141
1789997789488389400,8.807389404296876,0.11774421483278275,0.020655347034335136,0.03400718420743942
1789997789498461400,8.81746142578125,0.1544007658958435,0.03644709289073944,0.0024500584695488214
1789997789508532500,8.827532470703124,0.222665473818779,0.04090653732419014,-0.04252460226416588
1789997789518603500,8.837603515625,0.27462348341941833,0.03555278480052948,-0.058207958936691284
1789997789528674600,8.847674560546874,0.295138955116272,0.0505351647734642,-0.031374216079711914
1789997789538746600,8.85774658203125,0.3035545349121094,0.06542996317148209,0.00021247169934213161
1789997789548817700,8.867817626953125,0.3130446672439575,0.07539856433868408,0.027015861123800278
1789997789558888400,8.877888427734375,0.324247807264328,0.10602279007434845,0.016655631363391876
1789997789568959500,8.88795947265625,0.3659154772758484,0.15163254737854004,-0.040454793721437454
1789997789579030500,8.898030517578125,0.4153554439544678,0.18350526690483093,-0.037633974105119705
1789997789589102600,8.9081025390625,0.44987058639526367,0.1853434145450592,-0.04646341875195503
1789997789599173600,8.918173583984375,0.4408257007598877,0.16920359432697296,-0.028208516538143158
1789997789609244700,8.92824462890625,0.4345170855522156,0.17117606103420258,0.0029738859739154577
1789997789619315700,8.938315673828125,0.4670356214046478,0.2156716138124466,-0.02808682806789875
1789997789629387500,8.948387451171875,0.4752020537853241,0.26775044202804565,-0.017054665833711624
1789997789639458300,8.958458251953125,0.4735602140426636,0.26915445923805237,-0.04544422775506973
1789997789649529300,8.968529296875,0.48144012689590454,0.25713813304901123,0.011741030029952526
1789997789659600400,8.978600341796875,0.454696923494339,0.25594133138656616,0.055748432874679565
1789997789669672400,8.98867236328125,0.3976612091064453,0.2538754343986511,0.038840290158987045
1789997789679743500,8.998743408203126,0.3275708258152008,0.28735804557800293,0.029526684433221817
1789997789689814500,9.008814453125,0.2840738296508789,0.2901845872402191,0.05838416516780853
1789997789699885600,9.018885498046876,0.2448265701532364,0.29185253381729126,0.009062952362000942
1789997789709956900,9.028956787109376,0.2230057716369629,0.2620244026184082,0.02966463565826416
1789997789720028000,9.03902783203125,0.20274177193641663,0.23304308950901031,0.03508523479104042
1789997789730099000,9.049098876953124,0.12833087146282196,0.2083534449338913,-0.02600608579814434
1789997789740170000,9.059169921875,0.07467775791883469,0.2060074657201767,-0.06291669607162476
1789997789750242000,9.069241943359375,0.043841227889060974,0.18084532022476196,-0.010802359320223331
1789997789760312800,9.079312744140625,-0.007449924014508724,0.14365720748901367,0.03305963799357414
1789997789770384000,9.0893837890625,-0.05229179933667183,0.1387019008398056,0.04737332835793495
1789997789780455000,9.099454833984375,-0.09941590577363968,0.13118620216846466,0.01222306489944458
1789997789790527000,9.10952685546875,-0.14560382068157196,0.12319526076316833,-0.007511494215577841
1789997789800598000,9.119597900390625,-0.17518141865730286,0.0988779366016388,0.009282133542001247
1789997789810669000,9.1296689453125,-0.22060830891132355,0.08449162542819977,0.0034271669574081898
1789997789820740000,9.139739990234375,-0.24938802421092987,0.05575158819556236,0.026734087616205215
1789997789830812000,9.14981201171875,-0.269876092672348,0.05090111494064331,0.003154456615447998
1789997789840882700,9.159882568359375,-0.28654375672340393,0.039663106203079224,0.019979508593678474
1789997789850953700,9.16995361328125,-0.3007100522518158,0.02007952332496643,0.012324262410402298
1789997789861024800,9.180024658203125,-0.2741074562072754,0.014636288397014141,0.03226601332426071
1789997789871096800,9.190096923828126,-0.28272122144699097,0.005762407556176186,0.05825686454772949
1789997789881168000,9.20016796875,-0.34551429748535156,0.027592338621616364,0.1075005754828453
1789997789891239000,9.210239013671876,-0.3645171523094177,0.023584390059113503,0.07759567350149155
1789997789901310000,9.22031005859375,-0.38306286931037903,0.03474942594766617,0.11641071736812592
1789997789911382000,9.230382080078124,-0.3652300238609314,0.0030980734154582024,0.04027440771460533
1789997789921453000,9.240453125,-0.3454986810684204,0.020777203142642975,-0.01248014997690916
1789997789931523800,9.25052392578125,-0.3810347020626068,0.04937615618109703,-0.025000473484396935
1789997789941595000,9.260594970703124,-0.35483986139297485,0.012499100528657436,-0.017185160890221596
1789997789951666000,9.270666015625,-0.3126719892024994,-0.03610116243362427,0.048885736614465714
1789997789961738000,9.280738037109375,-0.30614349246025085,-0.037764571607112885,0.03569403663277626
1789997789971809000,9.29080908203125,-0.3062540292739868,-0.04803336784243584,0.011030235327780247
1789997789981880000,9.300880126953125,-0.2910553812980652,-0.04382237792015076,0.10059260576963425
1789997789991951000,9.310951171875,-0.24658824503421783,-0.0357455313205719,0.017498256638646126
1789997790002023000,9.32102294921875,-0.232679083943367,-0.0550537146627903,-0.004406244494020939
1789997790012093700,9.33109375,-0.18224109709262848,-0.08205317705869675,-0.03598334640264511
1789997790022164700,9.341164794921875,-0.1622045338153839,-0.08857312798500061,0.00693668844178319
1789997790032235800,9.35123583984375,-0.16927841305732727,-0.10928874462842941,0.011997492983937263
1789997790042307800,9.361307861328125,-0.1626008003950119,-0.08715175092220306,0.016747239977121353
1789997790052379000,9.37137890625,-0.13358834385871887,-0.07292049378156662,-0.022227318957448006
1789997790062450000,9.381449951171875,-0.08367697149515152,-0.07223872095346451,-0.03400648012757301
1789997790072521000,9.39152099609375,-0.04491381719708443,-0.050498347729444504,0.015419386327266693
1789997790082593000,9.401593017578126,-0.08269927650690079,-0.014964856207370758,0.0045321183279156685
1789997790092664000,9.4116640625,-0.08015745133161545,-0.026504402980208397,0.035570189356803894
1789997790102734800,9.42173486328125,-0.05086161196231842,-0.005162362474948168,0.024153219535946846
1789997790112806000,9.431805908203126,-0.0837806835770607,-0.01870426908135414,0.018904129043221474
1789997790122878000,9.4418779296875,-0.06475160270929337,-0.028122538700699806,0.0027198316529393196
1789997790132949000,9.451948974609374,-0.012300373986363411,-0.03703694045543671,-0.02360871061682701
1789997790143020000,9.46202001953125,-0.013947272673249245,-0.01995222643017769,0.013211620971560478
1789997790153091000,9.472091064453124,-0.07324892282485962,-0.03494973108172417,0.002321432577446103
1789997790163163000,9.482162841796875,-0.10204967856407166,-0.05147730931639671,0.0016569739673286676
1789997790173234000,9.49223388671875,-0.07448814809322357,-0.06929053366184235,0.024458417668938637
1789997790183304700,9.5023046875,-0.020870719105005264,-0.08462527394294739,0.06504818797111511
1789997790193375700,9.512375732421875,-0.008914430625736713,-0.058088693767786026,0.08777666836977005
1789997790203447800,9.52244775390625,-0.024045713245868683,-0.05385293811559677,0.011953011155128479
1789997790213518800,9.532518798828125,-0.012992587871849537,-0.05098290741443634,0.031504083424806595
1789997790223590000,9.54258984375,-0.0006211390136741102,-0.04802120476961136,0.04614294692873955
1789997790233661000,9.552660888671875,0.008259225636720657,-0.05940478667616844,0.05080774053931236
1789997790243733000,9.56273291015625,0.013570900075137615,-0.031152645125985146,0.05108470842242241
1789997790253804000,9.572803955078125,0.036368902772665024,0.006640719249844551,0.028268877416849136
1789997790263875000,9.582875,0.07503507286310196,0.004879571497440338,0.032787732779979706
1789997790273945900,9.59294580078125,0.12935078144073486,-0.0023821108043193817,-0.005055527202785015
1789997790284018000,9.603017822265626,0.15979205071926117,0.00779915414750576,-0.009298741817474365
1789997790294089000,9.6130888671875,0.18596608936786652,-0.010519715026021004,-0.04809167608618736
1789997790304160000,9.623159912109376,0.19471989572048187,-0.008203564211726189,-0.04109981283545494
1789997790314231000,9.63323095703125,0.2414047122001648,0.015518918633460999,-0.07876969128847122
1789997790324302000,9.643302001953124,0.27334797382354736,0.023606404662132263,-0.057802893221378326
1789997790334374000,9.653373779296874,0.2781059443950653,0.029853640124201775,0.0076195253059268
1789997790344445000,9.66344482421875,0.26021748781204224,0.06344649195671082,0.021718831732869148
1789997790354515700,9.673515625,0.24834229052066803,0.09169531613588333,0.07730619609355927
1789997790364586800,9.683586669921874,0.2461896538734436,0.10092902928590775,0.10184402763843536
1789997790374658800,9.693658935546875,0.21804001927375793,0.12073060870170593,0.05120455101132393
1789997790384729900,9.703729736328125,0.19594909250736237,0.10090816766023636,0.05288234353065491
1789997790394801000,9.71380078125,0.18208332359790802,0.08422607183456421,-0.03579159826040268
1789997790404872000,9.723871826171875,0.13426414132118225,0.07140614837408066,-0.04447723180055618
1789997790414944000,9.733944091796875,0.11501064151525497,0.04142807424068451,0.004494304768741131
1789997790425015000,9.74401513671875,0.10518650710582733,0.054090339690446854,-0.010815409012138844
1789997790435086000,9.754086181640625,0.0790567398071289,0.032428156584501266,0.01493363082408905
1789997790445156900,9.764156982421875,0.0638226568698883,0.025677843019366264,0.002596004633232951
1789997790455229000,9.77422900390625,0.046719662845134735,0.027864888310432434,-0.0634290874004364
1789997790465300000,9.784300048828126,0.046655215322971344,0.009810522198677063,-0.055617500096559525
1789997790475371000,9.79437109375,0.04038853570818901,0.007495396304875612,-0.01209319569170475
1789997790485442000,9.804442138671876,0.004996189381927252,0.004853806924074888,-0.009483831003308296
1789997790495513900,9.814513916015626,0.010804354213178158,-0.012817943468689919,0.03414114564657211
1789997790505585000,9.8245849609375,0.023983273655176163,-0.017674218863248825,0.026162583380937576
1789997790515656000,9.834656005859374,0.04777880758047104,0.0025067622773349285,0.03784613311290741
1789997790525726700,9.844726806640624,0.022008994594216347,0.030894996598362923,0.00006653094897046685
1789997790535798800,9.854798828125,-0.011408871971070766,0.020278213545680046,-0.05300600454211235
1789997790545869800,9.864869873046874,-0.0013000445906072855,-0.011037630960345268,-0.026678526774048805
1789997790555940900,9.87494091796875,0.028922438621520996,-0.04475748911499977,-0.04936705902218819
1789997790566012000,9.885011962890625,0.03955883905291557,-0.04307863488793373,-0.00533302454277873
1789997790576084000,9.895083984375,0.06241573765873909,-0.03602275624871254,-0.01881980523467064
1789997790586155000,9.905155029296875,0.05405047908425331,-0.03848964348435402,0.004560352303087711
1789997790596226000,9.91522607421875,0.027803365141153336,-0.05090717226266861,0.030956542119383812
1789997790606296800,9.925296875,-0.018130037933588028,-0.061287377029657364,0.07639166712760925
1789997790616369000,9.935368896484375,-0.024335747584700584,-0.07080382853746414,0.07342889904975891
1789997790626440000,9.94543994140625,-0.009249738417565823,-0.05629945546388626,0.030363984405994415
1789997790636511000,9.955510986328125,0.025540878996253014,-0.07456645369529724,0.01996593549847603
1789997790646582000,9.96558203125,0.04772128164768219,-0.08765348792076111,0.0406017079949379
1789997790656653800,9.97565380859375,0.07019344717264175,-0.0810721293091774,0.0033302344381809235
1789997790666724900,9.985724853515626,0.07493813335895538,-0.049511540681123734,0.05005033314228058
1789997790676796000,9.9957958984375,0.03071550838649273,-0.038532353937625885,0.023009924218058586
1789997790686867000,10.005866943359376,0.02090469002723694,0.006293708458542824,-0.040416449308395386
1789997790696939000,10.01593896484375,0.07674212008714676,0.055021338164806366,-0.03539292514324188
1789997790707010600,10.026010498046874,0.10773838311433792,0.07041467726230621,-0.01785573922097683
1789997790717081600,10.03608154296875,0.13102416694164276,0.0614214763045311,-0.013787499628961086
1789997790727152600,10.046152587890624,0.14831393957138062,0.10090497136116028,-0.045631714165210724
1789997790737224700,10.056224609375,0.18420082330703735,0.09949487447738647,-0.02345370501279831
1789997790747295700,10.066295654296875,0.17803028225898743,0.11513081192970276,-0.01593400351703167
1789997790757366500,10.076366455078125,0.17715729773044586,0.15802578628063202,-0.0034757396206259727
1789997790767437600,10.0864375,0.16620531678199768,0.1573626548051834,0.015526446513831615
1789997790777509400,10.09650927734375,0.15747396647930145,0.11881878972053528,0.03472677618265152
1789997790787580400,10.106580322265625,0.16068041324615479,0.10784762352705002,0.028536789119243622
1789997790797651500,10.1166513671875,0.16975238919258118,0.1147819459438324,0.028508296236395836
1789997790807722500,10.126722412109375,0.18431934714317322,0.13631866872310638,0.040838997811079025
1789997790817794600,10.136794677734375,0.20131993293762207,0.1367926299571991,0.09193679690361023
1789997790827865600,10.146865478515625,0.1725548654794693,0.13460484147071838,0.06627005338668823
1789997790837936400,10.156936279296875,0.11883026361465454,0.12142346054315567,0.05893517658114433
1789997790848007400,10.16700732421875,0.09499870240688324,0.10438694804906845,0.008219268172979355
1789997790858079500,10.17707958984375,0.10339166969060898,0.09929565340280533,-0.027780810371041298
1789997790868150500,10.187150634765626,0.13329923152923584,0.07241930067539215,0.02419477328658104
1789997790878221600,10.1972216796875,0.15584631264209747,0.10436422377824783,0.021586474031209946
1789997790888292600,10.207292724609376,0.14622138440608978,0.12095918506383896,0.021640535444021225
1789997790898364400,10.217364501953124,0.0848754420876503,0.12935394048690796,0.02342725172638893
1789997790908435500,10.227435546875,0.059872351586818695,0.10999276489019394,0.002397333038970828
1789997790918506500,10.237506591796874,0.026263179257512093,0.08687690645456314,0.044033993035554886
1789997790928577500,10.24757763671875,0.018931763246655464,0.07790391892194748,0.01800079271197319
1789997790938649300,10.2576494140625,0.042596157640218735,0.05288873240351677,-0.007160485722124577
1789997790948720400,10.267720458984375,0.0504428967833519,0.06283936649560928,0.033793602138757706
1789997790958791400,10.27779150390625,0.007862599566578865,0.034904785454273224,0.07598846405744553
1789997790968862500,10.287862548828125,-0.09125279635190964,0.010614361613988876,0.03871272876858711
1789997790978934500,10.2979345703125,-0.1495034098625183,0.02031034044921398,-0.03498812019824982
1789997790989005600,10.308005615234375,-0.11295552551746368,0.02878212183713913,-0.03602275997400284
1789997790999076600,10.31807666015625,-0.10269720107316971,0.04812285304069519,-0.04248438775539398
1789997791009147400,10.3281474609375,-0.1084139421582222,0.006136257201433182,-0.0008663709741085768
1789997791019219700,10.3382197265625,-0.10218283534049988,-0.016646090894937515,0.033843670040369034
1789997791029290500,10.34829052734375,-0.09114322811365128,-0.030884413048624992,0.007456272840499878
1789997791039361500,10.358361572265625,-0.10735035687685013,-0.0023841820657253265,0.007848555222153664
1789997791049432600,10.3684326171875,-0.12866176664829254,0.015427837148308754,0.05191774666309357
1789997791059504400,10.37850439453125,-0.1454750895500183,0.0344284288585186,0.03735611215233803
1789997791069575400,10.388575439453126,-0.15479350090026855,0.013570282608270645,0.05793595686554909
1789997791079646500,10.398646484375,-0.11243164539337158,-0.03696918487548828,0.06658003479242325
1789997791089717500,10.408717529296876,-0.09113967418670654,-0.07451283186674118,0.027803082019090652
1789997791099788500,10.41878857421875,-0.06877509504556656,-0.12123708426952362,0.0078054144978523254
1789997791109860400,10.4288603515625,-0.07092878967523575,-0.11588998883962631,-0.052064575254917145
1789997791119931400,10.438931396484374,-0.07028993964195251,-0.09325814247131348,-0.05317644774913788
1789997791130002400,10.44900244140625,-0.034909311681985855,-0.09460490196943283,-0.062181927263736725
1789997791140073500,10.459073486328125,-0.02893255278468132,-0.10301750153303146,-0.014783784747123718
1789997791150145500,10.4691455078125,-0.014914737083017826,-0.11011242866516113,0.023325784131884575
1789997791160216600,10.479216552734375,-0.006203216966241598,-0.06715661287307739,0.01234770193696022
1789997791170287600,10.48928759765625,0.0019431263208389282,-0.038390740752220154,-0.0009467981290072203
1789997791180358400,10.4993583984375,0.04119160771369934,-0.03459744155406952,-0.0042379326187074184
1789997791190430500,10.509430419921875,0.07083658874034882,-0.003178267739713192,0.02564140409231186
1789997791200501500,10.51950146484375,0.07733616977930069,-0.01223299466073513,-0.0026083444245159626
1789997791210572500,10.529572509765625,0.09739536046981812,-0.03262455388903618,-0.07144040614366531
1789997791220643600,10.5396435546875,0.17243631184101105,-0.059202369302511215,-0.042633526027202606
1789997791230715400,10.54971533203125,0.20044077932834625,-0.04852895066142082,-0.014813611283898354
1789997791240786400,10.559786376953125,0.205217182636261,-0.00231693172827363,0.00631058169528842
1789997791250857500,10.569857421875,0.21435928344726562,0.037741005420684814,0.001057762885466218
1789997791260928500,10.579928466796876,0.2239702194929123,0.07967720180749893,0.005217087920755148
1789997791271000600,10.59000048828125,0.2530255615711212,0.04158228263258934,0.006724969949573278
1789997791281071400,10.6000712890625,0.26652804017066956,0.009702417999505997,-0.000517232168931514
1789997791291142400,10.610142333984374,0.27727869153022766,0.06420427560806274,0.020916152745485306
1789997791301213400,10.62021337890625,0.27390602231025696,0.0807720199227333,-0.04982512444257736
1789997791311285500,10.630285400390624,0.3010590672492981,0.08187456429004669,-0.09219016134738922
1789997791321356500,10.6403564453125,0.3013879060745239,0.1268542855978012,-0.05566650629043579
1789997791331427600,10.650427490234375,0.2861570119857788,0.13788242638111115,-0.07196665555238724
1789997791341498600,10.66049853515625,0.3140977621078491,0.11639168113470078,-0.13549715280532837
1789997791351570700,10.67057080078125,0.35998108983039856,0.1265319287776947,-0.15064255893230438
1789997791361641500,10.680641357421875,0.4017222225666046,0.14784318208694458,-0.10386227071285248
1789997791371712500,10.69071240234375,0.4088909327983856,0.1301558017730713,0.0028231691103428602
1789997791381783600,10.700783447265625,0.3765474855899811,0.14703387022018433,-0.01088305190205574
1789997791391855400,10.71085546875,0.3060014247894287,0.17760856449604034,0.009989472106099129
1789997791401926400,10.720926513671875,0.28160426020622253,0.15341997146606445,0.0546908974647522
1789997791411997400,10.73099755859375,0.3042190372943878,0.15733294188976288,0.08606719225645065
1789997791422068500,10.741068359375,0.31628552079200745,0.16416215896606445,0.026458993554115295
1789997791432140500,10.751140625,0.2955762445926666,0.12109006196260452,0.011925323866307735
1789997791442211600,10.761211669921876,0.23677998781204224,0.13335582613945007,0.08569994568824768
1789997791452282400,10.771282470703126,0.18640229105949402,0.14970150589942932,-0.010893438011407852
1789997791462353400,10.781353515625,0.17343692481517792,0.13240090012550354,-0.022097092121839523
1789997791472425500,10.791425537109374,0.23814454674720764,0.09474672377109528,0.010480026714503765
1789997791482496500,10.80149658203125,0.25512251257896423,0.09639173001050949,0.012297900393605232
1789997791492567600,10.811567626953124,0.19856871664524078,0.11802884936332703,0.08051663637161255
1789997791502639600,10.8216396484375,0.13981258869171143,0.14064417779445648,0.021700190380215645
1789997791512710700,10.831710693359375,0.13589082658290863,0.15950708091259003,-0.00644702510908246
1789997791522781700,10.84178173828125,0.13894039392471313,0.17700065672397614,0.014224432408809662
1789997791532852500,10.8518525390625,0.13453659415245056,0.1573697030544281,0.006036276463419199
1789997791542923500,10.861923583984375,0.11153598874807358,0.179902583360672,-0.023983675986528397
1789997791552995300,10.871995361328125,0.0855611115694046,0.1694510132074356,-0.021320514380931854
1789997791563066400,10.88206640625,0.1716080754995346,0.14095096290111542,-0.005949013866484165
1789997791573137400,10.892137451171875,0.18535716831684113,0.12954065203666687,0.046490225940942764
1789997791583208400,10.90220849609375,0.07307661324739456,0.1245354413986206,0.0687531903386116
1789997791593280500,10.912280517578125,-0.02652508206665516,0.12917520105838776,0.03467431291937828
1789997791603351600,10.9223515625,-0.10313254594802856,0.12546172738075256,-0.026493702083826065
1789997791613422600,10.932422607421875,-0.1182803362607956,0.09187980741262436,0.03604397550225258
1789997791623493400,10.942493408203125,-0.06983920931816101,0.0630578100681305,0.048002101480960846
1789997791633565400,10.9525654296875,-0.06902961432933807,0.058711256831884384,0.05801745131611824
1789997791643636500,10.962636474609376,-0.06587129086256027,0.06282252818346024,0.08833806961774826
1789997791653707500,10.97270751953125,-0.14523561298847198,0.06996539235115051,0.06082708761096001
1789997791663778600,10.982778564453126,-0.218920037150383,0.06868311017751694,0.021754786372184753
1789997791673850600,10.9928505859375,-0.22677822411060333,0.03949353098869324,0.010819314047694206
1789997791683921700,11.002921630859374,-0.2381068766117096,-0.006117153912782669,0.006088207941502333
1789997791693992700,11.01299267578125,-0.22232258319854736,-0.012077840976417065,-0.019323941320180893
1789997791704063500,11.0230634765625,-0.18139368295669556,0.012840754352509975,-0.017356930300593376
1789997791714135300,11.03313525390625,-0.15409521758556366,0.010197567753493786,-0.009950146079063416
1789997791724206300,11.043206298828125,-0.16538752615451813,0.020480386912822723,-0.0029228655621409416
1789997791734277400,11.05327734375,-0.17133836448192596,0.047337569296360016,-0.017121508717536926
1789997791744348200,11.06334814453125,-0.16474628448486328,0.06646186113357544,-0.022889645770192146
1789997791754420000,11.073419921875,-0.14713293313980103,0.052586786448955536,0.03979450836777687
1789997791764491000,11.083490966796875,-0.1398971527814865,0.038144681602716446,0.05399847775697708
1789997791774562000,11.09356201171875,-0.10104668885469437,0.0785275250673294,0.04598608985543251
1789997791784633000,11.103633056640625,-0.043760523200035095,0.13414302468299866,-0.007533333729952574
1789997791794705200,11.113705078125,-0.00829014740884304,0.15129244327545166,0.010550328530371189
1789997791804776200,11.123776123046875,-0.03135121986269951,0.15061494708061218,0.028571145609021187
1789997791814847200,11.13384716796875,-0.026153000071644783,0.09795626252889633,0.0008542970172129571
1789997791824918000,11.14391796875,-0.046477895230054855,0.13278841972351074,-0.0012810251209884882
1789997791834990300,11.153990234375,-0.04662996158003807,0.15138819813728333,0.00915350578725338
1789997791845061000,11.16406103515625,-0.01651069149374962,0.1596585065126419,0.019366195425391197
1789997791855132200,11.174132080078126,0.007302494719624519,0.1393100917339325,0.08126657456159592
1789997791865203200,11.184203125,-0.011587584391236305,0.09972736239433289,0.1259179413318634
1789997791875275000,11.19427490234375,-0.05128173530101776,0.10720285773277283,0.020424271002411842
1789997791885346000,11.204345947265624,-0.10902611166238785,0.1269972324371338,0.044622551649808884
1789997791895417000,11.2144169921875,-0.11800175905227661,0.1275130808353424,0.011020648293197155
1789997791905488100,11.224488037109374,-0.09549319744110107,0.11329855769872665,-0.03445975109934807
1789997791915560200,11.234560302734375,-0.07841674238443375,0.08112597465515137,-0.04734625294804573
1789997791925631000,11.244630859375,-0.04962827265262604,0.06583911180496216,-0.005862994119524956
1789997791935702000,11.254701904296875,-0.05065518617630005,0.09192157536745071,-0.0024903668090701103
1789997791945774000,11.264774169921875,-0.06425013393163681,0.11178883910179138,0.02599640004336834
1789997791955845000,11.27484521484375,-0.03572528064250946,0.11692287772893906,0.035001080483198166
1789997791965916200,11.284916259765625,-0.031405121088027954,0.08853509277105331,0.03117172233760357
1789997791975987200,11.2949873046875,-0.06185144558548927,0.0834798812866211,-0.0076521048322319984
1789997791986058200,11.305058349609375,-0.06641115248203278,0.0889793336391449,-0.013306265696883202
1789997791996130300,11.31513037109375,-0.07198940962553024,0.10036834329366684,-0.060869257897138596
1789997792006201000,11.325201171875,-0.10734178125858307,0.09967654198408127,-0.013776044361293316
1789997792016272100,11.335272216796875,-0.12677593529224396,0.09136082231998444,0.08078587800264359
1789997792026344000,11.345343994140626,-0.11905018240213394,0.07310310751199722,0.03718274459242821
1789997792036415000,11.3554150390625,-0.09889617562294006,0.04888645559549332,0.014817783609032631
1789997792046486000,11.365486083984376,-0.08121539652347565,0.055977482348680496,0.08165646344423294
1789997792056557000,11.37555712890625,-0.0947871282696724,0.04118575528264046,-0.0021694558672606945
1789997792066629000,11.385629150390624,-0.1597302258014679,0.019891997799277306,-0.03177635371685028
1789997792076700200,11.3957001953125,-0.18987081944942474,0.00416603172197938,0.004432251676917076
1789997792086771200,11.405771240234374,-0.21901530027389526,-0.03636370971798897,0.04363691434264183
1789997792096842000,11.415842041015624,-0.25220173597335815,-0.07484745234251022,0.052273813635110855
1789997792106914000,11.4259140625,-0.22406154870986938,-0.039263732731342316,0.03255017101764679
1789997792116985000,11.435985107421875,-0.22512094676494598,-0.023978786543011665,0.023607810959219933
1789997792127056100,11.44605615234375,-0.24775581061840057,-0.03581283241510391,-0.009114447981119156
1789997792137127200,11.456127197265625,-0.23555028438568115,-0.05961190536618233,0.025500256568193436
1789997792147199200,11.46619921875,-0.2350647747516632,-0.033311717212200165,0.004834125749766827
1789997792157270300,11.476270263671875,-0.24595125019550323,-0.04051929712295532,-0.008907251991331577
1789997792167341300,11.48634130859375,-0.21046310663223267,-0.0823235735297203,0.0420462042093277
1789997792177412000,11.496412109375,-0.1788969188928604,-0.08818066120147705,0.04504891857504845
1789997792187484200,11.506484130859375,-0.17703326046466827,-0.09897240996360779,0.04350855201482773
1789997792197555000,11.516554931640625,-0.1518637239933014,-0.09012272953987122,0.007800886407494545
1789997792207626000,11.5266259765625,-0.14257434010505676,-0.018774202093482018,0.0030500737484544516
1789997792217697000,11.536697021484375,-0.11192401498556137,-0.0191505067050457,0.0026308922097086906
1789997792227769000,11.54676904296875,-0.07160612940788269,-0.02360086515545845,0.04117855057120323
1789997792237840100,11.556840087890626,-0.05548414960503578,-0.020813601091504097,-0.016620833426713943
1789997792247911200,11.5669111328125,-0.0550718680024147,-0.04664351046085358,-0.051177747547626495
1789997792257982200,11.576982177734376,-0.013872765935957432,-0.0689954161643982,0.03255603089928627
1789997792268054300,11.58705419921875,0.009483878500759602,-0.06884034723043442,0.031690772622823715
1789997792278125000,11.597125,-0.028354046866297722,-0.04091710224747658,0.04519406333565712
1789997792288196000,11.607196044921874,-0.04732607305049896,-0.005272546783089638,0.0429127998650074
1789997792298267100,11.61726708984375,-0.03441693261265755,0.009340484626591206,-0.014551556669175625
1789997792308339200,11.627339111328125,0.010243198834359646,-0.025796109810471535,-0.015111619606614113
1789997792318410200,11.63741015625,0.054917458444833755,-0.03835451230406761,0.019313199445605278
1789997792328481300,11.647481201171875,0.04785378277301788,-0.03248453885316849,0.015351742506027222
1789997792338552300,11.65755224609375,0.02213217131793499,-0.021820975467562675,-0.008283812552690506
1789997792348624100,11.6676240234375,0.06649809330701828,0.01122575718909502,0.0010244699660688639
1789997792358695000,11.67769482421875,0.11984440684318542,-0.0028264126740396023,-0.05652457848191261
1789997792368766000,11.687765869140625,0.1374969184398651,0.0035764561034739017,-0.07349609583616257
1789997792378837000,11.6978369140625,0.1478710025548935,-0.00785489659756422,-0.06641635298728943
1789997792388909000,11.707908935546875,0.13971130549907684,0.003762423526495695,-0.056392211467027664
1789997792398980000,11.71797998046875,0.15767458081245422,0.0170420091599226,0.03419148176908493
1789997792409051100,11.728051025390625,0.15915954113006592,0.03212868049740791,0.012382055632770061
1789997792419122200,11.7381220703125,0.15667589008808136,0.032015495002269745,0.01540953665971756
1789997792429194200,11.7481943359375,0.16212351620197296,0.07278899848461151,0.05057365074753761
1789997792439265300,11.758265380859376,0.15132199227809906,0.06765042990446091,0.02623874880373478
1789997792449336000,11.768336181640626,0.12266285717487335,0.013747777789831161,-0.009673709981143475
1789997792459407000,11.778406982421876,0.10234107077121735,-0.018959302455186844,-0.0060613988898694515
1789997792469479200,11.788479248046874,0.04523250088095665,-0.030064821243286133,-0.03254280611872673
1789997792479550200,11.79855029296875,-0.03052670881152153,-0.05087822675704956,-0.06053316220641136
1789997792489621200,11.808621337890624,-0.05958394333720207,-0.04704074561595917,-0.03573700785636902
1789997792499692300,11.8186923828125,-0.026317331939935684,-0.04880988597869873,-0.0007529236609116197
1789997792509764000,11.82876416015625,-0.02470177598297596,-0.08426279574632645,0.0076916953548789024
1789997792519835100,11.838835205078125,-0.04811682179570198,-0.09355536848306656,-0.00899327453225851
1789997792529906000,11.848906005859375,-0.06822049617767334,-0.104819655418396,0.033498261123895645
1789997792539977000,11.85897705078125,-0.1047646626830101,-0.07455043494701385,0.03751084581017494
1789997792550049000,11.869049072265625,-0.1416841447353363,-0.0809667557477951,0.08466450870037079
1789997792560120000,11.8791201171875,-0.12631796300411224,-0.08392259478569031,0.015194883570075035
1789997792570191000,11.889191162109375,-0.09974287450313568,-0.07552729547023773,0.07321078330278397
1789997792580262100,11.89926220703125,-0.08638365566730499,-0.09047641605138779,0.011633442714810371
1789997792590334200,11.909334228515625,-0.08792694658041,-0.062117304652929306,-0.03212921693921089
1789997792600405200,11.9194052734375,-0.07506708055734634,-0.07935434579849243,-0.02375224605202675
1789997792610476300,11.929476318359375,-0.05225999280810356,-0.07656180113554001,-0.07737499475479126
1789997792620547000,11.939547119140625,-0.01650918647646904,-0.07653676718473434,-0.029196547344326973
1789997792630619100,11.949619140625,-0.005136142484843731,-0.04403301328420639,0.011369521729648113
1789997792640690200,11.959690185546876,0.01222527027130127,-0.04480186849832535,0.051496170461177826
1789997792650761200,11.96976123046875,0.022384099662303925,-0.03136942535638809,0.06031123176217079
1789997792660832300,11.979832275390624,0.013936818577349186,-0.02390405349433422,0.019038628786802292
1789997792670904000,11.989904052734374,0.018826298415660858,-0.05495981499552727,-0.07102495431900024
1789997792680975000,11.99997509765625,0.0479104109108448,-0.0831509679555893,-0.07574807107448578
1789997792691046100,12.010046142578124,0.06837385147809982,-0.09348359704017639,-0.06376064568758011
1789997792701117000,12.020116943359374,0.04375080019235611,-0.0867529883980751,-0.07753797620534897
1789997792711188700,12.030188720703125,0.0754140242934227,-0.08905558288097382,-0.11280249059200287
1789997792721259800,12.040259765625,0.06819526106119156,-0.08836715668439865,-0.03332151845097542
1789997792731330800,12.050330810546875,0.11415216326713562,-0.10791448503732681,0.055449895560741425
1789997792741401900,12.06040185546875,0.14899615943431854,-0.06394062936306,0.08948589861392975
1789997792751474000,12.070473876953125,0.1201607957482338,-0.04145614057779312,0.003821857739239931
1789997792761545000,12.080544921875,0.11971045285463333,-0.035999055951833725,-0.04229556769132614
1789997792771616000,12.090615966796875,0.12509801983833313,-0.022661369293928146,-0.07867035269737244
1789997792781686800,12.100686767578125,0.14048416912555695,-0.025279521942138672,-0.0396430641412735
1789997792791759000,12.110759033203125,0.18295523524284363,-0.024046026170253754,0.03287934139370918
1789997792801830000,12.120829833984375,0.19337990880012512,0.050014350563287735,0.012092037126421928
1789997792811901000,12.13090087890625,0.20110584795475006,0.1055271178483963,0.0421825610101223
1789997792821972000,12.140971923828126,0.24203385412693024,0.13570180535316467,-0.006237703375518322
1789997792832043800,12.151043701171876,0.2563239634037018,0.14288745820522308,-0.044001854956150055
1789997792842114800,12.16111474609375,0.23313632607460022,0.09402831643819809,-0.0006360083352774382
1789997792852185900,12.171185791015626,0.18609116971492767,0.09398887306451797,-0.08207281678915024
1789997792862257000,12.1812568359375,0.14919492602348328,0.10987170040607452,-0.0713416039943695
1789997792872329000,12.191328857421874,0.182708740234375,0.09430025517940521,-0.0327441431581974
1789997792882399700,12.201399658203124,0.21840281784534454,0.11042089760303497,-0.0831063836812973
1789997792892470800,12.211470703125,0.23560549318790436,0.10778085887432098,-0.023686200380325317
1789997792902541800,12.221541748046874,0.2234494835138321,0.13459144532680511,0.01288166455924511
1789997792912614000,12.23161376953125,0.17581947147846222,0.12639032304286957,0.024212345480918884
1789997792922685000,12.241684814453125,0.1787092685699463,0.093909353017807,0.030787689611315727
1789997792932756000,12.251755859375,0.1760316640138626,0.0754663348197937,0.018376026302576065
1789997792942828000,12.261828125,0.1441970318555832,0.06920124590396881,-0.015525748021900654
1789997792952899000,12.271899169921875,0.11412931978702545,0.08701808750629425,-0.01960996724665165
1789997792962969900,12.281969970703125,0.10975880175828934,0.10006065666675568,-0.058141376823186874
