time,seconds_elapsed,z,y,x
1789996807541404000,1.56940380859375,0.14425415466551608,-9.805582886348194,-0.010300387334716823
1789996807551475000,1.579474853515625,0.14497909095757355,-9.805571199055171,-0.012639009441978538
1789996807561546000,1.5895458984375,0.143637390602561,-9.805588857841757,-0.013736145324180509
1789996807571617000,1.599616943359375,0.14592305908901523,-9.805547330367476,-0.018673687060257304
1789996807581688000,1.60968798828125,0.1423541216941698,-9.805582782905757,-0.02619828874910806
1789996807591759000,1.619759033203125,0.13809322709830146,-9.805614808027757,-0.03539883220431792
1789996807601830000,1.629829833984375,0.13778803756073002,-9.805576037764753,-0.045890633758253266
1789996807611902000,1.63990185546875,0.1362851271489367,-9.805541315844607,-0.05647948793611558
1789996807621973000,1.649972900390625,0.1306986300567319,-9.805539943555958,-0.06871708185952002
1789996807632044000,1.6600439453125,0.12622334395837478,-9.805491463228133,-0.08249453963479415
1789996807642115000,1.670114990234375,0.12494834965566606,-9.805374460182769,-0.09701747910644141
1789996807652186000,1.68018603515625,0.11934673128841294,-9.805267188599458,-0.11346505493430674
1789996807662257200,1.690257080078125,0.10575035599597622,-9.805186554782907,-0.13237177459555968
1789996807672328000,1.700327880859375,0.10256021726505281,-9.804926334094834,-0.15268604085365275
1789996807682399000,1.71039892578125,0.09865941997071626,-9.804606056208836,-0.1742775500062217
1789996807692470000,1.720469970703125,0.09123822247262127,-9.804230707866326,-0.19783747809044788
1789996807702541000,1.730541015625,0.08984306972587923,-9.803649046476462,-0.22535407582101868
1789996807712612000,1.740612060546875,0.0881039903327898,-9.803017376980906,-0.2519714094109592
1789996807722684200,1.75068408203125,0.07472913133574928,-9.802486844001207,-0.2758217155103009
1789996807732755200,1.760755126953125,0.06811523952139215,-9.801777175933106,-0.30151348646585413
1789996807742827000,1.770826904296875,0.0713570674605984,-9.800873985228906,-0.3288901924218168
1789996807752897800,1.780897705078125,0.06776240632428651,-9.800001828029792,-0.3546231889217197
1789996807762968800,1.79096875,0.06165861615347223,-9.799053635968974,-0.380963859647688
1789996807773039900,1.801039794921875,0.060327613413335056,-9.798013283455267,-0.407044715564757
1789996807783111000,1.81111083984375,0.05685958778835607,-9.797139854819408,-0.4280294501349861
1789996807793182000,1.821181884765625,0.06045554087470046,-9.796327843982931,-0.4457247008942862
1789996807803253000,1.8312529296875,0.07014505735344213,-9.795498555774666,-0.4622475569490766
1789996807813324000,1.841323974609375,0.07024834777722105,-9.794856449191954,-0.4756379508348497
1789996807823395800,1.851395751953125,0.0669405875263097,-9.79444047815922,-0.48458042770436577
1789996807833467000,1.861466796875,0.06986179222061481,-9.794157591295845,-0.48989624043252045
1789996807843538000,1.871537841796875,0.06935324775670022,-9.793938451418555,-0.49431375598583316
1789996807853609000,1.88160888671875,0.06699554901004709,-9.793778554897132,-0.4978093015304839
1789996807863680000,1.891679931640625,0.06719457043055661,-9.793772398920154,-0.49791306458842227
1789996807873751000,1.9017509765625,0.06451457809711626,-9.794032129054003,-0.49310007531737476
1789996807883822000,1.911822021484375,0.07223956348720481,-9.794407621744826,-0.4844970569544493
1789996807893892900,1.921892822265625,0.08170421616687015,-9.794902037385173,-0.47287212258487704
1789996807903964000,1.9319638671875,0.08342463186647345,-9.795578399051678,-0.4583469985534628
1789996807914035000,1.942034912109375,0.08201815249343805,-9.796257761778955,-0.4438353257099048
1789996807924106000,1.95210595703125,0.08866434440600152,-9.796867078082181,-0.4288719348399963
1789996807934177800,1.962177734375,0.09492820185577731,-9.797479702191792,-0.413236072799561
1789996807944248800,1.972248779296875,0.0980121730218249,-9.797981434434602,-0.4004279605320799
1789996807954320000,1.98231982421875,0.0952064886734938,-9.798451073410114,-0.38946707060040386
1789996807964390700,1.992390625,0.08937435076953815,-9.798836143914667,-0.3810591153615977
1789996807974461700,2.002461669921875,0.0930042016836315,-9.799202998521158,-0.3706082469716096
1789996807984532700,2.01253271484375,0.09887558897441777,-9.799639450145552,-0.35729029803874196
1789996807994603800,2.022603759765625,0.10430239470358908,-9.800123834450076,-0.3421551150455492
1789996808004674800,2.0326748046875,0.10681572431692873,-9.800585349869715,-0.3278626967126406
1789996808014745900,2.042745849609375,0.10544010829627853,-9.80097731647675,-0.31642939950658167
1789996808024816600,2.052816650390625,0.09932657331697524,-9.801418992672561,-0.30449554837018794
1789996808034887700,2.0628876953125,0.09365112794473104,-9.801839884544094,-0.29246799701977794
1789996808044959700,2.072959716796875,0.09000070548001524,-9.802176934921253,-0.2821828953007566
1789996808055030800,2.08303076171875,0.08287534005724184,-9.802424562221997,-0.27565891132091225
1789996808065101800,2.093101806640625,0.0812511624821344,-9.802619843165477,-0.26911631827786386
1789996808075172900,2.1031728515625,0.0853520919022341,-9.802830373840617,-0.26006031920923384
1789996808085244000,2.113243896484375,0.08423272094310996,-9.803082249928027,-0.2507697395775737
1789996808095314700,2.123314697265625,0.08436735231941186,-9.803245947740644,-0.24425641244777596
1789996808105385700,2.1333857421875,0.08519413200908023,-9.803360910377112,-0.23932936638471297
1789996808115456800,2.143456787109375,0.08713097286992098,-9.803493162652934,-0.2331233450722952
1789996808125527800,2.15352783203125,0.08843166641744754,-9.80364151355925,-0.22626080960432232
1789996808135598800,2.163598876953125,0.08558855879775058,-9.803798333727196,-0.22044659647735634
1789996808145670000,2.173669921875,0.07935198020917844,-9.803904482841185,-0.21808546448064015
1789996808155742000,2.183741943359375,0.07595871540069947,-9.80401539182837,-0.21430371712672142
1789996808165813000,2.19381298828125,0.07918843878469152,-9.804071733619557,-0.2104828253256924
1789996808175883800,2.2038837890625,0.07986610411287925,-9.804148596478361,-0.20659252046849158
1789996808185954800,2.213954833984375,0.0828142612339408,-9.804179946907626,-0.20392056774704032
1789996808196025900,2.22402587890625,0.08646441846228049,-9.804178958452656,-0.20248727803951888
1789996808206097000,2.234096923828125,0.08246681940705564,-9.804231273149373,-0.20162142241075176
1789996808216168000,2.24416796875,0.07603203505330051,-9.804256337609782,-0.20291937644377678
1789996808226239000,2.254239013671875,0.07520417348736416,-9.80424756583807,-0.20363061246511716
1789996808236309800,2.264309814453125,0.07545127332102333,-9.804188585409586,-0.206394077523722
1789996808246380800,2.274380859375,0.08008828478738805,-9.804029260173186,-0.21205036670816083
1789996808256452900,2.284452880859375,0.08388697752836793,-9.803922685195097,-0.2155731019127725
1789996808266524000,2.29452392578125,0.08914122810303683,-9.803896037326414,-0.21458455341354943
1789996808276595000,2.304594970703125,0.09235207893155739,-9.803928862290167,-0.2117485407740233
1789996808286666000,2.314666015625,0.09336897636934528,-9.803926315309646,-0.21143592478978485
1789996808296737000,2.324737060546875,0.09088780237444927,-9.803983368835762,-0.20988132044627356
1789996808306807800,2.334807861328125,0.08598652572765826,-9.804122917807435,-0.2053715589652001
1789996808316878800,2.34487890625,0.0864416527578575,-9.804177828072891,-0.20254538802916947
1789996808326950000,2.354949951171875,0.09160091408527164,-9.804155619775424,-0.20123830578542398
1789996808337021000,2.36502099609375,0.09760293544426148,-9.804119858501133,-0.20028636064844682
1789996808347092000,2.375092041015625,0.10032154162031526,-9.80418725836126,-0.19552766862334195
1789996808357163000,2.3851630859375,0.10259404284523732,-9.804286555377795,-0.1892517753674692
1789996808367233800,2.39523388671875,0.10188381944056868,-9.80437552472322,-0.18499645373716153
1789996808377305900,2.405305908203125,0.09648048795930533,-9.804528456377133,-0.17971458098460835
1789996808387377000,2.415376953125,0.09494062422960675,-9.804660300546129,-0.17325730702879794
1789996808397448000,2.425447998046875,0.09588470034459792,-9.804710944282201,-0.1698370126795133
1789996808407519000,2.43551904296875,0.09970916826970931,-9.804751862656596,-0.16519131659597183
1789996808417590000,2.445590087890625,0.10472109960443444,-9.804792113997907,-0.1596822045669567
1789996808427661000,2.4556611328125,0.11028926665001865,-9.804808803387616,-0.15481082410847177
1789996808437731800,2.46573193359375,0.11060412196757903,-9.804892838223028,-0.14914377094819192
1789996808447803000,2.475802978515625,0.10370501255012966,-9.805011233350173,-0.14628654816506684
1789996808457874000,2.4858740234375,0.09750736682349607,-9.805050235839394,-0.1478709800632303
1789996808467945000,2.495945068359375,0.09799407444235503,-9.804930147597322,-0.15538995050580623
1789996808478016000,2.50601611328125,0.10091237907932749,-9.804772171368027,-0.1632829055575526
1789996808488087800,2.516087890625,0.09588863770953797,-9.804682883169404,-0.17144862739700362
1789996808498158800,2.526158935546875,0.09159994409660024,-9.80447985870478,-0.1849051409639529
1789996808508230000,2.53622998046875,0.0894912570831392,-9.804148997261608,-0.2025630714547283
1789996808518300700,2.54630078125,0.0868989283667818,-9.803782000573062,-0.22070281787422188
1789996808528371700,2.556371826171875,0.08643697749584055,-9.803373116271054,-0.238364861446152
1789996808538442800,2.56644287109375,0.08213278141646643,-9.802974004279337,-0.2556263584402086
1789996808548513800,2.576513671875,0.08022283285723002,-9.802590702241718,-0.27055266671055095
1789996808558584800,2.586584716796875,0.07801659878573604,-9.802196651030801,-0.28503622287182
1789996808568656000,2.59665576171875,0.07443093213693058,-9.801808941440568,-0.298947828797683
1789996808578726700,2.6067265625,0.07162665870596882,-9.801386401637423,-0.3131720941747825
1789996808588797700,2.616797607421875,0.06270229735567644,-9.801037198538154,-0.3258037577594005
1789996808598869800,2.626869873046875,0.05880338773436615,-9.800677832926914,-0.33711816192768373
1789996808608940800,2.63694091796875,0.06103907392896225,-9.800342274762391,-0.34632969513911
1789996808619011800,2.64701171875,0.06242713136785149,-9.80015920547683,-0.351234071064164
1789996808629083000,2.657082763671875,0.05615516169224497,-9.800154389090341,-0.35242229250875384
1789996808639154000,2.66715380859375,0.04913056341259819,-9.800093613645393,-0.35511303882353956
1789996808649224700,2.677224609375,0.04960116438750616,-9.79984570936254,-0.36189033068982396
1789996808659295700,2.687295654296875,0.052584005578007346,-9.799610211114809,-0.3677852463521813
1789996808669366800,2.69736669921875,0.0581288537892356,-9.799655241838545,-0.36578327806559685
1789996808679437800,2.707437744140625,0.05987076565253555,-9.799784150466651,-0.3620259121003577
1789996808689508900,2.7175087890625,0.053195421098328526,-9.800034532557614,-0.35621634842406413
1789996808699580000,2.727579833984375,0.05126559070015539,-9.800254918687328,-0.3503886026794009
1789996808709650700,2.737650634765625,0.057387807043503915,-9.8004033530417,-0.34523081397493366
1789996808719722800,2.74772265625,0.06327587643125018,-9.80059159832481,-0.33879827225688147
1789996808729793800,2.757793701171875,0.06589355386476779,-9.800775373966303,-0.33293424267284144
1789996808739864800,2.76786474609375,0.06601336938477566,-9.800955094013618,-0.3276080895983801
1789996808749935600,2.777935546875,0.06871774436781852,-9.801124764698255,-0.32190313759164074
1789996808760006700,2.788006591796875,0.07318690107393165,-9.801364671519554,-0.313504848647859
1789996808770077700,2.79807763671875,0.08001685826557593,-9.801537605379638,-0.3063229748569852
1789996808780148500,2.8081484375,0.08300256754194008,-9.801634872294766,-0.3024352433232695
1789996808790219500,2.818219482421875,0.08884730099882812,-9.801674818890012,-0.29947186700620165
1789996808800290600,2.82829052734375,0.09674284149267848,-9.801692185310621,-0.29638369461085423
1789996808810361600,2.838361572265625,0.0998420161234234,-9.801797457199173,-0.2918723530664124
1789996808820432600,2.8484326171875,0.10031927550985092,-9.801891547185113,-0.2885441061973539
1789996808830504700,2.858504638671875,0.09817843680890327,-9.80196538426623,-0.2867528469563093
1789996808840575700,2.86857568359375,0.09907997531983874,-9.802026730593484,-0.28438147557472093
1789996808850646500,2.878646484375,0.10496575686842667,-9.801973031649759,-0.28410921035498987
1789996808860717600,2.888717529296875,0.10772917986073013,-9.801849271075328,-0.2873245165441001
1789996808870788600,2.89878857421875,0.10399299314788149,-9.80182076397807,-0.2896332338184757
1789996808880859600,2.908859619140625,0.10235580975475018,-9.801797274586546,-0.2909687876190944
1789996808890930700,2.9189306640625,0.10375090935749846,-9.801826703042202,-0.28951345905019005
1789996808901001700,2.929001708984375,0.1139744871979596,-9.801796388060598,-0.28669904390360346
1789996808911072500,2.939072509765625,0.12455634062027851,-9.801785029644094,-0.2826425663908441
1789996808921143600,2.9491435546875,0.12345988015302238,-9.802016915670745,-0.2749733193057752
1789996808931214600,2.959214599609375,0.12530880315284068,-9.802155915530127,-0.26907261313889685
1789996808941285600,2.96928564453125,0.1315968157596443,-9.802041915460428,-0.27028520980780585
1789996808951357700,2.979357666015625,0.13451835118089325,-9.801977197239932,-0.2711823143786547
1789996808961428700,2.9894287109375,0.14529924709162048,-9.801761490769735,-0.27340061243708536
1789996808971499800,2.999499755859375,0.15161235757786745,-9.801585898141928,-0.27623285691631205
1789996808981570800,3.00957080078125,0.15153596030430194,-9.801656142693659,-0.27379429416665035
1789996808991641600,3.0196416015625,0.15655321502536412,-9.801776952765728,-0.26654418454361284
1789996809001712600,3.029712646484375,0.16149237756219356,-9.801843424451834,-0.26107933632404173
1789996809011783700,3.03978369140625,0.1578765361912521,-9.802056244398386,-0.2552322462268493
1789996809021854700,3.049854736328125,0.1537403345019193,-9.80220934401244,-0.2519072275471363
1789996809031925800,3.05992578125,0.14766190360517417,-9.80236880004504,-0.2493421045658332
1789996809041996800,3.069996826171875,0.14028463048211565,-9.802574986850617,-0.24543584099494267
1789996809052067600,3.080067626953125,0.13810354765067087,-9.802760880336992,-0.23914016818245776
1789996809062138600,3.090138671875,0.13310140610037682,-9.803019918563727,-0.23122357330575177
1789996809072210400,3.10021044921875,0.12835506268919913,-9.803286597443481,-0.22245633285741048
1789996809082281500,3.110281494140625,0.12447592969078486,-9.80356102077983,-0.21232558491194614
1789996809092352500,3.1203525390625,0.12528531733351958,-9.803689136180488,-0.20585062495158518
1789996809102423600,3.130423583984375,0.12761566014739728,-9.803797318955073,-0.19915653639985806
1789996809112494600,3.14049462890625,0.12721027033307516,-9.80398969666795,-0.1897226573059955
1789996809122565600,3.150565673828125,0.12312294333391795,-9.804246582823,-0.17889843537946243
1789996809132636700,3.16063671875,0.11647038836617071,-9.80453318406228,-0.167209963725654
1789996809142707700,3.170707763671875,0.10851601633837646,-9.804840987015606,-0.15396335259704494
1789996809152778800,3.18077880859375,0.10311841735632837,-9.805112095858414,-0.13965167572919268
1789996809162849800,3.190849853515625,0.09958963928536399,-9.805344569998704,-0.12530522107843148
1789996809172920600,3.200920654296875,0.09788038408010832,-9.805497351858923,-0.11421722007802096
1789996809182991600,3.21099169921875,0.0920381710948754,-9.805679405696221,-0.10296208695710292
1789996809193063400,3.2210634765625,0.08891673730203131,-9.805805811008433,-0.09313914584682143
1789996809203134500,3.231134521484375,0.0851411954126794,-9.805928402198353,-0.0830910798802114
1789996809213205500,3.24120556640625,0.07839212550843243,-9.806043920570426,-0.07598759349210348
1789996809223276500,3.251276611328125,0.07436369456997852,-9.806132617747293,-0.06798636968390519
1789996809233347600,3.26134765625,0.06887432874119018,-9.806226875066033,-0.0596643102557578
1789996809243418600,3.271418701171875,0.0626249177575255,-9.806296127023627,-0.054830486538005624
1789996809253489400,3.281489501953125,0.06344986588817747,-9.806317208559365,-0.05009153543039604
1789996809263560400,3.291560546875,0.061271004425752916,-9.806360655155204,-0.04391404351545873
1789996809273631500,3.301631591796875,0.056611133602033376,-9.806421009867952,-0.035576000794079
1789996809283702500,3.31170263671875,0.053400024099927855,-9.80646622789436,-0.027443394127916357
1789996809293773600,3.321773681640625,0.055207763567196984,-9.806473363330896,-0.020373256524414168
1789996809303844600,3.3318447265625,0.05855373842265866,-9.806466658288421,-0.013491362566439617
1789996809313915400,3.341915283203125,0.0610902204097429,-9.806456723463185,-0.007867741918827817
1789996809323987700,3.35198779296875,0.06453106483751288,-9.80643665126393,0.000769026463312164
1789996809334058500,3.36205859375,0.06644924913197268,-9.806420107929387,0.01013169285375559
1789996809344129500,3.372129638671875,0.0666906358064881,-9.806396686993924,0.02279024822984511
1789996809354200600,3.38220068359375,0.0638231337713309,-9.806371553121231,0.03754890132919082
1789996809364271600,3.392271728515625,0.057175657802065766,-9.806343474445939,0.05252824287540451
1789996809374342700,3.4023427734375,0.051106194174558625,-9.806272297570446,0.06909945597272402
1789996809384413700,3.41241357421875,0.04924255096774365,-9.806163272962884,0.08437871971523016
1789996809394484500,3.422484375,0.0572769178722359,-9.806019751382044,0.09543642524601212
1789996809404555500,3.432555419921875,0.06788913386611517,-9.805809852944945,0.10907116815239538
1789996809414626600,3.44262646484375,0.06551766797894217,-9.805601797540453,0.12749958072189094
1789996809424697600,3.452697509765625,0.06704854928413136,-9.805397502410122,0.1416125006491405
1789996809434768600,3.4627685546875,0.07543738008435054,-9.805163047045731,0.1532012233842969
1789996809444840700,3.4728408203125,0.08091965635094556,-9.80494933596429,0.163759482683562
1789996809454911700,3.482911865234375,0.08463304085955883,-9.804770208905397,0.17230247542115354
1789996809464982500,3.492982421875,0.08745764720313214,-9.804612519405039,0.17975993458698133
1789996809475053600,3.503053466796875,0.08163858719062081,-9.80453865946544,0.18639682232925603
1789996809485124600,3.51312451171875,0.07849481016365427,-9.804422749208792,0.19374809645381164
1789996809495195600,3.523195556640625,0.08270722811358823,-9.804282061397096,0.19907975211122073
1789996809505266700,3.5332666015625,0.08801047024414063,-9.804150255055797,0.20326321206152365
1789996809515337700,3.543337646484375,0.08934591445783416,-9.804012366320691,0.20915945124690316
1789996809525408500,3.553408447265625,0.08713503647022834,-9.803838570929496,0.21807582246282092
1789996809535479600,3.5634794921875,0.08968699959136019,-9.80364359274202,0.22563546186310723
1789996809545550600,3.573550537109375,0.0965601688179293,-9.803510434986014,0.228614016658892
1789996809555621600,3.58362158203125,0.1032509268310938,-9.803409126336641,0.2299761352822912
1789996809565693700,3.593693603515625,0.1092502088836703,-9.803342325255601,0.23003961512710827
1789996809575764700,3.6037646484375,0.10612202445370408,-9.803321202594264,0.23240474366637226
1789996809585835800,3.613835693359375,0.0966130800102925,-9.803423263575707,0.23222948794974105
1789996809595906600,3.623906494140625,0.09203578119722299,-9.80362271299347,0.22562971874105503
1789996809605977600,3.6339775390625,0.09453128655146478,-9.803787097361928,0.21722076698005394
1789996809616048600,3.644048583984375,0.10285421734295722,-9.803871438915932,0.2095110081667003
1789996809626119700,3.65411962890625,0.11176623907160224,-9.803928081941326,0.20220865977315197
1789996809636190700,3.664190673828125,0.12149814813643599,-9.803956833837832,0.1951400559669597
1789996809646261800,3.67426171875,0.12819326165921555,-9.80405619950296,0.185597672398609
1789996809656332500,3.68433251953125,0.12755784239488316,-9.804236522655707,0.17618711543165713
1789996809666403600,3.694403564453125,0.12220184358721772,-9.804505064853823,0.16466921578562163
1789996809676474600,3.704474609375,0.11427387464397652,-9.804871756502077,0.14765323141237457
1789996809686545700,3.714545654296875,0.11081229246306756,-9.805192603418966,0.12759483591532358
1789996809696616700,3.72461669921875,0.10585355202473185,-9.805503977572968,0.10615575320241981
1789996809706688800,3.734688720703125,0.09865150013429955,-9.805793076269985,0.08411534074348304
1789996809716759800,3.744759765625,0.09862884639038512,-9.805985313511774,0.05740645243610747
1789996809726830800,3.754830810546875,0.10200987990786767,-9.806075389009587,0.030153905181710423
1789996809736901600,3.764901611328125,0.10071445538590823,-9.806133810072637,0.0034350425209562006
1789996809746972700,3.77497265625,0.10282290355787638,-9.806076807200327,-0.026276942157607862
1789996809757043700,3.785043701171875,0.10555839717432638,-9.805919167347332,-0.05625018572539252
1789996809767114800,3.79511474609375,0.10169493628218496,-9.805753021339438,-0.08509665216306939
1789996809777185800,3.805185791015625,0.09718357379161167,-9.805498140628238,-0.11464615363769506
1789996809787256800,3.8152568359375,0.09219092291054644,-9.805208154499374,-0.14068716232277917
1789996809797328000,3.825327880859375,0.0824597369479553,-9.804950802968465,-0.16289115799570034
1789996809807399000,3.83539892578125,0.0774447143046601,-9.804597636922075,-0.18507206125362524
1789996809817470000,3.845469970703125,0.07122678452993003,-9.80425112966984,-0.2048702508741527
1789996809827541800,3.855541748046875,0.06373862603728832,-9.803936210000646,-0.22174328713868535
1789996809837612800,3.86561279296875,0.06269563026810701,-9.803527389517555,-0.23939216523439247
1789996809847683600,3.87568359375,0.06298662554056057,-9.803135114754943,-0.2548812764379647
1789996809857754600,3.885754638671875,0.05942845024959041,-9.802833551448877,-0.2670440832594746
1789996809867825700,3.89582568359375,0.05458114626652034,-9.802626360791429,-0.275565121907943
1789996809877896700,3.905896728515625,0.04917250510069921,-9.80253076514043,-0.2799686322428713
1789996809887967700,3.9159677734375,0.04829132355531519,-9.802451239166988,-0.28289319587045125
1789996809898038800,3.926038818359375,0.04748299149873307,-9.802372198497444,-0.28571302598290327
1789996809908109600,3.936109619140625,0.04574289773272675,-9.802304729845318,-0.2882758586472603
1789996809918180600,3.9461806640625,0.04477262384553038,-9.802172144834959,-0.2929334867310933
1789996809928251600,3.956251708984375,0.040624258652943536,-9.802076499870333,-0.29670538631112237
1789996809938322700,3.96632275390625,0.03962489881583961,-9.802084580796262,-0.29656473103407394
1789996809948393700,3.976393798828125,0.041862530796367654,-9.802154162784522,-0.29396150369807444
1789996809958464800,3.98646484375,0.039779052180948835,-9.802274547892294,-0.29022924912675346
1789996809968536800,3.996536865234375,0.0346702062365566,-9.80236296858931,-0.2878679075641594
1789996809978607600,4.006607666015625,0.03413957249056678,-9.802416803564522,-0.28611352538230805
1789996809988678700,4.0166787109375,0.03069948209642559,-9.802392003121955,-0.2873503301381436
1789996809998749700,4.026749755859375,0.028510803528709158,-9.8022902325789,-0.2910472621116528
1789996810008820700,4.03682080078125,0.03233015902596366,-9.802139338929432,-0.2956277174133317
1789996810018891800,4.046891845703125,0.03433849265730929,-9.801968649594997,-0.30103244364713405
1789996810028962800,4.056962890625,0.03236526252374526,-9.801818791349476,-0.3060867461358419
1789996810039033900,4.067033935546875,0.034032491804472556,-9.801614998032246,-0.3123547342309236
1789996810049104600,4.077104736328125,0.03482251739181234,-9.801436349389714,-0.3177951116749296
1789996810059175700,4.08717578125,0.03480567311544369,-9.801233838176339,-0.3239897787168526
1789996810069246700,4.097246826171875,0.03644113646399364,-9.800897749613087,-0.33384217072672
1789996810079317800,4.10731787109375,0.035808782045549936,-9.800615553374723,-0.34209155983202977
1789996810089388800,4.117388916015625,0.03580685195611473,-9.800437805948777,-0.34715064689025077
1789996810099460900,4.1274609375,0.03689472675695027,-9.800303158685175,-0.3508365746560364
1789996810109532000,4.137531982421875,0.03621814582241414,-9.800159321213576,-0.35488685668605924
1789996810119602700,4.147602783203125,0.037095421959676536,-9.800128222364565,-0.3556564334932393
1789996810129673700,4.157673828125,0.03959207244527173,-9.800151201645546,-0.3547483801963504
1789996810139744800,4.167744873046875,0.04196270431193575,-9.80018456272826,-0.3535678303173024
1789996810149815800,4.17781591796875,0.044016151863810395,-9.800223277392458,-0.3522449969129927
1789996810159886800,4.187886962890625,0.04222759264122694,-9.800350027220576,-0.3489209421799389
1789996810169958000,4.1979580078125,0.035065319913226804,-9.80051908621478,-0.34489589710087937
1789996810180028700,4.208028564453125,0.029365237291027566,-9.80075367266668,-0.33872600441116535
1789996810190099700,4.218099609375,0.03299194634923124,-9.800877063326933,-0.3348578022002465
1789996810200170800,4.228170654296875,0.04014756690720409,-9.800900168383128,-0.33338875975484783
1789996810210241800,4.23824169921875,0.04864073781860252,-9.800936085067146,-0.3311851925483647
1789996810220312800,4.248312744140625,0.06061360701942407,-9.801028556664921,-0.32646788148828293
1789996810230383900,4.2583837890625,0.06809158127990825,-9.80127899776856,-0.31727452811240525
1789996810240456000,4.2684560546875,0.07137910304996178,-9.801623854325449,-0.30568642117066835
1789996810250526700,4.278526611328125,0.07762091341189116,-9.801934294583559,-0.2940317558362021
1789996810260597800,4.28859765625,0.08883656832331645,-9.802156003180807,-0.28322639231034646
1789996810270668800,4.298668701171875,0.09406433309918157,-9.802474379935838,-0.270275694985848
1789996810280739800,4.30873974609375,0.09835941713106239,-9.802761568549098,-0.25808089641602416
1789996810290811000,4.318810791015625,0.0989717304597188,-9.803018533320339,-0.24788635859358454
1789996810300882000,4.3288818359375,0.0998649043043492,-9.803248936368783,-0.23819435379877216
1789996810310952700,4.33895263671875,0.10252730363905582,-9.803504728981066,-0.22623022880136745
1789996810321023700,4.349023681640625,0.10603008201094694,-9.803746034085162,-0.21379352143514316
1789996810331094800,4.3590947265625,0.1055930303574055,-9.804082270541072,-0.1979703906101825
1789996810341165800,4.369165771484375,0.10148081621363203,-9.804462162305796,-0.1804974532128
1789996810351236900,4.37923681640625,0.10009618707464832,-9.804767379687458,-0.16403225897071935
1789996810361308000,4.389307861328125,0.10362959424743293,-9.804954536638677,-0.14993262909324231
1789996810371378700,4.399378662109375,0.10537553955729495,-9.805106175042575,-0.13847711728722595
1789996810381449700,4.40944970703125,0.10581303933084706,-9.805250527181476,-0.1276213419616929
1789996810391521800,4.419521728515625,0.09912245294317422,-9.805500413773515,-0.1127578271790459
1789996810401592800,4.4295927734375,0.09410519139074452,-9.805690106922098,-0.09984794546669833
1789996810411664000,4.439663818359375,0.094638362291153,-9.805778675294112,-0.09024468888102952
1789996810421735000,4.44973486328125,0.09510953467991103,-9.805855721069104,-0.08065002726572662
1789996810431806000,4.459805908203125,0.09516350889834792,-9.805936852007424,-0.07023710928841066
1789996810441877000,4.469876953125,0.10213268274567879,-9.805915833743214,-0.06310770143991905
1789996810451947800,4.47994775390625,0.0958173857632709,-9.806031022726103,-0.054535064678242394
1789996810462018800,4.490018798828125,0.08183949843708967,-9.806209352053736,-0.04433349803140136
1789996810472089900,4.50008984375,0.0718475831776483,-9.806317020489157,-0.03710510460164674
1789996810482161000,4.510160888671875,0.06411360762106748,-9.806389461975082,-0.031506862408267736
1789996810492232000,4.52023193359375,0.058930123154404206,-9.806443133616222,-0.024394438740066565
1789996810502303000,4.530302978515625,0.059204693391328014,-9.806461960654152,-0.013667409620318982
1789996810512373800,4.540373779296875,0.055893533891144306,-9.806490368679897,-0.001919914369968564
1789996810522444800,4.55044482421875,0.0509285817311932,-9.806515506523187,0.007857965979431756
1789996810532516600,4.5605166015625,0.050469624572584755,-9.806511028216388,0.01343297378227195
1789996810542587600,4.570587646484375,0.05055604953559643,-9.80650569362489,0.017316380420065614
1789996810552658700,4.58065869140625,0.05022596286212947,-9.806500841114083,0.02017274841114654
1789996810562729700,4.590729736328125,0.05212966005743869,-9.806488004871566,0.021833922731330384
1789996810572800800,4.60080078125,0.05487123768057427,-9.806468615746942,0.023862450737728424
1789996810582871600,4.61087158203125,0.05693477570103828,-9.806452432307694,0.025697696379798813
1789996810592942600,4.620942626953125,0.06152830347964148,-9.806416571232624,0.028164298957584974
1789996810603013600,4.631013671875,0.06434443534897612,-9.806387943443546,0.031723222418191616
1789996810613084700,4.641084716796875,0.06975264203422848,-9.806343529641635,0.03388068136450611
1789996810623155700,4.65115576171875,0.07422085245000604,-9.806304856314988,0.03562732593095956
1789996810633226800,4.661226806640625,0.07438418081867221,-9.806292714291825,0.03841366901080153
1789996810643297800,4.6712978515625,0.0769313173619122,-9.806259433593453,0.0418002089209915
1789996810653368800,4.681368896484375,0.07469904772453533,-9.80627113333951,0.0432962329230543
1789996810663440000,4.69143994140625,0.07042159099620711,-9.80628589846955,0.046728721615098105
1789996810673511000,4.701510986328125,0.06765624696000636,-9.806281252875692,0.05133971796420451
1789996810683582700,4.711582763671875,0.06545719416372867,-9.806280823043275,0.0544179796971057
1789996810693653800,4.72165380859375,0.06899657089110572,-9.80622570310927,0.05969867667216443
1789996810703724800,4.731724853515625,0.07524422809459423,-9.806122619159753,0.06848974232373368
1789996810713795600,4.741795654296875,0.08088558917392587,-9.806006576900115,0.07782365727992809
1789996810723866600,4.75186669921875,0.08701894558935791,-9.805903107338917,0.08397648286479285
1789996810733937700,4.761937744140625,0.09495825526899893,-9.805808538104527,0.08651665278194594
1789996810744008000,4.772008056640625,0.10530155285069348,-9.805697475454416,0.08714494099056265
1789996810754079000,4.782078857421875,0.11004841920992513,-9.805608756393303,0.091294140507104
1789996810764150000,4.79214990234375,0.10921971768432942,-9.805584475429237,0.0947851059841021
1789996810774221000,4.802220947265625,0.10975630939719562,-9.805588143891027,0.09383282144649224
1789996810784292000,4.8122919921875,0.11345411731355423,-9.80556463279472,0.09162295328199181
1789996810794363000,4.82236279296875,0.11987156536019299,-9.805521583879239,0.08804022333130619
1789996810804434000,4.832433837890625,0.12767801152993744,-9.805452658405578,0.08469733985720322
1789996810814505000,4.8425048828125,0.13051985067950642,-9.805437257041397,0.08213744451257446
1789996810824576000,4.852575927734375,0.13516907102986697,-9.805411198388958,0.07754067944412647
1789996810834647800,4.862647705078125,0.13520325993184537,-9.805462460083403,0.07076938667400083
1789996810844718800,4.87271875,0.13051787670886775,-9.805597925135094,0.05983301441445936
1789996810854790000,4.882789794921875,0.12559606381421387,-9.805736020765277,0.04640045313463636
1789996810864861000,4.89286083984375,0.12889809127155927,-9.805750371788108,0.03224790508019448
1789996810874931700,4.902931640625,0.13566918928700117,-9.80569380053361,0.019703941875329978
1789996810885002800,4.913002685546875,0.13450240968322147,-9.80572317723681,0.01102014925113837
1789996810895073800,4.92307373046875,0.1268401087015758,-9.805830443933505,0.004586233576330001
1789996810905144800,4.933144775390625,0.11679912224854251,-9.805953029205579,-0.005934963363371615
1789996810915216000,4.9432158203125,0.11767805136164185,-9.805926598001488,-0.018914604923328162
1789996810925287000,4.953286865234375,0.12205080485162759,-9.80584060688408,-0.03156777680193279
1789996810935357700,4.963357666015625,0.1198421537960882,-9.805833767330519,-0.040534588305728675
1789996810945428700,4.9734287109375,0.11795342581426684,-9.805825060931015,-0.04760090607268455
1789996810955499800,4.983499755859375,0.1136611624217239,-9.805831172586176,-0.05592442842040481
1789996810965570800,4.99357080078125,0.11226910597763637,-9.805782643208103,-0.06621931027477619
1789996810975641900,5.003641845703125,0.10962900214587917,-9.805751371183357,-0.07492807043069323
1789996810985714000,5.0137138671875,0.10267523946375953,-9.805777383855274,-0.08085530508514147
1789996810995785000,5.023784912109375,0.10101623909800325,-9.805734650296268,-0.08797266673077665
1789996811005855700,5.033855712890625,0.10648751524068355,-9.805596174720899,-0.09660742525565379
1789996811015926800,5.0439267578125,0.11037835026226886,-9.805499696054891,-0.10190534329365375
1789996811025997800,5.053997802734375,0.11074009683203483,-9.805429149014978,-0.10810897961815356
1789996811036068900,5.06406884765625,0.10835814888976007,-9.80533416435164,-0.11860680192262751
1789996811046140000,5.074139892578125,0.09953163389662173,-9.80529233482392,-0.12931994746556452
1789996811056211000,5.0842109375,0.09942156566551408,-9.805201259852703,-0.13608343177469134
1789996811066281700,5.09428173828125,0.1022876310058321,-9.805119463643104,-0.13980172673348074
1789996811076352800,5.104352783203125,0.10506802808737081,-9.80504037591119,-0.14329864209934856
1789996811086423800,5.114423828125,0.10885339554181245,-9.804890638223354,-0.15054828968987158
1789996811096494800,5.124494873046875,0.10709788116219014,-9.804756641932999,-0.1601590842008907
1789996811106566000,5.13456591796875,0.10167089708384602,-9.804711524757183,-0.16645701990351472
1789996811116637000,5.144636962890625,0.09756873366725267,-9.804599960021918,-0.1750985915064869
1789996811126707700,5.154707763671875,0.09195392463033482,-9.804527378705515,-0.18213287294172004
1789996811136779800,5.16477978515625,0.08346638024403744,-9.804475891088634,-0.18878661870205193
1789996811146850800,5.174850830078125,0.08270980570380539,-9.804302950461974,-0.19788862090174067
1789996811156921900,5.184921875,0.08734918863732731,-9.80403682342898,-0.20881575604815125
1789996811166993000,5.194992919921875,0.08669337098942127,-9.803827071420299,-0.21873135672986296
1789996811177064000,5.20506396484375,0.08168521459917831,-9.803610156781517,-0.23011670212137095
1789996811187135000,5.215135009765625,0.07732648297480857,-9.803276184757289,-0.24530309081441326
1789996811197205800,5.225205810546875,0.0730061433163927,-9.80291581939791,-0.26055465774693215
1789996811207276800,5.23527685546875,0.06978848661485208,-9.802547613061668,-0.2748756744202037
1789996811217347800,5.245347900390625,0.06865876246407478,-9.802117072063337,-0.29013959001581274
1789996811227419000,5.2554189453125,0.06652451065278923,-9.801589296650967,-0.30793016797876127
1789996811237490000,5.265489990234375,0.06465323020332558,-9.801049433291281,-0.32505404967564994
1789996811247561000,5.27556103515625,0.06678506509356226,-9.800481966780062,-0.3413241918179884
1789996811257632000,5.285632080078125,0.06740175786722508,-9.799948377329507,-0.35617158271654353
1789996811267702800,5.295702880859375,0.06241553285811792,-9.799468623504126,-0.37001046945845056
1789996811277773800,5.30577392578125,0.05496231628872708,-9.798938531953894,-0.38495309122310045
1789996811287844900,5.315844970703125,0.04900471202696852,-9.79835401492961,-0.40030406332484375
1789996811297916000,5.325916015625,0.04894841451235028,-9.797830248060452,-0.4128899230283133
1789996811307988000,5.335988037109375,0.051662422630809786,-9.79748603289085,-0.42070926582718116
1789996811318059000,5.34605908203125,0.05067546730693904,-9.79718536412565,-0.4277670770364166
1789996811328130000,5.356130126953125,0.05081071637795723,-9.796832423993976,-0.4357829657728088
1789996811338200800,5.366200927734375,0.05455675524595823,-9.796495039977845,-0.442830628116536
1789996811348271900,5.37627197265625,0.05482109861461972,-9.79644528404676,-0.4439226862006843
1789996811358343000,5.386343017578125,0.05487734252808649,-9.796447792047575,-0.4438393656483653
1789996811368414000,5.3964140625,0.050398342541405405,-9.796456748371705,-0.44417270670462483
1789996811378485000,5.406485107421875,0.04559395832106373,-9.796445832182613,-0.4449322413319541
1789996811388556000,5.41655615234375,0.047922554747875365,-9.796468376495632,-0.4441784896922386
1789996811398626800,5.426626708984375,0.05137848402721135,-9.796788397180235,-0.4366840973871584
1789996811408697900,5.43669775390625,0.04992655742601086,-9.797233681858513,-0.426758314122669
1789996811418769000,5.446768798828125,0.04805791756010776,-9.797636536418453,-0.4176185851196922
1789996811428840000,5.45683984375,0.048515221760728346,-9.798084769129918,-0.4069061102466699
1789996811438911000,5.466910888671875,0.05003216914510345,-9.798680663652336,-0.39210996593597036
1789996811448982000,5.47698193359375,0.05463992089435058,-9.799287726078708,-0.3759445970642875
1789996811459052800,5.487052734375,0.06374286198218676,-9.799871705316768,-0.3589565130744102
1789996811469124900,5.497124755859375,0.06710163440118558,-9.800391358157157,-0.34383187247649477
1789996811479196000,5.50719580078125,0.06793186641081493,-9.800940889273416,-0.3276081228433767
1789996811489267000,5.517266845703125,0.07195959770376043,-9.801553665160245,-0.3078268934677347
1789996811499338000,5.527337890625,0.07506712373278088,-9.802147737334739,-0.28748572233283604
1789996811509409000,5.537408935546875,0.07388209381552831,-9.80265247815485,-0.27003465779192265
1789996811519480000,5.54747998046875,0.07916878641641485,-9.803056997390241,-0.25336028963809143
1789996811529550800,5.55755078125,0.08935157806991514,-9.803457261894362,-0.2337816222487336
1789996811539622000,5.567621826171875,0.0978865154992769,-9.803862874799064,-0.21232052324804954
1789996811549693000,5.57769287109375,0.10676126061513928,-9.804127375623326,-0.1951390540457601
1789996811559764000,5.587763916015625,0.11030494483373653,-9.804329199462094,-0.18263717372414512
1789996811569835000,5.5978349609375,0.11016674652072506,-9.804561679212037,-0.1697748035582479
1789996811579906000,5.607906005859375,0.10932705759440882,-9.8048055870477,-0.15564953094921627
1789996811589976800,5.617976806640625,0.10812900613602001,-9.805016731791499,-0.14270243806112878
1789996811600047900,5.6280478515625,0.11192633039035599,-9.805156211545448,-0.129605340670948
1789996811610119000,5.638118896484375,0.12035007405080844,-9.805240328142188,-0.1147987035344992
1789996811620190000,5.64818994140625,0.12677360174915853,-9.805343163492976,-0.09784067715735914
1789996811630261000,5.658260986328125,0.12811380373138198,-9.80546745424712,-0.08244433975991818
1789996811640332000,5.66833203125,0.12450043266924689,-9.805580184201132,-0.07417885101995669
1789996811650404000,5.678404052734375,0.12452696944494845,-9.805624778860498,-0.06777619932104453
1789996811660475100,5.68847509765625,0.12768800238891442,-9.805637866036342,-0.05952972037692892
1789996811670546000,5.6985458984375,0.12844760182963444,-9.805683833672182,-0.04963525425929989
1789996811680617000,5.708616943359375,0.13337145579567927,-9.805670624909867,-0.03787598661307497
1789996811690688000,5.71868798828125,0.1376692123055963,-9.805656976757593,-0.023455421852932402
1789996811700759000,5.728759033203125,0.13330524831067936,-9.80573566946999,-0.01308710326418838
1789996811710830000,5.738830078125,0.13090675406943536,-9.805775262806105,-0.005291635144110095
1789996811720901000,5.748901123046875,0.13117074828449407,-9.805772442584637,0.0042261199630452
1789996811730972000,5.758971923828125,0.12926511671413865,-9.805787732405893,0.014147489242693755
1789996811741043000,5.76904296875,0.12909602748560817,-9.805774480946273,0.022048795651555594
1789996811751114500,5.779114501953125,0.1239215059422414,-9.8058362986602,0.024759354311744926
1789996811761185300,5.789185302734375,0.12256803004359,-9.805851839138498,0.02511471199270042
1789996811771256300,5.79925634765625,0.12518265924587024,-9.805803705083825,0.03059509785935057
1789996811781327400,5.809327392578125,0.13031719648031648,-9.805716955779593,0.036530678602896126
1789996811791398400,5.8193984375,0.13440889517079832,-9.805652201470737,0.03892566620414179
1789996811801469400,5.829469482421875,0.13252555820783485,-9.805651919653025,0.04493980854854804
1789996811811540500,5.83954052734375,0.1259953869471536,-9.805698497980504,0.05291770486785152
1789996811821612300,5.8496123046875,0.12285543732477852,-9.805711829745634,0.057561682293849725
1789996811831683300,5.859683349609375,0.12650247811505905,-9.805643718936732,0.06110249465779005
1789996811841754400,5.86975439453125,0.12667760086464566,-9.805618092675827,0.06473770995634855
1789996811851825400,5.879825439453125,0.12693468827795887,-9.805578999566075,0.06982364939668466
1789996811861896200,5.889896240234375,0.1282840572998998,-9.805506950564025,0.0771441973224259
1789996811871967200,5.89996728515625,0.1295196493677077,-9.805445749920327,0.08262943379237717
1789996811882038300,5.910038330078125,0.1283798739435829,-9.805417472308568,0.08773534595277382
1789996811892109300,5.920109375,0.12104692982438543,-9.805489240785219,0.09004386613216224
1789996811902180400,5.930180419921875,0.11814365425415824,-9.805494525724166,0.09336751508462443
1789996811912251400,5.94025146484375,0.11943840879422961,-9.8053509088601,0.105856370961013
1789996811922322200,5.950322265625,0.1261696360601745,-9.805080068580622,0.12198472107985849
1789996811932393200,5.960393310546875,0.12446121065683981,-9.804922015496212,0.13560521344907608
1789996811942464300,5.97046435546875,0.11786464535346783,-9.804868525425361,0.14512099607950443
1789996811952535300,5.980535400390625,0.11951228417994483,-9.804741697840578,0.15211013302010865
1789996811962606300,5.9906064453125,0.12126147428011039,-9.804541144821952,0.16328794597314156
1789996811972677400,6.000677490234375,0.11955213338856083,-9.804303692102021,0.17815464864624805
1789996811982748200,6.010748046875,0.1201539430402197,-9.80401223424952,0.19314660140201953
1789996811992819200,6.020819091796875,0.12206304993923398,-9.80362243389579,0.2109267733996874
1789996812002891300,6.030891357421875,0.12743338907591392,-9.803190137288597,0.22718126111094816
1789996812012962300,6.04096240234375,0.13526160885707897,-9.802655807401047,0.2450312111513391
1789996812023033300,6.051033447265625,0.13024971580263525,-9.802211227003639,0.2647502982944547
1789996812033104400,6.0611044921875,0.12310608063027693,-9.801899067902001,0.27934150203826213
1789996812043175400,6.071175537109375,0.12723756093055613,-9.801388299153931,0.29491330633318363
1789996812053246200,6.08124609375,0.12862319987885007,-9.80076389732022,0.3144208300788523
1789996812063317200,6.091317138671875,0.13091158999009292,-9.800069012791287,0.3344846624551661
1789996812073388300,6.10138818359375,0.13426912112427483,-9.799161428981911,0.3588822791821274
1789996812083459300,6.111459228515625,0.13546370240462619,-9.798182724146708,0.38421908276457056
1789996812093530400,6.1215302734375,0.13843331469872544,-9.797144189261449,0.4088510013005041
1789996812103601400,6.131601318359375,0.1431735477807189,-9.795974565182277,0.43446971157535713
1789996812113672200,6.141672119140625,0.1410203651530997,-9.79502994766011,0.45592774766444877
1789996812123743200,6.1517431640625,0.13381283044875997,-9.794229003110402,0.4749384257867225
1789996812133814300,6.161814208984375,0.13030509678285865,-9.79317577715413,0.49714354765202434
1789996812143885300,6.17188525390625,0.12826281463660627,-9.791982835652375,0.52060216168823
1789996812153956400,6.181956298828125,0.13099410073563564,-9.7905205446692,0.5467497558765132
1789996812164027400,6.19202734375,0.13115450411760918,-9.789291818459235,0.5682958562707575
1789996812174098200,6.20209814453125,0.1306439431016664,-9.78818751460877,0.5871182697762103
1789996812184170200,6.212170166015625,0.12837859155923215,-9.786809738864221,0.6101296251118934
1789996812194241300,6.2222412109375,0.12493260686698689,-9.785217353790838,0.6358337678358008
1789996812204312300,6.232312255859375,0.12241856352702117,-9.783511169817553,0.6620412551163821
1789996812214383400,6.24238330078125,0.11821443651567708,-9.782071477566475,0.6837331002542435
1789996812224454400,6.252454345703125,0.1177474629533453,-9.780919645233675,0.7001031395374059
1789996812234525400,6.262525390625,0.12187070215092104,-9.77952226551376,0.7186674451197669
1789996812244596200,6.27259619140625,0.12257380153873591,-9.778262186008947,0.7355091118045782
1789996812254667300,6.282667236328125,0.12435191286227067,-9.777125927276973,0.7501670779935833
1789996812264738300,6.29273828125,0.12292807863768085,-9.775969031246337,0.7652981280093474
1789996812274809300,6.302809326171875,0.11817221933038459,-9.774851599924485,0.78017449649595
1789996812284880400,6.31288037109375,0.11607945951270814,-9.773870810451037,0.7926883742990312
1789996812294951400,6.322951416015625,0.11526156544222801,-9.772967191389547,0.8038763514493533
1789996812305022200,6.333022216796875,0.12011341080871547,-9.77223672260709,0.8119909699326303
1789996812315093200,6.34309326171875,0.124621187298521,-9.771155977359554,0.8242448830881917
1789996812325164300,6.353164306640625,0.12372895173859716,-9.769967900031716,0.8383200554287925
1789996812335235300,6.3632353515625,0.12072799768030147,-9.768850997231368,0.8516820703813335
1789996812345306400,6.373306396484375,0.11525654785452465,-9.768089586108065,0.8611246784616181
1789996812355377400,6.38337744140625,0.11440853434843705,-9.76735177296106,0.8695682721232604
1789996812365448400,6.393448486328125,0.11727477665037997,-9.76618088009335,0.8822357636766585
1789996812375520500,6.4035205078125,0.12063566053093679,-9.765334644344565,0.8911050380969509
1789996812385591300,6.41359130859375,0.12214030013379051,-9.764893723188882,0.8957208217824949
1789996812395662300,6.423662353515625,0.12184459817237435,-9.764707629706898,0.8977710093680135
1789996812405733400,6.4337333984375,0.1247369096573378,-9.764207580738423,0.90281874130516
1789996812415804400,6.443804443359375,0.12482890605709986,-9.763810771252784,0.9070795383827621
1789996812425875500,6.45387548828125,0.12352836475227869,-9.763697341759718,0.9084727670789826
1789996812435946500,6.463946533203125,0.1216240106228004,-9.764005826757376,0.9054315026003353
1789996812446017300,6.474017333984375,0.11888515981565818,-9.764704604353376,0.8982319337796599
1789996812456088300,6.48408837890625,0.11671894666051373,-9.76582405582475,0.886251694650334
1789996812466159400,6.494159423828125,0.11820403372055417,-9.767059182734116,0.8723374144580617
1789996812476230400,6.50423046875,0.12719516203884793,-9.768048318919666,0.8599162679844221
1789996812486301400,6.514301513671875,0.13212507722223937,-9.769268990004715,0.8451707040918837
1789996812496372500,6.52437255859375,0.12844331219146804,-9.771509840785773,0.8194316683532458
1789996812506443300,6.534443359375,0.12036369192084835,-9.774281746813497,0.7869692674256612
1789996812516514300,6.544514404296875,0.11605792279199083,-9.776912943186524,0.7542655393308764
1789996812526585300,6.55458544921875,0.11748267440463322,-9.779476931084721,0.7200185498246632
1789996812536656400,6.564656494140625,0.12264727938710694,-9.781769041248198,0.6872670721682984
1789996812546727400,6.5747275390625,0.12539253991294283,-9.783897041189267,0.6557554675776118
1789996812556798500,6.584798583984375,0.11956718796879486,-9.786374777316084,0.618823341788645
1789996812566869200,6.594869140625,0.11166625704978775,-9.789076338165199,0.5761111440720271
1789996812576941300,6.60494140625,0.10751419407432554,-9.79143201643579,0.5354437278445175
1789996812587012400,6.615012451171875,0.11271258029937453,-9.793355113857807,0.49787079287580577
1789996812597083400,6.62508349609375,0.12516583478184648,-9.7948014146867,0.4653782749874978
1789996812607154400,6.635154541015625,0.12560596000626778,-9.796312740508206,0.43226070438965997
1789996812617225500,6.6452255859375,0.11509304219452715,-9.79831256394591,0.3875930687169306
1789996812627296500,6.655296630859375,0.10354137480607384,-9.80022126156379,0.33958453534613803
1789996812637367300,6.6653671875,0.09822879607932472,-9.801623677546981,0.2982157612659847
1789996812647438300,6.675438232421875,0.09443771321666238,-9.802721999719598,0.26096559338665387
1789996812657509400,6.68550927734375,0.09372312943082838,-9.803684467644997,0.22219843580016854
1789996812667580400,6.695580322265625,0.09413358533062098,-9.804574822396066,0.17837427799639896
1789996812677651500,6.7056513671875,0.0910129578812481,-9.805313656799507,0.13388478458717823
1789996812687722500,6.715722412109375,0.08277367184634661,-9.80586628617481,0.09224785509759739
1789996812697793300,6.725793212890625,0.07601449053118547,-9.806222524432764,0.05101633080125258
1789996812707864300,6.7358642578125,0.0715333803777088,-9.806382632357636,0.010865277587517971
1789996812717935400,6.745935302734375,0.06432449693478541,-9.806391244871058,-0.030367484714672422
1789996812728006400,6.75600634765625,0.05871279281283909,-9.806238657339293,-0.06799369892365158
1789996812738077400,6.766077392578125,0.05588862035175166,-9.805972555796243,-0.10079758375819747
1789996812748148200,6.776148193359375,0.05341270870854176,-9.805612991464834,-0.13214957611248046
1789996812758219000,6.786218994140625,0.047273535148193116,-9.805195370191367,-0.16218633869148943
1789996812768290000,6.7962900390625,0.03757667717764824,-9.8047158191437,-0.19112798626993663
1789996812778361000,6.806361083984375,0.02995337824514244,-9.804105409214793,-0.22140073889475365
1789996812788433200,6.81643310546875,0.028118378310076107,-9.803448802240302,-0.24903020622353525
1789996812798504200,6.826504150390625,0.03572850445115782,-9.802830421664838,-0.2713323065495854
1789996812808575200,6.8365751953125,0.045503261013164424,-9.80231858487898,-0.2878576728971339
1789996812818646300,6.846646240234375,0.047815019941174514,-9.801683279858407,-0.3083665307332396
1789996812828717000,6.856717041015625,0.045874633492583666,-9.800947603455931,-0.33125047174927574
1789996812838788000,6.8667880859375,0.04488095278972942,-9.800262816893113,-0.3510253862494965
1789996812848859100,6.876859130859375,0.0415666814064157,-9.799544529938542,-0.3709043890547474
1789996812858930200,6.88693017578125,0.0359570591455724,-9.798596962775578,-0.3956970791733562
1789996812869001200,6.897001220703125,0.03698125576950625,-9.797541324529497,-0.4209575496985334
1789996812879072300,6.907072265625,0.04286144088479079,-9.796577694071647,-0.4422821852762747
1789996812889143000,6.91714306640625,0.044949524541674904,-9.79544731556372,-0.4664571767600125
1789996812899214000,6.927214111328125,0.036286170691527384,-9.794141473552564,-0.4938208339594788
1789996812909285000,6.93728515625,0.022371654250427565,-9.792396575171011,-0.5280486116603377
1789996812919356200,6.947356201171875,0.01450402300961995,-9.790350328944529,-0.5650030317419494
1789996812929427200,6.95742724609375,0.01230479611930973,-9.788263588828725,-0.6000831293407829
1789996812939498200,6.967498291015625,0.013673325210780168,-9.786395208805654,-0.6298034802569229
1789996812949569300,6.9775693359375,0.0049936669992943624,-9.784206922487371,-0.6630673517753282
1789996812959640000,6.98764013671875,-0.004643810519961793,-9.781234487349657,-0.70556234741217
1789996812969711000,6.997711181640625,-0.015521797727959401,-9.77838006553841,-0.7439177400501007
1789996812979782100,7.0077822265625,-0.017329907504588054,-9.775725264169647,-0.7779982829613711
1789996812989853200,7.017853271484375,-0.015708848864663266,-9.773436146007644,-0.8062678612529217
1789996812999924200,7.02792431640625,-0.01765194826469556,-9.770844094468716,-0.8370553331055902
1789996813009996300,7.037996337890625,-0.030434183285700588,-9.767894032915962,-0.8704677829911183
1789996813020067300,7.0480673828125,-0.04884749603135226,-9.76429772258841,-0.9091159436182016
1789996813030138000,7.05813818359375,-0.057478716498869716,-9.760667121567648,-0.9468172492672174
1789996813040209200,7.068209228515625,-0.04559158122053744,-9.758204842581852,-0.9725033084775746
1789996813050280200,7.0782802734375,-0.03397740019077356,-9.755880345150857,-0.9960207841187653
1789996813060351200,7.088351318359375,-0.037326207303177775,-9.752192275119384,-1.0313885194164492
1789996813070422300,7.09842236328125,-0.05250527112342649,-9.747676315565739,-1.072588269465034
1789996813080493300,7.108493408203125,-0.06924631778294098,-9.743445989735093,-1.1094419646165157
1789996813090564000,7.118564208984375,-0.07938253891113892,-9.740074573157294,-1.1379977902934924
1789996813100635100,7.12863525390625,-0.07840431004204493,-9.737279287614614,-1.1617398462443809
1789996813110706200,7.1387060546875,-0.07854154185012986,-9.734758562882213,-1.182661276247791
1789996813120777200,7.148777099609375,-0.08497018959250427,-9.732640412489737,-1.1995400372537715
1789996813130848300,7.15884814453125,-0.1014613821453003,-9.730328759329744,-1.2168802679425066
1789996813140919300,7.168919189453125,-0.11651331890385884,-9.727953480627033,-1.23438658403877
1789996813150990000,7.178989990234375,-0.12086786546638661,-9.726031594258776,-1.2490283356091347
1789996813161061000,7.18906103515625,-0.11519608509812225,-9.724656163604763,-1.2602286190447074
1789996813171132200,7.199132080078125,-0.11083691589609165,-9.723637421711318,-1.2684468322727314
1789996813181203200,7.209203125,-0.11473709329118745,-9.722932287103133,-1.2734961248380614
1789996813191274200,7.219274169921875,-0.1260208511435587,-9.722133137589724,-1.278527393916995
1789996813201345300,7.22934521484375,-0.13060765024311122,-9.721796917789883,-1.2806186049199941
1789996813211416000,7.239416015625,-0.13181553399480525,-9.723073024695724,-1.2707604631972031
1789996813221487000,7.249487060546875,-0.12888163781429185,-9.724899445216895,-1.257008013004707
1789996813231558100,7.25955810546875,-0.12148344011367473,-9.726921385213894,-1.2420273458238684
1789996813241630000,7.2696298828125,-0.11004186460922841,-9.729463186657856,-1.2230335609243126
1789996813251701000,7.279700927734375,-0.09752463185452186,-9.731949573407674,-1.2041624698076232
1789996813261772000,7.28977197265625,-0.09158690231266824,-9.734331184488871,-1.1852390988673658
1789996813271843000,7.299843017578125,-0.0904205635450999,-9.736930019976187,-1.1637939682633853
1789996813281914000,7.3099140625,-0.08457091913131598,-9.739686102569223,-1.1409327068804402
1789996813291985200,7.319985107421875,-0.07030291829136663,-9.743276308121356,-1.1108633132502908
1789996813302056200,7.33005615234375,-0.05286031009754072,-9.747138419874657,-1.077441700712295
1789996813312127200,7.340127197265625,-0.040288396030753786,-9.750140742705609,-1.0504803078173248
1789996813322198300,7.3501982421875,-0.03765327902757644,-9.75274974085351,-1.0260892558845707
1789996813332269300,7.360269287109375,-0.03495098650690569,-9.75533224825662,-1.0013284126111286
1789996813342340000,7.370340087890625,-0.025854100789091276,-9.758550667025911,-0.9697407878019002
1789996813352411100,7.3804111328125,-0.013679767579435682,-9.762302698796152,-0.93147843717652
1789996813362482200,7.390482177734375,-0.0025023128149964046,-9.765454403640536,-0.8979241981308309
1789996813372553200,7.40055322265625,0.003613001664985827,-9.76776389130481,-0.8724416389052594
1789996813382624300,7.410624267578125,0.005728663171854049,-9.770035961624135,-0.8466021118355985
1789996813392695300,7.4206953125,0.012555059105483846,-9.773141937708647,-0.8099067130225105
1789996813402766000,7.43076611328125,0.024899467014283774,-9.776615222973811,-0.766527954579788
1789996813412837000,7.440837158203125,0.03878191517417928,-9.779653563596458,-0.7261326157378962
1789996813422908200,7.450908203125,0.0453356453362395,-9.782342301185972,-0.688564909101094
1789996813432979200,7.460979248046875,0.050319379030741566,-9.784892454556706,-0.6509565517406447
1789996813443050200,7.47105029296875,0.0572663674203919,-9.78746369449956,-0.610474054016807
1789996813453121300,7.481121337890625,0.06301431990508281,-9.789958800931066,-0.5684348962662732
1789996813463192300,7.4911923828125,0.07533029398241195,-9.792224691318056,-0.5263531924835652
1789996813473264000,7.50126416015625,0.09021608613235377,-9.794468344224468,-0.4802565191727469
1789996813483335000,7.5113349609375,0.09346342583989077,-9.796670286931633,-0.43230754752075373
1789996813493406000,7.521406005859375,0.09139702538833906,-9.798453707293378,-0.39026996360739846
1789996813503477000,7.53147705078125,0.09643441911655491,-9.799945892792639,-0.34949949193419305
1789996813513548000,7.541548095703125,0.10452927691507385,-9.80130578821026,-0.3063729472230739
1789996813523619000,7.551619140625,0.11702993998119272,-9.802453754410681,-0.2619050203700736
1789996813533690000,7.561690185546875,0.12686409685912212,-9.803344887274784,-0.2207641693586205
1789996813543761000,7.571760986328125,0.1272322006237418,-9.804090899084137,-0.1844143882434825
1789996813553832000,7.58183203125,0.12628110207754256,-9.804622413628863,-0.15428857590750655
1789996813563903000,7.591903076171875,0.1302230278818369,-9.80492977827719,-0.12958150961739487
1789996813573974000,7.60197412109375,0.13578149319002158,-9.805125993468971,-0.10706686403646523
1789996813584045000,7.612045166015625,0.14256565193722812,-9.805241924188838,-0.08550465102301423
1789996813594116000,7.6221162109375,0.14461900319854984,-9.805368607562478,-0.06508628153611054
1789996813604187100,7.632187255859375,0.1427179735343843,-9.80549526166338,-0.0478209684330463
1789996813614258200,7.642258056640625,0.14565110975181073,-9.805510121842815,-0.03400663337851039
1789996813624329200,7.6523291015625,0.15030220864964908,-9.805472710703883,-0.022247546550945355
1789996813634400300,7.662400146484375,0.15357311246299582,-9.805443143513688,-0.00931323326838914
1789996813644471300,7.67247119140625,0.15131397391194343,-9.805482262215921,0.002184513712386969
1789996813654542000,7.6825419921875,0.14881630760272033,-9.805516987627694,0.00956071769697848
1789996813664613000,7.692613037109375,0.1464961854954683,-9.805547270612573,0.013457040489589431
1789996813674684200,7.70268408203125,0.14659084404147282,-9.805540392319902,0.016183025613422185
1789996813684755200,7.712755126953125,0.15263556412230284,-9.805439559551713,0.02043334994703922
1789996813694826200,7.722826171875,0.15606392926569393,-9.805377466884963,0.0246493598828095
1789996813704897300,7.732897216796875,0.15256992563814153,-9.805423547091666,0.028032427110129862
1789996813714968300,7.74296826171875,0.1472794493582786,-9.805503754601133,0.02811723744258963
1789996813725040000,7.7530400390625,0.14257791546392695,-9.80557865424371,0.026591428000325493
1789996813735111000,7.76311083984375,0.13807798887320893,-9.805646996668544,0.024971564569803643
1789996813745182000,7.773181884765625,0.1425320305956641,-9.805584716444478,0.023874360845061518
1789996813755253200,7.783253173828125,0.14578544563875753,-9.805539301528803,0.023236834908870442
1789996813765324300,7.79332421875,0.14207624274294503,-9.805592536580066,0.02383719481896957
1789996813775395300,7.803395263671875,0.14075040293467,-9.805614563811508,0.02260966731009922
1789996813785466400,7.81346630859375,0.1432621941990472,-9.805584302883661,0.019351417391369325
1789996813795537400,7.823537353515625,0.1498732527241271,-9.805493330722014,0.015600530167610226
1789996813805608200,7.833608154296875,0.15342406506339717,-9.805441005188767,0.01391168819265828
1789996813815679200,7.84367919921875,0.15636099037039675,-9.805397708030796,0.010673385722105008
1789996813825750300,7.853750244140625,0.1594114823430222,-9.805352884390272,0.005659554506999733
1789996813835821300,7.8638212890625,0.16259526305688557,-9.805302268381583,0.0018483781761476459
1789996813845892400,7.873892333984375,0.16440351914979456,-9.805273758532225,0.0017635104592858772
1789996813855963400,7.88396337890625,0.16438927581827695,-9.805272256177846,0.0032845530870135647
1789996813866034200,7.8940341796875,0.15938713099542023,-9.805353643891753,0.006542744048725746
1789996813876105200,7.904105224609375,0.15929577127552988,-9.805350688122235,0.010176570654680143
1789996813886176300,7.91417626953125,0.16003178985809557,-9.80533466171213,0.013831682527544138
1789996813896247300,7.924247314453125,0.15955284250738105,-9.805335547296622,0.01779155002733233
1789996813906318300,7.934318359375,0.15827629639131977,-9.805341543454155,0.02457447740153339
1789996813916389400,7.944389404296875,0.1556819281416651,-9.805357667551256,0.03360798667854112
1789996813926460200,7.954460205078125,0.15281947728141448,-9.805357014626148,0.04497966669243446
1789996813936531200,7.96453125,0.15535674987228043,-9.805265210788605,0.05495045304906261
1789996813946602200,7.974602294921875,0.15470198503639318,-9.805236453782417,0.061435443268554935
1789996813956673300,7.98467333984375,0.15330206794446227,-9.80523621269245,0.0649821937267477
1789996813966744300,7.994744384765625,0.15261608519366168,-9.805226168820386,0.0679367839227539
1789996813976815400,8.0048154296875,0.15035565187171326,-9.805227580699839,0.07271730489719294
1789996813986886100,8.01488623046875,0.14844528067809523,-9.805208798415482,0.07898823534388442
1789996813996958200,8.024958251953125,0.1509971590902349,-9.805131782539592,0.08352469377033121
1789996814007029200,8.035029296875,0.1463705967527056,-9.80517990200374,0.08604340873632628
1789996814017100300,8.045100341796875,0.14481733459230003,-9.805191560493324,0.08740760255162182
1789996814027171300,8.05517138671875,0.1444768335100456,-9.805190656161551,0.08814135687566615
1789996814037242400,8.065242431640625,0.14271118231418625,-9.80519191948136,0.09091819394117473
1789996814047313400,8.0753134765625,0.1398023877432365,-9.80522888510558,0.09129439316167318
1789996814057384200,8.08538427734375,0.13236676017434423,-9.805365018300902,0.08762217637935502
1789996814067455200,8.095455322265625,0.11956353308014293,-9.805566809598112,0.08331906504000719
1789996814077526300,8.1055263671875,0.11476066963685191,-9.8056745158407,0.0772842836612336
1789996814087597300,8.115597412109375,0.11215207429592594,-9.805748378919422,0.07155458348657935
1789996814097668400,8.12566845703125,0.11282100485923166,-9.80578633376251,0.06514391330458547
1789996814107739400,8.135739501953125,0.12086195194942949,-9.805721497499956,0.06005347533647201
1789996814117810200,8.14581005859375,0.11880116256102112,-9.80577790174447,0.054679626547668794
1789996814127881200,8.155881103515625,0.10935470100110001,-9.805937609560265,0.045152475839376024
1789996814137952300,8.1659521484375,0.09905704687519482,-9.806096336389889,0.03215756517130379
1789996814148023300,8.176023193359375,0.08669663771608627,-9.80625050544533,0.01873677427460249
1789996814158094300,8.18609423828125,0.08430136604956068,-9.806287503734444,0.005979346765642871
1789996814168165400,8.196165283203126,0.08940667908217535,-9.80624322017184,-0.0035979939577632848
1789996814178236200,8.206236083984376,0.08837892192932068,-9.80624588412963,-0.010707013885977062
1789996814188307200,8.21630712890625,0.08316849176767238,-9.806278916922725,-0.018789750516100528
1789996814198378200,8.226378173828126,0.07703085612203836,-9.806303906854794,-0.029219415477021272
1789996814208449300,8.23644921875,0.0682935331032959,-9.806330827208354,-0.03978060121380765
1789996814218520300,8.246520263671876,0.05675316873523151,-9.80637007050224,-0.04765050178126494
1789996814228591400,8.25659130859375,0.04965596278633374,-9.806364356291418,-0.05623787890848085
1789996814238662100,8.266662109375,0.04967493503883564,-9.806326492718734,-0.062491542938582584
1789996814248733200,8.276733154296876,0.05248372539960166,-9.806303495750564,-0.06360930124872172
1789996814258804200,8.28680419921875,0.04712274624463423,-9.806343360531988,-0.061390784991095286
1789996814268875300,8.296875244140624,0.03546551897453241,-9.806391549490295,-0.0617299512594537
1789996814278946300,8.3069462890625,0.02522761565865949,-9.806418802616017,-0.06233340784149374
1789996814289017300,8.317017333984374,0.023327792384236167,-9.806449642665223,-0.057990106882535065
1789996814299089400,8.32708935546875,0.02973594747129672,-9.8064851619796,-0.048519733156972784
1789996814309160400,8.337160400390625,0.03935373171255143,-9.806498838080536,-0.03802704268572293
1789996814319231200,8.347231201171875,0.04290463469354886,-9.806517630997693,-0.02809662684526359
1789996814329302300,8.35730224609375,0.04554779754664849,-9.806532154216741,-0.016225590002807145
1789996814339373300,8.367373291015625,0.03935839942144826,-9.806571046467331,-0.0020262687103692226
1789996814349444400,8.3774443359375,0.036745315502771575,-9.806576975257979,0.009234463198135076
1789996814359515400,8.387515380859375,0.04088368545307751,-9.806536662417935,0.023318440957695794
1789996814369586400,8.39758642578125,0.0464528210448713,-9.806434551296482,0.04533267084022646
1789996814379657200,8.4076572265625,0.05401022135471427,-9.806263023601447,0.068343233433539
1789996814389728300,8.417728271484375,0.05694058823782629,-9.806115205760083,0.08510319532972811
1789996814399799300,8.42779931640625,0.04781372113603702,-9.806026427794345,0.09975182652756898
1789996814409870300,8.437870361328125,0.04212368304834376,-9.805867188829188,0.11656536598042917
1789996814419941400,8.44794140625,0.04917119498216641,-9.805549397432166,0.13848438187838089
1789996814430012400,8.458012451171875,0.054398728141383,-9.805135372094307,0.163629962031299
1789996814440083200,8.468083251953125,0.05085560430778091,-9.804809168937789,0.18308650633657958
1789996814450154200,8.478154296875,0.04927830414877621,-9.804595650663646,0.19456036494123052
1789996814460225300,8.488225341796875,0.04887139076753713,-9.804303591774248,0.20895384917995935
1789996814470296300,8.49829638671875,0.056535110420312756,-9.803831630346068,0.2281729537059722
1789996814480367400,8.508367431640625,0.07206591558563222,-9.803224650593474,0.24895667963244608
1789996814490438400,8.5184384765625,0.0773804355477562,-9.802729732070986,0.2661940552121126
1789996814500509200,8.52850927734375,0.0754611969993361,-9.80250104540609,0.2750868340016079
1789996814510580200,8.538580322265625,0.07210613821132116,-9.802407913594015,0.27929859884366476
1789996814520651300,8.5486513671875,0.07024114137958269,-9.802176255032077,0.28775178007217755
1789996814530722300,8.558722412109375,0.07419886161651,-9.801696655520711,0.3026962932240355
1789996814540793300,8.56879345703125,0.08339643293315684,-9.801078257917966,0.3198465535606184
1789996814550864400,8.578864501953126,0.09817125007655056,-9.800448681731833,0.33459858256498004
1789996814560935200,8.58893505859375,0.11167468509552028,-9.799987185703863,0.3437421866958122
1789996814571006200,8.599006103515626,0.1097067105510853,-9.799872960676018,0.3475938903063165
1789996814581077200,8.6090771484375,0.09871618125320965,-9.800054485563372,0.3457887571860969
1789996814591148300,8.619148193359376,0.09697288640638342,-9.80013953985528,0.3438688126214016
1789996814601220400,8.629220458984374,0.10478350126776809,-9.79992442675703,0.34765074275512203
1789996814611291400,8.63929150390625,0.11834934057783413,-9.799556344363266,0.3536777747530925
1789996814621362400,8.649362548828124,0.12802328395135107,-9.799294480729763,0.35756177766878056
1789996814631433200,8.65943310546875,0.13171817046985623,-9.799350687929389,0.35465351626185054
1789996814641504300,8.669504150390624,0.1304501611125844,-9.799675065509472,0.3460426388323279
1789996814651575300,8.6795751953125,0.12138851947974282,-9.800139246639512,0.3360365140640965
1789996814661646300,8.689646240234374,0.11733280604407047,-9.800468893302442,0.32775726600002614
1789996814671717400,8.69971728515625,0.12367332890328284,-9.800603346971583,0.3213158277603782
1789996814681788400,8.709788330078124,0.12493530672726663,-9.80084419490295,0.31337993683868376
1789996814691859200,8.719859130859374,0.12399907802236415,-9.801356879971607,0.29732067721453737
1789996814701930200,8.72993017578125,0.12154286881895351,-9.802022893144391,0.27561070921168
1789996814712001300,8.740001220703125,0.11802630795376656,-9.802465957175487,0.2610368705936007
1789996814722072300,8.750072265625,0.12012714186517602,-9.802747019216728,0.24923240985990125
1789996814732143400,8.760143310546875,0.12099744783473446,-9.803093982641515,0.23474863408505892
1789996814742214400,8.77021435546875,0.11518792129681067,-9.803618560171278,0.21488297891361166
1789996814752285700,8.78028564453125,0.11051597793685013,-9.804186919512233,0.18991818945713101
1789996814762356500,8.7903564453125,0.1073225948290983,-9.804636260386498,0.1672305356078939
1789996814772427500,8.800427490234375,0.10748358368857372,-9.804969776372806,0.14629274182349652
1789996814782498600,8.81049853515625,0.11133164913878876,-9.8051872617768,0.12768875586220202
1789996814792569600,8.820569580078125,0.10788471912311381,-9.805439454413008,0.11012279091984481
1789996814802640600,8.830640625,0.10380518847587589,-9.805669748822393,0.09193485297439477
1789996814812711700,8.840711669921875,0.10241898343599179,-9.80581946957711,0.07612740652203885
1789996814822782500,8.850782470703125,0.09907026032922649,-9.805949170263949,0.06279649454022594
1789996814832853500,8.860853515625,0.09987933487647657,-9.806022676211418,0.048230822037315574
1789996814842924500,8.870924560546875,0.09601994566818103,-9.806115997247954,0.03531104114310414
1789996814852995600,8.88099560546875,0.09349562512176207,-9.806179666946253,0.022355766268114884
1789996814863066600,8.891066650390625,0.09465291324332521,-9.806187980279566,0.010321040014357455
1789996814873137700,8.9011376953125,0.09613702987614167,-9.806178766347495,0.0005174625841976936
1789996814883208400,8.91120849609375,0.09638404020171316,-9.806171564119229,-0.009948799228437917
1789996814893279500,8.921279541015625,0.09643456744375445,-9.806158423168137,-0.017801327700024426
1789996814903350500,8.9313505859375,0.09813800078833364,-9.806139521532675,-0.019691430656824084
1789996814913421600,8.941421630859375,0.09838673217231436,-9.806140209438333,-0.018634521318563548
1789996814923492600,8.95149267578125,0.09583812926294241,-9.80616903197457,-0.01628931894214823
1789996814933563600,8.961563720703126,0.09452343414106595,-9.806184156588756,-0.014671138109044586
1789996814943634400,8.971634521484376,0.10014783610514709,-9.806132421798313,-0.009726956816693862
1789996814953706500,8.98170654296875,0.10356418596527908,-9.806102880822918,0.0007026367163187145
1789996814963777500,8.991777587890626,0.10485499694246468,-9.80608495793348,0.00899817369515416
1789996814973848600,9.0018486328125,0.10433272209989375,-9.806079550158731,0.017091235747803683
1789996814983919600,9.011919677734374,0.10635630709045454,-9.806027880081768,0.029531877593276044
1789996814993990700,9.02199072265625,0.11020819868926501,-9.805931226238242,0.04428057363801477
1789996815004061700,9.032061767578124,0.11723046952834593,-9.805769584838899,0.05935072456464285
1789996815014132500,9.042132568359374,0.1269290889019702,-9.80553917938224,0.07529732629190494
1789996815024203500,9.05220361328125,0.13402125124313125,-9.805280546666973,0.09425898252673717
1789996815034274600,9.062274658203124,0.1378327570667616,-9.80502630304102,0.11326065012544416
1789996815044345600,9.072345703125,0.14642294800747874,-9.804686858395561,0.13056531967831872
1789996815054416600,9.082416748046874,0.1511892315485468,-9.804416299128533,0.1447011890547139
1789996815064487700,9.09248779296875,0.14841291516715083,-9.804283350429966,0.15613630308750281
1789996815074558500,9.102558349609374,0.14881389457388824,-9.804112234294529,0.1661730139651742
1789996815084629500,9.11262939453125,0.15587172938725247,-9.803812135156031,0.17707358096926656
1789996815094700500,9.122700439453125,0.16554017175020197,-9.803421782468732,0.18952291849433436
1789996815104771600,9.132771484375,0.17711522934880727,-9.802955418126926,0.2027165894040371
1789996815114842600,9.142842529296876,0.18856121488733765,-9.802501973445153,0.21403858269238968
1789996815124913700,9.15291357421875,0.18906020146177743,-9.802321997364912,0.2216532080546636
1789996815134984400,9.162984375,0.18624189316910153,-9.802299150373988,0.22499791142282974
1789996815145055500,9.173055419921877,0.18345031644606544,-9.802353788539197,0.22490717391046047
1789996815155126500,9.18312646484375,0.17891946416606982,-9.802428528526669,0.22534195189979184
1789996815165197600,9.193197509765625,0.17553468073674672,-9.802454275449069,0.226840082529995
1789996815175268600,9.2032685546875,0.1755758590606136,-9.802452290417515,0.22691789552931477
1789996815185339600,9.213339599609377,0.1699078661465509,-9.802608209172025,0.22451165990309477
1789996815195410400,9.223410400390623,0.16691717726251262,-9.80277050906534,0.21960018083270447
1789996815205481500,9.2334814453125,0.16577221238385634,-9.802927757647153,0.2133687922554828
1789996815215552500,9.243552490234377,0.1684861456022729,-9.803061868403077,0.20488833344611174
1789996815225623600,9.25362353515625,0.1766285672777647,-9.803087874160296,0.1966062199142904
1789996815235694600,9.263694580078123,0.18360279983355288,-9.803175090097339,0.18559387033066552
1789996815245765600,9.273765625,0.1824696898095034,-9.803486448478962,0.16957803294557508
1789996815255836700,9.283836669921875,0.17735958101171942,-9.803879278545985,0.15125064430280638
1789996815265907500,9.293907470703124,0.16883006425687044,-9.80430113556445,0.13253519509691605
1789996815275978500,9.303978515625,0.16360189691307633,-9.804664115062312,0.11035191797867196
1789996815286049500,9.314049560546875,0.1676760346048319,-9.804823624986222,0.0878617103616349
1789996815296120600,9.32412060546875,0.1733982767071259,-9.804859459786217,0.07095225191575502
1789996815306191600,9.334191650390624,0.17227870215902105,-9.804979707911798,0.055641107498336076
1789996815316262700,9.3442626953125,0.1721921112774568,-9.805062605275634,0.03838622068526595
1789996815326333400,9.35433349609375,0.1680444492883652,-9.805193503545295,0.01815001178710178
1789996815336404500,9.364404541015626,0.16547442469875745,-9.805254610010659,-0.0037492016183958174
1789996815346475500,9.3744755859375,0.1625955099769614,-9.805274421289903,-0.023050453617514507
1789996815356546600,9.384546630859376,0.15834368737753618,-9.805283949909937,-0.041384567045022295
1789996815366618600,9.39461865234375,0.1542910921811473,-9.805257879863174,-0.05920668568387564
1789996815376689700,9.404689697265624,0.14729403345800032,-9.80526082219115,-0.07450759375161926
1789996815386760700,9.4147607421875,0.13946207121590096,-9.80526432640902,-0.08792191232340518
1789996815396831500,9.42483154296875,0.12999129091524111,-9.805265855565452,-0.10116849556900198
1789996815406902500,9.434902587890624,0.1237160987253942,-9.805217384119523,-0.11319748241217759
1789996815416973600,9.4449736328125,0.1189174537012316,-9.805103564669514,-0.12725214508333513
1789996815427044600,9.455044677734374,0.11736261012882505,-9.804924602484457,-0.14165717737045014
1789996815437115600,9.46511572265625,0.11345916214765957,-9.804799184604612,-0.15315084239228122
1789996815447186700,9.475186767578125,0.10789406372273813,-9.804717818427797,-0.16200117179437684
1789996815457257500,9.485257568359376,0.10848620315216617,-9.804570595802069,-0.17027146576792324
1789996815467328500,9.49532861328125,0.11195044360533592,-9.804388264995888,-0.1783673169064321
1789996815477399600,9.505399658203125,0.10947940318603734,-9.804320398399424,-0.18356981236140232
1789996815487470600,9.515470703125,0.10429905308392001,-9.804321109878602,-0.1865627857831043
1789996815497541600,9.525541748046876,0.1023862439257492,-9.804305207640624,-0.18838960211355202
1789996815507612700,9.53561279296875,0.10632598630395446,-9.804187459027927,-0.19230388820909772
1789996815517683500,9.545683349609376,0.10803592650385704,-9.804117888920484,-0.19489356676110667
1789996815527754500,9.55575439453125,0.1050633046115068,-9.804153310427978,-0.19472134762692037
1789996815537825500,9.565825439453125,0.10375481652854791,-9.804181955311336,-0.19406275857062233
1789996815547896600,9.575896484375,0.1062551916549062,-9.804191640237493,-0.19217199614015
1789996815557967600,9.585967529296877,0.10165321739846342,-9.804291640052158,-0.18949427198956548
1789996815568038700,9.59603857421875,0.09467835479534685,-9.804413950457834,-0.18673534441188966
1789996815578109400,9.606109375,0.09167007189203458,-9.80450962327919,-0.18323152263343406
1789996815588180500,9.616180419921877,0.09019482348376524,-9.80458975900324,-0.1796259817016754
1789996815598251500,9.62625146484375,0.09518561250523021,-9.804651235853738,-0.17362216275097467
1789996815608322600,9.636322509765623,0.10135862414165595,-9.80467450206436,-0.16876714474188206
1789996815618393600,9.6463935546875,0.10037969759228674,-9.804712616079591,-0.16718500482724644
1789996815628464600,9.656464599609375,0.09174478425567148,-9.804853849517848,-0.16378364983620727
1789996815638535400,9.666535400390623,0.08668708324117672,-9.804968791002963,-0.1595896567291333
1789996815648606500,9.6766064453125,0.08754752429156941,-9.804983261321233,-0.15828908601565955
1789996815658677500,9.686677490234375,0.08875208296916584,-9.805048015180825,-0.1534907531334542
1789996815668748500,9.69674853515625,0.0909541219185389,-9.805107138132788,-0.14834961933667987
1789996815678819600,9.706819580078124,0.09156076342480908,-9.805089843314938,-0.14909093786433514
1789996815688890600,9.716890625,0.08162517272093067,-9.805129659504479,-0.1521940351553522
1789996815698961400,9.72696142578125,0.07624040822443352,-9.805122598134417,-0.15541968101449546
1789996815709032400,9.737032470703124,0.07572540584202181,-9.80505472832177,-0.15990102978567905
1789996815719103500,9.747103515625,0.07284045448707792,-9.80498810631604,-0.16524554933253804
1789996815729174500,9.757174560546876,0.0711551161418679,-9.804849104565598,-0.17391296694248037
1789996815739245600,9.76724560546875,0.07523149781345564,-9.804584241412241,-0.18664614347982275
1789996815749316400,9.77731640625,0.06944255888525562,-9.804384084944449,-0.19903998942654277
1789996815759387400,9.787387451171876,0.054022032552753584,-9.804212839715888,-0.21185341239498545
1789996815769458400,9.79745849609375,0.04647836264856001,-9.804001117306182,-0.22316538518319018
1789996815779529500,9.807529541015626,0.04959869595852655,-9.803699016506313,-0.23541504904085542
1789996815789600300,9.817600341796876,0.05537073965294679,-9.803359429559878,-0.24789383751371338
1789996815799671300,9.82767138671875,0.06242446598197464,-9.802987954488618,-0.2606365925157417
1789996815809742300,9.837742431640624,0.05845290256624613,-9.802600591608938,-0.27570878200108895
1789996815819813400,9.8478134765625,0.05511282831875816,-9.802092415608401,-0.2937995334005219
1789996815829884400,9.857884521484374,0.05798328782442222,-9.80167123084762,-0.30704545855712906
1789996815839955500,9.86795556640625,0.0676179096707044,-9.801419667461948,-0.3130354873916143
1789996815850026500,9.878026611328124,0.0748931554913132,-9.801306070053512,-0.31491052877735576
1789996815860098600,9.8880986328125,0.07151813596743993,-9.80116829643717,-0.31998923095989096
1789996815870169300,9.89816943359375,0.06998298090232759,-9.800922428417012,-0.32774781080846616
1789996815880240400,9.908240478515625,0.0717396136107544,-9.800734522328424,-0.33296982066245273
1789996815890311400,9.9183115234375,0.07723850743311603,-9.800728943377056,-0.33188088543453964
1789996815900382500,9.928382568359376,0.08476731739745494,-9.800889891471773,-0.3252404000414705
1789996815910453500,9.93845361328125,0.08410881157997714,-9.801050992886248,-0.3205271052366487
1789996815920524500,9.948524658203125,0.07780242274989407,-9.801322253461525,-0.31377040602863887
1789996815930595300,9.95859521484375,0.08039685558328624,-9.80160794358746,-0.30402121823436806
1789996815940666400,9.968666259765625,0.07898983774706538,-9.80192658127617,-0.2939606572574494
1789996815950737400,9.9787373046875,0.07829344998265855,-9.802185447445993,-0.28537583310368175
1789996815960808400,9.988808349609377,0.08046493280500276,-9.802369736263946,-0.278346838356107
1789996815970879500,9.99887939453125,0.08518319770851518,-9.802560225486687,-0.2700634282075934
1789996815980950500,10.008950439453123,0.08831846643334364,-9.802912153993919,-0.2559312503023843
1789996815991021300,10.019021240234377,0.09327794096026189,-9.803203689432939,-0.2427232816127754
1789996816001092400,10.02909228515625,0.10029559721461143,-9.803449652744849,-0.22960809715529953
1789996816011163400,10.039163330078123,0.10233958672414152,-9.80373051181336,-0.2162267498624731
1789996816021234400,10.049234375,0.10175950542562455,-9.80404029851756,-0.20199437862815875
1789996816031305500,10.059305419921875,0.10566975245664424,-9.804263005804046,-0.18882347567948096
1789996816041376500,10.06937646484375,0.11026531024377977,-9.804423568295713,-0.17751826240647428
1789996816051447300,10.079447265625,0.10866965704745553,-9.80461529079732,-0.1675969239968307
1789996816061518300,10.089518310546875,0.10586948110003852,-9.80477636580441,-0.15978312610861692
1789996816071589400,10.09958935546875,0.10647157704733054,-9.804890660732948,-0.15225835605592888
1789996816081660400,10.109660400390624,0.10627152441635437,-9.805038304150331,-0.14259522263822147
1789996816091731500,10.1197314453125,0.1034752553829371,-9.805184675638802,-0.13436257076678831
1789996816101802500,10.129802490234376,0.10163218144078214,-9.805263209627114,-0.1300086389059407
1789996816111873300,10.139873291015626,0.10190448893479633,-9.805309001944147,-0.12622870197144248
1789996816121944300,10.1499443359375,0.11045349351666243,-9.80528553368899,-0.12069415768916111
1789996816132015400,10.160015380859376,0.12083746728977976,-9.805224814449897,-0.11552124745024166
1789996816142086400,10.17008642578125,0.12084906054508851,-9.80524529790458,-0.11382585429952508
1789996816152157400,10.180157470703126,0.11317826556866521,-9.805306376669808,-0.11632984280131681
1789996816162228500,10.190228515625,0.11002119823394206,-9.805308091050671,-0.11920426337218373
1789996816172299300,10.20029931640625,0.11127461286553472,-9.805276461288793,-0.12076824760674412
1789996816182370300,10.210370361328126,0.11095605690541444,-9.805266967205561,-0.12177377962605213
1789996816192441300,10.22044140625,0.10919102971873137,-9.805279562317647,-0.1223359471149803
1789996816202512400,10.230512451171874,0.10849841787981246,-9.805312122473307,-0.12032396270673736
1789996816212583400,10.24058349609375,0.11245398968564171,-9.805323276649228,-0.11572633971708181
1789996816222654500,10.250654541015624,0.12019225265438244,-9.805295734006796,-0.11006875147912898
1789996816232725500,10.2607255859375,0.12649544984053598,-9.80529709110935,-0.10253120342566154
1789996816242796500,10.270796630859374,0.1254530114073617,-9.805375152200511,-0.09628994251788894
1789996816252867600,10.28086767578125,0.12412093841180394,-9.805410974760282,-0.09424761134207736
1789996816262938600,10.290938720703124,0.1270693384264551,-9.805403508908787,-0.09122352700622909
1789996816273009700,10.301009765625,0.1312037983574905,-9.805419013193768,-0.08324377288503668
1789996816283080700,10.311080810546876,0.1331954166280656,-9.805469230264329,-0.07371079974763728
1789996816293151500,10.3211513671875,0.13568846165656193,-9.805502269348448,-0.06399860313722636
1789996816303222500,10.331222412109376,0.13353862566458014,-9.805591885606741,-0.054136708950598286
1789996816313293600,10.34129345703125,0.13197802650447946,-9.805656965084177,-0.04552607912769527
1789996816323364600,10.351364501953125,0.138546413145643,-9.805609680088425,-0.03517572912597208
1789996816333435600,10.361435546875,0.14612130939087942,-9.805533254722235,-0.02335418619859169
1789996816343506700,10.371506591796877,0.14843586617103927,-9.805519465372837,-0.012431517137337861
1789996816353577500,10.381577392578125,0.1472005429485614,-9.805545420287757,-0.0019105185190685424
1789996816363648500,10.3916484375,0.14373795620901153,-9.805591939690744,0.009437956653879658
1789996816373719600,10.401719482421877,0.14514061212732093,-9.80556174297668,0.01667144415801556
1789996816383790600,10.41179052734375,0.15427837043433135,-9.805402465219078,0.025583225941671894
1789996816393861600,10.421861572265623,0.16189095863028027,-9.805249241256167,0.03525801616800588
1789996816403932700,10.4319326171875,0.16215353508259786,-9.805213233827342,0.043632777806743135
1789996816414003500,10.44200341796875,0.1549048163144394,-9.805303821451243,0.04929271409221503
1789996816424074500,10.452074462890623,0.1494237840698638,-9.805365871819276,0.05360146738818042
1789996816434145500,10.4621455078125,0.1479741089071793,-9.805365774621768,0.057363561418805
1789996816444216600,10.472216552734375,0.14134722167632718,-9.805441633662845,0.06099987757554774
1789996816454287600,10.48228759765625,0.1359489094683499,-9.805481876373712,0.06640180012981314
1789996816464359400,10.492359375,0.1347805227165042,-9.805480334004635,0.06921782499939627
1789996816474430500,10.502430419921875,0.13519110515281804,-9.80546503487052,0.07049902530214892
1789996816484501500,10.51250146484375,0.13435191749385023,-9.805468905415822,0.0716121854756235
1789996816494572300,10.522572265625,0.13402438924459334,-9.805442097825953,0.07561514799016548
1789996816504643300,10.532643310546876,0.12741369552575563,-9.805490098263009,0.08063643154917235
1789996816514714400,10.54271435546875,0.12382633907930969,-9.805506180893097,0.08428067409701712
1789996816524785400,10.552785400390626,0.12646803455469283,-9.805444160780143,0.0875783455251049
1789996816534856400,10.5628564453125,0.12257943635292672,-9.805445372369594,0.09263801567510718
1789996816544927500,10.572927490234376,0.11942274398020726,-9.805388360063079,0.10241001666720413
1789996816554998300,10.582998291015626,0.11650478734832702,-9.805348771131381,0.10936802085816283
1789996816565069300,10.5930693359375,0.11803080897763049,-9.805271112649635,0.11451433824230611
1789996816575140400,10.603140380859376,0.11892855600357503,-9.805172604072071,0.12180625816805628
1789996816585211400,10.61321142578125,0.11660476479125989,-9.80509419466497,0.13008900359776004
1789996816595282400,10.623282470703124,0.10832835179394622,-9.805079917322333,0.13802764253278174
1789996816605353500,10.633353515625,0.09829250216310781,-9.80513952440288,0.1413654572433368
1789996816615424500,10.643424560546874,0.09546096191484653,-9.80514680765821,0.14281304938433914
1789996816625495600,10.65349560546875,0.09451741174245318,-9.805103604344014,0.1462868145885698
1789996816635566600,10.663566650390624,0.09376909324194646,-9.805017083409004,0.15251149077404474
1789996816645637600,10.6736376953125,0.09272625838504456,-9.804982358574021,0.15527686770865826
1789996816655708700,10.683708740234374,0.08589479613767995,-9.80508615453254,0.15259556952864986
1789996816665779700,10.69377978515625,0.07879091054740996,-9.80520174305045,0.1490177710609355
1789996816675850500,10.7038505859375,0.07510562440060425,-9.80525293806975,0.14758455256125397
1789996816685921500,10.713921630859376,0.07257763384890328,-9.805294514589987,0.14608608276655446
1789996816695992600,10.72399267578125,0.07629793430306352,-9.805311919793935,0.14290627489094934
1789996816706063600,10.734063720703125,0.08198007312968889,-9.805310574457943,0.13986520220713497
1789996816716134700,10.744134765625,0.0830647030895874,-9.805347839879994,0.13657013672627227
1789996816726205700,10.754205810546877,0.08581383656042885,-9.805392262657815,0.13152750406043998
1789996816736276500,10.7642763671875,0.08561697542866209,-9.805483075824572,0.124717666062329
1789996816746347500,10.774347412109377,0.08060676392120969,-9.805608311035945,0.11800204057943141
1789996816756418000,10.78441796875,0.07622898719322774,-9.805706623644559,0.11255360569919186
1789996816766489000,10.794489013671877,0.06757115604685861,-9.805811758933036,0.10894797263650441
1789996816776560000,10.80456005859375,0.0647662581872426,-9.80584340785176,0.1078602196255315
1789996816786631200,10.814631103515625,0.06631788692977537,-9.805843596767025,0.10695084513240773
1789996816796702200,10.8247021484375,0.0713537135299266,-9.805836664013523,0.10419144255617226
1789996816806773200,10.834773193359377,0.07053485885831359,-9.805873594029723,0.10125660125077394
1789996816816844300,10.84484423828125,0.0647709260486062,-9.805932515678272,0.0994242024090674
1789996816826915000,10.8549150390625,0.06139647246663264,-9.805976685564966,0.09730450697030318
1789996816836986000,10.864986083984377,0.06080019158570108,-9.806002017370794,0.09495243435145911
1789996816847057200,10.87505712890625,0.05889149332921041,-9.80603510147816,0.09276846599296261
1789996816857128200,10.885128173828123,0.056331551288719736,-9.806056310171137,0.09214032186660716
1789996816867199200,10.89519921875,0.054245207673452714,-9.806097152086176,0.0889956278642606
1789996816877270300,10.905270263671875,0.05475258462555301,-9.80615242833878,0.08225954751488751
1789996816887341000,10.915341064453123,0.05858438620354563,-9.806199612719313,0.07362966813652934
1789996816897412000,10.925412109375,0.06452010442215449,-9.806233436920222,0.06333968024242287
1789996816907483100,10.935483154296875,0.06390526606206863,-9.806307684802745,0.05112885662715459
1789996816917554200,10.94555419921875,0.06029716575611909,-9.806392372261113,0.03748714356223372
1789996816927625200,10.955625244140624,0.05244177568384534,-9.806482572112467,0.02286003460791954
1789996816937696300,10.9656962890625,0.04598320600749889,-9.806539294517618,0.007236883026132268
1789996816947767000,10.97576708984375,0.04160124706219414,-9.806557210476663,-0.010249796066484563
1789996816957838000,10.985838134765626,0.03204142707732954,-9.806552632959992,-0.03031720507653685
1789996816967909000,10.9959091796875,0.019063483247095052,-9.80649664794011,-0.05162711277325592
1789996816977980200,11.005980224609376,0.009467228542469643,-9.806358816328727,-0.07499255182958718
1789996816988051200,11.01605126953125,0.003241784535568802,-9.806164061588754,-0.0977138277523766
1789996816998122200,11.026122314453126,0.008686727901813232,-9.80590829969877,-0.12041576449668862
1789996817008193000,11.036193115234376,0.013190627232520338,-9.805605023687821,-0.14269473609541294
1789996817018264000,11.04626416015625,0.008526288248683612,-9.805226110098364,-0.16690674675361483
1789996817028335000,11.056335205078126,0.0008837033109488208,-9.804765602987793,-0.1922803475986503
1789996817038406100,11.06640625,-0.004340375370927918,-9.804306709332256,-0.21439653309306575
1789996817048477200,11.076477294921874,-0.010792048248599527,-9.80387798782139,-0.23295362957816548
1789996817058548200,11.08654833984375,-0.014748581887936678,-9.803365817248984,-0.25338221917055304
1789996817068619000,11.096618896484374,-0.017787645897255025,-9.802725652798218,-0.27686100843103045
1789996817078690000,11.10668994140625,-0.02167942962152952,-9.80213003169031,-0.2969566494905512
1789996817088761000,11.116760986328124,-0.016713213381044114,-9.801494761748017,-0.3175296065044998
1789996817098832100,11.12683203125,-0.012655376549210017,-9.800782203242619,-0.3389567921861496
1789996817108903200,11.136903076171874,-0.013917500105559784,-9.800013816947207,-0.36041901239505447
1789996817118974200,11.14697412109375,-0.018111111616336543,-9.799234516970834,-0.38086986526058536
1789996817129045000,11.157044921875,-0.023640295539319248,-9.798475717882614,-0.39962329129276547
1789996817139116000,11.167115966796874,-0.028329410240667402,-9.797733347553248,-0.41716575554088353
1789996817149187000,11.17718701171875,-0.03625255943474708,-9.796985087824082,-0.43378187267406765
1789996817159258000,11.187258056640625,-0.04740446546303642,-9.79625108259505,-0.4490188515486257
1789996817169329200,11.1973291015625,-0.05514999980677366,-9.795663456010288,-0.46078226589930865
1789996817179400200,11.207400146484376,-0.06062522063213459,-9.795111278764484,-0.4716995996800585
1789996817189471000,11.217470947265625,-0.06846881593122044,-9.794666236913287,-0.479798668251808
1789996817199542000,11.2275419921875,-0.07697773853858055,-9.79431646506903,-0.4856225160014173
1789996817209613000,11.237613037109377,-0.08365206576405036,-9.793992402940734,-0.4910247930222663
1789996817219684000,11.24768408203125,-0.08968598133860314,-9.79380509183883,-0.4936974442026779
1789996817229755100,11.257755126953125,-0.09409142271858101,-9.793636882521135,-0.4962228684862734
1789996817239826200,11.267826171875,-0.09273428683314257,-9.793500421899388,-0.4991383353554457
1789996817249897000,11.27789697265625,-0.10164398420894573,-9.793385236505978,-0.49965573960581117
1789996817259968000,11.287968017578123,-0.10885366800372638,-9.793338777417436,-0.4990599093296309
1789996817270039000,11.2980390625,-0.1079979955409356,-9.793341277513074,-0.49918408557973065
1789996817280110000,11.308110107421877,-0.09641998314212091,-9.793663828567308,-0.49519286949683733
1789996817290181000,11.31818115234375,-0.09004356747614259,-9.794049682306014,-0.48870884655716806
1789996817300252200,11.328252197265623,-0.08585683697123128,-9.794257371309191,-0.48531645804964524
1789996817310323000,11.338322998046875,-0.07934157268865143,-9.794493335565141,-0.4816397905621559
1789996817320394000,11.34839404296875,-0.0740419183233041,-9.794851030760952,-0.47517415095351917
1789996817330465000,11.358465087890623,-0.06921675515368973,-9.79530851970284,-0.46636057885569326
1789996817340536000,11.3685361328125,-0.06014437379208868,-9.795735337203428,-0.45863137204616294
1789996817350607000,11.378607177734375,-0.05128185717885602,-9.796122061591388,-0.4513540890234242
1789996817360678100,11.38867822265625,-0.05057755584446944,-9.796557527190702,-0.44191859379000026
1789996817370749000,11.3987490234375,-0.047256044361566676,-9.797006607293698,-0.43219157500590183
1789996817380820000,11.408820068359375,-0.03797911902092188,-9.797577187486626,-0.4200406762332106
1789996817390891000,11.41889111328125,-0.029537592877748126,-9.798059718818145,-0.40931685696552417
1789996817400962000,11.428962158203126,-0.02414856053457077,-9.79844388772597,-0.4003618651139696
1789996817411033000,11.439033203125,-0.013310706509889497,-9.798807564014885,-0.39191213583657636
1789996817421104000,11.449104248046876,-0.0023149990799171986,-9.799157041516482,-0.38328085740144213
1789996817431175000,11.4591748046875,0.006123714400721884,-9.799550723579046,-0.37304526598385856
1789996817441246000,11.469245849609376,0.012994503061790428,-9.7999257837387,-0.3628806873435101
1789996817451317000,11.47931689453125,0.015925891051617104,-9.800267070855414,-0.353427716803892
1789996817461388000,11.489387939453126,0.014525892793017947,-9.800602417297862,-0.34404122357333294
1789996817471459000,11.499458984375,0.0194063920958008,-9.800854052407507,-0.3365731444817895
1789996817481530000,11.509530029296876,0.035344505388807394,-9.801003829171849,-0.33083989421992943
1789996817491601000,11.519600830078126,0.05526189246178767,-9.801182801808027,-0.32271382850753005
1789996817501672000,11.529671875,0.07027669366077476,-9.801345215652068,-0.314720140485827
1789996817511743000,11.539742919921874,0.08383628780801129,-9.801417200956749,-0.3091685993162281
1789996817521814000,11.54981396484375,0.0895641529520185,-9.801558837502116,-0.30298810516418506
1789996817531886000,11.559885986328124,0.08162771221980239,-9.801822536233189,-0.2966527498202857
1789996817541957000,11.56995703125,0.07682413960761254,-9.802021615193857,-0.2912992058232009
1789996817552027100,11.580027099609374,0.07638600296586448,-9.802240108101223,-0.2839324124896295
1789996817562098000,11.590097900390624,0.07888089661977186,-9.802527696175842,-0.2731100957635229
1789996817572169000,11.6001689453125,0.08727755696232486,-9.8027763036208,-0.2614192520488923
1789996817582240000,11.610239990234374,0.0930679527947813,-9.803042668761158,-0.24912489020014417
1789996817592312000,11.62031201171875,0.09165897356056742,-9.803320485214808,-0.23851194212185178
1789996817602383000,11.630383056640625,0.09259397426786989,-9.80345333418919,-0.23261284353911518
1789996817612453000,11.640453125,0.09675364753783433,-9.80353779321654,-0.22729654509524533
1789996817622525200,11.650525146484377,0.10069023042285827,-9.803687977030062,-0.21893070848577914
1789996817632596000,11.660595947265625,0.10539798670614353,-9.803855648292696,-0.20900882953894231
1789996817642667000,11.6706669921875,0.10252033469227405,-9.804170544375754,-0.1951983552868568
1789996817652738000,11.680738037109377,0.09833919927260547,-9.804461797473166,-0.18236291545758174
1789996817662809000,11.69080908203125,0.09295264432302293,-9.804738395325828,-0.16990331871564013
1789996817672880000,11.700880126953123,0.08462692237658612,-9.804985691904093,-0.15966360951512296
1789996817682951200,11.710951171875,0.0743837228113775,-9.805214476066139,-0.15043893666559738
1789996817693022000,11.72102197265625,0.06726636936109814,-9.805405898569573,-0.14095456827375502
1789996817703093000,11.731093017578123,0.06286333452680096,-9.805573642303905,-0.13100869607388774
1789996817713164000,11.7411640625,0.06648524840464426,-9.805644724741338,-0.12359285606007674
1789996817723235000,11.751235107421875,0.06784121028184019,-9.805733381177843,-0.1156146471846406
1789996817733306000,11.76130615234375,0.0577083960969426,-9.805881497312981,-0.10839806175468016
1789996817743377200,11.771377197265624,0.043826454584474386,-9.80601459662065,-0.10270011229408198
1789996817753448000,11.781447998046875,0.03463728316372124,-9.806091457695578,-0.09871222729682262
1789996817763518700,11.791518798828124,0.0304717011748702,-9.80616556606783,-0.09249962942672176
1789996817773589800,11.80158984375,0.029733803210906153,-9.806251783987099,-0.08327728396064363
1789996817783660800,11.811660888671875,0.02544498480906871,-9.80632201780035,-0.07593950935777201
1789996817793731800,11.82173193359375,0.017250264536235713,-9.806364465152518,-0.07259257345824975
1789996817803803000,11.831802978515626,0.013318423233704798,-9.806384840410626,-0.07096371635354104
1789996817813874000,11.8418740234375,0.018043625271790056,-9.806419529951363,-0.06484263149686718
1789996817823944700,11.85194482421875,0.02742707684565137,-9.80643243876046,-0.05926574308921134
1789996817834015700,11.862015625,0.030320400761260365,-9.806419799503988,-0.05985946488954976
1789996817844086800,11.872086669921876,0.023648413811621662,-9.80641090534935,-0.06436849545297384
1789996817854157800,11.88215771484375,0.023801056623829153,-9.80637247158736,-0.06990464856190981
1789996817864228900,11.892228759765626,0.0291118971035943,-9.806340987760489,-0.07227012599251728
1789996817874300000,11.9022998046875,0.03156411093545479,-9.806328218972046,-0.0729057016886685
1789996817884370700,11.91237060546875,0.029725466369925155,-9.806297417847828,-0.07769356707883911
1789996817894441700,11.922441650390626,0.021771699308839865,-9.806265468773088,-0.08405133075238326
1789996817904512800,11.9325126953125,0.013896618671338712,-9.806236809122499,-0.08899528956782837
1789996817914583800,11.942583740234374,0.011905360617432057,-9.806212972627986,-0.09197280181830911
1789996817924654800,11.95265478515625,0.012588574786112002,-9.806211101667026,-0.09200532591063597
1789996817934726000,11.962725830078124,0.007152276090497949,-9.806205631371457,-0.09321645918769894
1789996817944797000,11.972796875,-0.0022053120113967504,-9.80615940633166,-0.09804213649033298
1789996817954867700,11.98286767578125,-0.00732848374968672,-9.80613931483435,-0.09978700580114896
1789996817964938800,11.992938720703124,-0.013329274544612635,-9.806127350608977,-0.10039746942710832
1789996817975009800,12.003009765625,-0.023060938252282327,-9.806079754467179,-0.10328601706193373
1789996817985080800,12.013080810546874,-0.03043632949459491,-9.806014625826982,-0.10746780436173438
1789996817995152000,12.02315185546875,-0.0308791570062484,-9.805991752924212,-0.10942852342076866
1789996818005223000,12.033222900390625,-0.020822730491252096,-9.805999343835232,-0.11110987666159126
1789996818015294000,12.0432939453125,-0.012692009253643704,-9.806035641237404,-0.10914922262996844
1789996818025365000,12.053364990234376,-0.01302929348021403,-9.806050637378226,-0.10779260896450861
1789996818035436000,12.06343603515625,-0.02137914528174478,-9.80599626995112,-0.11122884606519047
1789996818045507000,12.073507080078125,-0.030004889041974913,-9.805942787669991,-0.11389981563849232
1789996818055578000,12.083578125,-0.03084187436057187,-9.805956328291128,-0.11261325945299429
1789996818065649000,12.09364892578125,-0.023793534415304178,-9.806002826332833,-0.11010970860817512
1789996818075720000,12.103719970703125,-0.01947056298794036,-9.806022735357573,-0.10930585715867583
1789996818085791000,12.113791015625,-0.01839024486939373,-9.805991755228657,-0.11214766615304865
1789996818095862000,12.123862060546877,-0.013409998495546494,-9.805947510966108,-0.11670607730925853
1789996818105933000,12.13393310546875,-0.011345122572666302,-9.805937143559918,-0.11770375301282565
1789996818116004000,12.144004150390623,-0.00530959495745207,-9.805935672660054,-0.11831377773929942
1789996818126075000,12.154074951171877,0.0029089530742298546,-9.80590426395315,-0.12100431212928359
1789996818136146000,12.16414599609375,0.006912297467413383,-9.805828645930063,-0.12684519694580682
1789996818146217000,12.174217041015623,0.012440695362223565,-9.805711585741435,-0.13508148940774206
1789996818156288000,12.1842880859375,0.020443621489318952,-9.805567981447243,-0.1442081404025951
1789996818166359000,12.194359130859375,0.026614717845392,-9.805445486692554,-0.15132556034504258
1789996818176430000,12.20443017578125,0.02690042319911171,-9.805338902152897,-0.15810967516525296
1789996818186500900,12.2145009765625,0.023415861977003818,-9.805251360924686,-0.16398596130433513
1789996818196572000,12.224572021484375,0.02091257585476937,-9.805193063980997,-0.16782044546638697
1789996818206643000,12.234642822265624,0.01885344492779625,-9.805159825368841,-0.1699127042827084
1789996818216714000,12.2447138671875,0.016620473548344467,-9.805093964751173,-0.1739375324829831
1789996818226785000,12.254784912109375,0.01540367811959147,-9.804936167829045,-0.18259801178788815
1789996818236856000,12.26485595703125,0.015169873198146347,-9.804795838377368,-0.1900899188038217
1789996818246926800,12.2749267578125,0.01464937520253041,-9.804654674808301,-0.19729047522466264
1789996818256998000,12.284997802734376,0.006150898085282829,-9.804487713160928,-0.20587064687649292
1789996818267069000,12.29506884765625,-0.004893816917862328,-9.804229536762712,-0.21782622059059834
1789996818277140000,12.305139892578126,-0.010057870749166153,-9.803909983300812,-0.23160575778046139
1789996818287211000,12.3152109375,-0.008590205067052785,-9.8036506708206,-0.24236221938461255
1789996818297282000,12.325281982421876,-0.0038953204393651045,-9.80338787196839,-0.2529199513259845
1789996818307352800,12.335352783203126,-0.0004932726544285273,-9.80311391280077,-0.2633453341038095
1789996818317423900,12.345423828125,-0.0073057293366123365,-9.80270784789154,-0.2779510947147253
1789996818327495000,12.355494873046876,-0.014626881025903421,-9.802195083228659,-0.2952406226835198
1789996818337566000,12.36556591796875,-0.019363471434109946,-9.801718270651218,-0.31035421897201354
1789996818347637000,12.375636962890624,-0.020930524857264488,-9.801300425052512,-0.3231859726210016
1789996818357708000,12.3857080078125,-0.018531799014480994,-9.800845971897028,-0.336828142042418
1789996818367779000,12.395779052734374,-0.023717497234936786,-9.800244755122126,-0.3536036087511327
1789996818377849900,12.405849853515624,-0.027313509579987454,-9.79956668887108,-0.37166528383146336
1789996818387921000,12.4159208984375,-0.03902038899033985,-9.798910774968066,-0.3875591954270933
1789996818397992000,12.425991943359374,-0.06159040113633499,-9.79826430577763,-0.400746640213378
1789996818408063000,12.43606298828125,-0.0754400957371476,-9.797542965064794,-0.4157518044616679
1789996818418134000,12.446134033203125,-0.07728295975099905,-9.796928099193707,-0.42967590045992426
1789996818428205000,12.456205078125,-0.08180473727419592,-9.796489376401118,-0.43874701526088483
1789996818438275800,12.46627587890625,-0.09157685804650259,-9.79596845869228,-0.44834739936630447
1789996818448347000,12.476346923828125,-0.10672753549253627,-9.795219504901986,-0.4611492795407527
1789996818458418000,12.48641796875,-0.12294156567040439,-9.794254041160043,-0.4773171783010585
1789996818468489000,12.496489013671876,-0.12929772497741843,-9.793383135553922,-0.4932724419151904
1789996818478560000,12.50656005859375,-0.12552299385244986,-9.792914657371288,-0.5034425760182972
1789996818488631000,12.516631103515625,-0.12288253807622264,-9.792491230569057,-0.5122617882479202
1789996818498701800,12.526701904296877,-0.12488911898122666,-9.791920989569816,-0.5225756036744841
1789996818508772900,12.53677294921875,-0.13137303395458325,-9.791201283155553,-0.5343369131507615
1789996818518844000,12.546843994140623,-0.1333319194938991,-9.790636590835268,-0.5441123371325399
1789996818528915000,12.5569150390625,-0.1355925836790121,-9.790376889281934,-0.5482179070735617
1789996818538986000,12.566986083984377,-0.14037488030893427,-9.790115142945622,-0.5516883337073872
1789996818549057000,12.57705712890625,-0.14950475881097713,-9.789553960224172,-0.5591900537117345
1789996818559127800,12.5871279296875,-0.15658758158408578,-9.788913900015894,-0.5683560604504301
1789996818569198800,12.59719873046875,-0.15659291941771442,-9.788505362670145,-0.5753534513813388
1789996818579270000,12.607269775390623,-0.15370283603979162,-9.788328789158042,-0.5791117208736385
1789996818589341000,12.6173408203125,-0.15282914999440617,-9.78825325346793,-0.5806184177820064
1789996818599412000,12.627411865234375,-0.1542848640051232,-9.78804727317891,-0.583678626164882
1789996818609483000,12.63748291015625,-0.15727166586513125,-9.787683808767477,-0.5889971682195028
1789996818619553800,12.6475537109375,-0.1531521631111209,-9.787501055420375,-0.5931056322333235
1789996818629624800,12.657624755859375,-0.14263765703578266,-9.78748941684918,-0.5959234517961706
1789996818639696000,12.66769580078125,-0.12991541396526027,-9.78745404804548,-0.5993838233230496
1789996818649767000,12.677766845703124,-0.11512297334263612,-9.787346536684769,-0.6041527890004674
1789996818659838000,12.687837890625,-0.11162080931600407,-9.787194165399962,-0.6072479965267469
1789996818669909000,12.697908935546875,-0.11031511847647336,-9.787135539570684,-0.6084312393420332
1789996818679979800,12.707979736328124,-0.1063916754188805,-9.78699197706399,-0.6114281342540574
1789996818690050800,12.71805078125,-0.09993439127142409,-9.786906757057537,-0.6138678315470367
1789996818700121900,12.728121826171876,-0.08391822816919699,-9.786886318137732,-0.6165896648566316
1789996818710193000,12.73819287109375,-0.062408043581291026,-9.786830175829177,-0.620049741016115
1789996818720264000,12.748263916015626,-0.04520869377602805,-9.786890386856072,-0.6206025802741729
1789996818730335000,12.7583349609375,-0.0387529764666743,-9.78683114554348,-0.6219505954939328
1789996818740405800,12.76840576171875,-0.045259285206833755,-9.786705597122157,-0.6234836343630559
1789996818750476800,12.778476806640626,-0.04732298451855333,-9.78667527316052,-0.6238117644212071
1789996818760548000,12.788548095703124,-0.037575058667181686,-9.786986598255751,-0.6195716387884568
1789996818770619100,12.798619140625,-0.02301153039839199,-9.787645427474386,-0.609810935750659
1789996818780690200,12.808690185546874,-0.014194046658476586,-9.788345917286154,-0.5987349311635084
1789996818790761000,12.818760986328124,-0.011020126630953437,-9.788862858926995,-0.5902962193349691
1789996818800832000,12.82883203125,-0.007510219762216158,-9.789235905700167,-0.5841265445143482
1789996818810903000,12.838903076171874,0.003570803716409117,-9.78971847827858,-0.5760101376418959
1789996818820974000,12.84897412109375,0.011864030611154038,-9.790415520083576,-0.5639306497679532
1789996818831045000,12.859045166015624,0.020056725725622403,-9.791076491599664,-0.5521130844085121
1789996818841116200,12.8691162109375,0.030384901322466722,-9.7915717065288,-0.5427523291306504
1789996818851187000,12.87918701171875,0.04129047267593485,-9.792154839290449,-0.5313961012602858
1789996818861258000,12.889258056640625,0.04881983983108825,-9.792802717954372,-0.5186475476384531
1789996818871329000,12.8993291015625,0.046425659095966736,-9.793363816605162,-0.5081762653639619
1789996818881400000,12.909400146484376,0.04073720579388032,-9.793961144195674,-0.49701891495010825
1789996818891471000,12.91947119140625,0.038198212411987384,-9.794599724050222,-0.48450797331576656
1789996818901542100,12.929542236328125,0.03957811666278947,-9.795249400748393,-0.47108183140996307
1789996818911613200,12.93961328125,0.04585022384882577,-9.79600142431042,-0.454560126190886
1789996818921684000,12.94968408203125,0.04266211350380792,-9.796610046355658,-0.44156412381598265
1789996818931755000,12.959755126953125,0.03343354099334422,-9.79703071288905,-0.4329484577111013
1789996818941826000,12.969825927734377,0.023560517796988957,-9.797535719840557,-0.4220744148136478
1789996818951897000,12.97989697265625,0.013473223456454015,-9.798181574940077,-0.40725292538767816
1789996818961968000,12.989968017578123,0.008064496832097853,-9.798862967732113,-0.39065397595853835
1789996818972039200,13.0000390625,0.008903546521714838,-9.799443460182044,-0.3757620834876143
1789996818982110000,13.01010986328125,0.005598612986418472,-9.800039151786343,-0.3600085129302499
1789996818992181000,13.020180908203123,-1.7791494231499154e-05,-9.80059740944585,-0.3445011428202112
1789996819002252000,13.030251953125,0.0018304780693634305,-9.80100853333088,-0.332587415799046
1789996819012323000,13.040322998046875,0.004650956587776724,-9.801376964065692,-0.32156413772012904
1789996819022394000,13.05039404296875,0.007209083439867903,-9.801804942456041,-0.30815311076034846
1789996819032465200,13.060465087890623,0.013361262062472169,-9.802198112686545,-0.2951907495183172
1789996819042536000,13.070535888671875,0.01498064482480074,-9.802500532889288,-0.28483777854236725
1789996819052607000,13.08060693359375,0.01619513178713707,-9.802705347374458,-0.27764113662904427
1789996819062678000,13.090677978515624,0.019564458089445548,-9.802875034564046,-0.27141748265490456
1789996819072749000,13.1007490234375,0.02233074866070322,-9.80303798050969,-0.2652567828732199
1789996819082820000,13.110820068359375,0.01887827402748956,-9.803162530275609,-0.26085847960486075
1789996819092891100,13.12089111328125,0.013147191621977479,-9.80324359839444,-0.2581440789814723
1789996819102962000,13.1309619140625,0.010634229680898076,-9.803297523466062,-0.2562396022183007
1789996819113033000,13.141032958984376,0.007754198477130477,-9.803282645237523,-0.25690857014998764
1789996819123104000,13.15110400390625,0.006792655159322033,-9.803151859256191,-0.26183056165806046
1789996819133175000,13.161175048828126,0.005858144017348154,-9.802964758629678,-0.268747428387212
1789996819143246000,13.17124609375,0.001145953985715192,-9.80277460207945,-0.2756352853812207
1789996819153317000,13.181317138671876,-0.009143797433442272,-9.802547240032817,-0.2834352130598566
1789996819163388000,13.191387939453126,-0.018265650653813203,-9.802206977267899,-0.2945705280715932
1789996819173459000,13.201458984375,-0.020415682920441148,-9.801821745954914,-0.30702304579153605
1789996819183530000,13.211530029296876,-0.01511728129068401,-9.801407329417136,-0.3203144026559357
1789996819193601000,13.22160107421875,-0.01206079257375443,-9.801018979623779,-0.33209037139801373
1789996819203672000,13.231672119140624,-0.009639104864607222,-9.800539528097126,-0.3460125143411017
1789996819213743000,13.2417431640625,-0.019696336028551906,-9.799987991892948,-0.3608931149738829
1789996819223814000,13.25181396484375,-0.03402386895323646,-9.799470976281892,-0.3736432799852938
1789996819233885000,13.261885009765624,-0.03596582743399187,-9.799031934044656,-0.3847756800400914
1789996819243956000,13.2719560546875,-0.034088876349855905,-9.798737522899286,-0.3923501023697598
1789996819254027000,13.282027099609374,-0.03878064081630868,-9.79856305451096,-0.3963028865859074
1789996819264098000,13.29209814453125,-0.052080095952007306,-9.79834565805943,-0.40014766012642866
1789996819274169000,13.302169189453124,-0.0738969702156336,-9.798090278574136,-0.4029119625682716
1789996819284240100,13.312240234375,-0.0889394529673215,-9.797964456974421,-0.4029276700417693
1789996819294311200,13.322311279296876,-0.08818441137749734,-9.798090686603944,-0.40003739621642537
1789996819304382200,13.33238232421875,-0.08771353835655933,-9.798274917463948,-0.3956410181362906
1789996819314453200,13.342453369140625,-0.08909260585386466,-9.798335277345146,-0.3938234365921862
1789996819324524300,13.352524169921876,-0.07796734160320909,-9.798623057353565,-0.38896901233701353
1789996819334595300,13.36259521484375,-0.06691673057179862,-9.799018966372893,-0.3809501504569045
1789996819344666000,13.372666015625,-0.06363535916484725,-9.799333488994984,-0.37332360260793085
1789996819354737200,13.382737060546877,-0.060111400111533125,-9.799649261114043,-0.36558463159320725
1789996819364808200,13.39280810546875,-0.06265061524326375,-9.800003619390957,-0.35547949761601144
1789996819374879200,13.402879150390625,-0.06711512049482453,-9.800510195589593,-0.3404142517037196
1789996819384950300,13.4129501953125,-0.06965471014878609,-9.801044099863685,-0.3241538089752993
1789996819395021300,13.423021240234377,-0.06819042673861843,-9.801568233973214,-0.30825480835323765
1789996819405092000,13.433092041015623,-0.06333175119729849,-9.802084916955545,-0.2924401327719897
1789996819415163100,13.4431630859375,-0.048872379892677446,-9.802825712547437,-0.2694775343677106
1789996819425234200,13.453234130859377,-0.032383881915345004,-9.803719750476082,-0.23756413121599987
1789996819435305200,13.46330517578125,-0.02471111010124737,-9.804478357797722,-0.20491679158510592
1789996819445376300,13.473376220703123,-0.022181280075453298,-9.804979983061969,-0.17957347348660385
1789996819455447300,13.483447265625,-0.011093080221082297,-9.805400734195157,-0.1561251133359464
1789996819465518000,13.49351806640625,0.010943698108895816,-9.805851193110968,-0.12480482555576315
1789996819475589000,13.503589111328123,0.03272120160145953,-9.806187424731947,-0.089540332379573
1789996819485660200,13.51366015625,0.04261371828927003,-9.806368601198324,-0.06093213325145241
1789996819495731200,13.523731201171875,0.04808158945422874,-9.806469945084105,-0.03496267857313843
1789996819505802200,13.53380224609375,0.06096250011628908,-9.806460379023465,-0.004226758116298753
1789996819515873300,13.543873291015624,0.07960906475928498,-9.806270300222653,0.0332985669775727
1789996819525944000,13.553944091796875,0.10217477915074018,-9.805862930195902,0.07043858281927125
1789996819536015000,13.56401513671875,0.12072616023205943,-9.805369942448234,0.10259175708567513
1789996819546086100,13.574086181640626,0.13210003309283772,-9.804866164619089,0.13232904762594866
1789996819556157200,13.5841572265625,0.1407678637935899,-9.804320742776417,0.1608504886023233
1789996819566228200,13.594228271484376,0.14800680136815417,-9.803702982090925,0.18944707277480866
1789996819576299300,13.60429931640625,0.14859985433176162,-9.803068734188255,0.219412200694259
1789996819586370000,13.6143701171875,0.14614107754499311,-9.802505427366171,0.2447971278235559
1789996819596441000,13.624441162109376,0.14693898051056953,-9.801929204038105,0.2664254765033568
1789996819606512000,13.63451220703125,0.14734342053171037,-9.801366968809742,0.2861798488316121
1789996819616583200,13.644583251953126,0.14438734096737244,-9.800883904824833,0.3037067784103887
1789996819626654200,13.654654296875,0.13607402283555986,-9.800505243528487,0.31932241088660207
1789996819636725200,13.664725341796874,0.12348034321748896,-9.800237024405515,0.3324173550398194
1789996819646796000,13.674796142578124,0.11486258177426201,-9.799928371835666,0.34437669928629133
1789996819656867000,13.6848671875,0.11100640213315947,-9.799592010007592,0.35506473166550695
1789996819666938000,13.694938232421874,0.10094329346353839,-9.799483993183228,0.3609637977734869
1789996819677009200,13.705009033203124,0.08926155524376905,-9.799424995125388,0.3656406278039069
1789996819687080200,13.715080078125,0.07810358486151871,-9.799317565480896,0.3710180818349033
1789996819697151200,13.725151123046874,0.06627818427217745,-9.799214480942052,0.3760231407913338
1789996819707222300,13.73522216796875,0.05361464535802725,-9.79914950051423,0.37970330110163975
1789996819717293000,13.74529296875,0.04250979078822881,-9.799160146992895,0.3808361778073304
1789996819727364000,13.755364013671874,0.032995483848955814,-9.799308879936868,0.3779409644058902
1789996819737435100,13.76543505859375,0.032409671446080236,-9.799370575605288,0.3763792684723578
1789996819747506200,13.775506103515625,0.03834217251157834,-9.799428280190678,0.374301358048113
1789996819757577700,13.78557763671875,0.03810310899021356,-9.799641662972164,0.3687178579155845
1789996819767648800,13.795648681640625,0.030084236240742284,-9.799825354788203,0.3645838212484945
1789996819777719800,13.8057197265625,0.01651881806520803,-9.799980440564527,0.3612666050075904
1789996819787790800,13.815790771484377,0.0032505234681243366,-9.800150095733809,0.3569992477781413
1789996819797862000,13.82586181640625,-0.0018860053774377406,-9.800311776977148,0.352521013229875
1789996819807932700,13.8359326171875,-0.003370011340094986,-9.800524039896455,0.346543112351377
1789996819818003700,13.846003662109377,-0.006672397798748334,-9.800592308462138,0.34453696077876805
1789996819828074800,13.85607470703125,-0.016211621615674486,-9.800638308913982,0.3429540907844017
1789996819838145800,13.866145751953123,-0.03172773201932269,-9.800789629665795,0.3374775309152515
1789996819848216800,13.876216796875,-0.03938600821800702,-9.800963867447324,0.33156521036482567
1789996819858287900,13.886287841796875,-0.03804025793302958,-9.80105179044008,0.32914161526260916
1789996819868359000,13.89635888671875,-0.03903196477938075,-9.801057193369404,0.32883241640506505
1789996819878429700,13.9064296875,-0.04259765108680402,-9.800990666636762,0.33041118520345336
1789996819888500700,13.916500732421875,-0.044873941417681584,-9.80100847535102,0.3295920114519934
1789996819898571800,13.92657177734375,-0.0438184393479915,-9.801093460586571,0.32714829122817146
1789996819908642800,13.936642822265624,-0.032238644616385884,-9.801071045202267,0.32913432512159096
1789996819918713900,13.9467138671875,-0.02758177274194209,-9.800952366630975,0.33308561838957673
1789996819928785000,13.956784912109375,-0.023155593826540793,-9.800832780489513,0.33691720668955216
1789996819938855700,13.966855712890624,-0.014174267579672288,-9.80077207350746,0.33917118948167485
1789996819948926700,13.9769267578125,-0.010178090679170018,-9.800733898120269,0.340456056808504
1789996819958997800,13.986997802734376,-0.008477011665936311,-9.800706220299706,0.3412885026020728
1789996819969068800,13.99706884765625,-0.005626024370833245,-9.800661888435863,0.3425834049316855
1789996819979139800,14.007139892578126,-0.00936390986431932,-9.800525514214694,0.346405853061272
1789996819989211000,14.0172109375,-0.006908076249790783,-9.800397687139773,0.3500166475554639
1789996819999281700,14.02728173828125,0.0012114908829174273,-9.80018363811546,0.35605933865756134
1789996820009352700,14.037352783203126,0.009992973581827935,-9.799981584543323,0.36144704294589974
1789996820019423700,14.047423828125,0.008686497548824161,-9.799926088953598,0.3629784187233921
1789996820029494800,14.057494873046876,0.006989549319280014,-9.799954051995782,0.3622784045846051
