time,seconds_elapsed,z,y,x,vertical,horizontal
1790174135434634800,1.567634765625,0.102256640791893,-0.2235622107982635,-0.0330953262746334,0.16004713192934092,0.18951701471231028
1790174135444704800,1.577704833984375,0.1291590481996536,-0.2262696176767349,-0.0090855211019515,0.1499249205549016,0.2132722778649787
1790174135454775800,1.58777587890625,0.1612778306007385,-0.2405718564987182,-0.0608842708170414,0.1515904377367055,0.2541900674736077
1790174135464845600,1.597845458984375,0.1376374363899231,-0.2478142529726028,-0.0442312136292457,0.16742233298676784,0.23298525822193794
1790174135474915800,1.607915771484375,0.1259775906801223,-0.2135135382413864,-0.0146315116435289,0.14000977856022426,0.20510906222401804
1790174135484987000,1.61798681640625,0.1694187223911285,-0.2086056172847747,0.0090741626918315,0.11598018910004379,0.2425900723943172
1790174135495057000,1.628056884765625,0.1423554122447967,-0.1709205657243728,-0.015627721324563,0.09459412617152901,0.20192840352602381
1790174135505127700,1.638127685546875,0.1230148673057556,-0.1721027940511703,-0.0324270613491535,0.10467694869941738,0.1866715833146371
1790174135515197700,1.64819775390625,0.1576860249042511,-0.1769521385431289,0.0124975349754095,0.09220978794466919,0.21870181794569407
1790174135525267700,1.658267822265625,0.2186614573001861,-0.1650417745113372,-0.0003103832714259,0.056088954117558903,0.268152467462572
1790174135535338800,1.6683388671875,0.2805551886558532,-0.1755615323781967,0.1413197070360183,0.032655984344493266,0.3583823542195405
1790174135545408800,1.67840869140625,0.2553188800811767,-0.178032174706459,0.0862158313393592,0.048196232823747465,0.3193641784417178
1790174135555479800,1.688479736328125,0.2018367499113083,-0.1809731125831604,0.0578683465719223,0.07493832267954031,0.26687512889316317
1790174135565549800,1.6985498046875,0.2005786299705505,-0.195351555943489,0.0680529102683067,0.08799327915374214,0.27437638132711595
1790174135575620600,1.70862060546875,0.2897942364215851,-0.1896228343248367,0.0902942940592765,0.04380641812689186,0.35520638512153613
1790174135585690600,1.718690673828125,0.2898682653903961,-0.1404201537370681,-0.0262900311499834,0.004739451550889506,0.32312557031724193
1790174135595761000,1.728760986328125,0.2818311154842376,-0.153655543923378,-0.0838137790560722,0.022799638676472583,0.3309739111612291
1790174135605832000,1.73883203125,0.3089688122272491,-0.1458301544189453,-0.0633621513843536,0.0032245637741171174,0.3474658620404182
1790174135615901700,1.748901611328125,0.333670437335968,-0.0851497501134872,-0.1163904815912246,-0.05965673505566681,0.3585725294328898
1790174135625972700,1.75897265625,0.3901657462120056,-0.0691524520516395,-0.0611039474606514,-0.10073466352950067,0.38806905455189
1790174135636042800,1.769042724609375,0.4252859055995941,-0.0234030727297067,0.0238072127103805,-0.1609804709378023,0.3950542705357576
1790174135646112800,1.77911279296875,0.4288817346096039,0.0108165778219699,-0.0667484551668167,-0.18921842917787193,0.3907790718092982
1790174135656183800,1.789183837890625,0.4446508288383484,0.0256466586142778,-0.0390294790267944,-0.2106229787800188,0.3943771947357533
1790174135666253800,1.79925390625,0.4354318082332611,0.0680655241012573,-0.0057094753719866,-0.24658399066916817,0.36532548343519267
1790174135676324900,1.809324951171875,0.4250087141990661,0.080081433057785,0.1098597347736358,-0.2583874195083951,0.3638001454508481
1790174135686394600,1.81939453125,0.4715474545955658,0.0457949042320251,0.0856264010071754,-0.2460836094651042,0.4137981547702276
1790174135696465700,1.829465576171875,0.5273963212966919,0.0608960911631584,0.0283223688602447,-0.28083396842112174,0.4514306728556837
1790174135706536000,1.839535888671875,0.5591661334037781,0.0993494540452957,0.0374152287840843,-0.3295300073243598,0.46405490233656926
1790174135716606000,1.84960595703125,0.5361950397491455,0.1362832337617874,-0.0346373915672302,-0.34977417227052254,0.4300418790806428
1790174135726676700,1.8596767578125,0.5231422781944275,0.135385051369667,-0.0005633631953969,-0.34499324702247375,0.4159169775998613
1790174135736746800,1.869746826171875,0.5365235805511475,0.1370018571615219,0.0059781596064567,-0.3524546284908052,0.4271282413992529
1790174135746817800,1.87981787109375,0.6121177077293396,0.1409652829170227,-0.0149838682264089,-0.3872365841701052,0.4948046516464784
1790174135756887800,1.8898876953125,0.6242548227310181,0.1471848338842392,-0.0150581710040569,-0.39801978703571467,0.5031545057638833
1790174135766958600,1.89995849609375,0.614986777305603,0.1494423151016235,-0.0278967954218387,-0.39551713925132953,0.49485974331816146
1790174135777028900,1.91002880859375,0.6137521266937256,0.1713838428258896,-0.0034556342288851,-0.4159580448341915,0.4827576420404764
1790174135787099000,1.920098876953125,0.5733382105827332,0.1979800462722778,0.0364525616168975,-0.42464905635307904,0.4346432682362134
1790174135797170000,1.930169921875,0.5783204436302185,0.1982948333024978,-0.0266505107283592,-0.4241158946541863,0.44114774629241804
1790174135807239700,1.94023974609375,0.667834460735321,0.1954512298107147,0.0173272509127855,-0.461695159657766,0.5209048505753642
1790174135817310700,1.950310791015625,0.6626474261283875,0.2067113369703292,-0.0129193346947431,-0.46825459448515105,0.5125775376849235
1790174135827381000,1.960381103515625,0.5681739449501038,0.2221364974975586,-0.014002539217472,-0.4419315160710986,0.42078362782822665
1790174135837451800,1.97045166015625,0.560310959815979,0.2409999370574951,-0.0625088214874267,-0.4533727737286337,0.4127830206742669
1790174135847521800,1.980521728515625,0.5534605383872986,0.2480905950069427,-0.0530569963157177,-0.457304796431392,0.4019388994632723
1790174135857591800,1.990591796875,0.5895375609397888,0.2374520748853683,0.085418589413166,-0.46949478866930106,0.43681689808878177
1790174135867662800,2.000662841796875,0.5750497579574585,0.2397862523794174,0.0793039202690124,-0.46515277443461367,0.4220209463556431
1790174135877732900,2.01073291015625,0.4984367489814758,0.2576800286769867,-0.0638580322265625,-0.4420471152016814,0.351440444650179
1790174135887804000,2.020803955078125,0.4446869492530823,0.3009094297885895,-0.1248827427625656,-0.45539325426984856,0.310653587098436
1790174135897874000,2.0308740234375,0.489094614982605,0.3422307670116424,-0.0522072091698646,-0.5150209323527764,0.30629148245118193
1790174135907945000,2.040945068359375,0.5388584733009338,0.3321805596351623,0.046034388244152,-0.5316948852216928,0.34660076799950545
1790174135918014700,2.0510146484375,0.5679159164428711,0.2801897823810577,0.0540885850787162,-0.4974544847821455,0.3956000668678385
1790174135928084700,2.061084716796875,0.5019925236701965,0.3037280440330505,-0.0786608979105949,-0.4844845256489959,0.3401609910317231
1790174135938155800,2.07115576171875,0.45845627784729,0.3715813755989074,-0.1522581428289413,-0.5238450259270226,0.3114864495588904
1790174135948225800,2.081225830078125,0.4253198504447937,0.3847280740737915,-0.0883260443806648,-0.5245981061483495,0.2480140788431391
1790174135958296800,2.091296875,0.4431403875350952,0.3277036845684051,0.0105206351727247,-0.4852535476592924,0.2615392631957419
1790174135968366800,2.101366943359375,0.413779616355896,0.3440154492855072,-0.1141550540924072,-0.48169173006586197,0.26564008323244265
1790174135978436600,2.1114365234375,0.383035808801651,0.3723427057266235,-0.0344056226313114,-0.49791826384499205,0.19651124835590214
1790174135988507600,2.121507568359375,0.5513324737548828,0.3777984380722046,0.2986557185649872,-0.5899917847125729,0.433363690945282
1790174135998578000,2.131577880859375,0.5015017986297607,0.3211719095706939,0.2396126389503479,-0.5148594351186693,0.38339200349016883
1790174136008649000,2.14164892578125,0.3216869235038757,0.2687538564205169,-0.0529855787754058,-0.3773279088945307,0.19011110651861884
1790174136018718700,2.15171875,0.3159097135066986,0.3589237034320831,-0.4025222659111023,-0.4400789180147208,0.4438241683893376
1790174136028789800,2.161789794921875,0.385109007358551,0.4549027979373932,-0.106012262403965,-0.5700752820892486,0.20371125558208122
1790174136038859800,2.17185986328125,0.4680789709091186,0.4147140979766845,0.4459609091281891,-0.5947746918884581,0.48601430475592505
1790174136048929800,2.1819296875,0.3403691947460174,0.2511993646621704,0.4926117360591888,-0.39482099673488724,0.5154949200324369
1790174136059000800,2.192000732421875,0.1636263877153396,0.1704286038875579,0.1884161829948425,-0.2324349801491437,0.19311691225070346
1790174136069070800,2.20207080078125,0.3112969994544983,0.4209204912185669,-0.285922646522522,-0.4995707660766321,0.3259765195119176
1790174136079142000,2.212141845703125,0.4407034516334533,0.4837673604488373,-0.2798969745635986,-0.6117267876872339,0.36384480883061726
1790174136089211600,2.222211669921875,0.3346163630485534,0.3650213181972503,-0.0443359687924385,-0.4702300755463765,0.1614249898210086
1790174136099282700,2.23228271484375,0.2279378622770309,0.3970503509044647,0.1994378119707107,-0.46511814531166545,0.18178339296614066
1790174136109352700,2.242352783203125,0.2877489030361175,0.3292120397090912,0.1578992456197738,-0.42733739166460327,0.18301618436765715
1790174136119423000,2.252423095703125,0.3542075753211975,0.3464451134204864,-0.0263630021363496,-0.4626187207978345,0.17934924052493756
1790174136129493800,2.26249365234375,0.4087865948677063,0.4556000530719757,-0.0353337861597538,-0.5840746808428067,0.1865023649862868
1790174136139563800,2.272563720703125,0.3539158701896667,0.4702551662921905,0.0076528303325176,-0.5759644999588294,0.12132528671253462
1790174136149634800,2.282634765625,0.3032166063785553,0.4017400741577148,0.0963604524731636,-0.4965986340486669,0.12653272710964927
1790174136159704800,2.292704833984375,0.3038651049137115,0.3613982498645782,0.0605254881083965,-0.45874951559571864,0.12710198126250477
1790174136169774800,2.30277490234375,0.3342891037464142,0.3672580122947693,-0.0383130200207233,-0.4723925090398422,0.15792674689373157
1790174136179846000,2.312845947265625,0.3047589063644409,0.4044623672962188,0.1121609061956405,-0.5004509432551162,0.13636979079328104
1790174136189916000,2.322916015625,0.1798130422830581,0.4502774477005005,0.0002681512851268,-0.48346085406096495,0.03671763307349575
1790174136199986700,2.332986572265625,0.2548992931842804,0.3808826804161072,0.1354363709688186,-0.4590034505500885,0.13305678814370978
1790174136210056700,2.343056640625,0.3707407116889953,0.4371514916419983,0.069758228957653,-0.5561022647459104,0.15545605038165808
1790174136220127700,2.353127685546875,0.4122077226638794,0.4301585555076599,0.2450618743896484,-0.5755958057292576,0.2893032668436926
1790174136230198000,2.363197998046875,0.3617646992206573,0.4382433593273163,0.0385393872857093,-0.5518147183388253,0.14112668278431514
1790174136240267800,2.373267822265625,0.2494605034589767,0.5111628174781799,-0.0313837714493274,-0.5666537352277872,0.05836483719687443
1790174136250338800,2.3833388671875,0.2318645566701889,0.5012363791465759,-0.0868125781416893,-0.5476127064509462,0.11249812388173422
1790174136260408800,2.393408935546875,0.2004456520080566,0.5069538950920105,0.0441931001842021,-0.5455063343683415,0.039453522349751455
1790174136270480000,2.40347998046875,0.2627540230751037,0.5136361718177795,0.1812975406646728,-0.5844503899559126,0.1553973409464142
1790174136280550000,2.4135498046875,0.2790272831916809,0.4655293524265289,0.0038833383005112,-0.5396423057874146,0.05809530838882477
1790174136290621000,2.423620849609375,0.1869930624961853,0.4713103771209717,0.0124149527400732,-0.5060898670615074,0.03357163256112058
1790174136300691000,2.43369091796875,0.142327070236206,0.5031420588493347,0.1141072213649749,-0.5205791367245951,0.12420445515310644
1790174136310760700,2.4437607421875,0.1892487853765487,0.5209046602249146,0.2177276015281677,-0.5614279873214927,0.19839529059400388
1790174136320831700,2.453831787109375,0.213868647813797,0.4801287353038788,0.3300181925296783,-0.5402871202110917,0.30539357576210596
1790174136330901800,2.46390185546875,0.0841046720743179,0.4661632478237152,0.1434233486652374,-0.4637446658459721,0.17289566601867437
1790174136340972800,2.473972900390625,-0.1208604574203491,0.4172599017620086,0.0596115514636039,-0.32840607275342903,0.29054442729617874
1790174136351042800,2.484042724609375,-0.1285701990127563,0.3892715275287628,0.2007246613502502,-0.306402324433333,0.33833507573820853
1790174136361112800,2.49411279296875,-0.07371386885643,0.4044350385665893,0.1829991936683654,-0.3426294513064358,0.29171081375715946
1790174136371183900,2.504183837890625,-0.0938546583056449,0.3832461535930633,0.0434930622577667,-0.30841251693569477,0.2499193409712321
1790174136381253600,2.514253662109375,-0.1607540696859359,0.3569216132164001,0.1045691967010498,-0.258991739395241,0.31159734389965305
1790174136391324700,2.52432470703125,-0.1985621601343155,0.3149771988391876,0.2072548270225525,-0.2097754950956674,0.3709263703315019
1790174136401395000,2.53439501953125,-0.184808000922203,0.2366767972707748,0.084585353732109,-0.13915859827490001,0.27921223139999335
1790174136411466000,2.544466064453125,-0.2047667056322097,0.2592402994632721,0.0377378426492214,-0.14887231805802864,0.29731484033785055
1790174136421535700,2.55453564453125,-0.3319342732429504,0.2746584117412567,0.0416726619005203,-0.10886043275858664,0.41893152402635403
1790174136431605800,2.564605712890625,-0.4366899132728576,0.2007688134908676,0.0665037035942077,0.0013455000559828845,0.4852083357137759
1790174136441676800,2.5746767578125,-0.4156725108623504,0.1257323920726776,0.1525326073169708,0.05620348047810149,0.4568365525874536
1790174136451746800,2.584746826171875,-0.378880113363266,0.0778794810175895,0.0616186335682868,0.08802047929391915,0.3816603268528469
1790174136461817900,2.59481787109375,-0.436997503042221,0.0103102894499897,0.0219162330031394,0.1756682511015986,0.40086669424838994
1790174136471888000,2.604887939453125,-0.5620644688606262,0.0053428057581186,0.007960102520883,0.23404137141831477,0.5111095894480207
1790174136481959000,2.614958984375,-0.5480437278747559,0.0008125025779008,0.1281360387802124,0.22657169189280343,0.5152054936531782
1790174136492028700,2.625028564453125,-0.4837486743927002,-0.045864749699831,0.1759845614433288,0.23915861156920096,0.45813762083070153
1790174136502098700,2.6350986328125,-0.5044079422950745,-0.0667923986911773,0.0828040316700935,0.27120307697419777,0.43839935615123976
1790174136512169700,2.645169677734375,-0.5515415668487549,-0.0538965389132499,0.1249336004257202,0.27764972409118577,0.49560263527974596
1790174136522240000,2.655239990234375,-0.597643256187439,-0.086858220398426,0.0835504680871963,0.32898682654371436,0.5132934451124347
1790174136532310800,2.665310791015625,-0.595397412776947,-0.1269982904195785,-0.0033859936520457,0.36835318126959243,0.48472058313275734
1790174136542380800,2.675380859375,-0.5648040771484375,-0.1185992062091827,0.0333656296133995,0.3460298018364836,0.4630832093236041
1790174136552450800,2.685450927734375,-0.5153607726097107,-0.1622082144021988,0.1031029596924781,0.3611463394539127,0.4148635589694709
1790174136562521600,2.695521484375,-0.559801459312439,-0.1831036508083343,0.1385970413684845,0.3972926154889186,0.45636864303077224
1790174136572591900,2.705591796875,-0.6303089261054993,-0.136774867773056,0.0359125062823295,0.3902182453494555,0.5147971793691911
1790174136582663000,2.715662841796875,-0.6100212335586548,-0.1370443701744079,-0.0536400116980075,0.3859963005102624,0.4947637533573742
1790174136592733000,2.72573291015625,-0.5438330769538879,-0.1733553260564804,-0.0897075235843658,0.3923169201098871,0.4241949535819751
1790174136602803700,2.7358037109375,-0.5464520454406738,-0.1548431664705276,-0.0655273497104644,0.3755764853975551,0.43107120217594375
1790174136612873700,2.745873779296875,-0.5240432024002075,-0.1563245952129364,0.0056174518540501,0.36406426572827566,0.4081022215516811
1790174136622944000,2.755944091796875,-0.454591155052185,-0.1558412313461303,0.0572494864463806,0.3316613295021711,0.3524455615416151
1790174136633015000,2.76601513671875,-0.3829385340213775,-0.14138825237751,0.0490964874625206,0.2884813095868566,0.2929531666478753
1790174136643084800,2.776084716796875,-0.3067982196807861,-0.1284564882516861,0.0502629503607749,0.24433188472250572,0.23120231672752187
1790174136653155800,2.78615576171875,-0.2696408927440643,-0.1239408701658248,-0.0186696406453847,0.227645048093893,0.19129515910611739
1790174136663225900,2.796225830078125,-0.2349518984556198,-0.119677685201168,0.0196910630911588,0.20724102070428765,0.16420730868665612
1790174136673296600,2.806296630859375,-0.1901557743549347,-0.0713737532496452,-0.0205419827252626,0.14639530242615895,0.14228077753268192
1790174136683366700,2.81636669921875,-0.1212395653128624,-0.0306401718407869,0.0224574152380228,0.0782486440789096,0.10009664093599685
1790174136693437000,2.82643701171875,-0.039055872708559,-0.0385780408978462,-0.0180200859904289,0.05232567150284372,0.024502531163575696
1790174136703508000,2.836508056640625,-0.0090106204152107,-0.0098539851605892,-0.0356629975140094,0.01440088259456863,0.035252748488505334
1790174136713577700,2.84657763671875,0.0178427677601575,-0.0194116253405809,-0.0039841700345277,0.010132934920397359,0.024665214381168848
1790174136723648500,2.8566484375,0.0428240150213241,0.0129164867103099,0.0343986414372921,-0.031502087903566144,0.046814707965890226
1790174136733718500,2.866718505859375,0.091719813644886,0.0524499900639057,0.0355208069086074,-0.08809269783674986,0.06830029270828993
1790174136743788800,2.876788818359375,0.1323788315057754,0.0735922902822494,0.0119808577001094,-0.1234090376050078,0.08862127627413958
1790174136753859800,2.88685986328125,0.1548677533864975,0.0709389373660087,0.0831803455948829,-0.13389883137795733,0.13418802749314496
1790174136763929600,2.8969296875,0.1366700977087021,0.0860587656497955,0.0393247380852699,-0.1377746651946838,0.0930021688394441
1790174136774000600,2.907000732421875,0.0707206726074218,0.1135994121432304,-0.0358259566128253,-0.13109254421242328,0.04477146404208325
1790174136784070700,2.917070556640625,0.0496777072548866,0.1214160621166229,-0.0673617869615554,-0.12773111846653865,0.07370282529151029
1790174136794141400,2.927141357421875,0.1030301004648208,0.1146436482667923,0.0159455947577953,-0.14819923958592301,0.045272674628798755
1790174136804211700,2.937211669921875,0.1368165612220764,0.1336905658245086,0.0306909866631031,-0.18047942496339253,0.07043474030866721
1790174136814281700,2.94728173828125,0.0969153717160224,0.1595604717731475,0.0044172145426273,-0.18565066613761871,0.020136419103162884
1790174136824352800,2.957352783203125,0.0971457362174987,0.1532431840896606,0.0633186101913452,-0.18278249579925543,0.05933441801464089
1790174136834422500,2.967422607421875,0.0746570155024528,0.1546935588121414,0.0164005681872367,-0.17233629510746218,0.008540909038084138
1790174136844493600,2.97749365234375,0.0248907916247844,0.1611424088478088,-0.0533878356218338,-0.15373169984682528,0.0761790843445389
1790174136854563800,2.987563720703125,0.0074581196531653,0.144176959991455,0.0045877289958298,-0.13367957701064462,0.05471231386747287
1790174136864635000,2.997634765625,0.0275292992591857,0.1203366070985794,-0.0132565163075923,-0.11984758086614386,0.03241996161080772
1790174136874704600,3.00770458984375,-0.0079145589843392,0.1156289801001548,-0.0734816491603851,-0.09770252711356363,0.09636633355001045
1790174136884774700,3.017774658203125,-0.0771682038903236,0.1093862652778625,-0.0243141055107116,-0.06487294295165469,0.11959499873604594
1790174136894845700,3.027845703125,-0.1216207519173622,0.0791822373867034,0.0949913933873176,-0.024212076338645902,0.17175148963413542
1790174136904915500,3.03791552734375,-0.070373810827732,0.052510417997837,0.0905529633164405,-0.021715355863828986,0.12425014983419883
1790174136914986500,3.047986572265625,-0.0565155372023582,0.0194651205092668,-0.030577715486288,0.007888937132577233,0.06667576933931871
1790174136925056800,3.058056884765625,-0.1523320823907852,0.0223128385841846,-0.0366068445146083,0.04638010744888485,0.15130060406205736
1790174136935126500,3.06812646484375,-0.2208698689937591,0.0396382957696914,0.0048945248126983,0.05796360517358156,0.21683835078064287
1790174136945197600,3.078197509765625,-0.200485497713089,0.017451237887144,0.0699211955070495,0.06630946785878841,0.20246236329371947
1790174136955267600,3.088267578125,-0.1528453677892685,-0.0393801033496856,0.0446518398821353,0.09856626418422419,0.13111436749683175
1790174136965338600,3.098338623046875,-0.1732768714427948,-0.0372687503695488,0.0557257980108261,0.1048391909949983,0.1533882085643099
1790174136975408600,3.10840869140625,-0.2202479541301727,-0.0360067375004291,0.0129635883495211,0.12568291230991785,0.18487159495213104
1790174136985479700,3.118479736328125,-0.2412275373935699,-0.0413319952785968,0.0581656880676746,0.13732040158594092,0.21077336930299817
1790174136995549700,3.1285498046875,-0.2783888280391693,-0.0147424889728426,0.071396067738533,0.12849318798141993,0.25749675665730865
1790174137005619500,3.138619384765625,-0.2788290381431579,-0.0250856727361679,0.0096389595419168,0.14090322971954294,0.24210351687680445
1790174137015690500,3.1486904296875,-0.2470065355300903,-0.0590212121605873,0.019028328359127,0.15758816616177862,0.2000594392809128
1790174137025760800,3.1587607421875,-0.2550737857818603,-0.0336383581161499,0.0585760064423084,0.13624221872978093,0.22597208167416744
1790174137035831800,3.168831787109375,-0.2895394265651703,-0.0273363813757896,-0.0160603187978267,0.14869265223425288,0.25045715460701384
1790174137045901600,3.178901611328125,-0.3070941865444183,-0.0233512260019779,-0.0212529487907886,0.15280519580756574,0.2682431343607676
1790174137055971600,3.1889716796875,-0.2737093865871429,-0.0160390082746744,-0.0412215217947959,0.13291692218347664,0.24332361938105304
1790174137066042600,3.199042724609375,-0.251133531332016,-0.0018550129607319,-0.084777794778347,0.11251778878753374,0.23999690274296584
1790174137076112600,3.209112548828125,-0.2182776033878326,-0.0037305038422346,-0.1115827485918998,0.10147580359045989,0.2231869168850325
1790174137086183400,3.219183349609375,-0.223871037364006,0.0080635705962777,0.0010990598239004,0.08795156851109376,0.20603153173757702
1790174137096253700,3.229253662109375,-0.206145167350769,0.0104628587141633,0.0680595710873603,0.07512050131893953,0.2039468483030217
1790174137106324700,3.23932470703125,-0.1673527657985687,-0.009456786327064,0.0619305782020092,0.07689528009165333,0.16130372421034703
1790174137116394800,3.249394775390625,-0.1047150120139122,0.0060520442202687,-0.0643006116151809,0.042096364397793545,0.11560417699586975
1790174137126464500,3.259464599609375,-0.0773872509598732,0.040044367313385,-0.0218207910656929,-0.002232145388249382,0.08979700671154932
1790174137136535600,3.26953564453125,-0.0439382642507553,0.034200295805931,0.0008555902168154,-0.012244214578750471,0.054323498990317326
1790174137146605800,3.279605712890625,-0.0409576557576656,0.0536680072546005,-0.0275707244873046,-0.029782068099497055,0.06656544025479788
1790174137156676600,3.289676513671875,-0.0575567409396171,0.0578411221504211,-0.0080687748268246,-0.027396025775437965,0.07728477688476346
1790174137166746600,3.29974658203125,0.0193196684122085,0.024563331156969,-0.005782451480627,-0.030151745494174938,0.01004568633120295
1790174137176817700,3.309817626953125,0.0683109313249588,0.0298430398106575,0.0079557280987501,-0.056415584056247275,0.0493717110175196
1790174137186887700,3.3198876953125,0.1152198538184166,0.0304920524358749,0.0522321127355098,-0.07903032918582759,0.10338172297502188
1790174137196957700,3.329957763671875,0.0783598199486732,0.054649494588375,0.0263230372220277,-0.08396546805722506,0.05262633469734222
1790174137207028700,3.34002880859375,0.0028658569790422,0.0843336209654808,-0.0218679271638393,-0.07641313868659821,0.04194772027034839
1790174137217098800,3.3500986328125,0.0382565110921859,0.0865059420466423,0.021890552714467,-0.09547766848080966,0.017608230176171708
1790174137227169800,3.360169677734375,0.0769770070910453,0.0852758288383483,0.0381190590560436,-0.11160289023393993,0.046853859601012675
1790174137237239600,3.370239501953125,0.0768584161996841,0.0655610114336013,0.0198682192713022,-0.09288648453368574,0.044410691155470305
1790174137247309600,3.3803095703125,0.0688276514410972,0.0529506802558898,0.0055654472671449,-0.07740639377661443,0.03975228984903544
1790174137257380600,3.390380615234375,0.0346956700086593,0.0881369858980178,-0.0579181089997291,-0.09171980441928132,0.06256119106866853
1790174137267450600,3.40045068359375,0.0246190689504146,0.0966143608093261,-0.0395164638757705,-0.09594851638874403,0.04791519999565804
1790174137277521700,3.410521728515625,0.0410176180303096,0.0805112347006797,-0.0302256010472774,-0.08880884905968243,0.034512015143599306
1790174137287591700,3.420591796875,0.03328512981534,0.0818606615066528,-0.0315792858600616,-0.08667398227209949,0.03597137558751533
1790174137297662700,3.430662841796875,-0.0185721889138221,0.0748570784926414,-0.0383594222366809,-0.05795636026834182,0.0637260855559347
1790174137307732500,3.440732421875,-0.0441877990961074,0.0685754790902137,-0.0190823972225189,-0.0422741678555876,0.07233388236010761
1790174137317802800,3.450802734375,-0.0649602934718132,0.0598284713923931,0.0014117879327386,-0.026482133940258584,0.08426135201996066
1790174137327873800,3.460873779296875,-0.0947488099336624,0.0542329028248786,0.0649936869740486,-0.01170671064113809,0.12651354474957727
1790174137337943600,3.470943603515625,-0.0853344574570655,0.0002722227945923,0.0695361718535423,0.03283838603456618,0.10506647102397508
1790174137348014600,3.4810146484375,-0.1002130061388015,-0.0063774245791137,0.0202333368360996,0.04747631287549115,0.0907673166889343
1790174137358084600,3.491084716796875,-0.1844914406538009,0.0024186363443732,0.0158452745527029,0.07560445871120508,0.1690502292956667
1790174137368155600,3.50115576171875,-0.2232183218002319,-0.0334235168993473,0.0588017962872982,0.12247841702036903,0.19849493514956582
1790174137378225700,3.5112255859375,-0.2244532406330108,-0.0304217636585235,0.0563340634107589,0.12040630317892673,0.1999514685865225
1790174137388295700,3.521295654296875,-0.2279403954744339,-0.047943502664566,0.0434672683477401,0.13832395802936392,0.19238318374923985
1790174137398366700,3.53136669921875,-0.2177684307098388,-0.0903659537434578,0.0793519988656044,0.17066018168154357,0.1809998263042814
1790174137408436500,3.5414365234375,-0.2106487303972244,-0.0959458127617836,0.0739537701010704,0.17292354192848858,0.17071934677578285
1790174137418507500,3.551507568359375,-0.258407860994339,-0.0895605087280273,0.0651349127292633,0.18789229956105177,0.20912854412825
1790174137428577500,3.56157763671875,-0.3385607600212097,-0.0967776775360107,0.0013889574911445,0.2314993521273614,0.2653286382261202
1790174137438647800,3.571647705078125,-0.3408524692058563,-0.1426455974578857,-0.0523727349936962,0.27642857121444664,0.25071561703433226
1790174137448718600,3.581718505859375,-0.3341785967350006,-0.1508611738681793,0.0064495699480175,0.27827324017499644,0.23883054463715966
1790174137458788600,3.59178857421875,-0.2649432420730591,-0.1983707696199417,0.0705610811710357,0.2887522627637241,0.17648478881945115
1790174137468859600,3.601859619140625,-0.2639176547527313,-0.2355117499828338,0.0190707258880138,0.32427726995131534,0.14257018499313318
1790174137478929700,3.6119296875,-0.3635054230690002,-0.1821068376302719,-0.0139131294563412,0.31994066187828807,0.2512581162080598
1790174137489000400,3.62200048828125,-0.4043082594871521,-0.2068169713020324,-0.0553385987877845,0.361567451650721,0.28030299094136496
1790174137499070700,3.63207080078125,-0.3672274947166443,-0.2469658106565475,-0.1327737122774124,0.38567198450621565,0.25442901475278157
1790174137509140700,3.642140625,-0.3928002119064331,-0.2172875553369522,0.0049945386126637,0.36332195606119067,0.2636816069388828
1790174137519211500,3.65221142578125,-0.3690647482872009,-0.247624397277832,0.0291783642023801,0.3795081129187471,0.23313429546483042
1790174137529281500,3.662281494140625,-0.3102205991744995,-0.3241449892520904,0.0117050986737012,0.4244259561910354,0.1459671581408286
1790174137539352600,3.6723525390625,-0.3856987953186035,-0.2790962159633636,0.0378458648920059,0.4146255365498156,0.2370152577482978
1790174137549422800,3.6824228515625,-0.3811745941638946,-0.2906402349472046,0.0194250456988811,0.4239897949768626,0.22444554698647437
1790174137559492600,3.69249267578125,-0.2776793837547302,-0.3418933749198913,0.0092280907556414,0.42672932791803414,0.10947218062200723
1790174137569563600,3.702563720703125,-0.2222084254026413,-0.3026772737503052,0.060170367360115,0.36530706686668857,0.10564722604189053
1790174137579633700,3.712633544921875,-0.2164754867553711,-0.2995002865791321,0.0917874723672866,0.3585236497475446,0.12824894027722986
1790174137589704700,3.72270458984375,-0.2600874304771423,-0.3033450841903686,0.11674315482378,0.37939936820259845,0.17131490069559724
1790174137599774700,3.732774658203125,-0.2242120057344436,-0.2814737260341644,0.0389711447060108,0.34798553311006253,0.0996157659651345
1790174137609845800,3.742845703125,-0.1545751392841339,-0.2498031556606292,-0.0419820249080657,0.29349395352316254,0.043805021669245776
1790174137619915800,3.752915771484375,-0.0957645550370216,-0.2154157161712646,-0.0672151893377304,0.23856080642461772,0.0564039368374281
1790174137629985500,3.762985595703125,-0.0228509381413459,-0.1960068643093109,-0.0764121487736702,0.19041408118060413,0.09231549381693228
1790174137640056600,3.773056640625,0.004019096493721,-0.1622574627399444,0.0036907941102981,0.14474806382694982,0.07352045518727536
1790174137650126600,3.783126708984375,0.0561480782926082,-0.1623738408088684,-0.0202411711215972,0.12377911712676092,0.12085655152564126
1790174137660197600,3.79319775390625,0.0645140260457992,-0.1019201427698135,0.0072409645654261,0.06430705388657885,0.10230742615823948
1790174137670267600,3.803267578125,0.0952437072992324,-0.043958306312561,-0.039769422262907,0.0010364688746613698,0.11217945067332098
1790174137680337700,3.813337646484375,0.142063170671463,-0.0408091247081756,0.0065141781233251,-0.023893041831366417,0.14600988387552274
1790174137690408700,3.82340869140625,0.2091801464557647,-0.0324774235486984,-0.022802697494626,-0.058625276448278155,0.2046806211784865
1790174137700478500,3.833478515625,0.2359404861927032,-0.0098666930571198,-0.0881788879632949,-0.08740467222678654,0.23643435497428014
1790174137710549500,3.843549560546875,0.2422109097242355,-0.0069081876426935,-0.023976732045412,-0.0957367001778649,0.22388214704299117
1790174137720619000,3.853618896484375,0.2781792283058166,-0.015744050964713,-0.0156153989955782,-0.10345089794507575,0.2591781445294872
1790174137730690000,3.86368994140625,0.2487350553274154,0.0419480055570602,0.0720204412937164,-0.14713454348294147,0.21717995533003415
1790174137740759800,3.873759765625,0.2883906364440918,0.0182046815752983,0.0145967584103345,-0.13988329017648157,0.25327119872851367
1790174137750829800,3.883829833984375,0.2581368684768677,0.0368966087698936,-0.0180733036249876,-0.14237640469846613,0.21920676607901923
1790174137760900900,3.89390087890625,0.2095020562410354,0.0659389123320579,0.0010171115864068,-0.14880939901262774,0.16154209671239422
1790174137770971000,3.903970947265625,0.2298163771629333,0.0417355708777904,-0.0409140922129154,-0.13363129317494565,0.19589299506309393
1790174137781042000,3.9140419921875,0.2581780850887298,0.0394254587590694,-0.0409668274223804,-0.14361324595788597,0.22195451550473427
1790174137791112000,3.92411181640625,0.2688008844852447,0.0453115776181221,-0.0199984293431043,-0.15443038841410411,0.22551773073697118
1790174137801183000,3.934182861328125,0.2739980518817901,0.0386592671275138,0.0528371632099151,-0.15402238317792963,0.23587781300095784
1790174137811252700,3.944252685546875,0.2357156574726104,0.0410308130085468,-0.0358823202550411,-0.13573970916021322,0.20026899674655932
1790174137821323000,3.954322998046875,0.1597444713115692,0.0639796406030654,-0.0812972411513328,-0.12202688423084249,0.14604920907023325
1790174137831394000,3.96439404296875,0.1533291786909103,0.0273678377270698,-0.0754300281405448,-0.08648367920477419,0.14989695779559176
1790174137841463800,3.9744638671875,0.1587252169847488,0.0100636510178446,-0.1216001063585281,-0.07099300033687293,0.18719388704826517
1790174137851534800,3.984534912109375,0.1441071182489395,0.0159479044377803,-0.0928877666592598,-0.07142536453841004,0.15667722132291834
1790174137861604900,3.99460498046875,0.1371336728334427,0.0317731387913227,-0.0578155852854251,-0.08439135437459876,0.12663300431625046
1790174137871675000,4.0046748046875,0.1505701243877411,0.0206829365342855,0.0210896153002977,-0.08376250269436812,0.1285603408431684
1790174137881746000,4.014745849609375,0.1213704198598861,0.0078949704766273,-0.0127335954457521,-0.058202479612093724,0.10755335976050094
1790174137891816000,4.02481591796875,0.0607983283698558,-0.0096982605755329,0.0366050228476524,-0.018818765384334187,0.06911059801395361
1790174137901887000,4.034886962890625,0.0740237757563591,-0.0486540421843528,0.0155219389125704,0.011737577028306669,0.08916218408728362
1790174137911956700,4.044956787109375,0.0492403954267501,-0.0327858626842498,0.0356149561703205,0.007010980200030843,0.06869352657552108
1790174137922027800,4.05502783203125,-0.0152366738766431,-0.0112583860754966,0.099333256483078,0.012034226550089707,0.10040508315181153
1790174137932097800,4.065097900390625,-0.0359861627221107,-0.0262557119131088,0.0043228575959801,0.038843118680135624,0.0222320836747799
1790174137942168000,4.07516796875,0.0032759862951934,-0.0464301519095897,-0.000935498275794,0.04060766758045771,0.02276803863429892
1790174137952238800,4.08523876953125,0.0229508876800537,-0.0616088397800922,0.0767739415168762,0.04233155751346537,0.09178599957985102
1790174137962308900,4.095308837890625,-0.0086350599303841,-0.0439948849380016,0.0419611446559429,0.041479406604653817,0.045280356108052984
1790174137972380000,4.1053798828125,-0.0417131185531616,-0.0625539198517799,0.0156451202929019,0.07355593721678398,0.022074216574839572
1790174137982450000,4.115449951171875,-0.0590190403163433,-0.0578185357153415,-0.0065329540520906,0.07767548991070522,0.028903770479074813
1790174137992520000,4.12552001953125,-0.0286520812660455,-0.0500572845339775,-0.0290361326187849,0.05878397944547531,0.02672478725455565
1790174138002591000,4.135591064453125,-0.0250139217823743,-0.0434298068284988,-0.0200578793883323,0.050828161466776677,0.01818408456754492
1790174138012661000,4.145660888671875,0.0018219547346234,-0.0450428836047649,-0.0077847018837928,0.04029183027838004,0.021664507350160532
1790174138022731800,4.155731689453125,0.0030536851845681,-0.0529941245913505,0.0233729742467403,0.04550220635560317,0.03596591965070437
1790174138032801800,4.1658017578125,-0.022864731028676,-0.0338638387620449,0.0023164267186075,0.04022686218431393,0.0075313273904649
1790174138042872800,4.175872802734375,0.0105064986273646,-0.0127672739326953,-0.0147232450544834,0.0077511926358251595,0.020738436651203843
1790174138052943000,4.185943115234375,0.0464471876621246,-0.0034081265330314,-0.0457823611795902,-0.014558362040915464,0.06366345307984678
1790174138063012900,4.196012939453125,0.0508953221142292,0.0063252504914999,-0.0293864589184522,-0.02601110740153905,0.053078516053134406
1790174138073084000,4.206083984375,0.0701662227511406,0.0066024856641888,-0.0196318309754133,-0.03491842566382541,0.06428844350826668
1790174138083154000,4.21615380859375,0.085777536034584,0.0077208001166582,-0.0628031566739082,-0.040563716927368085,0.09857087703703138
1790174138093225000,4.226224853515625,0.0777968391776084,0.0033681290224194,-0.0444017760455608,-0.03409013013967206,0.08290400003738475
1790174138103295000,4.236294921875,0.0496998839080333,0.0346337780356407,-0.0338291972875595,-0.050877570505314204,0.04717482856451543
1790174138113366000,4.246365966796875,0.0646207779645919,0.0431572273373603,0.0604882538318634,-0.06932289603123781,0.0699396608060678
1790174138123436000,4.25643603515625,0.1034276932477951,0.0279519595205783,0.0887405201792717,-0.07341554633173374,0.11816783509102988
1790174138133505800,4.266505859375,0.0969338417053222,0.0395327173173427,-0.0072994586080312,-0.07664494125014273,0.07167873103632569
1790174138143576800,4.276576904296875,0.0419426709413528,0.0396463088691234,-0.1084707230329513,-0.04862995876945726,0.11283635193505971
1790174138153646800,4.286646728515625,0.033646922558546,0.0424700602889061,-0.0830572471022605,-0.04883404852923096,0.08631085342559641
1790174138163718000,4.2967177734375,0.0471076034009456,0.0386942289769649,-0.0357389934360981,-0.05335464451635889,0.04633494593350692
1790174138173788000,4.306787841796875,0.017125204205513,0.0367823466658592,-0.0872642397880554,-0.03646582329783041,0.08905899686346465
1790174138183858000,4.31685791015625,0.0418100617825984,0.0262058656662702,-0.0221417006105184,-0.04044728305171641,0.0359040507637155
1790174138193929000,4.326928955078125,0.0653851628303527,0.0469526872038841,0.0028984048403799,-0.07039659377006423,0.0391470904437202
1790174138203998700,4.336998779296875,0.0632107406854629,0.0660309642553329,-0.0122302751988172,-0.08600748668202529,0.03328630115488851
1790174138214069800,4.34706982421875,0.1037344709038734,0.0355279222130775,-0.0175776351243257,-0.07544191382216975,0.08148965950289205
1790174138224140000,4.35714013671875,0.1032245457172393,0.0546787343919277,-0.0075077703222632,-0.0930001733784248,0.07108027293158199
1790174138234211000,4.367211181640625,0.1076451316475868,0.0596367381513118,0.0499781593680381,-0.10203902427955887,0.08502863542740781
1790174138244280800,4.37728076171875,0.0713082179427146,0.0125405695289373,0.0261299572885036,-0.0429015319340258,0.06390900606243678
1790174138254350800,4.387350830078125,0.0266810916364192,-0.0018213251605629,0.0157564114779233,-0.01044444689946483,0.02922970933617696
1790174138264422000,4.397421875,-0.0221798755228519,-0.0069756177254021,-0.0440067537128925,0.017793677114134633,0.04648209922072419
1790174138274492000,4.407491943359375,0.0105985766276717,-0.0283935591578483,-0.0019679570104926,0.0212394051043239,0.021709089197670794
1790174138284563000,4.41756298828125,-0.011422554962337,-0.0252190753817558,0.0632752180099487,0.024705901896560797,0.06449688481362756
1790174138294633000,4.427633056640625,-0.0113514484837651,-0.0196876898407936,0.0102508775889873,0.022145968523335335,0.011449763467194556
1790174138304703000,4.437702880859375,0.0388414673507213,-0.0145534556359052,0.0114654824137687,-0.003914743348190865,0.0428555098954807
1790174138314773800,4.447773681640625,0.1037331148982048,-0.0039969515055418,-0.0254003908485174,-0.039358804051505505,0.09936095383355803
1790174138324843800,4.45784375,0.0978772640228271,0.0232221335172653,-0.0750072598457336,-0.05915406517906177,0.11066215206675052
1790174138334914800,4.467914794921875,0.0383297838270664,0.0627301260828971,-0.0260461065918207,-0.07179076575820222,0.03047501709678331
1790174138344985000,4.477985107421875,0.0596910193562507,0.0682051554322242,0.004215370863676,-0.08723989629854442,0.024938541750866315
1790174138355055900,4.488055908203125,0.0696168914437294,0.1031194627285003,-0.0178609024733304,-0.12198860235096184,0.030297324986263897
1790174138365126000,4.4981259765625,0.0934048146009445,0.10890394449234,0.0093501787632703,-0.13860825419549286,0.03820610197874463
1790174138375196000,4.50819580078125,0.1405225247144699,0.1013727858662605,0.0064747636206448,-0.15172396956961715,0.0839331953901234
1790174138385266700,4.5182666015625,0.137418508529663,0.0997699722647667,-0.0487114340066909,-0.1463846498761816,0.09890516637590431
1790174138395337000,4.5283369140625,0.0901002660393714,0.1113201007246971,-0.036960233002901,-0.13722877350886029,0.05517739854872529
1790174138405408000,4.538407958984375,0.0660647228360176,0.1153957471251487,-0.0237589832395315,-0.1312959717393749,0.03172669455774893
1790174138415478000,4.54847802734375,0.0788878425955772,0.1042530760169029,0.0758538916707038,-0.13132286345288186,0.07483390932256125
1790174138425547800,4.5585478515625,0.05659781396389,0.1131536439061164,0.0931417271494865,-0.13068355663587033,0.08720234535900946
1790174138435618800,4.568618896484375,-0.0041811130940914,0.12745401263237,0.0377242751419544,-0.11515596184177826,0.0665149038192096
1790174138445689000,4.578689208984375,-0.0187226422131061,0.1052738279104232,-0.0328024886548519,-0.08563841736318177,0.07193873023507266
1790174138455760100,4.588760009765625,0.0057765757665038,0.098543494939804,-0.0687823295593261,-0.08830891347477907,0.0817112836947815
1790174138465830000,4.598829833984375,0.0097577767446637,0.1267239302396774,-0.0648251771926879,-0.11565416243352766,0.08354990731444235
1790174138475901000,4.60890087890625,0.0152353662997484,0.1129109039902687,-0.0296421516686677,-0.10714120842350838,0.04878941728782811
1790174138485971000,4.618970947265625,-0.0322855077683925,0.1424330472946167,0.0099062789231538,-0.115434568561591,0.09001400844644195
1790174138496040700,4.629040771484375,-0.0324663370847702,0.1239895820617675,0.0360276289284229,-0.09990670381490949,0.08800068228484245
1790174138506111700,4.63911181640625,-0.0428250804543495,0.0995567291975021,-0.0428785197436809,-0.06974365428126444,0.09338051181767516
1790174138516182000,4.64918212890625,-0.0783103704452514,0.1048633456230163,-0.0280750729143619,-0.06012433872327154,0.11959142522254981
1790174138526253000,4.659253173828125,-0.0821684226393699,0.0769933834671974,-0.0082654915750026,-0.034218740734726555,0.10759659339530701
1790174138536322800,4.66932275390625,-0.0694923028349876,0.0787313655018806,-0.0411174446344375,-0.039655173629229434,0.10557423703158854
1790174138546393900,4.679393798828125,-0.0811690911650657,0.0722301751375198,-0.0437903180718421,-0.02868547372338366,0.11357973021211881
1790174138556463900,4.6894638671875,-0.0809089019894599,0.0225912500172853,0.0431038327515125,0.012015941996970338,0.09364919932535103
1790174138566534000,4.699533935546875,-0.1273929476737976,0.0148749658837914,0.0758012309670448,0.03725230497462539,0.14425089295134247
1790174138576605000,4.70960498046875,-0.169745996594429,0.0008385078981518,0.0112691149115562,0.07096915524683117,0.1546117020466827
1790174138586675000,4.719675048828125,-0.1908596903085708,-0.026366364210844,0.0135199083015322,0.10443610308487905,0.16247613621485707
1790174138596746000,4.72974609375,-0.1850143074989318,-0.0591208487749099,-0.01702974550426,0.13297047660609812,0.1425988545615358
1790174138606815700,4.739815673828125,-0.1818002015352249,-0.0571234002709388,-0.0599763542413711,0.13179707282989062,0.15013690684945263
1790174138616886000,4.749885986328125,-0.2191702127456665,-0.029033713042736,0.0413398817181587,0.11760141758320791,0.19172227583387375
1790174138626957000,4.75995703125,-0.1867260932922363,-0.049312200397253,0.0561010837554931,0.12142987751066807,0.1603135785592873
1790174138637026800,4.77002685546875,-0.2220966070890426,-0.0565437488257885,0.0202424209564924,0.1446899707399354,0.1788817105944454
1790174138647097900,4.780097900390625,-0.2269651591777801,-0.0769287422299385,-0.0557356849312782,0.16872178999671653,0.17908277141237786
1790174138657168000,4.79016796875,-0.1937158703804016,-0.1042999103665351,-0.0568438284099102,0.17935605755319445,0.13952395918613525
1790174138667239000,4.800239013671875,-0.1864196807146072,-0.0847531259059906,0.0002602743916213,0.1559272459649451,0.1327484516562029
1790174138677308700,4.81030859375,-0.199065163731575,-0.0776651352643966,-0.0130997393280267,0.15552647434162004,0.1471119695893011
1790174138687379000,4.82037890625,-0.2088473737239837,-0.0882550776004791,0.0328487493097782,0.16712074527688414,0.15670316226224462
1790174138697450000,4.830449951171875,-0.1969028264284134,-0.1126048937439918,0.064877264201641,0.18254995574346478,0.14944951729243608
1790174138707520000,4.84052001953125,-0.2031803131103515,-0.1067278757691383,0.0031706346198916,0.18278420558487826,0.1388274692357781
1790174138717591000,4.850591064453125,-0.2036293148994445,-0.1036945357918739,0.0263675674796104,0.17915398926847662,0.14427942120583834
1790174138727660800,4.860660888671875,-0.1960543245077133,-0.0887135788798332,0.0124294767156243,0.1630405757468502,0.14099524739296704
1790174138737731000,4.87073095703125,-0.1622569411993026,-0.0959925279021263,0.021577700972557,0.15480681699450638,0.10973753674875762
1790174138747802000,4.880802001953125,-0.1518883258104324,-0.106571190059185,0.0945319384336471,0.1565563028293802,0.13730948072345642
1790174138757871900,4.890871826171875,-0.1244010403752327,-0.1093984022736549,0.0899758040904998,0.14762353675875214,0.11724575038370495
1790174138767943000,4.90094287109375,-0.1524214595556259,-0.0838167741894722,0.0641822665929794,0.13763345074605654,0.1242334477881918
1790174138778013000,4.911012939453125,-0.1615177541971206,-0.0637469291687011,0.0146024655550718,0.12567691468253891,0.12070708767709444
1790174138788084000,4.921083984375,-0.1385758519172668,-0.0823536813259124,0.0597085766494274,0.13062625522988283,0.11174654863862349
1790174138798154000,4.931154052734375,-0.135628804564476,-0.0461717024445533,0.0778217986226081,0.09583110959661245,0.13190765523106315
1790174138808224000,4.94122412109375,-0.1391349136829376,-0.0316606983542442,0.1216151565313339,0.08217083339071947,0.16852039776790348
1790174138818295000,4.951294921875,-0.1007811427116394,-0.0515981912612915,0.0792658329010009,0.0858349862959115,0.10832654088805166
1790174138828364800,4.96136474609375,-0.1083977818489074,-0.0495599694550037,0.0430534742772579,0.08892122503453813,0.0902933390004144
1790174138838435800,4.971435791015625,-0.102451741695404,-0.077400118112564,0.0056965164840221,0.11328868404700448,0.06070635903438263
1790174138848505900,4.981505859375,-0.1200838610529899,-0.063433863222599,-0.0214435923844575,0.10943627474688578,0.0832317133826529
1790174138858576000,4.991575927734375,-0.1282536387443542,-0.0523580387234687,-0.0235442947596311,0.10300239622591509,0.0955782415489192
1790174138868647000,5.00164697265625,-0.1528597176074981,-0.0670164376497268,0.023897023871541,0.1245134985289145,0.11368708201159354
1790174138878717000,5.011717041015625,-0.1316052973270416,-0.092783585190773,0.0211443807929754,0.1388803634825473,0.08419072064940618
1790174138888788000,5.0217880859375,-0.1277131736278534,-0.0877248644828796,0.013731325045228,0.13299735463976287,0.08066324759740756
1790174138898857700,5.031857666015625,-0.1495465636253357,-0.0765859261155128,-0.0136635471135377,0.1335000812368779,0.10292715676918425
1790174138908928800,5.0419287109375,-0.1319382488727569,-0.08118936419487,-0.0417561866343021,0.1314733562956696,0.09196602677384381
1790174138918999000,5.0519990234375,-0.1288007795810699,-0.0793131738901138,-0.0259183701127767,0.1277049461835973,0.08510833685816083
1790174138929069000,5.062069091796875,-0.1374919414520263,-0.0775352194905281,-0.0224589966237545,0.12963649894836424,0.0928144864525381
1790174138939139800,5.072139892578125,-0.1067889034748077,-0.0781043395400047,0.0327485986053943,0.1145115379313751,0.07391708971232983
1790174138949209900,5.0822099609375,-0.1048286259174346,-0.0535144321620464,0.0121699143201112,0.09241368788685081,0.07389622701514793
1790174138959281000,5.092281005859375,-0.1529982835054397,-0.0495079718530178,-0.05472869053483,0.11241131863351611,0.1273516354168309
1790174138969351000,5.102350830078125,-0.1859667301177978,-0.0748532339930534,-0.1076062098145484,0.15181064192420438,0.16946756839920213
1790174138979422000,5.112421875,-0.2096664756536483,-0.0502738580107688,-0.0824989899992942,0.13851709104548066,0.18467969745348428
1790174138989492000,5.122491943359375,-0.180346205830574,-0.0578426420688629,-0.0703815370798111,0.1323126597308558,0.15270051092139134
1790174138999562000,5.13256201171875,-0.176762118935585,-0.0815959125757217,-0.0511737614870071,0.15135834837779163,0.13271075269449295
1790174139009632800,5.1426328125,-0.2102703154087066,-0.0797187387943267,-0.0096404235810041,0.16199064342737116,0.15627108518802357
1790174139019702800,5.152702880859375,-0.2710316479206085,-0.079127512872219,0.0227939486503601,0.1858088949163555,0.2138081760198657
1790174139029773800,5.16277392578125,-0.3097082376480102,-0.0996615961194038,-0.0268505383282899,0.22313950330988797,0.238288354057094
1790174139039844000,5.172843994140625,-0.2529219090938568,-0.1192978844046592,-0.0589317753911018,0.2182076055943703,0.1845531693974059
1790174139049913900,5.182913818359375,-0.2520610392093658,-0.1273576766252517,-0.057077020406723,0.22503837908531793,0.1799173684774481
1790174139059985000,5.19298486328125,-0.2815137505531311,-0.138208732008934,0.0053317616693675,0.24447482964856382,0.1964996964496701
1790174139070055000,5.203054931640625,-0.3320027589797973,-0.1595064997673034,0.0860564857721328,0.2814530351789425,0.2527015298137794
1790174139080126000,5.2131259765625,-0.3365919291973114,-0.179899662733078,0.1593765020370483,0.2984214820793716,0.2863625392528843
1790174139090196000,5.223196044921875,-0.334848016500473,-0.1906734406948089,0.1504716277122497,0.307830002730628,0.2763366702157593
1790174139100267000,5.23326708984375,-0.3118449747562408,-0.2098311483860016,0.0654587298631668,0.31931000470778415,0.2088117940216084
1790174139110337000,5.2433369140625,-0.3216223418712616,-0.2099819481372833,-0.0472445078194141,0.32885582732566604,0.20400793535383327
1790174139120406800,5.25340673828125,-0.3618912100791931,-0.2186545431613922,-0.0728422775864601,0.3550253618827381,0.24091086941380124
1790174139130477800,5.263477783203125,-0.3852478861808777,-0.2131787687540054,-0.0229877065867185,0.35769721805559523,0.25776395423664883
1790174139140548000,5.273548095703125,-0.3377655744552612,-0.2452315241098404,0.0402775518596172,0.3635065224497118,0.2090678670304195
1790174139150619100,5.283619140625,-0.3329957127571106,-0.277088850736618,0.0904259532690048,0.38793035228807526,0.21295837789439978
1790174139160689000,5.29368896484375,-0.3425657749176025,-0.2911207675933838,0.0745945274829864,0.40542149199855426,0.20808740669520273
1790174139170759000,5.303759033203125,-0.3380395174026489,-0.295037567615509,0.0118103912100195,0.40995793461585517,0.18273439417998938
1790174139180830000,5.313829833984375,-0.3347696959972381,-0.284765213727951,-0.076514147222042,0.4033958106761868,0.1904946481180697
1790174139190900000,5.32389990234375,-0.3179385364055633,-0.3109455108642578,0.0140589233487844,0.4156732083715247,0.15869927796368813
1790174139200971000,5.333970947265625,-0.2834617793560028,-0.3625027239322662,0.0481154285371303,0.44600433608526957,0.1231017135154244
1790174139211041000,5.344041015625,-0.2711606323719024,-0.3690778017044067,0.0790946334600448,0.445267747470405,0.13318823658303264
1790174139221112000,5.354112060546875,-0.32561856508255,-0.3626433312892914,0.0518406480550766,0.46390179290402295,0.1581777954904447
1790174139231181800,5.364181884765625,-0.3283552527427673,-0.3589412569999695,0.0326038338243961,0.46261685291550675,0.15396316234439314
1790174139241251800,5.374251953125,-0.2711276710033417,-0.3500894606113434,0.0233533419668674,0.4306896296031915,0.10547353197899825
1790174139251323000,5.384322998046875,-0.1991459131240844,-0.3344615399837494,0.0020734327845275,0.3869189640606981,0.04268056719438897
1790174139261393000,5.394392822265625,-0.0913038626313209,-0.3344101309776306,0.0846436768770217,0.33712525558147877,0.1169514647888579
1790174139271464000,5.4044638671875,-0.0569474250078201,-0.3134576678276062,0.0706465616822242,0.3042187880397529,0.11807025203702845
1790174139281534000,5.414533935546875,-0.063725970685482,-0.2856971621513366,0.069250002503395,0.28208215191487573,0.10444659026951164
1790174139291604000,5.42460400390625,-0.0592817850410938,-0.2530734539031982,0.0113079342991113,0.25340673120671176,0.05893556706603412
1790174139301674800,5.4346748046875,-0.02476641908288,-0.202445700764656,0.0591092780232429,0.19073776981899374,0.09333084798279224
1790174139311745000,5.4447451171875,0.0681879520416259,-0.2148249894380569,0.0705620497465133,0.16182592357089373,0.1720196099738312
1790174139321816000,5.454816162109375,0.1230203062295913,-0.2097056061029434,-0.0366693325340747,0.13885349639227262,0.20291570531617542
1790174139331885800,5.4648857421875,0.1249947920441627,-0.1604223847389221,-0.0163033660501241,0.09252794502097964,0.181833491684687
1790174139341956900,5.474956787109375,0.1472428441047668,-0.1380648761987686,-0.0254289526492357,0.06327879620478158,0.193351469514852
1790174139352027000,5.48502685546875,0.1882980912923813,-0.1272502392530441,0.0485523790121078,0.032585892449183224,0.23009625745617107
1790174139362097200,5.49509716796875,0.2405261546373367,-0.1106603518128395,-0.0093375518918037,-0.0019413314718515762,0.26491879064236634
1790174139372168000,5.50516796875,0.2578010857105255,-0.1120412349700927,0.0543195828795433,-0.0110105345713995,0.2860839445683886
1790174139382238000,5.515238037109375,0.258580595254898,-0.1000444963574409,0.0247534345835447,-0.02080697348936847,0.2775835511547576
1790174139392309000,5.52530908203125,0.2345577478408813,-0.0605452544987201,0.0176466461271047,-0.04594595225458408,0.23850249161267892
1790174139402379000,5.53537890625,0.2362033128738403,-0.0799631625413894,0.0868390351533889,-0.03232042558890863,0.2620735020797053
1790174139412448800,5.54544873046875,0.2698743641376495,-0.1019835919141769,0.0481249392032623,-0.02495003121550203,0.291421226327255
1790174139422519800,5.555519775390625,0.2712757289409637,-0.0766159147024154,0.0532491281628608,-0.04870966097437983,0.2827071949491288
1790174139432590000,5.565590087890625,0.255789190530777,-0.0926150605082511,0.0022209053859114,-0.025283547101163886,0.270871434618074
1790174139442661000,5.5756611328125,0.1944919973611831,-0.0933495536446571,0.0144730452448129,0.0009005862917575991,0.21621733091079604
1790174139452731000,5.58573095703125,0.1570926904678344,-0.0914829447865486,0.0573858916759491,0.013134428101704232,0.19017852125602
1790174139462802000,5.595802001953125,0.1271526366472244,-0.0891399011015892,0.043727871030569,0.024396857164709643,0.1594698562114264
1790174139472872000,5.605871826171875,0.1217527315020561,-0.1239400878548622,0.0419678688049316,0.05822587509745665,0.16898497710401966
1790174139482942000,5.61594189453125,0.1082979068160057,-0.1193692982196807,-0.0049708755686879,0.06200791038120612,0.148852929538733
1790174139493013000,5.626012939453125,0.0832133889198303,-0.1241966784000396,0.0403371192514896,0.07493778860387848,0.1355016385502224
1790174139503083000,5.6360830078125,0.0551974661648273,-0.1284793019294738,-0.0009320228127762,0.09265444587966674,0.10473640064732788
1790174139513154000,5.646154052734375,0.0492524392902851,-0.1456916183233261,-0.0250601787120103,0.11186302862084747,0.10847361803942149
1790174139523223800,5.656223876953125,0.0491504371166229,-0.1768428683280944,0.002303269226104,0.13878341700872632,0.12014005893028656
1790174139533294800,5.666294921875,0.0004336322890594,-0.1922583580017089,0.0161174982786178,0.17280711361653722,0.08579591769284726
1790174139543365000,5.676365234375,-0.0235494654625654,-0.2356436550617218,0.1337032467126846,0.21674712244025884,0.16425514478944256
1790174139553435000,5.686434814453125,-0.0287272781133651,-0.2424199283123016,0.0963431894779205,0.22681430728384,0.1320225674681203
1790174139563506000,5.696505859375,-0.0086981765925884,-0.2531167864799499,0.0495879314839839,0.23013275095393362,0.11679745614185032
1790174139573576000,5.706575927734375,0.0050737983547151,-0.2502666115760803,-0.0631729662418365,0.22694563042065624,0.12306756191734725
1790174139583647000,5.71664697265625,0.0666111931204795,-0.2759663760662079,-0.0369613319635391,0.22275665407125167,0.1798335477477691
1790174139593716700,5.726716796875,0.0846898555755615,-0.2884280681610107,-0.0839581787586212,0.22851140753209048,0.21259029740011548
1790174139603787000,5.736787109375,0.0943795070052146,-0.2675723135471344,-0.0139098521322011,0.20227819687811935,0.1994478612910899
1790174139613858000,5.746858154296875,0.1192372143268585,-0.2487087845802307,-0.0006225606193765,0.17403211695169804,0.21397846307243187
1790174139623927800,5.756927734375,0.1789114624261856,-0.2466168701648712,-0.0179634671658277,0.14754904400358654,0.26717252441753586
1790174139633998800,5.766998779296875,0.2166043519973755,-0.2455628514289856,-0.0104478765279054,0.13020277213432008,0.3006242763959985
1790174139644068900,5.77706884765625,0.2294708788394928,-0.2108125984668731,-0.083585999906063,0.09672826029403714,0.3077809268757725
1790174139654140000,5.787139892578125,0.2834835052490234,-0.1938710808753967,-0.0846906825900077,0.05847956215426499,0.3488574870572145
1790174139664210000,5.7972099609375,0.3422538638114929,-0.1584909856319427,-0.0747275277972221,0.0010276202597259976,0.3844999963950156
1790174139674280000,5.807280029296875,0.3804941475391388,-0.1022124662995338,-0.1043844223022461,-0.06472665956006983,0.40240495988511094
1790174139684351000,5.81735107421875,0.4307626485824585,-0.073627695441246,-0.0959081128239631,-0.11234971614407857,0.4330743635192027
1790174139694420700,5.827420654296875,0.4942080974578857,-0.0463556088507175,-0.0827759653329849,-0.16461201338235043,0.47554729686108005
1790174139704491800,5.83749169921875,0.5272414088249207,0.0083462530747056,-0.0917867720127105,-0.22768651033841947,0.4843932572265021
1790174139714561800,5.847561767578125,0.5414267778396606,0.0342183262109756,-0.1657360941171646,-0.2536614769180111,0.50738363949925
1790174139724632800,5.8576328125,0.6019574999809265,0.060669906437397,-0.0924557596445083,-0.3067423570468207,0.5296138812523833
1790174139734702800,5.867702880859375,0.6509376168251038,0.0986403226852417,-0.0460241958498954,-0.3640660711500837,0.5504759910280973
1790174139744772600,5.877772705078125,0.642331600189209,0.1384255439043045,-0.1476584076881408,-0.39162406900380153,0.5478915127511423
1790174139754843600,5.88784375,0.6568886637687683,0.1625420451164245,-0.1158748269081115,-0.42109404097032294,0.5422447945244072
1790174139764914000,5.897913818359375,0.6880585551261902,0.1627135574817657,-0.0289670899510383,-0.43856308736977023,0.5553393446962309
1790174139774985000,5.90798486328125,0.6937150955200195,0.1695988774299621,0.0186065435409545,-0.4494081645752677,0.5553223550816982
1790174139785054700,5.9180546875,0.6456423997879028,0.2034351378679275,-0.1079513952136039,-0.453630786026844,0.5139188432237684
1790174139795124700,5.928124755859375,0.6291453838348389,0.2541696727275848,-0.0588820464909076,-0.49474209195456775,0.4681062853482206
1790174139805195800,5.93819580078125,0.6416411995887756,0.2700953781604767,-0.0262482017278671,-0.5159723445536271,0.46809876101433334
1790174139815265500,5.948265625,0.6684775352478027,0.2468840479850769,-0.0725807324051857,-0.5042618363672677,0.5087257722786012
1790174139825336600,5.958336669921875,0.5995136499404907,0.2436821162700653,-0.0732976570725441,-0.47198072229173227,0.44878094274615304
1790174139835406800,5.96840673828125,0.5419389009475708,0.257337361574173,-0.0338382944464683,-0.4616517724344332,0.38463354144095363
1790174139845476900,5.978476806640625,0.5555678606033325,0.2483406662940979,-0.0193397793918848,-0.4599977464162506,0.39887947381340405
1790174139855547600,5.988547607421875,0.5618895292282104,0.2467176914215088,-0.0450945347547531,-0.4600226382646062,0.4086589674355351
1790174139865617700,5.99861767578125,0.551903486251831,0.2525801062583923,0.00740995304659,-0.46351472606726446,0.39192240856752153
1790174139875688700,6.008688720703125,0.5118877291679382,0.2505131661891937,-0.0566274113953113,-0.4416325183618926,0.3646275855630091
1790174139885759000,6.018759033203125,0.4595874845981598,0.2356697618961334,-0.0511191971600055,-0.4062137780792294,0.3230548428492073
1790174139895829800,6.028829833984375,0.4177690744400024,0.2278109788894653,-0.0360602252185344,-0.38201324116821656,0.28599836551280866
1790174139905899800,6.038899658203125,0.4400200545787811,0.2068220824003219,0.0229761973023414,-0.37526573346466713,0.3099944469335226
1790174139915969800,6.0489697265625,0.4365823268890381,0.188355341553688,-0.0154962334781885,-0.3553228402292945,0.31633475197494687
1790174139926040600,6.05904052734375,0.3985657095909118,0.1931029558181762,-0.0146695896983146,-0.34347010270659617,0.27997653797427513
1790174139936110800,6.06911083984375,0.3744411468505859,0.2000998556613922,0.0028149320278316,-0.3403387649748552,0.25381799303478
1790174139946182000,6.079181884765625,0.3772228062152862,0.1856439411640167,0.0425671376287937,-0.33031008457663924,0.2635676908361994
1790174139956252000,6.089251953125,0.3736079037189483,0.1963113695383072,0.0543904118239879,-0.33896201027622863,0.25726269068629765
1790174139966322700,6.09932275390625,0.3521319031715393,0.1966029852628708,0.0397550091147422,-0.3294029006838724,0.23605889268622576
1790174139976392700,6.109392822265625,0.337832361459732,0.2103913128376007,0.0164605714380741,-0.3346920834196955,0.21598001915742057
1790174139986462700,6.119462646484375,0.3479752838611603,0.2224756777286529,0.0978907197713851,-0.35372157675496274,0.23461855108755014
1790174139996533800,6.12953369140625,0.3388469517230987,0.2273579239845276,0.0466164350509643,-0.351860676802094,0.2118396526333617
1790174140006603800,6.139603759765625,0.3383132517337799,0.2063514441251754,0.0327168628573417,-0.33200292791472796,0.218817786668505
1790174140016674800,6.1496748046875,0.3441774845123291,0.2248005717992782,0.0164319612085819,-0.3504130445209316,0.21557862951890422
1790174140026744800,6.159744873046875,0.3133657872676849,0.257122278213501,-0.0263405367732048,-0.3645153851648537,0.17925495931553992
1790174140036814600,6.169814697265625,0.2918860912322998,0.2367871254682541,-0.0373199917376041,-0.336484708372647,0.1715705564980737
1790174140046885600,6.1798857421875,0.3034247756004333,0.2510033249855041,0.0222999267280101,-0.35701926188807614,0.16764187118652613
1790174140056956000,6.189955810546875,0.3621300756931305,0.258774071931839,0.095690868794918,-0.39244660599291764,0.23074794872558
1790174140067027000,6.20002685546875,0.3381219506263733,0.2618210017681122,0.0542480833828449,-0.38305141713181134,0.19771483719302554
1790174140077096700,6.2100966796875,0.2855414152145386,0.2720820903778076,0.0302611142396926,-0.3688266821245879,0.1429866332741452
1790174140087167700,6.220167724609375,0.2990705370903015,0.2833661735057831,0.1018857657909393,-0.38811771095076575,0.17171175312113893
1790174140097237800,6.23023779296875,0.3096100986003876,0.2961548864841461,0.0279382281005382,-0.40071762210496753,0.15418191161001119
1790174140107307800,6.240307861328125,0.2993403971195221,0.2846785187721252,-0.0278019998222589,-0.38337981910891195,0.15633105223243166
1790174140117378800,6.25037890625,0.2937321960926056,0.2844675779342651,0.0316848903894424,-0.3835720032159531,0.1451787055496224
1790174140127448800,6.26044873046875,0.2907657027244568,0.300435334444046,0.0585631094872951,-0.39799079131395915,0.14085116927261382
1790174140137519900,6.270519775390625,0.2920392751693725,0.2975177764892578,-0.0120146898552775,-0.3926099638747923,0.14073213779061716
1790174140147589600,6.280589599609375,0.2732962071895599,0.3132551908493042,0.0544221252202987,-0.40194734944713395,0.11924649866620947
1790174140157659600,6.29065966796875,0.3235234320163727,0.2960762977600097,0.086217850446701,-0.40928245229469196,0.17958278630820756
1790174140167730700,6.300730712890625,0.3159725666046142,0.3052069544792175,0.0920443162322044,-0.4145910536185284,0.17197779600669114
1790174140177800700,6.31080078125,0.2580738663673401,0.3069840669631958,0.0210684090852737,-0.3882478035075171,0.10270763751554442
1790174140187871700,6.320871826171875,0.1856678128242492,0.3180803954601288,0.0597106106579303,-0.36925545385796193,0.053511134507743745
1790174140197941800,6.330941650390625,0.160619705915451,0.3336139917373657,0.0081377234309911,-0.37022999846281845,0.009641379163057216
1790174140208012800,6.3410126953125,0.1389681994915008,0.3374913036823272,-0.0177703071385622,-0.36331165487456607,0.03915310689088936
1790174140218082600,6.35108251953125,0.1529123336076736,0.3392676413059234,0.11069917678833,-0.3768341587035358,0.09346142938368478
1790174140228152800,6.36115283203125,0.148305058479309,0.3488750159740448,0.1165682524442672,-0.38382847612445403,0.09986002971825667
1790174140238224000,6.371223876953125,0.1054267212748527,0.3538282513618469,0.0832570195198059,-0.3685026091780097,0.08629474693669499
1790174140248294000,6.3812939453125,0.0632417201995849,0.3749487102031708,0.0585921555757522,-0.36848463909521834,0.11062622610712078
1790174140258364700,6.39136474609375,0.0519975461065769,0.4014300405979156,0.0080262087285518,-0.385275023856421,0.1244081923127985
1790174140268434700,6.4014345703125,0.0390567146241664,0.3816941380500793,0.0205156356096267,-0.3625132066636748,0.12736132960170193
1790174140278505000,6.4115048828125,0.0001430204720236,0.332301527261734,0.0252585895359516,-0.3015349478420921,0.14191193413715722
1790174140288575700,6.42157568359375,-0.0131051400676369,0.3143150508403778,0.0811490193009376,-0.2822441592240148,0.16090088190688887
1790174140298645800,6.431645751953125,0.0190488062798976,0.2979716062545776,0.0671186745166778,-0.2805076175588593,0.12235329221132783
1790174140308716800,6.441716796875,-0.0084922742098569,0.2852909564971924,0.0766474679112434,-0.25776918068997534,0.1445438770891464
1790174140318786800,6.451786865234375,-0.0643350929021835,0.2525088489055633,0.1249431446194648,-0.20662384456048916,0.20203242116251666
1790174140328857600,6.461857666015625,-0.1085326448082923,0.2159913182258606,0.1038642227649688,-0.15382927476597752,0.21343831786624534
1790174140338927900,6.471927978515625,-0.1321343779563903,0.1960430741310119,0.0459239780902862,-0.12305835118128367,0.20702182184697482
1790174140348998000,6.481997802734375,-0.1153785735368728,0.2117123156785965,0.0632286667823791,-0.14515630649039218,0.2026371901466799
1790174140359069000,6.49206884765625,-0.1536456942558288,0.2215056866407394,0.161129280924797,-0.1422768490277064,0.2799851995724603
1790174140369138700,6.502138671875,-0.1564081907272339,0.1696912199258804,0.1605305969715118,-0.09424885351451025,0.264850634172793
1790174140379209700,6.512209716796875,-0.2069440931081771,0.1502473801374435,0.1246091276407241,-0.053494615443428206,0.27940274465451
1790174140389279700,6.52227978515625,-0.2449154406785965,0.1536362618207931,0.0668952241539955,-0.03770742163818053,0.2943480854313005
1790174140399349800,6.532349853515625,-0.2397929280996322,0.1483048498630523,-0.002438761293888,-0.03184141644485586,0.2801554008312738
1790174140409420800,6.5424208984375,-0.2743836641311645,0.1646414846181869,0.044606514275074,-0.034071884800017826,0.3212819032894182
1790174140419490800,6.55249072265625,-0.2886676788330078,0.1554185450077057,0.0278311390429735,-0.018876148489230124,0.32848472758073644
1790174140429561900,6.562561767578125,-0.3117530345916748,0.1287392675876617,0.1081251800060272,0.011321089558990777,0.3540150294530709
1790174140439631600,6.572631591796875,-0.2768830358982086,0.1471060067415237,0.0976686403155326,-0.01963213859167559,0.32780807681179547
1790174140449702700,6.58270263671875,-0.2819651365280151,0.1491627544164657,0.1095719039440155,-0.01988188663092308,0.33669656701588263
1790174140459773000,6.59277294921875,-0.3240185678005218,0.1226336732506752,0.1013816222548484,0.022373434663126482,0.3602842112095037
1790174140469842700,6.6028427734375,-0.3438095450401306,0.100353330373764,-0.0019496046006679,0.055743385040878765,0.35379693350860275
1790174140479913700,6.612913818359375,-0.4218332469463348,0.1481128633022308,0.0152530763298273,0.0449929474638702,0.445071903764897
1790174140489983700,6.622983642578125,-0.3848280906677246,0.1537081599235534,0.0544148609042167,0.02236193732388503,0.4173485098097261
1790174140500054800,6.6330546875,-0.3389438390731811,0.1101749241352081,0.0548696294426918,0.04215093124204276,0.35812765208019365
1790174140510124800,6.643124755859375,-0.280716210603714,0.0547726526856422,0.0502841994166374,0.06764665252238082,0.2824076229343307
1790174140520195800,6.65319580078125,-0.3503330051898956,0.0590160898864269,0.1284662336111068,0.0898035519899586,0.36695368729456374
1790174140530265900,6.663265869140625,-0.4097998142242431,0.0694154724478721,0.0561070851981639,0.10908680017642591,0.40497218495853265
1790174140540335600,6.673335693359375,-0.4376342296600342,0.0425177477300167,0.0224717613309621,0.14680780912402625,0.4150709880004673
1790174140550406700,6.68340673828125,-0.4779925644397735,0.0379211343824863,0.0340969935059547,0.16759876438463714,0.45054207709763755
1790174140560476700,6.6934765625,-0.3993538618087768,-0.0107954181730747,0.1069191694259643,0.174760410752792,0.3748206979601962
1790174140570547700,6.703547607421875,-0.3718801438808441,-0.0772394239902496,0.0741870552301406,0.22463532323656565,0.31512451626191584
1790174140580617700,6.71361767578125,-0.4244729280471802,-0.0684089660644531,6.23587984591e-05,0.24249270630366,0.35504132796211313
1790174140590687700,6.723687744140625,-0.5188188552856445,-0.0532134994864463,0.0132130486890673,0.26830628492724373,0.4474270926661694
1790174140600758800,6.7337587890625,-0.5219559669494629,-0.0900657325983047,0.0495983734726905,0.30125039238798246,0.4384724248568446
1790174140610828800,6.743828857421875,-0.4365954995155334,-0.1148155555129051,0.0437319613993167,0.28755644111634837,0.35074494950788176
1790174140620899600,6.753899658203125,-0.4598491489887237,-0.1229391694068908,0.044070154428482,0.30477974510065536,0.36827539245493907
1790174140630969900,6.763969970703125,-0.487521231174469,-0.1538819074630737,0.0674702823162078,0.3434313322144962,0.38466056639529506
1790174140641041000,6.774041015625,-0.5574435591697693,-0.1832483857870102,0.0370550751686096,0.40114792688235523,0.42985661784732937
1790174140651110700,6.784110595703125,-0.5384203195571899,-0.2070197612047195,0.019275015220046,0.41536065104794895,0.4007501438728159
1790174140661180700,6.7941806640625,-0.4461678862571716,-0.2570249438285827,0.0369064025580883,0.4204620706321559,0.29950180998915205
1790174140671251700,6.804251708984375,-0.4157556593418121,-0.2817119061946869,0.1103723719716072,0.4264057992533614,0.28735782784592767
1790174140681322000,6.814322021484375,-0.4572428166866302,-0.2865971624851227,0.0647297129034996,0.45060466822326084,0.3038984956593592
1790174140691392800,6.824392822265625,-0.552920401096344,-0.2485006749629974,0.0198629051446914,0.458991106797933,0.3964785672477174
1790174140701462800,6.834462890625,-0.5422343015670776,-0.249953031539917,-0.0329077318310737,0.4582122808811092,0.38421215524229396
1790174140711532800,6.84453271484375,-0.4825755357742309,-0.260710060596466,-0.058278601616621,0.44372117711103576,0.3276534691004884
1790174140721604600,6.8546044921875,-0.4160588085651397,-0.2456307113170623,-0.0663040354847908,0.40215524262741464,0.27587454481271595
1790174140731674600,6.864674560546875,-0.3590927422046661,-0.2254964262247085,-0.0240149032324552,0.3577435838256069,0.2288940356432586
1790174140741745400,6.874745361328125,-0.3969854116439819,-0.1793198585510254,-0.0587447173893451,0.3337602173289444,0.2860211318741875
1790174140751815700,6.884815673828125,-0.3887485265731811,-0.1796692609786987,0.0342818945646286,0.32623833420499204,0.2795536761402777
1790174140761886700,6.89488671875,-0.3374034762382507,-0.1837619841098785,-0.0022492967545986,0.3097831158524591,0.22726428019001846
1790174140771956500,6.90495654296875,-0.264310359954834,-0.1772553473711013,-0.0222762692719697,0.2737238878201752,0.16386241167634855
1790174140782026500,6.915026611328125,-0.2408312410116195,-0.1445181965827942,-0.0599636398255825,0.23590068566082978,0.16380384731935468
1790174140792097500,6.92509765625,-0.2409361749887466,-0.1494586318731308,-0.050006877630949,0.23994635660364036,0.15910548960558
1790174140802167600,6.93516748046875,-0.1957369595766067,-0.1405044645071029,-0.0003304311539977,0.21030260047752392,0.11758991159049487
1790174140812238300,6.94523828125,-0.122298426926136,-0.155255451798439,0.019192136824131,0.1914651103521503,0.05263658590239223
1790174140822308600,6.95530859375,-0.0804538950324058,-0.1393074840307235,0.0590594932436943,0.1573857702699714,0.0678022668617017
1790174140832378600,6.965378662109375,-0.0900407433509826,-0.1152737811207771,0.0441769510507583,0.14044030848690017,0.060195538317418154
1790174140842449700,6.97544970703125,-0.1104745268821716,-0.1041882559657096,0.010749383829534,0.14067647096561803,0.05818499411695561
1790174140852519400,6.98551953125,-0.0925333425402641,-0.1103510782122612,-0.0512932129204273,0.1414980907438894,0.0578710977243112
1790174140862590500,6.995590576171875,-0.0206399615854024,-0.0805259719491005,-0.0276803169399499,0.0828448072134679,0.02851978324345436
1790174140872660700,7.00566064453125,0.0183087699115276,-0.0511582344770431,0.0197417940944433,0.03751894937620963,0.04398230192082033
1790174140882731500,7.0157314453125,0.0508420579135417,-0.074108600616455,-0.0323233939707279,0.046835676358865444,0.08323593428326292
1790174140892801500,7.025801513671875,0.0491094067692756,-0.0722497180104255,0.0041328854858875,0.044195785373610366,0.07546899286107774
1790174140902871600,7.03587158203125,0.0059769414365291,-0.0788159891963005,0.0563832186162471,0.06605585407462058,0.07115739923526576
1790174140912942600,7.045942626953125,0.0179342683404684,-0.0794809833168983,0.0395080968737602,0.062352983885122726,0.06566475317197988
1790174140923012600,7.0560126953125,0.031240964308381,-0.0839560851454734,-0.050605222582817,0.06492914529598241,0.0798105051209499
1790174140933083600,7.066083740234375,0.0458697080612182,-0.1087573021650314,-0.0848875641822815,0.08271142937691248,0.11956964035684942
1790174140943153700,7.076153564453125,0.0575003214180469,-0.0983156561851501,-0.0492939427495002,0.0666675248347836,0.10467850370773296
1790174140953223400,7.086223388671875,0.0634564757347107,-0.1039556935429573,0.0224508196115493,0.06588848120237072,0.10486304343639065
1790174140963294500,7.09629443359375,0.0285718496888875,-0.101552240550518,0.0586350746452808,0.07688012540186576,0.09304153079311248
1790174140973364500,7.106364501953125,-0.0036806296557188,-0.0870577245950698,0.0139182023704051,0.07959185810147522,0.03809785988099283
1790174140983435500,7.116435546875,-0.0032345103099942,-0.0632432699203491,-0.0520765669643878,0.06095400272480322,0.05483385474125123
1790174140993505500,7.126505615234375,0.0261678528040647,-0.0776930525898933,-0.0627768859267234,0.06199540066557764,0.08257405551432279
1790174141003576600,7.13657666015625,0.040795836597681,-0.0698810070753097,-0.0196702070534229,0.04670219125276269,0.0689454698386999
1790174141013646600,7.146646484375,0.0059161493554711,-0.0567723959684371,-0.0202039051800966,0.04972729180277057,0.03454706936458858
1790174141023716400,7.15671630859375,-0.0186593122780323,-0.0654954388737678,-0.1109451651573181,0.07229589265805243,0.10825874571837849
1790174141033787400,7.166787353515625,0.017147421836853,-0.0855282694101333,-0.100505843758583,0.07467231429001009,0.11015711076522468
1790174141043857700,7.176857666015625,0.01320581138134,-0.0692432522773742,-0.0309564638882875,0.058394957898736194,0.050173229800953546
1790174141053928700,7.1869287109375,0.0009414216619916,-0.0783693715929985,0.0113616967573761,0.06989195446347235,0.037240401892428936
1790174141063998500,7.19699853515625,-0.0211224369704723,-0.0412856116890907,-0.0146868536248803,0.04698398438841882,0.012604283260123724
1790174141074068500,7.207068359375,0.0192894339561462,-0.0510479621589183,-0.120760828256607,0.043544170456261175,0.12516013567995476
1790174141084139500,7.217139404296875,0.0917254611849784,-0.0988941714167594,-0.0479027703404426,0.052557765998888645,0.13313892747539927
1790174141094209800,7.227209716796875,0.0864420160651207,-0.0700721070170402,-0.0226011425256729,0.02758226567519132,0.1101469590451732
1790174141104280600,7.237280517578125,0.0607846081256866,-0.0451879650354385,-0.0458106063306331,0.017096362917720744,0.08685071557795666
1790174141114350600,7.2473505859375,0.0481156818568706,-0.0325177088379859,-0.106942132115364,0.013885332905309269,0.1208980453940936
1790174141124421600,7.257421630859375,0.0660398006439209,-0.0765115246176719,0.0400236286222934,0.039169597324166076,0.10140464566264888
1790174141134491400,7.267491455078125,0.0320426896214485,-0.0876469984650611,0.0591666959226131,0.0628119795256323,0.09090700430979683
1790174141144561400,7.2775615234375,0.0509881675243377,-0.0856602936983108,-0.0111543582752347,0.05622694449040441,0.08306882427105892
1790174141154632400,7.287632568359375,0.0807609781622886,-0.0699590891599655,-0.0634204894304275,0.031798931333634914,0.12011492911147804
1790174141164702700,7.29770263671875,0.0200325306504964,-0.0420326068997383,-0.0601020827889442,0.032256296793631005,0.06884645233983591
1790174141174773500,7.3077734375,0.0164236798882484,-0.0622414723038673,-0.0433587878942489,0.05127533498095608,0.05826287536565581
1790174141184843500,7.317843505859375,0.1018551215529441,-0.0561187155544757,0.0242195762693882,0.006232054219414092,0.11862346056714147
1790174141194913500,7.32791357421875,0.1448201537132263,-0.0151542369276285,0.0097634047269821,-0.048401929433798487,0.1376775403518295
1790174141204984600,7.337984619140625,0.1425400823354721,-0.0291939359158277,-0.0285657234489917,-0.03295913866127163,0.14456713561986334
1790174141215054600,7.3480546875,0.1047010868787765,0.0105460193008184,-0.0610959716141223,-0.05125106104137377,0.11036114627121882
1790174141225125600,7.358125732421875,0.0931131094694137,0.0431218706071376,-0.0405414178967475,-0.07671428868843348,0.0792973603332932
1790174141235195600,7.368195556640625,0.1298836320638656,0.052166499197483,-0.049355149269104,-0.10012865263782506,0.1095503774385644
1790174141245266400,7.378266357421875,0.1667421609163284,0.0473405420780181,-0.0271910745650529,-0.11248818461559827,0.1346470868945062
1790174141255336400,7.38833642578125,0.1172233521938324,0.0271005183458328,-0.0268571134656667,-0.07313554197287032,0.09923834661165162
1790174141265406700,7.39840673828125,0.1440151333808899,-0.0001580510288476,0.0231449324637651,-0.06223428659178535,0.13192029826378882
1790174141275477800,7.408477783203125,0.1999718844890594,-0.0126980785280466,0.110184222459793,-0.07877257043177659,0.21467519840691915
1790174141285547500,7.418547607421875,0.2135285437107086,-0.0520925000309944,0.0663703382015228,-0.04690238713580018,0.22475154151338578
1790174141295618600,7.42861865234375,0.1956880241632461,-0.0447925105690956,0.0288669057190418,-0.04415929461304252,0.1979480405284889
1790174141305688600,7.4386884765625,0.1659055054187774,-0.031511440873146,0.0004534856416285,-0.042161454323375105,0.16352438672175743
1790174141315758600,7.448758544921875,0.1573855280876159,-0.0371677279472351,0.0474225915968418,-0.035610471165983835,0.16471927934906375
1790174141325829600,7.45882958984375,0.155149221420288,-0.040982898324728,0.0731327980756759,-0.0324080176501641,0.17334648946194667
1790174141335899600,7.468899658203125,0.1856418848037719,-0.0551783479750156,0.0378882586956024,-0.03091767583836877,0.19490299368272224
1790174141345970700,7.478970703125,0.2549725472927093,-0.0695973113179206,0.1143651381134986,-0.05095870612922868,0.2834384954464918
1790174141356040400,7.48904052734375,0.2058561146259308,-0.0381150171160697,0.1164043173193931,-0.05859773415628801,0.23226227653449366
1790174141366111500,7.499111572265625,0.2044435292482376,-0.0195500459522008,0.0573035031557083,-0.07202153475422723,0.20068869164397396
1790174141376181500,7.509181396484375,0.240645483136177,0.0459900833666324,0.0084171863272786,-0.14438245481401465,0.1981158552197703
1790174141386251500,7.51925146484375,0.2509321570396423,0.0976039692759513,0.0280495192855596,-0.1963180928358608,0.18638525749755497
1790174141396322600,7.529322509765625,0.2761632204055786,0.0570288524031639,0.012966439127922,-0.16968789005411186,0.2255938004995789
1790174141406392600,7.539392578125,0.3044118881225586,0.0865711346268653,-0.0442837961018085,-0.20574314055022833,0.24452397366033357
1790174141416463600,7.549463623046875,0.3163258135318756,0.1024409160017967,0.0151600902900099,-0.22792354436689144,0.2425630801229343
1790174141426533400,7.559533447265625,0.2188749462366104,0.1143598109483718,0.0948053300380706,-0.2009235693876545,0.17205283583358433
1790174141436603600,7.569603759765625,0.2153851389884948,0.1176078021526336,0.0111479833722114,-0.198477953458701,0.1447519697564736
1790174141446674700,7.5796748046875,0.2850911915302276,0.147007405757904,0.0320634171366691,-0.25569008411675437,0.19631303685349344
1790174141456744700,7.58974462890625,0.3197906017303467,0.1678636819124221,0.0025619843509048,-0.2879336783865701,0.2180481719135603
1790174141466815500,7.5998154296875,0.3444567620754242,0.181600347161293,-0.0543643720448017,-0.30819573535809264,0.24413115467612423
1790174141476885500,7.609885498046875,0.2532530725002289,0.2162219732999801,0.0570207424461841,-0.30584901946186943,0.14351586264894403
1790174141486956500,7.61995654296875,0.2471649050712585,0.1536172032356262,-0.0024985871277749,-0.24391081600822342,0.1587529281640423
1790174141497026600,7.630026611328125,0.3274165987968445,0.194839209318161,-0.0665830299258232,-0.3123375642108619,0.2281282369904015
1790174141507096600,7.6400966796875,0.3879671394824981,0.2597821652889251,-0.0427061021327972,-0.39791080140662893,0.24798403175153394
1790174141517167600,7.650167724609375,0.3333635628223419,0.2404430657625198,-0.154372438788414,-0.351992885267408,0.26244235837511615
1790174141527237600,7.660237548828125,0.274644672870636,0.2452587783336639,-0.1081378757953643,-0.33350420626091853,0.18986918990122728
1790174141537308400,7.670308349609375,0.2482849657535553,0.1961868405342102,0.0113504352048039,-0.2835022271942469,0.14103198280276655
1790174141547378400,7.68037841796875,0.1863753646612167,0.1333281099796295,0.0800857245922088,-0.20354635341500293,0.13226778427967834
1790174141557448700,7.69044873046875,0.152615800499916,0.1394547075033188,0.0634580180048942,-0.1939390517901185,0.0956752959071754
1790174141567519700,7.700519775390625,0.2144223302602768,0.1646797955036163,-0.0189315695315599,-0.23920607315100167,0.12741754060554622
1790174141577589500,7.710589599609375,0.2637632489204407,0.1352182924747467,-0.1242734342813491,-0.2286786369849677,0.2258428780272485
1790174141587660500,7.72066064453125,0.2463130503892898,0.0902448520064354,-0.0881563499569892,-0.18229067378999447,0.20822080681975377
1790174141597730600,7.73073046875,0.1770825833082199,0.1238888278603553,0.0551542080938816,-0.18989982863083565,0.11699027624622417
1790174141607801600,7.740801513671875,0.1857235580682754,0.1694234758615493,-0.0527435503900051,-0.22970298606822298,0.11496075197054778
1790174141617871600,7.75087158203125,0.3047623038291931,0.1855449229478836,-0.0997432917356491,-0.292751642462562,0.22705105229606082
1790174141627941600,7.760941650390625,0.3181923329830169,0.1643872410058975,-0.0292632058262825,-0.28262986246185473,0.22191489773048273
1790174141638012700,7.7710126953125,0.1579480469226837,0.1692017167806625,0.0304568521678447,-0.22155415906364984,0.07360829391982074
1790174141648082400,7.78108251953125,0.0938769653439521,0.2218849807977676,-0.0072213234379887,-0.2401375575321201,0.02078293291426987
1790174141658153500,7.791153564453125,0.2077755779027938,0.2849699556827545,-0.0653892830014228,-0.34291883169850107,0.1051712870162113
1790174141668223700,7.8012236328125,0.3255968391895294,0.2649024724960327,-0.1335133165121078,-0.37176203552330445,0.23623170035868438
1790174141678294800,7.811294677734375,0.3123859763145447,0.2529150247573852,-0.1488014608621597,-0.35459407069467175,0.24074037411476082
1790174141688364500,7.821364501953125,0.2475204318761825,0.271230399608612,-0.019591012969613,-0.3495522648609791,0.11414602834857952
1790174141698434600,7.8314345703125,0.209063321352005,0.2859821915626526,0.0523066148161888,-0.34986203109950076,0.07632710772831997
1790174141708505600,7.841505615234375,0.2409251034259796,0.2830710709095001,0.0234874822199344,-0.3594511859006067,0.09757378450357164
1790174141718575400,7.851575439453125,0.2390092313289642,0.2975544035434723,0.0029750161338597,-0.37076903124777644,0.09057158449069991
1790174141728646400,7.861646484375,0.1637919396162033,0.31246018409729,0.0023830428253859,-0.35219577948235903,0.020566427430925467
1790174141738716400,7.87171630859375,0.1225377023220062,0.2689947187900543,0.0378102771937847,-0.29700635393136154,0.02430000027091852
1790174141748786200,7.8817861328125,0.1539952456951141,0.2286242395639419,0.0853548720479011,-0.27612751556144866,0.08380112138309816
1790174141758857200,7.891857177734375,0.1393619775772094,0.2697900533676147,0.0803108438849449,-0.3068652429846978,0.06702229467710995
1790174141768927200,7.90192724609375,0.1217312589287757,0.3121896982192993,-0.0073534338735044,-0.3335950361008636,0.032393393666569556
1790174141778998300,7.911998291015625,0.1425526589155197,0.3248394429683685,-0.0328659862279892,-0.3527010827999976,0.05023985981600692
1790174141789068300,7.922068359375,0.1321072578430175,0.3129979968070984,-0.0382339134812355,-0.3373040846009766,0.05574818590452697
1790174141799139300,7.932139404296875,0.0046872524544596,0.3233145475387573,-0.0066267205402255,-0.29386303585039086,0.13506552695515373
1790174141809209300,7.942209228515625,-0.068429060280323,0.2434535175561905,0.0375274159014225,-0.19262766372443896,0.1680923603666545
1790174141819279000,7.952279052734375,-0.0769234746694564,0.2131829708814621,0.1708764135837555,-0.16786601993275949,0.2288753986348246
1790174141829350100,7.96235009765625,-0.110289953649044,0.2352114766836166,0.2093593925237655,-0.1753625911480189,0.28384437550067587
1790174141839420400,7.97242041015625,-0.126048669219017,0.2492753714323043,0.0706816688179969,-0.17490706529887357,0.22897575118346267
1790174141849491500,7.982491455078125,-0.154923066496849,0.2623905837535858,-0.0032435497269034,-0.1710266921725126,0.25221095565953144
1790174141859561200,7.992561279296875,-0.2097274661064148,0.1820302307605743,0.0360013246536254,-0.07690587926233111,0.2692623183103584
1790174141869631200,8.00263134765625,-0.224754124879837,0.1349633932113647,0.0666569769382476,-0.0294033975308869,0.26890170498866967
1790174141879702300,8.012702392578126,-0.2675764262676239,0.0924745202064514,0.0869348123669624,0.026276338257570586,0.2949845698178453
1790174141889772300,8.022772216796875,-0.2808709442615509,0.0637118145823478,0.0653270706534385,0.0589338246951081,0.289382295786588
1790174141899843300,8.03284326171875,-0.3531163930892944,0.0573117062449455,0.0979736968874931,0.09394836326586568,0.35881522969707863
1790174141909913300,8.042913330078125,-0.4751970469951629,0.0284513011574745,0.0680237859487533,0.17338692011126072,0.448537536221451
1790174141919984400,8.052984375,-0.6152787804603577,0.0005522929131984,0.0792839005589485,0.25769986998160416,0.5643093093433357
1790174141930054100,8.06305419921875,-0.606938362121582,-0.0642520412802696,-0.004054669290781,0.316593442299609,0.5218117791497734
1790174141940124200,8.073124267578125,-0.549111545085907,-0.1317866146564483,-0.0294990427792072,0.35419488552798356,0.4408031049572444
1790174141950195200,8.0831953125,-0.587878942489624,-0.1761819422245025,-0.0572597123682498,0.41210835447746674,0.45835260075523293
1790174141960265500,8.093265380859375,-0.733207106590271,-0.1898135989904403,-0.0415670350193977,0.4855547499363073,0.582740308139719
1790174141970336300,8.103336181640625,-0.7540268898010254,-0.2018408775329589,0.0178999919444322,0.5025165533772944,0.597573270553242
1790174141980406300,8.11340625,-0.6805582642555237,-0.2044228166341781,-0.0232463795691728,0.4754941492340404,0.5285772859425689
1790174141990476300,8.123476318359375,-0.7013077735900879,-0.2968066334724426,0.0667604953050613,0.56362149117886,0.5164441396567748
1790174142000547300,8.13354736328125,-0.8012117147445679,-0.3877703547477722,0.0878719016909599,0.6873652524374412,0.5723255548318129
1790174142010617300,8.143617431640624,-0.9100189208984376,-0.4235135614871979,0.1256174445152282,0.7642218168060595,0.662754049584693
1790174142020688400,8.1536884765625,-0.8222435712814331,-0.4925288259983063,0.1079734787344932,0.7900506724073184,0.5533058305238499
1790174142030758400,8.16375830078125,-0.7208616733551025,-0.4776682555675506,0.1170445680618286,0.7330461666440736,0.4734461563583282
1790174142040829400,8.173829345703124,-0.6580381989479065,-0.4665609896183014,0.0105727221816778,0.7012257912307054,0.39885787001815004
1790174142050899200,8.183899169921874,-0.7133446931838989,-0.5084914565086365,0.0364324301481246,0.761454830796654,0.43467007633243226
1790174142060969500,8.193969482421876,-0.8186264038085938,-0.5187318325042725,0.1241489574313163,0.8114372793996809,0.5442558298241355
1790174142071040500,8.20404052734375,-0.7842252254486084,-0.4899288117885589,0.0625518187880516,0.7736337107690672,0.5103362190221721
1790174142081110300,8.2141103515625,-0.67508864402771,-0.5142291188240051,0.0015715544577687,0.7519796294721465,0.3933260359854557
1790174142091181300,8.224181396484376,-0.6150184869766235,-0.5264571309089661,-0.0464441105723381,0.7396971532116489,0.3322800429537614
1790174142101251300,8.234251220703126,-0.6148959994316101,-0.5048237442970276,-0.0882131308317184,0.7220400274114922,0.34551969291172796
1790174142111321000,8.244321044921875,-0.59983891248703,-0.4910889267921448,-0.0375098101794719,0.7008580896453527,0.33343661914950223
1790174142121392000,8.25439208984375,-0.5366612672805786,-0.5191194415092468,-0.0225337892770767,0.6986003952908615,0.2644911524242442
1790174142131462400,8.26446240234375,-0.4509459137916565,-0.5297914743423462,0.0408927127718925,0.6688068962498709,0.19596115160329072
1790174142141533400,8.274533447265625,-0.3531895279884338,-0.5749360918998718,0.0670087337493896,0.6667780591938297,0.12325397610704818
1790174142151603200,8.284603271484375,-0.3471749126911163,-0.5501007437705994,0.11484906822443,0.6395468691149061,0.16526148667003995
1790174142161674200,8.29467431640625,-0.3241609334945678,-0.4896967709064483,0.0831702351570129,0.5766396114824535,0.13887866908100063
1790174142171744300,8.304744140625,-0.1963404864072799,-0.4633716344833374,0.0087342215701937,0.5019096067881943,0.037760978358147027
1790174142181814300,8.314814208984375,-0.1021495461463928,-0.4097712635993957,0.0349072366952896,0.41216076138182917,0.09843292234111181
1790174142191885300,8.32488525390625,-0.0178884789347648,-0.4204407036304474,-0.0033533393871039,0.38771883221118203,0.16363292755954578
1790174142201955300,8.334955322265625,0.0144944945350289,-0.3496621251106262,0.0218143314123153,0.3088012942071599,0.16610634503129199
1790174142212026400,8.3450263671875,0.0655035004019737,-0.2667454481124878,0.0048235082067549,0.2129496209292936,0.17354990011847912
1790174142222096100,8.35509619140625,0.1556499004364013,-0.1749281883239746,-0.0651933923363685,0.09486498804178753,0.2237801935478758
1790174142232167200,8.365167236328125,0.2503895759582519,-0.1087871342897415,-0.0741654112935066,-0.004813853844314833,0.28285493698895914
1790174142242237400,8.375237548828125,0.3518341481685638,-0.0946460142731666,-0.0892604738473892,-0.06006961598184678,0.3702758556300279
1790174142252307500,8.385307373046874,0.4182271063327789,0.0195310208946466,-0.046991940587759,-0.1934784302140315,0.37425888469185903
1790174142262378200,8.395378173828124,0.4507144689559936,0.1152277216315269,-0.0860637128353118,-0.29196747628571307,0.3722672639610238
1790174142272448300,8.4054482421875,0.4761613607406616,0.1021199598908424,0.0218191947788,-0.29597686737489826,0.3873395137476202
1790174142282519300,8.415519287109374,0.498876541852951,0.0723732486367225,0.0929532945156097,-0.2820758949397163,0.4280060695652058
1790174142292589300,8.42558935546875,0.5713191032409668,0.1299720108509063,0.0487503707408905,-0.3629040020291079,0.46257488614420267
1790174142302659300,8.435659423828126,0.6284234523773193,0.2321162223815918,-0.0278677083551883,-0.47594943238496396,0.47227399163190215
1790174142312730400,8.44573046875,0.6272197961807251,0.2383258044719696,-0.0837689638137817,-0.4784456897210415,0.4778188182606389
1790174142322800400,8.45580029296875,0.6308595538139343,0.203741192817688,-0.1633215695619583,-0.44503688482675763,0.5177937393566743
1790174142332871200,8.46587109375,0.6395936608314514,0.1835813969373703,-0.0436611846089363,-0.43610809201393275,0.5044781575040458
1790174142342941200,8.475941162109375,0.601442813873291,0.1553867906332016,0.0582513324916362,-0.3991355357538615,0.4795441115253504
1790174142353012200,8.48601220703125,0.5490066409111023,0.1725336909294128,0.0996659845113754,-0.39424022087686417,0.43091080629499334
1790174142363082500,8.49608251953125,0.6168914437294006,0.2241502851247787,-0.0305149182677268,-0.46371887351407026,0.46550442559850236
1790174142373152300,8.50615234375,0.7207430005073547,0.2439666986465454,-0.1375833302736282,-0.5208452728989771,0.5715239253931644
1790174142383223300,8.516223388671875,0.6466514468193054,0.2214629799127578,-0.1800655424594879,-0.4669939991370424,0.5306073402211481
1790174142393293300,8.526293212890625,0.488001674413681,0.1202357932925224,-0.0842578187584877,-0.31244844983492803,0.402588656617306
1790174142403364400,8.5363642578125,0.437421053647995,0.1487790048122406,-0.1090574413537979,-0.31555852214522395,0.35466704817843187
1790174142413434400,8.546434326171875,0.5185859799385071,0.1907402724027633,-0.0086004938930273,-0.3927036646310723,0.38880724065479066
1790174142423504400,8.55650439453125,0.5308035016059875,0.2168493717908859,0.0231795385479927,-0.4229783489638367,0.387817759622228
1790174142433575400,8.566575439453125,0.4649909734725952,0.256986916065216,0.0525880865752697,-0.4326068427663856,0.31285093396224645
1790174142443645200,8.576645263671875,0.4419844448566437,0.2017785012722015,0.0166825465857982,-0.3712509738190083,0.3138723225611279
1790174142453716200,8.58671630859375,0.4885938167572021,0.2286026030778885,-0.0786266922950744,-0.41089282272422334,0.35823499673027664
1790174142463786200,8.5967861328125,0.5082383155822754,0.2154207527637481,0.0259127710014581,-0.41220981525637984,0.36805818297449067
1790174142473857300,8.606857177734375,0.4177842140197754,0.2072516530752182,0.0161127280443906,-0.3658697581098025,0.28964778143848985
1790174142483927300,8.61692724609375,0.431076318025589,0.3290683627128601,-0.0492140837013721,-0.4785703217891414,0.2598177292607734
1790174142493997300,8.626997314453124,0.4956238865852356,0.4441519975662231,-0.0895470976829528,-0.6081667261421304,0.2847208278523438
1790174142504068400,8.637068359375,0.4684329926967621,0.38539919257164,-0.0459602065384388,-0.54552820933106,0.2692086917074186
1790174142514138000,8.64713818359375,0.3485353887081146,0.3217010796070099,0.051866702735424,-0.4414860614184396,0.18096605822117817
1790174142524209200,8.657209228515624,0.2823513150215149,0.3436410129070282,0.0586553700268268,-0.4334581288110035,0.11561104552245247
1790174142534279400,8.667279541015626,0.3400210738182068,0.3548870384693146,0.0254949480295181,-0.4666238773959051,0.15643302123607522
1790174142544349200,8.67734912109375,0.3899649381637573,0.3051146864891052,-0.0181758347898721,-0.4408699673459925,0.22612310313424483
1790174142554420200,8.687420166015626,0.3046846091747284,0.2935433387756347,0.0470295846462249,-0.39715003635120216,0.15324501057371923
1790174142564490200,8.697490234375,0.1822593808174133,0.289043664932251,0.0469321124255657,-0.3409694226804748,0.052030741942470315
1790174142574561300,8.707561279296876,0.1181307584047317,0.2632193267345428,0.0786527246236801,-0.2918131527973879,0.06535001907451826
1790174142584631300,8.71763134765625,0.1180399432778358,0.230739951133728,0.0389311425387859,-0.2605735995459059,0.02813158966882238
1790174142594702300,8.727702392578125,0.1936865150928497,0.1669376343488693,0.0015161109622567,-0.23337246842745543,0.10450947068728118
1790174142604772400,8.7377724609375,0.1340117305517196,0.1470251828432083,0.0441312156617641,-0.19196175991844458,0.06836516101307824
1790174142614842400,8.74784228515625,0.0085399718955159,0.1085020750761032,0.0598684884607791,-0.10447504895413892,0.06719249565543203
1790174142624913200,8.7579130859375,0.0157270450145006,0.1568871885538101,0.1023086234927177,-0.15323555274643597,0.1088432344827909
1790174142634983400,8.7679833984375,0.0839364007115364,0.2158602923154831,0.0323263891041278,-0.23230342078413257,0.026853329168561795
1790174142645054500,8.778054443359375,0.0655302256345748,0.2048571705818176,0.0232026651501655,-0.21410065762148836,0.030982945092794565
1790174142655124200,8.788124267578125,0.0080821746960282,0.1513361036777496,0.0204672869294881,-0.1411542651728493,0.05884149116012137
1790174142665194200,8.7981943359375,-0.0587847381830215,0.1153493300080299,0.0787447020411491,-0.08288532784081629,0.12685371064662448
1790174142675265300,8.808265380859375,-0.0612369291484355,0.0607831105589866,0.0491233766078949,-0.031151283281535908,0.0942722212532996
1790174142685335300,8.818335205078125,-0.0393896885216236,0.1293078511953354,-0.0354194715619087,-0.09843905806024862,0.09917841880430131
1790174142695406000,8.828406005859375,-0.0424351096153259,0.1608320772647857,0.0044428203254938,-0.12748707793804162,0.10693212434359962
1790174142705476400,8.838476318359374,-0.0727621242403984,0.1456765830516815,-0.0362686552107334,-0.09898696461098043,0.13428696795105696
1790174142715547400,8.84854736328125,-0.1437446177005767,0.1424659043550491,0.0051684831269085,-0.06780157340442422,0.1907582472222487
1790174142725617400,8.858617431640624,-0.1636970192193985,0.0243584308773279,0.0368286743760108,0.04594954717085911,0.16320244369251616
1790174142735687400,8.8686875,-0.2445194870233535,-0.0086710453033447,0.1469157040119171,0.10507368649122281,0.26534639822932976
1790174142745758200,8.87875830078125,-0.3272684514522552,-0.000628032721579,0.0021731525193899,0.13976673416598076,0.29593076276978214
1790174142755828500,8.888828369140626,-0.3291733860969543,0.0295304618775844,0.0670196264982223,0.11030412065730964,0.318671927843067
1790174142765899500,8.8988994140625,-0.2649928033351898,0.0501550436019897,0.0994071289896965,0.06283961214210883,0.28048114848945477
1790174142775969500,8.908969482421876,-0.1956708282232284,-0.0341853536665439,0.0027390320319682,0.1140518891463448,0.16265109990864762
1790174142786040300,8.919040283203126,-0.2633785009384155,-0.0567127652466297,0.0948053076863288,0.1589422596680089,0.23729723335010247
1790174142796110300,8.9291103515625,-0.3967989385128021,-0.0617151670157909,0.0948090776801109,0.22025253233456538,0.34890649557644815
1790174142806180400,8.939180419921875,-0.3790401816368103,-0.0699536576867103,0.0161078795790672,0.2238032468684512,0.3142237164739295
1790174142816251400,8.94925146484375,-0.2467012554407119,-0.0594859160482883,-0.0231839120388031,0.15984372187514048,0.1984629990669623
1790174142826321400,8.9593212890625,-0.292336106300354,-0.0439482368528842,-0.0150583405047655,0.16484837761263332,0.24585282708679435
1790174142836392400,8.969392333984375,-0.4364043176174164,-0.0798150599002838,0.0074160359799861,0.2575364229837663,0.3613158737841334
1790174142846462500,8.97946240234375,-0.4434313178062439,-0.1295623779296875,0.0662479251623153,0.30274422855409555,0.3551794800543446
1790174142856532200,8.9895322265625,-0.3529532551765442,-0.172698438167572,0.0371796898543834,0.30456783230702345,0.2510408646947871
1790174142866603300,8.999603271484375,-0.3626106679439544,-0.1915197968482971,-0.0385004244744777,0.3292110906790774,0.247525088728761
1790174142876673500,9.009673583984377,-0.5010896921157837,-0.1907515823841095,-0.0216114316135644,0.38667343929791165,0.372058800520354
1790174142886744600,9.01974462890625,-0.4853675067424774,-0.207020565867424,0.0396063849329948,0.39183298295969937,0.3556328310010787
1790174142896814300,9.029814453125,-0.4011823534965515,-0.2479234635829925,0.0248527526855468,0.39365050924483014,0.2609027796696584
1790174142906885400,9.039885498046877,-0.3643601536750793,-0.2377592325210571,-0.0042105889879167,0.3701452662444036,0.2286875273634621
1790174142916955400,9.049955322265625,-0.4141373634338379,-0.1972437798976898,0.0466889105737209,0.35234920421406846,0.29739663273233713
1790174142927025400,9.060025390625,-0.4148905277252197,-0.2369009256362915,0.0448260307312011,0.3885943384700278,0.2815315465513574
1790174142937096400,9.070096435546876,-0.280639111995697,-0.2455738186836242,0.0075509650632739,0.3410240868706603,0.15107746639393324
1790174142947166500,9.08016650390625,-0.1605185568332672,-0.1890050768852234,-0.0305436886847019,0.24054844967878014,0.06751656427742306
1790174142957237500,9.090237548828124,-0.1332132071256637,-0.1746894419193267,-0.0604589469730854,0.21738209332609804,0.06828227764983211
1790174142967307300,9.100307373046874,-0.1779093146324157,-0.1668949127197265,-0.0050505502149462,0.22678294105683355,0.09000356563929827
1790174142977377500,9.11037744140625,-0.2029785215854644,-0.1607865095138549,0.0709752887487411,0.22839340256867136,0.1411613514484109
1790174142987448600,9.120448486328126,-0.2387562245130539,-0.0828347131609916,0.0888786539435386,0.17234403435277806,0.20509284092336158
1790174142997518300,9.130518310546876,-0.1660309731960296,-0.0520296208560466,-0.2007610201835632,0.12703718834176778,0.23332360684295955
1790174143007589400,9.14058935546875,-0.0212940331548452,-0.1040717810392379,-0.1392859369516372,0.1095980929043786,0.13664992396959968
1790174143017659400,9.150659423828126,0.1011972427368164,-0.1017203107476234,0.0340187549591064,0.047265551087949845,0.1396823071310298
1790174143027730400,9.16073046875,0.095686100423336,-0.0760801956057548,0.1066452860832214,0.02305885706815812,0.16057874122098806
1790174143037800200,9.17080029296875,0.05751234292984,-0.0358278453350067,0.1479000598192215,0.0010106917365623434,0.16267977836034697
1790174143047870500,9.180870361328124,0.0956210196018219,-0.0008938498795032,-0.0239925421774387,-0.03877572612915323,0.09064360705859059
1790174143057941500,9.19094140625,0.163088172674179,0.0259317103773355,-0.0912208035588264,-0.0886044633170191,0.166555365423987
1790174143068011300,9.20101123046875,0.2013149112462997,0.0116100274026393,0.0423644259572029,-0.09815331918149203,0.18117162235497877
1790174143078082300,9.211082275390623,0.1828369349241256,-0.0190178006887435,0.1469922065734863,-0.06748198483876554,0.22548594641584382
1790174143088152300,9.22115234375,0.1536457687616348,-0.005223159212619,0.1258789300918579,-0.06653988139784871,0.18722246893774583
1790174143098222600,9.23122265625,0.1299222409725189,0.0402328185737133,0.0045655770227313,-0.09187146065397998,0.10039396197262711
1790174143108293400,9.24129345703125,0.1856004297733307,0.075642742216587,-0.0677813217043876,-0.1442015487003676,0.15482107384493654
1790174143118363400,9.25136328125,0.2871443033218384,0.0673172324895858,-0.0459023267030715,-0.18091832400403424,0.2374005988968176
1790174143128434400,9.261434326171877,0.2520414590835571,0.1231280416250228,-0.0114519419148564,-0.2180168154957192,0.17687630385698505
1790174143138504400,9.27150439453125,0.2498286217451095,0.1323010921478271,0.0112877795472741,-0.22642337562078335,0.1696401726188887
1790174143148575200,9.2815751953125,0.2289747297763824,0.14153853058815,0.001499330624938,-0.22543901544218276,0.14711247678562875
1790174143158645500,9.2916455078125,0.224328339099884,0.1424599885940551,-0.0164418760687112,-0.22345860843280407,0.14475716797265845
1790174143168715500,9.301715576171874,0.2425299733877182,0.1563885807991027,-0.0153124304488301,-0.24384579016403612,0.15508667686597682
1790174143178786300,9.311786376953124,0.2694961428642273,0.144516184926033,0.0774203315377235,-0.24891280106811642,0.1937767373141232
1790174143188856300,9.321856201171874,0.2501043379306793,0.1317327320575714,0.1416656374931335,-0.23209795547400613,0.21472164413076184
1790174143198927400,9.33192724609375,0.2246848493814468,0.1332201361656189,0.0794043242931366,-0.21972331365238473,0.16204196485976974
1790174143208997400,9.341997314453126,0.2488668859004974,0.1504862010478973,-0.0179800186306238,-0.24108492868714132,0.16365256439638498
1790174143219068400,9.352068359375,0.1745771914720535,0.1668031215667724,-0.0160154085606336,-0.22430078267381798,0.09080820089598833
1790174143229138400,9.362138427734376,0.1237922981381416,0.1337263882160186,0.0421895757317543,-0.17550349119485975,0.0646974872963786
1790174143239208400,9.37220849609375,0.1320113092660904,0.1304425299167633,0.1544746309518814,-0.18126266438881714,0.15952585211062206
1790174143249279500,9.382279541015626,0.1747579723596573,0.144379660487175,0.1309493333101272,-0.21095703545128663,0.15501836134349392
1790174143259349200,9.392349365234375,0.1473003923892974,0.1609781086444854,0.0555899739265441,-0.2107607151610706,0.0792560610095193
1790174143269420300,9.402420166015624,0.1002793684601783,0.1998024731874466,-0.0642120614647865,-0.22025325979906393,0.0747574104422839
1790174143279490600,9.412490478515624,0.0388740375638008,0.1947984099388122,-0.139920949935913,-0.18606895538756782,0.15624924762426504
1790174143289560300,9.422560302734375,-0.0112871304154396,0.1364006102085113,-0.068635307252407,-0.11526380737873093,0.10078484949862505
1790174143299631400,9.43263134765625,-0.0577763691544532,0.1156107038259506,-0.0016801892779767,-0.07980587550325913,0.10167491796392782
1790174143309701400,9.442701416015623,-0.0457458049058914,0.0761999115347862,-0.0479345023632049,-0.047157687646872316,0.08929151245782123
1790174143319772400,9.4527724609375,-0.091150552034378,0.0352611057460308,-0.0556635558605194,0.009524570514658298,0.11206909798045615
1790174143329842400,9.462842529296877,-0.1766582578420639,-0.0135266752913594,-0.0538640581071376,0.08992584356505749,0.1618820262509489
1790174143339913500,9.47291357421875,-0.2486752718687057,-0.0572401955723762,-0.039357990026474,0.1594076366611564,0.20311102279582793
1790174143349983500,9.4829833984375,-0.2309564650058746,-0.0833093449473381,0.0174347162246704,0.1727796986691931,0.17530681886675706
1790174143360053200,9.49305322265625,-0.2268022447824478,-0.1028075069189071,-0.008566228672862,0.18984248325420952,0.161374885105426
1790174143370124300,9.503124267578125,-0.2436406016349792,-0.1436129808425903,0.0071112685836851,0.23315520225060632,0.1602331202838446
1790174143380194300,9.5131943359375,-0.2906201779842376,-0.170414000749588,0.0234354510903358,0.2766115858220723,0.19374279460118354
1790174143390265300,9.523265380859376,-0.3187665939331054,-0.147903099656105,0.0713696852326393,0.26601709823912156,0.24044958662938185
1790174143400335400,9.53333544921875,-0.2970724999904632,-0.1617331504821777,0.0972944796085357,0.2680740487788552,0.22806183887069367
1790174143410405400,9.5434052734375,-0.2963350713253021,-0.1828403025865554,0.0309306383132934,0.28992464197006684,0.19530862016898118
1790174143420476400,9.553476318359374,-0.3200611770153045,-0.1992379128932953,0.0211587008088827,0.31529694475541187,0.20777495088273032
1790174143430546200,9.563546142578126,-0.3097720444202423,-0.1994315236806869,0.0309578031301498,0.3106361049709939,0.20048752580894327
1790174143440617200,9.5736171875,-0.2718057632446289,-0.1782882660627365,0.0221270527690649,0.2757801403055907,0.17349351407452113
1790174143450687500,9.5836875,-0.2443701326847076,-0.1597809046506881,0.0670154318213462,0.24528718811807454,0.17196500424988717
1790174143460758500,9.593758544921876,-0.2026017010211944,-0.1576542854309082,0.0563985332846641,0.22608119161697587,0.13405376654582044
1790174143470828300,9.603828369140626,-0.1770425587892532,-0.1364952176809311,-0.0672014355659484,0.20183603571923014,0.11727429257804502
1790174143480898300,9.613898193359375,-0.174122929573059,-0.0852301642298698,-0.0258289631456136,0.15233908848679406,0.12264955341926544
1790174143490969300,9.62396923828125,-0.1438334584236145,-0.1048363521695137,-0.0448095798492431,0.15804824985907165,0.09331330913143146
1790174143501039600,9.63403955078125,-0.0626131668686866,-0.1280202269554138,-0.0766772329807281,0.1459121205900091,0.0699902728780875
1790174143511110400,9.6441103515625,-0.0013109291903674,-0.0918289422988891,-0.028097178786993,0.08485129427907971,0.04498869295754353
1790174143521180400,9.654180419921875,0.0010031095007434,-0.0537260994315147,0.0069718062877655,0.0478001992079462,0.02551954206858485
1790174143531250400,9.66425048828125,0.0298936143517494,-0.0337119102478027,-0.0509191900491714,0.02011204283245026,0.06494913948572639
1790174143541321200,9.6743212890625,0.0785084590315818,0.0324199125170707,-0.09706312417984,-0.0581947725191813,0.11510537517474957
1790174143551391500,9.6843916015625,0.1398690044879913,0.0595346167683601,-0.060247853398323,-0.11053018298169462,0.12050141700144508
1790174143561462500,9.694462646484377,0.2061441540718078,0.0484944321215152,0.0525654591619968,-0.13401597013497252,0.1721916648693054
1790174143571532500,9.704532470703125,0.2134473323822021,0.0880074799060821,0.1171609610319137,-0.17583991705651306,0.1900318251766738
1790174143581603300,9.714603271484377,0.3037146329879761,0.089702121913433,0.1075017601251602,-0.2153434634214501,0.25587666982055135
1790174143591673300,9.72467333984375,0.3112098574638366,0.1088055074214935,0.040115263313055,-0.23265958428067568,0.23699992831418557
1790174143601743400,9.734743408203125,0.2010504454374313,0.1921057701110839,-0.0096676247194409,-0.2587303606979222,0.10236196530646118
1790174143611814400,9.744814453125,0.1855319440364837,0.1763678193092346,0.0149450451135635,-0.23904878336448515,0.09277253629850624
1790174143621884400,9.754884521484374,0.2606492340564728,0.1310673207044601,0.0197308510541915,-0.23030731195390786,0.18017911731041358
1790174143631955500,9.76495556640625,0.2022056579589843,0.1579791009426117,0.0255157686769962,-0.23002036402408987,0.11655990318572171
1790174143642025500,9.775025390625,0.1397169381380081,0.1658004522323608,0.1177644953131675,-0.2147858213554607,0.1214336858706863
1790174143652095200,9.78509521484375,0.2192501127719879,0.1419004499912262,0.0062337042763829,-0.22184728719618713,0.13794560482646687
1790174143662166300,9.795166259765624,0.1643072217702865,0.143158420920372,-0.0248557440936565,-0.1981502722685179,0.09405038128921173
1790174143672236500,9.805236572265626,0.1280421614646911,0.169342890381813,-0.0306406635791063,-0.20610751600568883,0.0594167631729418
1790174143682307600,9.8153076171875,0.111612468957901,0.1805151551961898,0.005561139434576,-0.21089624765304305,0.02442874290789513
1790174143692377300,9.82537744140625,0.1018554419279098,0.1658547222614288,-0.068334124982357,-0.19005388941099488,0.08019595815004153
1790174143702448400,9.835448486328126,0.1120948567986488,0.1581500619649887,-0.0849864408373832,-0.18667422859897154,0.09976034544559428
1790174143712518400,9.845518310546876,0.096829354763031,0.1577087789773941,-0.0430507026612758,-0.18173042447151624,0.05545627765544288
1790174143722589000,9.8555888671875,0.1187737584114074,0.1315222531557083,0.058136947453022,-0.17211807937031487,0.07183717822517133
1790174143732659700,9.86565966796875,0.0719221010804176,0.1096377149224281,0.085659384727478,-0.13368055438287668,0.08161039596160692
1790174143742730000,9.87572998046875,-0.0099212704226374,0.0895299091935157,0.0419706664979457,-0.07863873972836521,0.06075789419667606
1790174143752801000,9.885801025390624,-0.0762752667069435,0.0661412328481674,-0.0494806878268718,-0.025001022079855044,0.10961690725738343
1790174143762871000,9.89587109375,-0.0713736563920974,0.0499408766627311,0.0457296632230281,-0.016880576238114904,0.09692542614288607
1790174143772941800,9.90594189453125,-0.0945567414164543,0.0295517146587371,0.0056602736003696,0.013278476339091575,0.09833616806604195
1790174143783011800,9.91601171875,-0.1601997911930084,0.010733176022768,-0.0823472514748573,0.062323233187630646,0.16934006789984116
1790174143793082000,9.92608203125,-0.1930935680866241,-0.0173498578369617,-0.0409745126962661,0.09977625535545019,0.17120091460423623
1790174143803153200,9.936153076171877,-0.2081399708986282,-0.0186420455574989,-0.0405179783701896,0.10732717126327213,0.18382697905389478
1790174143813223000,9.946222900390625,-0.2067673802375793,-0.0734437778592109,0.0539027974009513,0.151870215554589,0.16729520982860058
1790174143823294000,9.9562939453125,-0.2119018733501434,-0.0903919488191604,0.0540476404130458,0.16936485741513618,0.1652567724711893
1790174143833364000,9.966364013671877,-0.2360261231660843,-0.1095310226082801,0.0171804372221231,0.1986457141191827,0.1689391115628658
1790174143843434000,9.97643408203125,-0.2614165246486664,-0.1575046926736831,-0.0271925553679466,0.25487256729274793,0.1700756804562624
1790174143853505000,9.986505126953125,-0.2797393500804901,-0.1605550795793533,0.0146984346210956,0.2634776153810013,0.1866216164747248
1790174143863575000,9.996574951171874,-0.271188884973526,-0.1826115846633911,-0.0200972594320774,0.2813906236397916,0.16767116314604766
1790174143873646000,10.00664599609375,-0.2657232582569122,-0.2023778408765792,-0.0490415580570697,0.2982745409517378,0.15812341095875296
1790174143883715800,10.0167158203125,-0.2999091148376465,-0.2127425074577331,-0.0190559737384319,0.32079582504562304,0.18071530209288336
1790174143893787000,10.026786865234374,-0.3148214817047119,-0.2170227319002151,0.0349904857575893,0.3284946189911945,0.1988141113994803
1790174143903857000,10.03685693359375,-0.2800968885421753,-0.2480973154306411,-0.0599396713078022,0.34621635117312843,0.1540569611272117
1790174143913927000,10.046927001953126,-0.2223118841648101,-0.2520755529403686,-0.048123225569725,0.3246653017172755,0.09936269386024937
1790174143923998000,10.056998046875,-0.1384690403938293,-0.242159754037857,0.0137138972058892,0.2771377941640723,0.0346083175798725
1790174143934068000,10.06706787109375,-0.1244642660021781,-0.2443624585866928,-0.0499516315758228,0.2761317755897277,0.038089010025795164
1790174143944139000,10.077138916015626,-0.1377816796302795,-0.223687008023262,0.0359137430787086,0.2591178635802076,0.05627964566068493
1790174143954208800,10.087208740234376,-0.138699933886528,-0.2039434015750885,0.0339368768036365,0.241758642075126,0.05945631417537888
1790174143964279000,10.097279052734375,-0.1369132399559021,-0.1862308084964752,-0.0510216653347015,0.22894739417564525,0.06011198168569441
1790174143974350000,10.10735009765625,-0.0769276767969131,-0.2037874311208725,-0.0901568159461021,0.22110283554436022,0.08178613645354334
1790174143984419800,10.117419921875,-0.0187757089734077,-0.1620605885982513,0.0047678565606474,0.15422250728197517,0.053425764646935874
1790174143994491000,10.127490966796875,0.0198308043181896,-0.1331849992275238,-0.0001470074057579,0.11192405374616352,0.07486342647344624
1790174144004561000,10.137560791015623,0.0037037471774965,-0.1420941650867462,-0.0375942252576351,0.12858327096282013,0.07130313945457156
1790174144014632000,10.1476318359375,0.0557562969624996,-0.0997539088129997,-0.0119626298546791,0.06697132214580465,0.09336783973898946
1790174144024702000,10.157701904296877,0.1147872358560562,-0.0675487145781517,-0.015044548548758,0.012885019061982292,0.13341384141625923
1790174144034772000,10.16777197265625,0.1327651739120483,-0.0693772360682487,0.0285527277737855,0.004855167385975363,0.15241875836439558
1790174144044843000,10.177843017578123,0.1536693423986435,-0.0437137782573699,0.1051612496376037,-0.03080159726130393,0.18877317403238436
1790174144054913000,10.1879130859375,0.1457594931125641,-0.0360254980623722,0.0979739129543304,-0.034047968102157856,0.17602070852820345
1790174144064983800,10.19798388671875,0.1547038853168487,-0.0464309565722942,-0.030088061466813,-0.022488779773254454,0.16275340883523065
1790174144075053800,10.2080537109375,0.1485999077558517,0.0059795212000608,-0.0685262605547905,-0.0654637171205928,0.1500934288541895
1790174144085124000,10.2181240234375,0.2231315523386001,0.0034027965739369,-0.0028185220435261,-0.09791880021631333,0.20054705508748963
1790174144095195000,10.22819482421875,0.2373200803995132,0.0232662502676248,0.0563321523368358,-0.124662771946555,0.2109375349240833
1790174144105265000,10.238264892578124,0.2473919987678527,0.0228799395263195,0.0670992061495781,-0.1291020853837849,0.2226235560369629
1790174144115336000,10.2483359375,0.2763107120990753,0.0253915674984455,0.1654569506645202,-0.1482608214861158,0.2870314837368712
1790174144125406000,10.258406005859374,0.3042655885219574,0.0156816598027944,0.0645405203104019,-0.14668591571804301,0.2747220116857771
1790174144135476700,10.268476806640624,0.2530090510845184,0.0670037046074867,0.0147157050669193,-0.16892805717416712,0.20045682786274363
1790174144145547000,10.278547119140624,0.2339986264705658,0.0999859943985939,0.0201557166874408,-0.1908954622820512,0.16946306872381775
1790174144155617000,10.288616943359376,0.2486763745546341,0.1096993386745452,-0.0483381226658821,-0.20273153398121457,0.18737764914672922
1790174144165688000,10.29868798828125,0.2642686069011688,0.0875226333737373,-0.0615161657333374,-0.18871379175952846,0.2137041211404939
1790174144175757800,10.3087578125,0.2551637887954712,0.1092220693826675,0.0195296853780746,-0.2082217293816429,0.18456202094953475
1790174144185828900,10.318828857421876,0.2558396160602569,0.1054582372307777,0.0557699389755725,-0.20679552220719138,0.19214902298496536
1790174144195899100,10.328899169921876,0.2072081863880157,0.0763418972492218,0.0473684668540954,-0.15939238822954338,0.16000361248550435
1790174144205970200,10.33897021484375,0.1624298095703125,0.0872386470437049,-0.0666334107518196,-0.14487164328986077,0.13208422681751278
1790174144216040000,10.3490400390625,0.1470053195953369,0.0867646038532257,-0.0481683760881423,-0.13873768432725878,0.11050207180688035
1790174144226110000,10.35910986328125,0.153088092803955,0.0689313262701034,-0.1144511550664901,-0.12212465944140602,0.1623949702179293
1790174144236181000,10.369180908203123,0.1301015615463256,0.0794665366411209,-0.1409333646297454,-0.12062801643357804,0.16897467762859664
1790174144246250800,10.379250732421877,0.0971181839704513,0.0625235438346862,-0.146307498216629,-0.09102731625655354,0.1626685185304908
1790174144256321800,10.38932177734375,0.0730610564351081,0.048794150352478,-0.1884016841650009,-0.06642032358043327,0.19698305076253025
1790174144266392000,10.39939208984375,0.0643456131219863,0.0485084950923919,0.0030092578381299,-0.07136524550813098,0.03754316702774933
1790174144276461800,10.4094619140625,0.0755657777190208,0.0281419698148965,0.1169672533869743,-0.06304228964645753,0.12731522025416997
1790174144286532900,10.419532958984377,0.0611872784793376,-0.0066291810944676,0.0971102863550186,-0.02457515475156187,0.11231339445757017
1790174144296603000,10.429602783203125,0.0001180642284452,0.0039076153188943,-0.0451057069003582,-0.001481252969203809,0.04525056995513694
1790174144306674000,10.439673828125,0.0042784712277352,0.0117070470005273,-0.0469577051699161,-0.010214153718480671,0.04749797263209374
1790174144316744000,10.449743896484376,0.0020624550525099,-0.0033488678745925,-0.0615981668233871,0.005016691201669029,0.06151939208309869
1790174144326815000,10.45981494140625,-0.0452926158905029,-0.0442631393671035,0.0403469577431678,0.0574001152516437,0.048412295226143244
1790174144336885000,10.469885009765624,-0.0923173800110817,-0.087777592241764,0.1103044748306274,0.11348216027012069,0.12456436416551489
1790174144346954800,10.479954833984374,-0.1130353063344955,-0.1101202294230461,0.0963179618120193,0.14314275805977125,0.1170074612534643
1790174144357025800,10.49002587890625,-0.1533957868814468,-0.1026111841201782,0.0640766695141792,0.15503742749735555,0.11886352758754438
1790174144367096000,10.500095947265624,-0.1822776943445205,-0.0927823930978775,-0.0065912106074392,0.16173923414151453,0.12536983098461718
