time,seconds_elapsed,z,y,x
1791114716813359400,0.063359375,-0.3394927978515625,-0.9534759521484375,-0.072021484375
1791114716823430400,0.073430419921875,-0.226593017578125,-0.96221923828125,-0.0650177001953125
1791114716833501400,0.08350146484375,-0.15533447265625,-0.9643707275390625,-0.2028350830078125
1791114716843572200,0.093572265625,-0.6160888671875,-0.77166748046875,-0.1845245361328125
1791114716853643300,0.103643310546875,-0.8555145263671875,-0.80450439453125,-0.229339599609375
1791114716863714300,0.11371435546875,-0.6364288330078125,-0.9445953369140625,-0.0943603515625
1791114716873785300,0.123785400390625,-0.4498138427734375,-1.037872314453125,0.0352935791015625
1791114716883856400,0.1338564453125,-0.514007568359375,-0.921783447265625,0.0186309814453125
1791114716893927400,0.143927490234375,-0.26025390625,-0.8798675537109375,-0.075592041015625
1791114716903998200,0.153998291015625,-0.2614593505859375,-0.855682373046875,-0.0968475341796875
1791114716914069200,0.1640693359375,-0.4556884765625,-0.822235107421875,-0.154388427734375
1791114716924140300,0.174140380859375,-0.342193603515625,-0.80523681640625,-0.214996337890625
1791114716934211300,0.18421142578125,-0.3079833984375,-0.8191986083984375,-0.098419189453125
1791114716944282400,0.194282470703125,-0.4249114990234375,-0.8755950927734375,-0.0301513671875
1791114716954353400,0.204353515625,-0.738037109375,-0.809967041015625,-0.05963134765625
1791114716964424200,0.214424072265625,-0.5821075439453125,-0.9116058349609375,-0.037200927734375
1791114716974494200,0.224494140625,-0.230987548828125,-0.8917694091796875,0.2112579345703125
1791114716984565200,0.234565185546875,-0.2053070068359375,-0.662353515625,0.201019287109375
1791114716994636300,0.24463623046875,-0.339324951171875,-0.6143951416015625,0.006439208984375
1791114717004707300,0.254707275390625,-0.4342498779296875,-0.7567291259765625,0.01812744140625
1791114717014778000,0.264778076171875,-0.53729248046875,-0.97747802734375,-0.033294677734375
1791114717024849200,0.27484912109375,-0.7164154052734375,-0.99542236328125,0.0381011962890625
1791114717034920200,0.284920166015625,-0.617431640625,-0.9102325439453125,0.094451904296875
1791114717044991200,0.2949912109375,-0.694976806640625,-0.77325439453125,0.1860504150390625
1791114717055062300,0.305062255859375,-0.67645263671875,-0.7820892333984375,0.116973876953125
1791114717065133300,0.31513330078125,-0.085418701171875,-0.811614990234375,0.0586700439453125
1791114717075204000,0.3252041015625,0.430908203125,-0.848663330078125,0.0889739990234375
1791114717085275100,0.335275146484375,0.1346435546875,-0.8147735595703125,0.0473175048828125
1791114717095346200,0.34534619140625,-0.68121337890625,-0.9095611572265625,-0.1492156982421875
1791114717105417200,0.355417236328125,-1.5040740966796875,-1.062103271484375,-0.143585205078125
1791114717115488300,0.36548828125,-1.3561859130859375,-1.24468994140625,-0.004486083984375
1791114717125559300,0.375559326171875,-0.60235595703125,-1.2576751708984375,0.1338958740234375
1791114717135630000,0.385630126953125,-0.006927490234375,-0.943939208984375,0.3271636962890625
1791114717145701000,0.395701171875,-0.02008056640625,-0.662567138671875,0.2758331298828125
1791114717155771100,0.405771240234375,-0.1381378173828125,-0.7156982421875,-0.0003509521484375
1791114717165842200,0.41584228515625,-0.289031982421875,-0.9689788818359375,-0.17901611328125
1791114717175913200,0.425913330078125,-0.4671173095703125,-1.1237335205078125,-0.0712127685546875
1791114717185984300,0.435984375,-0.86834716796875,-1.0511474609375,-0.0311431884765625
1791114717196055300,0.44605517578125,-1.0287322998046875,-0.8725738525390625,-0.158538818359375
1791114717206126300,0.456126220703125,-0.57598876953125,-0.8950653076171875,-0.1974639892578125
1791114717216197400,0.466197265625,0.08221435546875,-0.9378509521484375,-0.0402069091796875
1791114717226268400,0.476268310546875,0.144378662109375,-0.8403778076171875,0.1479644775390625
1791114717236339500,0.48633935546875,-0.39404296875,-0.718414306640625,0.0236968994140625
1791114717246410200,0.49641015625,-1.098663330078125,-0.7541351318359375,-0.1722412109375
1791114717256481300,0.506481201171875,-0.9003143310546875,-1.10528564453125,-0.2213592529296875
1791114717266552300,0.51655224609375,-0.45050048828125,-1.1688079833984375,-0.000823974609375
1791114717276623400,0.526623291015625,-0.157470703125,-0.8600616455078125,0.100067138671875
1791114717286694400,0.5366943359375,-0.15338134765625,-0.65673828125,-0.02911376953125
1791114717296765400,0.546765380859375,-0.6921844482421875,-0.55511474609375,-0.0444183349609375
1791114717306836200,0.556836181640625,-0.781951904296875,-0.7494964599609375,-0.2143096923828125
1791114717316907300,0.5669072265625,-0.283843994140625,-1.1027069091796875,-0.1500244140625
1791114717326977300,0.576977294921875,0.06402587890625,-1.18115234375,-0.0352783203125
1791114717337048300,0.58704833984375,-0.321533203125,-0.9424285888671875,-0.0754241943359375
1791114717347119400,0.597119384765625,-0.8036041259765625,-0.7877197265625,-0.2998199462890625
1791114717357190100,0.607190185546875,-0.788482666015625,-0.92498779296875,-0.208282470703125
1791114717367261200,0.61726123046875,-0.3763580322265625,-1.1199493408203125,0.044525146484375
1791114717377332200,0.627332275390625,-0.3030548095703125,-1.025115966796875,0.1436614990234375
1791114717387403300,0.6374033203125,-0.6073455810546875,-0.8199462890625,-0.07781982421875
1791114717397474300,0.647474365234375,-0.47100830078125,-0.8432464599609375,-0.302520751953125
1791114717407545300,0.65754541015625,-0.1426849365234375,-1.017547607421875,-0.2416534423828125
1791114717417616100,0.6676162109375,-0.1878509521484375,-1.055145263671875,-0.0312652587890625
1791114717427687200,0.677687255859375,-0.2474365234375,-0.9944000244140625,-0.1007080078125
1791114717437758200,0.68775830078125,-0.321136474609375,-0.8322906494140625,-0.154052734375
1791114717447829200,0.697829345703125,-0.6136016845703125,-0.7862091064453125,-0.1244964599609375
1791114717457900300,0.707900390625,-0.5998382568359375,-0.87908935546875,-0.005828857421875
1791114717467971300,0.717971435546875,-0.6804656982421875,-0.955169677734375,-0.009521484375
1791114717478042000,0.7280419921875,-0.6055755615234375,-0.995391845703125,-0.0163421630859375
1791114717488113200,0.738113037109375,-0.430084228515625,-0.87274169921875,-0.1436004638671875
1791114717498184200,0.74818408203125,-0.1472930908203125,-0.7700653076171875,-0.106536865234375
1791114717508255200,0.758255126953125,0.1607513427734375,-0.8110809326171875,-0.005218505859375
1791114717518325200,0.7683251953125,-0.339630126953125,-0.7184295654296875,-0.05560302734375
1791114717528396000,0.77839599609375,-1.0513916015625,-0.73541259765625,-0.2205047607421875
1791114717538467000,0.788467041015625,-1.1410064697265625,-0.933441162109375,-0.1992340087890625
1791114717548538000,0.7985380859375,-0.7702484130859375,-1.0262908935546875,-0.0088653564453125
1791114717558609200,0.808609130859375,-0.2502288818359375,-0.99798583984375,0.1521148681640625
1791114717568680200,0.81868017578125,-0.0149383544921875,-0.844635009765625,0.1774444580078125
1791114717578751200,0.828751220703125,-0.105072021484375,-0.7410125732421875,0.0547943115234375
1791114717588822300,0.838822265625,-0.39642333984375,-0.7328338623046875,-0.1429443359375
1791114717598893000,0.84889306640625,-0.740875244140625,-0.8550262451171875,-0.0706939697265625
1791114717608964000,0.858964111328125,-0.9021759033203125,-1.01593017578125,-0.0207366943359375
1791114717619035100,0.86903515625,-0.69720458984375,-1.042694091796875,0.0178985595703125
1791114717629106700,0.879106689453125,-0.2145843505859375,-1.031982421875,0.075286865234375
1791114717639177700,0.889177734375,-0.0699462890625,-0.9478759765625,0.14703369140625
1791114717649248500,0.89924853515625,-0.4716644287109375,-0.8289337158203125,0.1759796142578125
1791114717659319600,0.909319580078125,-0.69232177734375,-0.8262786865234375,-0.0084228515625
1791114717669390600,0.919390625,-0.3572235107421875,-0.978179931640625,-0.13055419921875
1791114717679461600,0.929461669921875,-0.1978912353515625,-0.97918701171875,-0.092864990234375
1791114717689532700,0.93953271484375,-0.109954833984375,-0.8881683349609375,-0.107574462890625
1791114717699602700,0.949602783203125,-0.003631591796875,-0.7985076904296875,-0.1272735595703125
1791114717709673700,0.959673828125,-0.447601318359375,-0.7572784423828125,-0.1728973388671875
1791114717719744800,0.969744873046875,-0.793731689453125,-0.845733642578125,-0.1364288330078125
1791114717729815800,0.97981591796875,-0.6690521240234375,-0.9593505859375,-0.1362152099609375
1791114717739886800,0.989886962890625,-0.3029937744140625,-0.9123992919921875,-0.0867767333984375
1791114717749958000,0.9999580078125,-0.1285858154296875,-0.8146820068359375,0.055389404296875
1791114717760028700,1.010028564453125,-0.3394927978515625,-0.6997528076171875,0.039520263671875
1791114717770099700,1.020099609375,-0.50152587890625,-0.8123321533203125,-0.0760955810546875
1791114717780170800,1.030170654296875,-0.8743743896484375,-0.9513397216796875,-0.101531982421875
1791114717790241800,1.04024169921875,-0.94085693359375,-1.046844482421875,-0.09588623046875
1791114717800312800,1.050312744140625,-0.7412872314453125,-1.0579071044921875,0.0108642578125
1791114717810384000,1.0603837890625,-0.5436248779296875,-0.952911376953125,0.08502197265625
1791114717820454700,1.07045458984375,-0.0586700439453125,-0.827606201171875,0.031219482421875
1791114717830525700,1.080525634765625,0.2081298828125,-0.6608123779296875,0.0023345947265625
1791114717840596700,1.0905966796875,0.143768310546875,-0.708343505859375,-0.095550537109375
1791114717850667800,1.100667724609375,-0.4613189697265625,-0.85748291015625,-0.1472625732421875
1791114717860738800,1.11073876953125,-1.015594482421875,-0.96551513671875,-0.1961212158203125
1791114717870809900,1.120809814453125,-1.051483154296875,-1.1748199462890625,-0.1016082763671875
1791114717880879600,1.130879638671875,-0.7108001708984375,-1.2012786865234375,0.0366668701171875
1791114717890950700,1.14095068359375,-0.4481964111328125,-1.003936767578125,0.1485748291015625
1791114717901021700,1.151021728515625,-0.638946533203125,-0.740142822265625,0.187896728515625
1791114717911092700,1.1610927734375,-0.746612548828125,-0.7862091064453125,0.070343017578125
1791114717921163800,1.171163818359375,-0.8327789306640625,-1.10357666015625,-0.0285491943359375
1791114717931234600,1.181234619140625,-1.3702545166015625,-1.3687591552734375,-0.044647216796875
1791114717941305600,1.1913056640625,-1.55853271484375,-1.3297119140625,-0.0315704345703125
1791114717951376600,1.201376708984375,-0.2039337158203125,-1.156280517578125,0.0013580322265625
1791114717961447700,1.21144775390625,1.450439453125,-0.734649658203125,0.1528167724609375
1791114717971518700,1.221518798828125,2.63037109375,-0.4241790771484375,0.025238037109375
1791114717981589800,1.23158984375,2.264984130859375,0.125823974609375,-0.16314697265625
1791114717991660500,1.24166064453125,0.9314727783203125,0.6146392822265625,-0.143096923828125
1791114718001731600,1.251731689453125,-0.27667236328125,0.2228240966796875,-0.1656494140625
1791114718011802600,1.261802734375,-2.44598388671875,-1.0235443115234375,-0.2372283935546875
1791114718021873700,1.271873779296875,-4.4021759033203125,-1.978485107421875,-0.0180511474609375
1791114718031944700,1.28194482421875,-1.48248291015625,-2.361541748046875,-0.1281280517578125
1791114718042015700,1.292015625,0.8538970947265625,-2.116119384765625,-0.2804412841796875
1791114718052086500,1.30208642578125,-0.7674713134765625,-0.796600341796875,0.813323974609375
1791114718062156800,1.31215673828125,-1.620391845703125,0.34429931640625,1.116241455078125
1791114718072227800,1.322227783203125,-0.6536102294921875,0.0762481689453125,0.3777618408203125
1791114718082299000,1.332298828125,-0.7550048828125,-1.05322265625,0.196258544921875
1791114718092370000,1.342369873046875,-0.330902099609375,-1.8031005859375,-0.0560302734375
1791114718102440700,1.352440673828125,-0.3317718505859375,-1.471466064453125,-0.210845947265625
1791114718112511700,1.36251171875,-1.1080474853515625,-0.8717803955078125,-0.026397705078125
1791114718122582800,1.372582763671875,-0.587310791015625,-0.8784637451171875,-0.0777587890625
1791114718132653800,1.38265380859375,1.06591796875,-1.2743377685546875,-0.2098846435546875
1791114718142724900,1.392724853515625,0.8473052978515625,-1.090484619140625,-0.14837646484375
1791114718152796000,1.4027958984375,-0.3914794921875,-0.8625946044921875,-0.4659576416015625
1791114718162866700,1.41286669921875,-1.4840087890625,-1.183258056640625,-0.6624908447265625
1791114718172937700,1.422937744140625,-1.413330078125,-1.623779296875,-0.3234405517578125
1791114718183008800,1.4330087890625,-0.759796142578125,-1.46435546875,-0.046844482421875
1791114718193079800,1.443079833984375,-1.7899017333984375,-0.558929443359375,0.1529541015625
1791114718203150800,1.45315087890625,-3.005340576171875,0.3746795654296875,0.194244384765625
1791114718213222000,1.463221923828125,-1.763458251953125,0.2308807373046875,-0.461639404296875
1791114718223292700,1.473292724609375,0.92913818359375,-1.0766448974609375,-0.4095001220703125
1791114718233363700,1.48336376953125,3.6797943115234375,-2.331298828125,0.2148284912109375
1791114718243433700,1.493433837890625,3.80908203125,-1.39447021484375,-0.5053558349609375
1791114718253504800,1.5035048828125,0.83966064453125,0.6636962890625,-0.5847625732421875
1791114718263575800,1.513575927734375,-1.7976531982421875,1.2779693603515625,-0.3284759521484375
1791114718273646600,1.523646484375,-2.8341827392578125,-0.955596923828125,0.2884979248046875
1791114718283717600,1.533717529296875,-2.512451171875,-2.8254852294921875,0.032379150390625
1791114718293788700,1.54378857421875,-2.5208282470703125,-2.7400665283203125,-0.2378692626953125
1791114718303859700,1.553859619140625,-0.598388671875,-2.3393402099609375,-0.3130340576171875
1791114718313930800,1.5639306640625,1.3723907470703125,-1.3031158447265625,0.2586822509765625
1791114718324001800,1.574001708984375,2.3227996826171875,0.20953369140625,0.818878173828125
1791114718334072600,1.584072509765625,1.090484619140625,1.3399200439453125,0.6753082275390625
1791114718344143600,1.5941435546875,0.6142578125,0.81768798828125,-0.014129638671875
1791114718354214700,1.604214599609375,-0.67730712890625,-0.7608184814453125,0.02398681640625
1791114718364285700,1.61428564453125,-3.9776153564453125,-1.7678375244140625,-0.1196441650390625
1791114718374356700,1.624356689453125,-3.4879913330078125,-2.3834381103515625,-0.709320068359375
1791114718384427800,1.634427734375,-0.7549896240234375,-2.4557037353515625,-0.5313262939453125
1791114718394498600,1.64449853515625,0.70245361328125,-1.3059844970703125,0.31439208984375
1791114718404569600,1.654569580078125,1.1060333251953125,0.1212005615234375,0.5774688720703125
1791114718414640600,1.664640625,1.3182220458984375,-0.0269927978515625,0.09857177734375
1791114718424710700,1.674710693359375,1.426177978515625,-0.8120880126953125,-0.6616973876953125
1791114718434781700,1.68478173828125,1.930938720703125,-1.1905975341796875,-0.68646240234375
1791114718444852500,1.6948525390625,0.8473358154296875,-0.7048187255859375,-0.4941864013671875
1791114718454923500,1.704923583984375,-5.84613037109375,-0.44000244140625,-0.094085693359375
1791114718464994600,1.71499462890625,-5.683349609375,-0.9710235595703125,-0.0361785888671875
1791114718475065600,1.725065673828125,-1.599639892578125,-1.4212188720703125,-0.583526611328125
1791114718485136600,1.73513671875,3.8753204345703125,-2.14154052734375,-0.40936279296875
1791114718495207700,1.745207763671875,3.9393157958984375,-0.5539093017578125,0.575042724609375
1791114718505278500,1.755278564453125,-0.7166900634765625,0.93743896484375,1.108184814453125
1791114718515349500,1.765349609375,-3.300201416015625,-0.3637542724609375,0.9774322509765625
1791114718525420500,1.775420654296875,-2.915435791015625,-2.1573028564453125,-0.012725830078125
1791114718535491600,1.78549169921875,-0.937469482421875,-2.4046630859375,-0.609649658203125
1791114718545562600,1.795562744140625,0.485076904296875,-1.0753631591796875,0.1079559326171875
1791114718555633700,1.805633544921875,0.3567352294921875,0.53668212890625,0.7547760009765625
1791114718565704700,1.81570458984375,0.0981903076171875,0.50872802734375,0.4935302734375
1791114718575775700,1.825775634765625,0.0215911865234375,-0.3863067626953125,0.0247650146484375
1791114718585846800,1.8358466796875,-1.66705322265625,-0.2950439453125,-0.23284912109375
1791114718595917800,1.845917724609375,-1.7029266357421875,-0.9374542236328125,-0.4527587890625
1791114718605987800,1.85598779296875,0.33001708984375,-2.4176025390625,-0.172088623046875
1791114718616058600,1.86605859375,-0.708770751953125,-2.2864532470703125,0.129913330078125
1791114718626129700,1.876129638671875,-1.82318115234375,-1.349029541015625,-0.026458740234375
1791114718636201000,1.886200927734375,-0.522125244140625,-0.4497222900390625,-0.20318603515625
1791114718646272000,1.89627197265625,0.5951690673828125,0.171966552734375,0.174224853515625
1791114718656342800,1.9063427734375,0.5209197998046875,0.4919891357421875,0.2294464111328125
1791114718666413800,1.916413818359375,-0.322174072265625,0.1720733642578125,-0.029052734375
1791114718676484900,1.92648486328125,0.0099945068359375,-1.358245849609375,-0.34539794921875
1791114718686556000,1.936555908203125,0.33367919921875,-2.5285797119140625,-0.4098968505859375
1791114718696627000,1.946626953125,-0.5560302734375,-2.084197998046875,-0.3654937744140625
1791114718706698000,1.956697998046875,-1.67034912109375,-0.8994598388671875,-0.052154541015625
1791114718716768800,1.966768798828125,-0.5702362060546875,-0.57421875,0.031951904296875
1791114718726839800,1.97683984375,0.7919158935546875,-0.62164306640625,0.0947265625
1791114718736910800,1.986910888671875,0.858551025390625,-0.669036865234375,0.12481689453125
1791114718746982000,1.99698193359375,-0.1478424072265625,-1.126495361328125,-0.0384979248046875
1791114718757053000,2.007052978515625,-1.617889404296875,-1.324981689453125,-0.2816925048828125
1791114718767124000,2.0171240234375,-1.63739013671875,-1.416168212890625,-0.2725677490234375
1791114718777194800,2.02719482421875,-0.6212005615234375,-1.3236541748046875,-0.1236572265625
1791114718787265800,2.037265869140625,0.50042724609375,-1.008392333984375,0.0755615234375
1791114718797335800,2.047335693359375,1.1895751953125,-0.5591278076171875,0.1773834228515625
1791114718807406800,2.05740673828125,-0.3188323974609375,-0.23455810546875,0.28076171875
1791114718817478000,2.067477783203125,-2.7669525146484375,-0.61474609375,0.226837158203125
1791114718827548700,2.077548583984375,-2.2908477783203125,-1.6927947998046875,-0.1259613037109375
1791114718837619700,2.08761962890625,-0.4251251220703125,-2.069793701171875,-0.4074249267578125
1791114718847690800,2.097690673828125,1.134765625,-1.663665771484375,-0.2483367919921875
1791114718857761800,2.10776171875,1.4203643798828125,-0.3618316650390625,0.0482177734375
1791114718867832800,2.117832763671875,1.5623016357421875,0.33734130859375,0.08734130859375
1791114718877904000,2.12790380859375,-0.860443115234375,0.245147705078125,0.1670379638671875
1791114718887974700,2.137974609375,-4.3718719482421875,-0.4809112548828125,0.28857421875
1791114718898045700,2.148045654296875,-2.5297698974609375,-1.8413848876953125,-0.40618896484375
1791114718908116700,2.15811669921875,0.4254913330078125,-2.1832733154296875,-0.563385009765625
1791114718918187800,2.168187744140625,1.40069580078125,-1.3769073486328125,-0.1542205810546875
1791114718928258800,2.1782587890625,0.1833648681640625,-0.05316162109375,0.496185302734375
1791114718938329900,2.188329833984375,-1.01580810546875,0.353302001953125,0.49609375
1791114718948400600,2.198400634765625,-0.7159576416015625,-0.4297637939453125,-0.043426513671875
1791114718958471700,2.2084716796875,0.6248626708984375,-1.5199127197265625,-0.2652587890625
1791114718968542700,2.218542724609375,0.411376953125,-1.3035430908203125,-0.23333740234375
1791114718978613000,2.228613037109375,-0.843231201171875,-0.495574951171875,-0.024749755859375
1791114718988684000,2.23868408203125,-1.419647216796875,-0.4826202392578125,0.170318603515625
1791114718998754800,2.2487548828125,-0.5220794677734375,-1.22076416015625,-0.1092987060546875
1791114719008825900,2.258825927734375,0.46917724609375,-1.358123779296875,-0.2765045166015625
1791114719018897000,2.26889697265625,0.7449493408203125,-0.7230682373046875,-0.199951171875
1791114719028968000,2.278968017578125,-0.70184326171875,-0.043548583984375,0.1349029541015625
1791114719039039000,2.2890390625,-1.5206146240234375,-0.2622833251953125,0.1801300048828125
1791114719049110000,2.299110107421875,-0.7794189453125,-1.33221435546875,-0.1241607666015625
1791114719059180800,2.309180908203125,0.0268096923828125,-1.94586181640625,-0.39776611328125
1791114719069251800,2.319251953125,0.3140106201171875,-1.5350799560546875,-0.2919769287109375
1791114719079323000,2.329322998046875,-0.5216522216796875,-0.59234619140625,0.0225372314453125
1791114719089394000,2.339393798828125,-1.068359375,-0.3199615478515625,0.1505279541015625
1791114719099465000,2.34946484375,-1.1936798095703125,-0.44842529296875,0.0849151611328125
1791114719109536000,2.359535888671875,-1.087554931640625,-0.3973846435546875,-0.0507049560546875
1791114719119606800,2.369606689453125,1.3675537109375,-1.174713134765625,-0.3996124267578125
1791114719129677800,2.379677734375,2.33392333984375,-1.329559326171875,-0.4581451416015625
1791114719139748900,2.389748779296875,-2.083740234375,-0.78057861328125,-0.1279296875
1791114719149820000,2.39981982421875,-4.60821533203125,-0.9879150390625,0.3126068115234375
1791114719159890000,2.409889892578125,-2.1934967041015625,-1.6689605712890625,-0.352081298828125
1791114719169960700,2.419960693359375,0.24200439453125,-1.757354736328125,-0.6824798583984375
1791114719180031700,2.43003173828125,-0.170684814453125,-1.08563232421875,-0.0325775146484375
1791114719190102800,2.440102783203125,-0.47943115234375,-0.6103363037109375,0.518707275390625
1791114719200173800,2.450173828125,-0.4519195556640625,-0.0736846923828125,0.25238037109375
1791114719210244900,2.460244873046875,0.2342376708984375,-0.605560302734375,-0.3144683837890625
1791114719220316000,2.47031591796875,0.5304718017578125,-0.9920806884765625,-0.2529296875
1791114719230386700,2.48038671875,0.168243408203125,-0.9175567626953125,-0.2244415283203125
1791114719240457700,2.490457763671875,-0.8216094970703125,-0.5534820556640625,-0.232086181640625
1791114719250528800,2.50052880859375,-0.5572509765625,-0.6720123291015625,-0.223419189453125
1791114719260599800,2.510599853515625,0.1296234130859375,-1.093963623046875,-0.0804443359375
1791114719270670800,2.5206708984375,0.0869293212890625,-0.7789306640625,-0.081268310546875
1791114719280742000,2.530741943359375,-0.52294921875,-0.3591766357421875,-0.08929443359375
1791114719290812700,2.540812744140625,-0.86871337890625,-0.4850006103515625,0.0629730224609375
1791114719300883700,2.5508837890625,-0.6938323974609375,-1.032318115234375,0.0188446044921875
1791114719310954800,2.560954833984375,-0.1318817138671875,-1.3728790283203125,-0.055999755859375
1791114719321025800,2.57102587890625,0.592559814453125,-1.0514068603515625,0.14385986328125
1791114719331096800,2.581096923828125,-0.20458984375,-0.4789276123046875,0.4001007080078125
1791114719341167900,2.59116796875,-1.736602783203125,-0.2433624267578125,0.31134033203125
1791114719351238700,2.60123876953125,-1.3348846435546875,-1.042388916015625,-0.043182373046875
1791114719361309000,2.611308837890625,-0.36126708984375,-1.71136474609375,-0.1495361328125
1791114719371380000,2.6213798828125,-0.4703369140625,-1.132720947265625,0.0505218505859375
1791114719381451000,2.631450927734375,-1.382049560546875,-0.094451904296875,-0.086944580078125
1791114719391522000,2.64152197265625,-0.0314483642578125,-0.84075927734375,-0.2315521240234375
1791114719401592800,2.6515927734375,1.56964111328125,-1.8241119384765625,0.0303955078125
1791114719411664000,2.661663818359375,0.824554443359375,-1.453033447265625,-0.169403076171875
1791114719421735000,2.67173486328125,-0.7994232177734375,-0.804107666015625,-0.6171112060546875
1791114719431806000,2.681805908203125,-1.1450042724609375,-0.90399169921875,-0.604949951171875
1791114719441877000,2.691876953125,-1.2195587158203125,-0.857025146484375,-0.11981201171875
1791114719451948000,2.701947998046875,-0.6273651123046875,-1.27117919921875,-0.06341552734375
1791114719462018800,2.712018798828125,0.5435943603515625,-1.7957305908203125,-0.326568603515625
1791114719472089900,2.72208984375,-0.868682861328125,-0.4989776611328125,-0.13238525390625
1791114719482161000,2.732160888671875,-2.2528076171875,0.142822265625,0.2681732177734375
1791114719492232000,2.74223193359375,-0.60943603515625,-1.098846435546875,0.162628173828125
1791114719502303000,2.752302978515625,0.665435791015625,-1.7775115966796875,0.0261688232421875
1791114719512374000,2.7623740234375,0.404449462890625,-1.04901123046875,0.1104736328125
1791114719522444800,2.77244482421875,-0.6297149658203125,-0.25518798828125,0.1809844970703125
1791114719532514800,2.782514892578125,-1.090423583984375,-0.389251708984375,0.2494049072265625
1791114719542585900,2.7925859375,-0.427947998046875,-0.98846435546875,0.133697509765625
1791114719552657000,2.802656982421875,0.30023193359375,-1.217315673828125,-0.059051513671875
1791114719562728000,2.81272802734375,0.4850616455078125,-0.9522705078125,-0.0364532470703125
1791114719572798700,2.822798828125,-0.5579071044921875,-0.2554473876953125,0.1940460205078125
1791114719582869800,2.832869873046875,-0.8319091796875,-0.2172698974609375,0.19366455078125
1791114719592940800,2.84294091796875,0.85015869140625,-1.0016326904296875,0.011474609375
1791114719603011800,2.85301171875,1.664215087890625,-1.1965789794921875,-0.076690673828125
1791114719613083000,2.863082763671875,-1.7738494873046875,-0.77618408203125,0.2529296875
1791114719623154000,2.87315380859375,-4.00567626953125,-0.89178466796875,0.4998321533203125
1791114719633224700,2.883224609375,-1.9453582763671875,-1.666839599609375,-0.1068115234375
1791114719643295700,2.893295654296875,1.353729248046875,-2.176422119140625,-0.6130218505859375
1791114719653366800,2.90336669921875,1.8603973388671875,-1.2153472900390625,0.019134521484375
1791114719663437800,2.913437744140625,-0.2545623779296875,0.4946136474609375,0.4487457275390625
1791114719673508600,2.923508544921875,-1.86102294921875,0.8124847412109375,0.3189849853515625
1791114719683579600,2.93357958984375,-1.465606689453125,-0.6369781494140625,0.157073974609375
1791114719693650700,2.943650634765625,0.0163116455078125,-1.96392822265625,-0.30596923828125
1791114719703721700,2.9537216796875,-0.298583984375,-1.4508819580078125,-0.2735748291015625
1791114719713792800,2.963792724609375,-1.306427001953125,-0.280426025390625,0.28985595703125
1791114719723862500,2.973862548828125,0.348907470703125,-0.609649658203125,0.1407318115234375
1791114719733933600,2.98393359375,1.07855224609375,-1.34930419921875,-0.2347564697265625
1791114719744004600,2.994004638671875,0.0264129638671875,-1.243499755859375,-0.091705322265625
1791114719754075600,3.00407568359375,-0.9427032470703125,-0.8478851318359375,0.065948486328125
1791114719764146700,3.014146728515625,-1.386474609375,-0.7363739013671875,0.125518798828125
1791114719774217700,3.0242177734375,-0.655792236328125,-1.2754058837890625,0.1256866455078125
1791114719784288800,3.034288818359375,0.2305450439453125,-1.41497802734375,0.11279296875
1791114719794359800,3.04435986328125,0.752838134765625,-0.9420623779296875,0.05206298828125
1791114719804430800,3.054430908203125,-0.68243408203125,-0.3855133056640625,0.136749267578125
1791114719814502000,3.064501953125,-1.8828277587890625,-0.49200439453125,0.156524658203125
1791114719824573000,3.074572998046875,-1.8866119384765625,-0.8903961181640625,-0.127685546875
1791114719834644000,3.08464404296875,-0.4272003173828125,-1.5046234130859375,-0.2556610107421875
1791114719844714800,3.09471484375,0.1767425537109375,-1.164215087890625,-0.1912384033203125
1791114719854785800,3.104785888671875,0.170013427734375,-0.2778167724609375,0.146209716796875
1791114719864856800,3.11485693359375,0.7826080322265625,-0.2420654296875,0.19146728515625
1791114719874927900,3.124927978515625,0.0570831298828125,-0.8190155029296875,-0.0206298828125
1791114719884999000,3.1349990234375,-1.3255462646484375,-1.2183990478515625,-0.05523681640625
1791114719895070000,3.145070068359375,-1.3190155029296875,-1.3888397216796875,-0.005218505859375
1791114719905140700,3.155140625,-0.7397003173828125,-1.1104736328125,0.0606842041015625
1791114719915210800,3.165210693359375,-0.0747222900390625,-0.903106689453125,0.12213134765625
1791114719925281800,3.17528173828125,0.4602203369140625,-0.8106842041015625,0.0449371337890625
1791114719935352800,3.185352783203125,0.364349365234375,-0.760528564453125,-0.056182861328125
1791114719945424000,3.195423828125,-1.29266357421875,-0.6361236572265625,-0.010040283203125
1791114719955494700,3.20549462890625,-2.017791748046875,-0.885711669921875,0.1675567626953125
1791114719965565700,3.215565673828125,-0.806640625,-1.36956787109375,0.02252197265625
1791114719975636700,3.22563671875,0.8392333984375,-1.523345947265625,-0.0897216796875
1791114719985707800,3.235707763671875,0.7299652099609375,-0.698883056640625,0.0225830078125
1791114719995778800,3.24577880859375,0.487152099609375,-0.2260589599609375,0.0928802490234375
1791114720005849900,3.255849853515625,0.2693939208984375,-0.40191650390625,0.0119476318359375
1791114720015920600,3.265920654296875,-0.6114654541015625,-1.055908203125,0.0067901611328125
1791114720025991700,3.27599169921875,-0.915924072265625,-1.4926300048828125,-0.053863525390625
1791114720036062700,3.286062744140625,-0.668670654296875,-1.4074554443359375,0.0481414794921875
1791114720046133800,3.2961337890625,-0.5198822021484375,-0.90618896484375,0.1159515380859375
1791114720056204800,3.306204833984375,-0.498443603515625,-0.5693206787109375,0.070587158203125
1791114720066275800,3.31627587890625,0.5926361083984375,-0.81524658203125,-0.084136962890625
1791114720076346600,3.3263466796875,0.3001708984375,-1.0389556884765625,-0.1043548583984375
1791114720086417700,3.336417724609375,-1.2448272705078125,-1.00128173828125,-0.14013671875
1791114720096487700,3.34648779296875,-1.4373779296875,-1.35150146484375,-0.0863494873046875
1791114720106558700,3.356558837890625,-0.939971923828125,-1.27911376953125,0.007080078125
1791114720116629800,3.366629638671875,-0.48095703125,-0.79296875,-0.07513427734375
1791114720126700500,3.376700439453125,0.0128936767578125,-0.57611083984375,-0.0999755859375
1791114720136771600,3.386771484375,-0.230133056640625,-0.738311767578125,-0.1319427490234375
1791114720146842600,3.396842529296875,-1.18597412109375,-0.8253173828125,-0.2693634033203125
1791114720156913700,3.40691357421875,-0.6141815185546875,-1.2255401611328125,-0.3666229248046875
1791114720166984700,3.416984619140625,0.15234375,-1.2833404541015625,-0.26104736328125
1791114720177055700,3.4270556640625,-0.30804443359375,-0.60321044921875,-0.022979736328125
1791114720187126500,3.43712646484375,-0.9862823486328125,-0.3650360107421875,0.1036224365234375
1791114720197197600,3.447197509765625,-0.035369873046875,-0.8399658203125,-0.3331146240234375
1791114720207268600,3.4572685546875,0.54156494140625,-1.107452392578125,-0.5998077392578125
1791114720217339600,3.467339599609375,-0.6133270263671875,-1.080596923828125,-0.201507568359375
1791114720227410700,3.47741064453125,-1.377471923828125,-0.9780426025390625,0.0076446533203125
1791114720237481700,3.487481689453125,-1.238067626953125,-1.0014801025390625,0.00506591796875
1791114720247552500,3.497552490234375,-0.573455810546875,-1.0164337158203125,0.0292816162109375
1791114720257623600,3.50762353515625,0.2009124755859375,-0.7747955322265625,0.0629425048828125
1791114720267694600,3.517694580078125,-0.1264495849609375,-0.5531158447265625,0.0999298095703125
1791114720277764900,3.527764892578125,-1.49609375,-0.5343780517578125,0.0688629150390625
1791114720287836000,3.5378359375,-1.1560516357421875,-1.09375,-0.416229248046875
1791114720297906700,3.54790673828125,0.235137939453125,-1.6107635498046875,-0.480743408203125
1791114720307977700,3.557977783203125,0.7139892578125,-1.0698089599609375,-0.11395263671875
1791114720318048800,3.568048828125,-0.0057830810546875,-0.243804931640625,0.0580291748046875
1791114720328119800,3.578119873046875,-0.721038818359375,-0.0594940185546875,-0.1169891357421875
1791114720338190800,3.58819091796875,0.1608428955078125,-0.956756591796875,-0.5578765869140625
1791114720348262000,3.598261962890625,-0.3382110595703125,-1.6356201171875,-0.5060272216796875
1791114720358332700,3.608332763671875,-1.7181396484375,-1.38818359375,-0.0910491943359375
1791114720368403700,3.61840380859375,-1.7198486328125,-1.0905303955078125,-0.2978973388671875
1791114720378474800,3.628474853515625,-0.638702392578125,-0.9748687744140625,-0.611602783203125
1791114720388545800,3.6385458984375,1.06744384765625,-1.368682861328125,-0.5431060791015625
1791114720398616800,3.648616943359375,1.0847930908203125,-0.8657379150390625,-0.0242156982421875
1791114720408687900,3.65868798828125,-0.2910919189453125,-0.38702392578125,0.191253662109375
1791114720418758700,3.668758544921875,-1.7530517578125,-0.6077117919921875,0.0286865234375
1791114720428829700,3.67882958984375,-2.06494140625,-1.085174560546875,-0.2162322998046875
1791114720438900700,3.688900634765625,-1.043731689453125,-1.373016357421875,-0.511962890625
1791114720448971800,3.6989716796875,0.65826416015625,-1.399444580078125,-0.41973876953125
1791114720459042800,3.709042724609375,0.788482666015625,-0.458648681640625,0.0215301513671875
1791114720469112600,3.719112548828125,0.31854248046875,0.0283050537109375,0.20599365234375
1791114720479183600,3.72918359375,0.1182708740234375,-0.4293975830078125,0.12664794921875
1791114720489254700,3.739254638671875,-0.5034637451171875,-1.1750640869140625,0.04327392578125
1791114720499325700,3.74932568359375,-1.12774658203125,-1.245819091796875,-0.07891845703125
1791114720509396700,3.759396728515625,-1.0909423828125,-1.111083984375,-0.421875
1791114720519467800,3.7694677734375,-0.5504608154296875,-0.858978271484375,-0.42840576171875
1791114720529538600,3.77953857421875,-0.0838165283203125,-0.6191558837890625,-0.192413330078125
1791114720539609600,3.789609619140625,0.4919281005859375,-0.6887969970703125,0.086944580078125
1791114720549680600,3.7996806640625,0.8104705810546875,-0.7044219970703125,0.2062835693359375
1791114720559751700,3.809751708984375,-0.5186004638671875,-0.645721435546875,0.136688232421875
1791114720569822700,3.81982275390625,-2.05712890625,-0.8103485107421875,0.3080902099609375
1791114720579893800,3.829893798828125,-1.7769622802734375,-1.144256591796875,0.1222991943359375
1791114720589964500,3.839964599609375,-0.7185211181640625,-1.3634033203125,-0.1159515380859375
1791114720600035600,3.85003564453125,0.1443939208984375,-1.0028076171875,-0.1503753662109375
1791114720610106600,3.860106689453125,0.7167816162109375,-0.56634521484375,0.034942626953125
1791114720620177700,3.870177734375,0.7672882080078125,-0.5236968994140625,0.2258758544921875
1791114720630248700,3.880248779296875,-0.6087188720703125,-0.8430633544921875,0.3045654296875
1791114720640319200,3.8903193359375,-1.671630859375,-1.1462554931640625,0.2799072265625
1791114720650389200,3.90038916015625,-1.21881103515625,-1.300384521484375,-0.0653076171875
1791114720660460000,3.9104599609375,-0.4096832275390625,-1.1075439453125,-0.2401885986328125
1791114720670531000,3.920531005859375,-0.1402740478515625,-0.634857177734375,-0.047393798828125
1791114720680602000,3.93060205078125,0.0936431884765625,-0.64324951171875,0.228485107421875
1791114720690673200,3.940673095703125,-0.59820556640625,-0.7952117919921875,0.23291015625
1791114720700744200,3.950744140625,-1.2263336181640625,-0.9901580810546875,0.1610870361328125
1791114720710815200,3.960815185546875,-0.6305389404296875,-1.2446441650390625,0.08416748046875
1791114720720886000,3.970885986328125,0.006988525390625,-1.2969207763671875,-0.0134124755859375
1791114720730957000,3.98095703125,-0.0868682861328125,-0.885406494140625,0.1296844482421875
1791114720741028000,3.991028076171875,-0.4088287353515625,-0.50152587890625,0.2541961669921875
1791114720751099100,4.00109912109375,0.2887725830078125,-0.508392333984375,0.1937713623046875
1791114720761170200,4.011170166015625,0.9614410400390625,-0.664825439453125,0.068603515625
1791114720771241200,4.0212412109375,-0.6355743408203125,-0.7420196533203125,0.059051513671875
1791114720781312000,4.03131201171875,-1.7232513427734375,-1.194549560546875,0.1224517822265625
1791114720791383000,4.041383056640625,-1.29388427734375,-1.3323822021484375,-0.061187744140625
1791114720801454000,4.0514541015625,-0.6708831787109375,-1.22088623046875,-0.33636474609375
1791114720811525000,4.061525146484375,0.1256866455078125,-1.17529296875,-0.296417236328125
1791114720821596200,4.07159619140625,0.1998291015625,-0.9563446044921875,0.082183837890625
1791114720831667200,4.081667236328125,-0.9995880126953125,-0.4406890869140625,0.5654449462890625
1791114720841737000,4.091737060546875,-0.848541259765625,-0.6531982421875,0.27606201171875
1791114720851808000,4.10180810546875,0.31146240234375,-1.27850341796875,-0.113433837890625
1791114720861879000,4.111879150390625,0.568389892578125,-1.09674072265625,-0.293212890625
1791114720871950000,4.1219501953125,-0.27166748046875,-0.5119781494140625,0.0356597900390625
1791114720882021000,4.132021240234375,-1.3423919677734375,-0.2166290283203125,0.3204498291015625
1791114720892092000,4.142091796875,-1.0323944091796875,-0.91436767578125,0.007476806640625
1791114720902163000,4.152162841796875,-0.51708984375,-1.419036865234375,-0.1613006591796875
1791114720912234000,4.16223388671875,-0.04156494140625,-1.290069580078125,-0.0424957275390625
1791114720922305000,4.172304931640625,0.090545654296875,-0.81280517578125,0.0234832763671875
1791114720932376000,4.1823759765625,-0.503326416015625,-0.5070343017578125,0.040374755859375
1791114720942447000,4.192447021484375,-0.4901123046875,-0.792572021484375,0.004730224609375
1791114720952518000,4.202517822265625,-0.162567138671875,-1.18280029296875,-0.0808868408203125
1791114720962589000,4.2125888671875,-1.0629730224609375,-0.9638824462890625,0.090972900390625
1791114720972660000,4.222659912109375,-1.3376617431640625,-0.9805145263671875,0.2606658935546875
1791114720982731000,4.23273095703125,-0.4977569580078125,-1.1082763671875,-0.00933837890625
1791114720992802000,4.242802001953125,0.283721923828125,-0.9421539306640625,-0.1688995361328125
1791114721002873000,4.252873046875,0.0966033935546875,-0.6203155517578125,-0.1156005859375
1791114721012944000,4.26294384765625,-0.257293701171875,-0.605255126953125,0.0584564208984375
1791114721023014100,4.27301416015625,-1.0123748779296875,-0.63568115234375,0.09613037109375
1791114721033085200,4.283085205078125,-0.41046142578125,-0.9869232177734375,-0.15594482421875
1791114721043156200,4.29315625,0.7729949951171875,-1.171875,-0.243377685546875
1791114721053227300,4.303227294921875,-0.1065673828125,-0.8931121826171875,0.08349609375
1791114721063298000,4.313298095703125,-1.436248779296875,-0.709869384765625,0.3760986328125
1791114721073369000,4.323369140625,-1.365966796875,-1.102294921875,0.162139892578125
1791114721083440000,4.333440185546875,-0.457427978515625,-1.3277130126953125,-0.0974884033203125
1791114721093511200,4.34351123046875,0.4281463623046875,-1.160400390625,-0.2079010009765625
1791114721103582200,4.353582275390625,0.2905731201171875,-0.7632904052734375,0.0058135986328125
1791114721113653200,4.3636533203125,-1.0157470703125,-0.62396240234375,0.237396240234375
1791114721123724000,4.37372412109375,-1.3259124755859375,-0.9545745849609375,0.0357513427734375
1791114721133795000,4.383795166015625,-0.342742919921875,-1.378143310546875,-0.2448883056640625
1791114721143866000,4.3938662109375,0.42120361328125,-1.0724029541015625,-0.2839508056640625
1791114721153937200,4.403937255859375,0.3155670166015625,-0.615875244140625,-0.1446990966796875
1791114721164008200,4.41400830078125,-0.300323486328125,-0.5266571044921875,-0.022216796875
1791114721174079200,4.424079345703125,-0.3018341064453125,-1.0251007080078125,-0.1514129638671875
1791114721184150000,4.43414990234375,-0.774444580078125,-1.33062744140625,-0.2111053466796875
1791114721194221000,4.444220947265625,-1.151641845703125,-1.3127899169921875,-0.1398468017578125
1791114721204291000,4.454291015625,-0.8798675537109375,-0.928314208984375,-0.2256317138671875
1791114721214362000,4.464362060546875,-0.24267578125,-0.78948974609375,-0.239349365234375
1791114721224433200,4.47443310546875,0.6388092041015625,-1.0515899658203125,-0.26593017578125
1791114721234504000,4.48450390625,0.784912109375,-1.10137939453125,-0.309539794921875
1791114721244575000,4.494574951171875,0.139617919921875,-0.7014312744140625,-0.1391754150390625
1791114721254646000,4.50464599609375,-0.4969024658203125,-0.6749267578125,-0.0461578369140625
1791114721264717000,4.514717041015625,-1.5609588623046875,-0.783935546875,-0.063751220703125
1791114721274788000,4.5247880859375,-1.9376678466796875,-0.8788604736328125,-0.1112518310546875
1791114721284859100,4.534859130859375,-0.9312744140625,-1.197967529296875,-0.355682373046875
1791114721294930000,4.544929931640625,0.402557373046875,-1.2601318359375,-0.3051300048828125
1791114721305001000,4.5550009765625,-0.2559814453125,-0.4064788818359375,0.1157684326171875
1791114721315072000,4.565072021484375,-0.3852996826171875,-0.3373870849609375,0.1489105224609375
1791114721325143000,4.57514306640625,-0.365875244140625,-0.89703369140625,-0.037017822265625
1791114721335214000,4.585214111328125,-0.5220794677734375,-1.2690277099609375,-0.105926513671875
1791114721345285000,4.59528515625,-0.5327301025390625,-1.317596435546875,-0.0823974609375
1791114721355356000,4.60535595703125,-0.5895843505859375,-0.904541015625,0.032745361328125
1791114721365427000,4.615427001953125,-0.59002685546875,-0.6023101806640625,0.068817138671875
1791114721375498000,4.625498046875,-0.018798828125,-0.8164825439453125,0.089141845703125
1791114721385568300,4.635568359375,0.5005035400390625,-0.9529876708984375,0.0808258056640625
1791114721395639300,4.645639404296875,0.116851806640625,-0.8985748291015625,0.0271148681640625
1791114721405710000,4.6557099609375,-1.0743255615234375,-0.704071044921875,0.0559844970703125
1791114721415781000,4.665781005859375,-1.66900634765625,-0.6856231689453125,0.0601348876953125
1791114721425852200,4.67585205078125,-1.003173828125,-1.1769866943359375,-0.11236572265625
1791114721435923200,4.685923095703125,0.1202545166015625,-1.413909912109375,-0.2096099853515625
1791114721445994200,4.695994140625,0.583587646484375,-1.0946197509765625,-0.0562591552734375
1791114721456065300,4.706065185546875,0.685302734375,-0.6347503662109375,0.0088348388671875
1791114721466136000,4.716135986328125,-0.201690673828125,-0.5025787353515625,-0.0071563720703125
1791114721476207000,4.72620703125,-0.91717529296875,-0.88446044921875,-0.12860107421875
1791114721486278100,4.736278076171875,-0.9667205810546875,-1.2434844970703125,-0.27362060546875
1791114721496349200,4.74634912109375,-0.8883819580078125,-1.07147216796875,-0.437591552734375
1791114721506420200,4.756420166015625,-0.432373046875,-0.8553466796875,-0.3930206298828125
1791114721516491300,4.7664912109375,-0.160980224609375,-0.608551025390625,-0.2386474609375
1791114721526562000,4.77656201171875,0.415496826171875,-0.775146484375,-0.1432952880859375
1791114721536633000,4.786633056640625,0.1380767822265625,-0.8854522705078125,-0.12701416015625
1791114721546704100,4.7967041015625,-0.9156341552734375,-0.9427337646484375,-0.010284423828125
1791114721556775200,4.806775146484375,-0.99114990234375,-1.16729736328125,0.0773773193359375
1791114721566846200,4.81684619140625,-0.75396728515625,-1.1205596923828125,-0.0416107177734375
1791114721576916000,4.826916015625,-0.4188995361328125,-0.9263763427734375,-0.1027984619140625
1791114721586987000,4.836987060546875,-0.1773529052734375,-0.787872314453125,-0.006317138671875
1791114721597058000,4.84705810546875,-0.17578125,-0.6058197021484375,0.1062164306640625
1791114721607129000,4.857129150390625,0.1569976806640625,-0.5844573974609375,0.04425048828125
1791114721617200000,4.8672001953125,-0.1188812255859375,-0.8072357177734375,-0.0009307861328125
1791114721627271200,4.877271240234375,-1.422607421875,-0.923614501953125,0.1895294189453125
1791114721637342500,4.887342529296875,-1.523651123046875,-1.0557708740234375,0.0121917724609375
1791114721647413200,4.897413330078125,-0.9423828125,-1.1675567626953125,-0.188751220703125
1791114721657484300,4.907484375,-0.1591949462890625,-0.934783935546875,-0.1175689697265625
1791114721667555300,4.917555419921875,0.3277587890625,-0.5716705322265625,0.0333709716796875
1791114721677626400,4.92762646484375,0.4620819091796875,-0.398773193359375,0.0807952880859375
1791114721687697400,4.937697509765625,-0.3934173583984375,-0.61181640625,0.053466796875
1791114721697768400,4.9477685546875,-0.969268798828125,-1.142608642578125,0.05670166015625
1791114721707839500,4.957839599609375,-0.7988128662109375,-1.4441680908203125,-0.111846923828125
1791114721717910300,4.96791015625,-0.54034423828125,-1.1803436279296875,-0.3464508056640625
1791114721727981300,4.977981201171875,-0.1961212158203125,-0.8514251708984375,-0.3531494140625
1791114721738052400,4.98805224609375,0.00286865234375,-0.6159515380859375,-0.1587066650390625
1791114721748122400,4.998122314453125,0.368194580078125,-0.7310028076171875,-0.11724853515625
1791114721758193200,5.008193115234375,0.0006103515625,-0.841949462890625,-0.100189208984375
1791114721768264200,5.01826416015625,-0.7025299072265625,-0.9259796142578125,-0.0459136962890625
1791114721778335200,5.028335205078125,-0.8030242919921875,-0.968536376953125,-0.016021728515625
1791114721788406300,5.03840625,-0.831939697265625,-0.9704437255859375,-0.0928497314453125
1791114721798477300,5.048477294921875,-0.598541259765625,-1.035919189453125,-0.1285858154296875
1791114721808548400,5.05854833984375,-0.541778564453125,-0.878173828125,-0.10009765625
1791114721818619100,5.068619140625,-0.11151123046875,-0.8570098876953125,-0.1427001953125
1791114721828690200,5.078690185546875,-0.2459259033203125,-0.9407806396484375,-0.1031646728515625
1791114721838761200,5.08876123046875,-0.463226318359375,-0.9119873046875,-0.001312255859375
1791114721848832300,5.098832275390625,-0.442779541015625,-0.851318359375,0.0030364990234375
1791114721858903300,5.1089033203125,-0.3636932373046875,-0.812896728515625,-0.03057861328125
1791114721868974300,5.118974365234375,-0.458953857421875,-0.82269287109375,-0.06146240234375
1791114721879045400,5.12904541015625,-0.8538818359375,-0.65960693359375,-0.0511474609375
1791114721889116200,5.1391162109375,-0.270660400390625,-0.9635467529296875,-0.165679931640625
1791114721899187200,5.149187255859375,-0.050628662109375,-1.0706787109375,-0.2020721435546875
1791114721909258200,5.15925830078125,-0.3956756591796875,-1.054962158203125,-0.134246826171875
1791114721919329300,5.169329345703125,-0.4439239501953125,-0.99505615234375,-0.0281829833984375
1791114721929400300,5.179400390625,-0.449920654296875,-0.8874969482421875,-0.061126708984375
1791114721939470300,5.18947021484375,-0.443511962890625,-0.822540283203125,-0.06292724609375
1791114721949541400,5.199541259765625,-0.056640625,-0.9674530029296875,0.02911376953125
1791114721959612400,5.2096123046875,-0.035064697265625,-0.938140869140625,0.1457366943359375
1791114721969683500,5.219683349609375,-0.8004150390625,-0.8577423095703125,0.1395263671875
1791114721979754500,5.22975439453125,-0.92633056640625,-1.07403564453125,0.0062103271484375
1791114721989825500,5.239825439453125,-0.504974365234375,-1.00628662109375,-0.1021728515625
1791114721999896300,5.249896240234375,-0.31805419921875,-0.787872314453125,-0.2730865478515625
1791114722009967400,5.25996728515625,-0.0244140625,-0.89947509765625,-0.19769287109375
1791114722020038400,5.270038330078125,-0.35394287109375,-0.7403411865234375,-0.0155792236328125
1791114722030109400,5.280109375,-0.1277618408203125,-0.8510894775390625,0.111053466796875
1791114722040180500,5.290180419921875,-0.036895751953125,-1.024322509765625,0.0875091552734375
1791114722050251500,5.30025146484375,-0.6736297607421875,-0.9548492431640625,-0.0064544677734375
1791114722060322300,5.310322265625,-0.3094329833984375,-0.9532623291015625,-0.1321258544921875
1791114722070393300,5.320393310546875,0.1793975830078125,-0.79815673828125,-0.156494140625
1791114722080464400,5.33046435546875,-0.3396148681640625,-0.6265106201171875,0.0546112060546875
1791114722090535400,5.340535400390625,-0.8958892822265625,-0.9053192138671875,0.2260589599609375
1791114722100606500,5.3506064453125,-1.101837158203125,-1.0978851318359375,0.2487640380859375
1791114722110677500,5.360677490234375,-1.378143310546875,-1.005157470703125,0.3117523193359375
1791114722120747300,5.370747314453125,-0.684814453125,-1.033447265625,0.1517333984375
1791114722130818300,5.380818359375,-0.2884979248046875,-0.7480926513671875,0.157623291015625
1791114722140889300,5.390889404296875,-0.385284423828125,-0.44329833984375,0.3122711181640625
1791114722150960400,5.40096044921875,0.034881591796875,-0.737396240234375,0.2288665771484375
1791114722161031400,5.411031494140625,-0.1576690673828125,-0.7894744873046875,0.318023681640625
1791114722171102200,5.421102294921875,-0.684295654296875,-0.6580657958984375,0.301361083984375
1791114722181173200,5.43117333984375,-0.91326904296875,-0.9017486572265625,0.1475372314453125
1791114722191244300,5.441244384765625,-0.8426971435546875,-1.2320556640625,0.223297119140625
1791114722201315300,5.4513154296875,-0.4256744384765625,-1.2598876953125,0.15155029296875
1791114722211386400,5.461386474609375,-0.05645751953125,-0.93914794921875,0.0962677001953125
1791114722221457400,5.47145751953125,-0.13763427734375,-0.72509765625,-0.039520263671875
1791114722231528200,5.481528076171875,-0.364166259765625,-0.6785430908203125,-0.11737060546875
1791114722241599200,5.49159912109375,-0.463226318359375,-0.8365478515625,-0.0295257568359375
1791114722251670300,5.501670166015625,-0.21978759765625,-1.1580047607421875,0.0025482177734375
1791114722261741300,5.5117412109375,-0.2776641845703125,-1.0721435546875,-0.0130767822265625
1791114722271812400,5.521812255859375,-0.24237060546875,-0.97113037109375,-0.084014892578125
1791114722281883400,5.53188330078125,-0.3010711669921875,-0.8406982421875,-0.1296844482421875
1791114722291954200,5.5419541015625,-0.335601806640625,-0.93780517578125,-0.0966796875
1791114722302025200,5.552025146484375,-0.46759033203125,-0.972442626953125,-0.090576171875
1791114722312095500,5.562095458984375,-0.520843505859375,-0.9393463134765625,-0.0983428955078125
1791114722322166500,5.57216650390625,-0.4089508056640625,-1.03411865234375,-0.20306396484375
1791114722332237600,5.582237548828125,-0.5259246826171875,-0.998382568359375,-0.1246337890625
1791114722342308400,5.592308349609375,-0.2131805419921875,-1.1086578369140625,-0.085601806640625
1791114722352379400,5.60237939453125,0.1875457763671875,-1.0039825439453125,-0.10931396484375
1791114722362450400,5.612450439453125,-0.030792236328125,-0.798187255859375,-0.040679931640625
1791114722372521500,5.622521484375,-0.394744873046875,-0.66748046875,0.101715087890625
1791114722382592500,5.632592529296875,-0.5485687255859375,-0.7567901611328125,0.0298919677734375
1791114722392663600,5.64266357421875,0.06103515625,-1.0011138916015625,-0.1714630126953125
1791114722402734300,5.652734375,-0.1844635009765625,-1.06268310546875,-0.2237091064453125
1791114722412805400,5.662805419921875,-0.8836212158203125,-0.9944000244140625,-0.0512237548828125
1791114722422876400,5.67287646484375,-1.0689239501953125,-1.0400390625,-0.00738525390625
1791114722432947500,5.682947509765625,-0.78460693359375,-1.0152740478515625,-0.111968994140625
1791114722443018500,5.6930185546875,0.0679779052734375,-1.0689849853515625,-0.1912384033203125
1791114722453089500,5.703089599609375,0.356109619140625,-1.0769500732421875,-0.2582855224609375
1791114722463160300,5.713160400390625,-0.9494476318359375,-0.749267578125,-0.027740478515625
1791114722473231400,5.7232314453125,-1.43963623046875,-0.7677764892578125,0.1436309814453125
1791114722483302400,5.733302490234375,-0.349395751953125,-1.0046234130859375,-0.077392578125
1791114722493372400,5.743372314453125,0.357635498046875,-0.9126129150390625,-0.293670654296875
1791114722503443500,5.753443359375,0.3055419921875,-0.551116943359375,-0.0668487548828125
1791114722513514200,5.76351416015625,-0.4072265625,-0.3219757080078125,0.137359619140625
1791114722523585300,5.773585205078125,-0.81512451171875,-0.738616943359375,0.148956298828125
1791114722533656300,5.78365625,-1.274139404296875,-1.1560821533203125,0.1001739501953125
1791114722543727400,5.793727294921875,-1.152557373046875,-1.334503173828125,0.01336669921875
1791114722553798400,5.80379833984375,-0.2928009033203125,-1.1573944091796875,-0.0595855712890625
1791114722563869400,5.813869384765625,0.313568115234375,-0.7136383056640625,0.028167724609375
1791114722573940200,5.823940185546875,0.079620361328125,-0.4545135498046875,0.134002685546875
1791114722584011300,5.83401123046875,-0.274871826171875,-0.53076171875,0.1316375732421875
1791114722594082300,5.844082275390625,-0.600830078125,-0.7872314453125,0.0918731689453125
1791114722604153300,5.8541533203125,-0.48602294921875,-0.9395599365234375,-0.062774658203125
1791114722614224400,5.864224365234375,-0.8341827392578125,-1.1288604736328125,-0.020172119140625
1791114722624295400,5.87429541015625,-1.401031494140625,-0.998626708984375,0.13372802734375
1791114722634366700,5.88436669921875,-1.23834228515625,-0.9031219482421875,0.080596923828125
1791114722644437800,5.894437744140625,-0.49603271484375,-1.139739990234375,-0.040069580078125
1791114722654508500,5.904508544921875,-0.825897216796875,-1.1029205322265625,-0.10223388671875
1791114722664579600,5.91457958984375,-0.649810791015625,-1.0302886962890625,-0.1625823974609375
1791114722674649600,5.924649658203125,0.23297119140625,-0.9955902099609375,-0.37994384765625
1791114722684720600,5.934720703125,0.9231109619140625,-1.0179595947265625,-0.333038330078125
1791114722694791700,5.944791748046875,0.625701904296875,-0.9251556396484375,-0.1827392578125
1791114722704862700,5.95486279296875,-0.420501708984375,-0.7787628173828125,0.1034393310546875
1791114722714933800,5.964933837890625,-1.612579345703125,-0.63836669921875,0.3980255126953125
1791114722725004800,5.9750048828125,-1.096771240234375,-1.1420440673828125,0.065673828125
1791114722735075800,5.985075927734375,-0.1522216796875,-1.50531005859375,-0.4024810791015625
1791114722745146600,5.995146728515625,0.0513916015625,-1.2086639404296875,-0.3391265869140625
1791114722755217700,6.0052177734375,-0.11553955078125,-0.714385986328125,-0.1576995849609375
1791114722765288700,6.015288818359375,-0.5379180908203125,-0.295196533203125,-0.0618743896484375
1791114722775359700,6.02535986328125,-0.73876953125,-0.31341552734375,0.055267333984375
1791114722785430800,6.0354306640625,-0.2226409912109375,-1.02862548828125,0.0348663330078125
1791114722795501800,6.045501708984375,0.227691650390625,-0.960784912109375,0.0024261474609375
1791114722805572900,6.05557275390625,0.3558502197265625,-0.516693115234375,0.016876220703125
1791114722815644000,6.065643798828125,0.3788604736328125,-0.495330810546875,-0.1015777587890625
1791114722825714700,6.075714599609375,-0.87847900390625,-0.8080902099609375,-0.1326446533203125
1791114722835785700,6.08578564453125,-1.9515838623046875,-0.938232421875,0.0438079833984375
1791114722845856800,6.095856689453125,-1.6381988525390625,-1.1151580810546875,-0.123046875
1791114722855927800,6.105927734375,-0.144775390625,-1.4501190185546875,-0.5048980712890625
1791114722865997800,6.115997802734375,0.55230712890625,-0.8831024169921875,-0.4072723388671875
1791114722876068600,6.126068603515625,0.1561126708984375,-0.33026123046875,-0.009185791015625
1791114722886139600,6.1361396484375,-0.4588165283203125,-0.6605224609375,0.1035003662109375
1791114722896210700,6.146210693359375,-1.648529052734375,-1.1934814453125,0.1970672607421875
1791114722906281700,6.15628173828125,-1.3600311279296875,-1.655426025390625,-0.00921630859375
1791114722916352800,6.166352783203125,0.117950439453125,-1.8170928955078125,-0.4008331298828125
1791114722926423800,6.176423828125,0.606231689453125,-1.3636016845703125,-0.3758544921875
1791114722936494600,6.18649462890625,-0.6705322265625,-0.390380859375,0.14398193359375
1791114722946565600,6.196565673828125,-0.9337615966796875,-0.7440643310546875,0.156494140625
1791114722956636700,6.20663671875,-0.9226226806640625,-0.84246826171875,-0.166534423828125
1791114722966707700,6.216707763671875,-0.7617340087890625,-0.8813934326171875,-0.212310791015625
1791114722976778800,6.22677880859375,0.2784271240234375,-0.952423095703125,-0.2152252197265625
1791114722986849800,6.236849853515625,0.5343475341796875,-0.9482879638671875,-0.09075927734375
1791114722996920600,6.246920654296875,-0.3696441650390625,-0.6525726318359375,0.1234130859375
1791114723006991600,6.25699169921875,-0.8738250732421875,-0.8213348388671875,0.108154296875
1791114723017062700,6.267062744140625,-0.64617919921875,-1.071380615234375,-0.1373443603515625
1791114723027133700,6.2771337890625,-0.3751373291015625,-1.1740570068359375,-0.237823486328125
1791114723037204700,6.287204833984375,-0.3259429931640625,-0.89697265625,-0.0877838134765625
1791114723047274500,6.2972744140625,0.1666412353515625,-0.697021484375,0.025634765625
1791114723057345500,6.307345458984375,0.065277099609375,-0.5703887939453125,0.1521759033203125
1791114723067416600,6.31741650390625,-0.5225830078125,-0.452117919921875,0.2268829345703125
1791114723077487600,6.327487548828125,-1.048736572265625,-0.281707763671875,0.2173614501953125
1791114723087558700,6.33755859375,-0.8739776611328125,-0.5698394775390625,0.0724639892578125
1791114723097629700,6.347629638671875,-0.3734283447265625,-1.2734222412109375,-0.175201416015625
1791114723107700500,6.357700439453125,-0.1999053955078125,-1.597412109375,-0.14093017578125
1791114723117771500,6.367771484375,-0.6864471435546875,-0.9712371826171875,-0.0236358642578125
1791114723127842600,6.377842529296875,-0.5657196044921875,-0.7008514404296875,-0.0314178466796875
1791114723137913600,6.38791357421875,0.0334930419921875,-0.7880401611328125,-0.1510162353515625
1791114723147984600,6.397984619140625,0.050262451171875,-0.65289306640625,-0.0160064697265625
1791114723158055700,6.4080556640625,-0.0256500244140625,-0.8630828857421875,0.0278472900390625
1791114723168126700,6.418126708984375,-0.3109283447265625,-1.134765625,-0.0550689697265625
1791114723178197500,6.428197509765625,-0.9424896240234375,-1.095458984375,-0.045623779296875
1791114723188268500,6.4382685546875,-1.1985931396484375,-0.8924407958984375,-0.11761474609375
1791114723198339600,6.448339599609375,-0.6773834228515625,-0.972564697265625,-0.2420806884765625
1791114723208410600,6.45841064453125,0.0182342529296875,-1.0919036865234375,-0.0989227294921875
1791114723218481700,6.468481689453125,0.021270751953125,-1.0072174072265625,0.0751953125
1791114723228551700,6.4785517578125,-0.377777099609375,-0.7493438720703125,0.2003326416015625
1791114723238622700,6.488622802734375,-0.81390380859375,-0.8576202392578125,0.1768798828125
1791114723248693800,6.49869384765625,-0.7642059326171875,-1.168731689453125,-0.0007781982421875
1791114723258764800,6.508764892578125,-0.85467529296875,-1.1044464111328125,-0.1376190185546875
1791114723268835800,6.5188359375,-0.3487701416015625,-1.050750732421875,-0.1681671142578125
1791114723278907000,6.528906982421875,0.2816162109375,-1.114044189453125,-0.287261962890625
1791114723288977700,6.538977783203125,-0.044158935546875,-0.7867584228515625,-0.2089691162109375
1791114723299048700,6.549048583984375,-0.941925048828125,-0.6571197509765625,0.0426788330078125
1791114723309119700,6.55911962890625,-1.268402099609375,-0.925445556640625,0.0496978759765625
1791114723319190800,6.569190673828125,-0.93487548828125,-1.0057525634765625,-0.1489410400390625
1791114723329261800,6.57926171875,-0.137420654296875,-0.8527374267578125,-0.195831298828125
1791114723339332900,6.589332763671875,0.279693603515625,-0.646331787109375,-0.145416259765625
1791114723349403600,6.599403564453125,0.2075347900390625,-0.6190948486328125,-0.0625
1791114723359474700,6.609474609375,-0.28302001953125,-0.7567138671875,0.0564727783203125
1791114723369545700,6.619545654296875,-0.40216064453125,-1.03076171875,0.0759124755859375
1791114723379616800,6.62961669921875,-0.5717620849609375,-1.369873046875,-0.0533599853515625
1791114723389687800,6.639687744140625,-0.89813232421875,-1.1230010986328125,-0.11090087890625
1791114723399758800,6.6497587890625,-0.6571807861328125,-0.889678955078125,-0.091278076171875
1791114723409828600,6.65982861328125,-0.2726593017578125,-0.8316802978515625,-0.1431732177734375
1791114723419899600,6.669899658203125,0.25439453125,-0.963531494140625,-0.08245849609375
1791114723429970700,6.679970703125,0.001953125,-0.79766845703125,0.0503082275390625
1791114723440041700,6.690041748046875,0.2963104248046875,-0.767791748046875,0.0824737548828125
1791114723450112800,6.70011279296875,0.6134796142578125,-0.786865234375,-0.1789093017578125
1791114723460183600,6.71018359375,-0.32293701171875,-0.8641357421875,-0.0489044189453125
1791114723470254600,6.720254638671875,-1.3815765380859375,-1.046112060546875,0.161285400390625
1791114723480325600,6.73032568359375,-1.3630828857421875,-1.24810791015625,-0.2098846435546875
1791114723490396700,6.740396728515625,-0.5194549560546875,-1.3136138916015625,-0.3351898193359375
1791114723500467700,6.7504677734375,0.4630279541015625,-1.0161285400390625,-0.289825439453125
1791114723510538800,6.760538818359375,0.157806396484375,-0.72271728515625,-0.158538818359375
1791114723520609500,6.770609619140625,-1.5560760498046875,-0.77886962890625,0.2442626953125
1791114723530680600,6.7806806640625,-1.714447021484375,-1.167388916015625,0.2047119140625
1791114723540751600,6.790751708984375,-0.813507080078125,-1.4279327392578125,-0.0771484375
1791114723550822700,6.80082275390625,0.1908721923828125,-1.1875457763671875,-0.1988983154296875
1791114723560893700,6.810893798828125,0.686279296875,-0.862335205078125,-0.2686309814453125
1791114723570964700,6.82096484375,0.4284210205078125,-0.3753662109375,-0.077850341796875
1791114723581034800,6.83103466796875,0.0624847412109375,-0.4366302490234375,0.125457763671875
1791114723591105800,6.841105712890625,-0.9598541259765625,-0.757354736328125,-0.018402099609375
1791114723601176800,6.8511767578125,-1.6768951416015625,-1.10333251953125,-0.1927032470703125
1791114723611247900,6.861247802734375,-1.5165557861328125,-1.212249755859375,-0.2179718017578125
1791114723621319000,6.87131884765625,-0.6122894287109375,-1.2021026611328125,-0.0866546630859375
1791114723631389700,6.8813896484375,0.3359375,-1.05194091796875,-0.0254669189453125
1791114723641460500,6.89146044921875,0.2459564208984375,-0.794189453125,0.0719757080078125
1791114723651531300,6.90153125,-0.63397216796875,-0.5930633544921875,0.2466888427734375
1791114723661602300,6.911602294921875,-0.645721435546875,-0.796295166015625,0.12982177734375
1791114723671673300,6.92167333984375,-0.3650665283203125,-0.9974365234375,-0.097625732421875
1791114723681744400,6.931744384765625,-0.273529052734375,-0.8777008056640625,-0.1529541015625
1791114723691815400,6.9418154296875,-0.4429473876953125,-0.61212158203125,-0.0616302490234375
1791114723701886500,6.951886474609375,-0.869842529296875,-0.294952392578125,0.156707763671875
1791114723711957200,6.961957275390625,-0.8256988525390625,-0.6036376953125,0.103302001953125
1791114723722028300,6.9720283203125,-0.8559112548828125,-1.01690673828125,-0.040374755859375
1791114723732099300,6.982099365234375,-0.620452880859375,-1.1624298095703125,-0.141510009765625
1791114723742170400,6.99217041015625,-0.3496551513671875,-1.0701904296875,-0.0591888427734375
1791114723752241400,7.002241455078125,-0.1169586181640625,-0.9171295166015625,0.0024566650390625
1791114723762312400,7.0123125,0.131988525390625,-0.842132568359375,0.0013580322265625
1791114723772382200,7.02238232421875,0.3146209716796875,-1.071380615234375,-0.033447265625
1791114723782453200,7.032453369140625,-0.5223846435546875,-1.072479248046875,-0.0955657958984375
1791114723792524300,7.042524169921875,-1.441558837890625,-0.9402008056640625,-0.0499267578125
1791114723802595300,7.05259521484375,-0.97418212890625,-1.012420654296875,-0.076690673828125
1791114723812666400,7.062666259765625,-0.2472381591796875,-1.0816192626953125,-0.267303466796875
1791114723822737200,7.072737060546875,-0.2178955078125,-0.865692138671875,-0.0995330810546875
1791114723832808200,7.08280810546875,-1.02923583984375,-0.3891143798828125,0.154144287109375
1791114723842879200,7.092879150390625,-0.375518798828125,-0.716278076171875,0.2085113525390625
1791114723852950300,7.1029501953125,0.797332763671875,-1.222869873046875,-0.0184478759765625
1791114723863021300,7.113021240234375,0.330718994140625,-1.0926513671875,0.0134124755859375
1791114723873092400,7.12309228515625,-0.3683013916015625,-0.94635009765625,0.203369140625
1791114723883163100,7.1331630859375,-0.664276123046875,-0.8526611328125,0.243316650390625
1791114723893234200,7.143234130859375,-0.7052764892578125,-1.0265350341796875,0.139801025390625
1791114723903305200,7.15330517578125,-0.0266265869140625,-1.332489013671875,-0.13336181640625
1791114723913376300,7.163376220703125,0.0374603271484375,-1.160980224609375,-0.3705596923828125
1791114723923447300,7.173447265625,-0.8491668701171875,-0.755950927734375,-0.3742828369140625
1791114723933518300,7.183518310546875,-1.1850128173828125,-0.5611114501953125,-0.2183837890625
1791114723943589000,7.193589111328125,-0.6251373291015625,-0.8310089111328125,-0.2953033447265625
1791114723953659400,7.203659423828125,-0.1260833740234375,-0.9189910888671875,-0.3586578369140625
1791114723963730400,7.21373046875,0.0820159912109375,-0.9830322265625,-0.2604827880859375
1791114723973801500,7.223801513671875,-0.3535614013671875,-0.6844482421875,-0.000701904296875
1791114723983872500,7.23387255859375,-0.6421051025390625,-0.6902923583984375,0.1047515869140625
1791114723993943300,7.243943359375,-0.9161834716796875,-1.23211669921875,-0.045989990234375
1791114724004014300,7.254014404296875,-1.0336761474609375,-1.3106231689453125,-0.29315185546875
1791114724014085400,7.26408544921875,-0.24371337890625,-1.2067108154296875,-0.396942138671875
1791114724024156400,7.274156494140625,0.1046905517578125,-0.8023681640625,-0.2852783203125
1791114724034227500,7.2842275390625,0.284515380859375,-0.712677001953125,0.046600341796875
1791114724044298500,7.294298583984375,0.1331329345703125,-0.6534423828125,0.2836761474609375
1791114724054369300,7.304369384765625,-0.6738739013671875,-0.6983795166015625,0.3186798095703125
1791114724064440300,7.3144404296875,-1.27508544921875,-0.995880126953125,0.167205810546875
1791114724074511400,7.324511474609375,-1.0511627197265625,-1.028717041015625,-0.0720062255859375
1791114724084582400,7.33458251953125,-0.2438201904296875,-1.0515289306640625,-0.2666015625
1791114724094653400,7.3446533203125,0.233856201171875,-0.962921142578125,-0.1975860595703125
1791114724104724500,7.354724365234375,-0.2034149169921875,-0.762115478515625,0.0068817138671875
1791114724114795500,7.36479541015625,-1.11798095703125,-0.4131622314453125,0.3225555419921875
1791114724124866300,7.3748662109375,-0.4824676513671875,-0.5672760009765625,0.2688751220703125
1791114724134936300,7.384936279296875,0.25897216796875,-0.94488525390625,0.05029296875
1791114724145007400,7.39500732421875,0.28704833984375,-0.95428466796875,-0.0135345458984375
1791114724155078400,7.405078369140625,-0.349884033203125,-0.81927490234375,0.0315704345703125
1791114724165149200,7.415149169921875,-0.89459228515625,-0.7761077880859375,0.07958984375
1791114724175220200,7.42522021484375,-0.7704010009765625,-1.007781982421875,-0.00775146484375
1791114724185291300,7.435291259765625,-0.3539276123046875,-1.2747650146484375,-0.1677703857421875
1791114724195362300,7.4453623046875,-1.118377685546875,-1.2103271484375,-0.1317291259765625
1791114724205433300,7.455433349609375,-1.3326263427734375,-1.0097808837890625,0.1185455322265625
1791114724215504400,7.46550439453125,-0.566986083984375,-0.7713470458984375,0.0801849365234375
1791114724225575400,7.475575439453125,0.516693115234375,-0.807830810546875,0.0070953369140625
1791114724235646200,7.485646240234375,0.7310028076171875,-0.851287841796875,-0.039154052734375
1791114724245717200,7.49571728515625,-0.17144775390625,-0.6379241943359375,0.0160980224609375
1791114724255788300,7.505788330078125,-0.952056884765625,-0.648956298828125,0.2235565185546875
1791114724265859300,7.515859375,-0.532684326171875,-1.15576171875,0.0445709228515625
1791114724275930400,7.525930419921875,-0.3442230224609375,-1.4370880126953125,-0.30035400390625
1791114724286001400,7.53600146484375,-0.7967987060546875,-1.05712890625,-0.2427215576171875
1791114724296072200,7.546072265625,-1.0042877197265625,-0.646728515625,0.0446014404296875
1791114724306142200,7.55614208984375,-0.715667724609375,-0.73284912109375,0.0924530029296875
1791114724316213200,7.566213134765625,0.0341033935546875,-1.1341705322265625,-0.0219268798828125
1791114724326284300,7.5762841796875,0.35272216796875,-1.172454833984375,-0.053985595703125
1791114724336355300,7.586355224609375,-0.685699462890625,-0.7266387939453125,0.0850830078125
1791114724346426400,7.59642626953125,-1.3802032470703125,-0.766021728515625,0.23602294921875
1791114724356497400,7.606497314453125,-0.9922637939453125,-0.9974212646484375,0.08648681640625
1791114724366568400,7.616568359375,-0.167694091796875,-1.09417724609375,-0.1995697021484375
1791114724376639500,7.626639404296875,0.561309814453125,-1.0873565673828125,-0.3146514892578125
1791114724386710500,7.63671044921875,-0.2678985595703125,-0.54095458984375,-0.036224365234375
1791114724396781600,7.646781494140625,-0.9096832275390625,-0.3436279296875,0.356536865234375
1791114724406852400,7.656852294921875,-0.487579345703125,-0.7726593017578125,0.2514190673828125
1791114724416923400,7.66692333984375,0.1675262451171875,-1.1160736083984375,-0.06689453125
1791114724426994400,7.676994384765625,0.2956085205078125,-0.9831085205078125,-0.211761474609375
1791114724437065500,7.6870654296875,-0.060638427734375,-0.7259674072265625,-0.0743560791015625
1791114724447136500,7.697136474609375,-0.913177490234375,-0.759368896484375,-0.054412841796875
1791114724457207600,7.70720751953125,-0.7239837646484375,-1.371826171875,-0.01666259765625
1791114724467278300,7.7172783203125,-0.5824737548828125,-1.692413330078125,-0.050140380859375
1791114724477349400,7.727349365234375,-1.0391845703125,-1.270355224609375,0.05535888671875
1791114724487419400,7.73741943359375,-1.0251617431640625,-0.587188720703125,0.132537841796875
1791114724497490400,7.747490478515625,-0.045806884765625,-0.477935791015625,0.0601348876953125
1791114724507561500,7.7575615234375,0.5621185302734375,-0.69659423828125,-0.1263275146484375
1791114724517632300,7.76763232421875,0.671051025390625,-0.89398193359375,-0.199066162109375
1791114724527703300,7.777703369140625,-0.700042724609375,-0.3645477294921875,0.00372314453125
1791114724537774300,7.7877744140625,-0.9476776123046875,-0.7390594482421875,-0.0096588134765625
1791114724547845400,7.797845458984375,-0.6708831787109375,-1.46600341796875,-0.3653106689453125
1791114724557916400,7.80791650390625,-0.548614501953125,-1.416259765625,-0.36309814453125
1791114724567987500,7.817987548828125,0.165252685546875,-1.18536376953125,-0.2286224365234375
1791114724578058200,7.828058349609375,0.2221527099609375,-0.7667083740234375,-0.13916015625
1791114724588129300,7.83812939453125,-0.360076904296875,-0.51300048828125,0.186767578125
1791114724598200300,7.848200439453125,-0.4270782470703125,-0.827239990234375,0.3333587646484375
1791114724608271400,7.858271240234375,-0.080352783203125,-1.22698974609375,0.106231689453125
1791114724618342400,7.86834228515625,-0.48846435546875,-1.06219482421875,-0.0142822265625
1791114724628413400,7.878413330078125,-0.6680145263671875,-0.7887115478515625,0.0083770751953125
1791114724638484200,7.888484130859375,-0.503326416015625,-0.8787689208984375,-0.042877197265625
1791114724648555300,7.89855517578125,-0.626068115234375,-0.9030914306640625,-0.0176239013671875
1791114724658625300,7.908625244140625,-0.8273773193359375,-0.8051910400390625,0.037841796875
1791114724668696300,7.9186962890625,-0.456787109375,-0.6703948974609375,0.059417724609375
1791114724678767400,7.928767333984375,0.3923797607421875,-0.7265167236328125,-0.1386566162109375
1791114724688838100,7.938838134765625,-0.0785980224609375,-0.839813232421875,-0.0901947021484375
1791114724698909200,7.9489091796875,-0.93994140625,-0.9053955078125,0.0431671142578125
1791114724708980200,7.958980224609375,-0.985137939453125,-1.0649261474609375,-0.0053253173828125
1791114724719051300,7.96905126953125,-0.9877471923828125,-0.865692138671875,-0.1271514892578125
1791114724729122300,7.979122314453125,-0.481964111328125,-0.91339111328125,-0.10296630859375
1791114724739193300,7.989193359375,-0.0237579345703125,-0.9740142822265625,-0.11639404296875
1791114724749264100,7.99926416015625,-0.3051300048828125,-0.920318603515625,-0.0509033203125
1791114724759335200,8.009335205078125,-0.8368988037109375,-0.771881103515625,-0.0023193359375
1791114724769406200,8.01940625,-0.8105926513671875,-0.7156219482421875,0.005645751953125
1791114724779477200,8.029477294921875,-0.564666748046875,-0.679931640625,0.0147857666015625
1791114724789548300,8.03954833984375,-0.2855224609375,-0.80865478515625,-0.0574951171875
1791114724799619300,8.049619384765625,0.0006866455078125,-0.966552734375,-0.0221710205078125
1791114724809690000,8.059690185546875,0.0102386474609375,-1.0134429931640625,0.0692138671875
1791114724819761200,8.06976123046875,-0.5509185791015625,-0.875,0.1009521484375
1791114724829832200,8.079832275390626,-0.9822998046875,-0.9086456298828125,0.09814453125
1791114724839903200,8.0899033203125,-0.7714996337890625,-0.983489990234375,0.089752197265625
1791114724849973500,8.099973388671875,-0.3064727783203125,-0.9868316650390625,-0.0005645751953125
1791114724860044300,8.110044189453125,0.075836181640625,-0.9860687255859375,-0.0917205810546875
1791114724870115300,8.120115234375,-0.1086578369140625,-0.73046875,-0.052490234375
1791114724880186400,8.130186279296876,-0.0993194580078125,-0.71392822265625,-0.0561981201171875
1791114724890257400,8.14025732421875,-0.521270751953125,-0.8687591552734375,-0.1282501220703125
1791114724900328400,8.150328369140626,-0.9850006103515625,-1.0582275390625,-0.033447265625
1791114724910399500,8.1603994140625,-0.8610687255859375,-1.1448974609375,-0.02716064453125
1791114724920470300,8.17047021484375,-0.4502716064453125,-1.0994110107421875,-0.107391357421875
1791114724930541300,8.180541259765626,-0.126251220703125,-0.954132080078125,-0.1701812744140625
1791114724940612400,8.1906123046875,-0.29229736328125,-0.67230224609375,-0.14410400390625
1791114724950683400,8.200683349609376,-0.4556884765625,-0.6985015869140625,-0.04949951171875
1791114724960754400,8.21075439453125,-0.697998046875,-0.892730712890625,-0.0709228515625
1791114724970825500,8.220825439453124,-0.478485107421875,-0.9799346923828125,-0.102142333984375
1791114724980896300,8.230896240234374,-0.05078125,-0.9985809326171875,-0.2248382568359375
1791114724990967300,8.24096728515625,-0.158447265625,-0.740264892578125,-0.2674102783203125
1791114725001038300,8.251038330078124,-0.51153564453125,-0.5713348388671875,-0.22784423828125
1791114725011109400,8.261109375,-0.738922119140625,-0.8020782470703125,-0.147613525390625
1791114725021180400,8.271180419921874,-1.22198486328125,-1.122406005859375,-0.06884765625
1791114725031250200,8.281250244140624,-1.477569580078125,-1.192169189453125,-0.226043701171875
1791114725041321200,8.2913212890625,-0.5992584228515625,-1.1159515380859375,-0.335693359375
1791114725051392300,8.301392333984374,0.5156402587890625,-0.997711181640625,-0.5230560302734375
1791114725061463300,8.31146337890625,0.467864990234375,-0.6411895751953125,-0.303619384765625
1791114725071534300,8.321534423828124,-0.3118133544921875,-0.4821319580078125,0.0190277099609375
1791114725081605400,8.33160546875,-0.73516845703125,-0.616302490234375,0.1118927001953125
1791114725091676200,8.34167626953125,-0.492889404296875,-0.89044189453125,-0.0577850341796875
1791114725101747200,8.351747314453124,-0.495330810546875,-1.1222686767578125,-0.265228271484375
1791114725111818200,8.361818359375,-0.79193115234375,-1.00079345703125,-0.262786865234375
1791114725121889300,8.37188916015625,-0.632568359375,-1.0101470947265625,-0.120208740234375
1791114725131960300,8.381960205078125,-0.3277435302734375,-0.9775848388671875,-0.098602294921875
1791114725142031400,8.39203125,-0.09747314453125,-0.96282958984375,-0.115264892578125
1791114725152102100,8.40210205078125,-0.18646240234375,-1.0524749755859375,-0.048797607421875
1791114725162173200,8.412173095703125,-0.5801849365234375,-0.9359130859375,0.1011199951171875
1791114725172244200,8.422244140625,-0.605743408203125,-0.9637451171875,0.233612060546875
1791114725182315300,8.432315185546875,-0.09088134765625,-0.94140625,0.1611328125
1791114725192386300,8.44238623046875,-0.0468597412109375,-0.942657470703125,0.0936737060546875
1791114725202456300,8.452456298828125,-0.579437255859375,-0.6541595458984375,0.1699676513671875
1791114725212527400,8.46252734375,-0.9069366455078125,-0.66314697265625,0.1149749755859375
1791114725222598400,8.472598388671875,-0.247039794921875,-0.9313507080078125,-0.0545654296875
1791114725232669400,8.48266943359375,0.2058868408203125,-1.09796142578125,-0.21392822265625
1791114725242740500,8.492740478515625,-0.1579742431640625,-1.03955078125,-0.036834716796875
1791114725252811500,8.5028115234375,-0.9358062744140625,-0.7089691162109375,0.1867523193359375
1791114725262882300,8.51288232421875,-1.041595458984375,-0.7067413330078125,0.1276702880859375
1791114725272953300,8.522953369140625,-0.332427978515625,-1.0805816650390625,-0.110260009765625
1791114725283024400,8.5330244140625,0.59130859375,-1.3480224609375,-0.3702545166015625
1791114725293095400,8.543095458984375,0.3198394775390625,-0.9484100341796875,-0.2172698974609375
1791114725303166500,8.55316650390625,-1.0306396484375,-0.6202239990234375,0.129302978515625
1791114725313237500,8.563237548828125,-1.4686431884765625,-0.8253936767578125,0.208648681640625
1791114725323308300,8.573308349609375,-0.87420654296875,-1.07342529296875,-0.09320068359375
1791114725333379300,8.58337939453125,0.0844268798828125,-1.113372802734375,-0.3621368408203125
1791114725343450400,8.593450439453125,0.2443695068359375,-0.74102783203125,-0.262237548828125
1791114725353521400,8.603521484375,-0.2152862548828125,-0.547637939453125,0.0390472412109375
1791114725363592400,8.613592529296875,-0.67657470703125,-0.8509979248046875,0.087677001953125
1791114725373662200,8.623662109375,-0.899261474609375,-1.1579742431640625,0.0255126953125
1791114725383733200,8.633733154296875,-0.4278411865234375,-1.1750946044921875,-0.0983123779296875
1791114725393804300,8.64380419921875,0.09368896484375,-1.066925048828125,-0.1787109375
1791114725403875300,8.653875244140625,-0.1661224365234375,-0.7299957275390625,-0.0747833251953125
1791114725413946400,8.6639462890625,-0.3140411376953125,-0.8618927001953125,0.0799407958984375
1791114725424017400,8.674017333984375,-0.626251220703125,-0.9625244140625,0.0276641845703125
1791114725434088200,8.684088134765625,-0.8303985595703125,-1.0316314697265625,-0.126007080078125
1791114725444159200,8.6941591796875,-0.850799560546875,-0.8527679443359375,-0.1063232421875
1791114725454230300,8.704230224609375,-0.655517578125,-0.677886962890625,-0.0920562744140625
1791114725464301300,8.71430126953125,-0.226409912109375,-0.829254150390625,-0.07574462890625
1791114725474372400,8.724372314453126,-0.0166778564453125,-0.9579010009765625,-0.0600128173828125
1791114725484443400,8.734443359375,-0.6705169677734375,-0.60418701171875,0.0123138427734375
1791114725494514200,8.74451416015625,-0.4563446044921875,-0.6783294677734375,-0.038665771484375
1791114725504585200,8.754585205078126,-0.1998443603515625,-0.908538818359375,-0.155609130859375
1791114725514656300,8.76465625,-0.528076171875,-1.1033782958984375,-0.19781494140625
1791114725524727300,8.774727294921876,-0.813140869140625,-1.1426849365234375,-0.1261138916015625
1791114725534798300,8.78479833984375,-0.7255706787109375,-0.9835052490234375,-0.1901397705078125
1791114725544869400,8.794869384765626,-0.3705596923828125,-0.841461181640625,-0.2249755859375
1791114725554939400,8.804939453125,0.343414306640625,-0.7928924560546875,-0.171478271484375
1791114725565010400,8.815010498046876,0.1295013427734375,-0.9284820556640625,-0.102447509765625
1791114725575081500,8.82508154296875,-1.554290771484375,-0.95458984375,0.2135467529296875
1791114725585152500,8.835152587890626,-1.5247802734375,-0.9691009521484375,0.317413330078125
1791114725595223600,8.8452236328125,-0.637542724609375,-1.0412750244140625,-0.127197265625
1791114725605294300,8.85529443359375,0.3898468017578125,-1.094085693359375,-0.3564605712890625
1791114725615365400,8.865365478515624,0.707550048828125,-0.91693115234375,-0.269195556640625
1791114725625436400,8.8754365234375,-0.00885009765625,-0.7359161376953125,0.0573883056640625
1791114725635507700,8.8855078125,-1.058837890625,-0.8213043212890625,0.3153228759765625
1791114725645578500,8.89557861328125,-1.2127685546875,-1.1999053955078125,0.1802825927734375
1791114725655649500,8.9056494140625,-0.61883544921875,-1.2021026611328125,-0.1531829833984375
1791114725665720600,8.915720458984374,-0.0483856201171875,-0.931610107421875,-0.3697662353515625
1791114725675791600,8.92579150390625,0.1755523681640625,-0.8590545654296875,-0.159912109375
1791114725685862700,8.935862548828124,-0.2855377197265625,-0.6845703125,0.1414947509765625
1791114725695933700,8.94593359375,-0.3537750244140625,-0.7675018310546875,0.18701171875
1791114725706004700,8.956004638671875,-0.612518310546875,-1.012542724609375,-0.0335845947265625
1791114725716075800,8.96607568359375,-0.969512939453125,-1.1339263916015625,-0.1476287841796875
1791114725726145800,8.976145751953124,-0.8689117431640625,-1.142120361328125,-0.147491455078125
1791114725736216800,8.986216796875,-0.406402587890625,-1.1178131103515625,-0.1421051025390625
1791114725746287900,8.996287841796875,0.0429534912109375,-0.883941650390625,-0.0770263671875
1791114725756358700,9.006358642578125,0.25604248046875,-0.48614501953125,0.0256805419921875
1791114725766429700,9.0164296875,0.5810394287109375,-0.498870849609375,0.11138916015625
1791114725776500700,9.026500732421875,-0.4839630126953125,-0.7951202392578125,0.12750244140625
1791114725786571800,9.03657177734375,-1.5875244140625,-1.1918792724609375,0.0587005615234375
1791114725796642800,9.046642822265625,-1.5691070556640625,-1.3456573486328125,-0.0675506591796875
1791114725806713900,9.0567138671875,-0.7252197265625,-1.198974609375,-0.2021331787109375
1791114725816784600,9.06678466796875,0.5603485107421875,-1.0524444580078125,-0.1414031982421875
1791114725826855700,9.076855712890625,0.7192230224609375,-0.6989898681640625,0.115234375
1791114725836926700,9.0869267578125,-0.288970947265625,-0.5891876220703125,0.2311248779296875
1791114725846997800,9.096997802734375,-1.0689544677734375,-0.74908447265625,0.1717681884765625
1791114725857068800,9.10706884765625,-1.0548553466796875,-1.0035552978515625,0.05908203125
1791114725867139800,9.117139892578125,-0.6107025146484375,-1.190826416015625,-0.0272216796875
1791114725877210600,9.127210693359375,-0.2814178466796875,-1.04461669921875,0.0351104736328125
1791114725887281700,9.13728173828125,-0.410308837890625,-0.8903350830078125,0.1665802001953125
1791114725897352700,9.147352783203125,-0.7886810302734375,-0.8330078125,0.2428436279296875
1791114725907422700,9.157422607421875,-0.5126190185546875,-0.961456298828125,0.1813507080078125
1791114725917493800,9.16749365234375,0.42230224609375,-1.043487548828125,-0.0587921142578125
1791114725927564500,9.177564453125,0.2370147705078125,-0.8166046142578125,-0.1172637939453125
1791114725937635600,9.187635498046875,-0.4535369873046875,-0.576171875,-0.05401611328125
1791114725947706600,9.19770654296875,-0.689605712890625,-0.7360076904296875,0.015594482421875
1791114725957777700,9.207777587890625,-0.7428741455078125,-1.0487823486328125,-0.0923614501953125
1791114725967848700,9.2178486328125,-0.946502685546875,-1.3101959228515625,-0.2738189697265625
1791114725977919700,9.227919677734375,-1.0641632080078125,-1.1565704345703125,-0.187652587890625
1791114725987990500,9.237990478515625,-0.5687103271484375,-0.8221893310546875,-0.0209197998046875
1791114725998061600,9.2480615234375,-0.3218994140625,-0.659149169921875,0.100311279296875
1791114726008132600,9.258132568359375,-0.159576416015625,-0.8067474365234375,0.0741729736328125
1791114726018203600,9.26820361328125,-0.3308563232421875,-0.792205810546875,0.00152587890625
1791114726028274700,9.278274658203125,-0.3014068603515625,-0.8282318115234375,-0.033203125
1791114726038345700,9.288345703125,-0.4942626953125,-0.8615875244140625,0.094390869140625
1791114726048416500,9.29841650390625,-0.581512451171875,-0.9432373046875,0.152099609375
1791114726058487600,9.308487548828126,-0.2957916259765625,-1.023956298828125,0.0221405029296875
1791114726068558600,9.31855859375,-0.3191070556640625,-0.86773681640625,-0.0835723876953125
1791114726078628900,9.32862890625,-0.5462493896484375,-0.6816558837890625,-0.0787353515625
1791114726088700000,9.338699951171876,-0.551300048828125,-0.7397918701171875,-0.0389862060546875
1791114726098770700,9.348770751953126,-0.2329864501953125,-0.968017578125,-0.166229248046875
1791114726108841700,9.358841796875,-0.4735565185546875,-1.1069793701171875,-0.2568817138671875
1791114726118912800,9.368912841796876,-0.46820068359375,-0.9779052734375,-0.1752777099609375
1791114726128983800,9.37898388671875,-0.2529144287109375,-0.855743408203125,-0.06805419921875
1791114726139054800,9.389054931640626,-0.2537994384765625,-0.75347900390625,0.00640869140625
1791114726149126000,9.3991259765625,-0.1551666259765625,-0.9408416748046875,-0.075103759765625
1791114726159196700,9.40919677734375,-0.336761474609375,-0.955657958984375,-0.0833587646484375
1791114726169267700,9.419267822265626,-0.7266693115234375,-0.777618408203125,-0.00921630859375
1791114726179338800,9.4293388671875,-1.1148834228515625,-0.8271636962890625,-0.0018768310546875
1791114726189409800,9.439409912109374,-1.11639404296875,-0.856475830078125,-0.0370635986328125
1791114726199480800,9.449480712890624,-0.5651397705078125,-0.9721527099609375,-0.1579742431640625
1791114726209552000,9.4595517578125,0.2420501708984375,-1.2813720703125,-0.1713409423828125
1791114726219622700,9.46962255859375,0.199493408203125,-1.0564117431640625,-0.080963134765625
1791114726229693700,9.479693603515624,0.249908447265625,-0.8848419189453125,0.05572509765625
1791114726239763700,9.489763671875,0.2086029052734375,-0.8198394775390625,0.075836181640625
1791114726249834800,9.499834716796874,-0.299407958984375,-0.651611328125,0.0979461669921875
1791114726259905800,9.50990576171875,-0.4446868896484375,-0.83001708984375,0.043975830078125
1791114726269976600,9.5199765625,-0.43194580078125,-0.929779052734375,-0.08355712890625
1791114726280047600,9.530047607421874,-0.6106719970703125,-0.926513671875,-0.1048431396484375
1791114726290118700,9.54011865234375,-0.7086639404296875,-0.9635772705078125,0.01702880859375
1791114726300189700,9.550189697265624,-0.801239013671875,-1.05621337890625,0.1151275634765625
1791114726310260700,9.5602607421875,-0.894012451171875,-0.961578369140625,0.1871490478515625
1791114726320331800,9.570331787109374,-0.410247802734375,-0.9094696044921875,0.10931396484375
1791114726330402600,9.580402587890624,0.430633544921875,-0.9188385009765625,0.0347137451171875
1791114726340473600,9.5904736328125,0.2519989013671875,-0.684722900390625,0.072540283203125
1791114726350544600,9.600544677734375,-0.376678466796875,-0.5667877197265625,0.225433349609375
1791114726360615700,9.61061572265625,-0.886871337890625,-0.7306060791015625,0.1992645263671875
1791114726370686700,9.620686767578125,-0.508575439453125,-1.02288818359375,0.0088348388671875
1791114726380757800,9.6307578125,-0.32379150390625,-1.08514404296875,-0.227264404296875
1791114726390828500,9.64082861328125,-0.5074310302734375,-0.991546630859375,-0.2905426025390625
1791114726400899600,9.650899658203125,-0.729522705078125,-0.812103271484375,-0.06182861328125
1791114726410970600,9.660970703125,-0.8624114990234375,-0.6553497314453125,0.0167999267578125
1791114726421041000,9.671041015625,-0.299346923828125,-0.95623779296875,-0.0028533935546875
1791114726431112000,9.68111181640625,-0.3650360107421875,-1.1314849853515625,-0.1245269775390625
1791114726441182700,9.6911826171875,-1.408111572265625,-1.0634918212890625,0.0121307373046875
1791114726451253800,9.701253662109375,-1.517852783203125,-1.117462158203125,0.0908660888671875
1791114726461324800,9.71132470703125,-0.2610321044921875,-1.1286468505859375,-0.20611572265625
1791114726471395800,9.721395751953125,1.049407958984375,-1.1874237060546875,-0.3117828369140625
1791114726481467000,9.731466796875,0.9042205810546875,-0.7675018310546875,-0.258575439453125
1791114726491538000,9.741537841796875,-0.713592529296875,-0.174591064453125,0.1432952880859375
1791114726501608700,9.751608642578125,-1.534515380859375,-0.3440704345703125,0.447021484375
1791114726511679700,9.7616796875,-0.78643798828125,-1.0552215576171875,0.0430145263671875
1791114726521750800,9.771750732421875,-0.4107513427734375,-1.2834320068359375,-0.325103759765625
1791114726531821800,9.78182177734375,-0.3718719482421875,-0.9769287109375,-0.2100067138671875
1791114726541892900,9.791892822265625,-0.387969970703125,-0.705230712890625,-0.076263427734375
1791114726551964000,9.8019638671875,-0.5281219482421875,-0.642303466796875,-0.1045379638671875
1791114726562034700,9.81203466796875,-0.038604736328125,-1.0877685546875,-0.1482391357421875
1791114726572105700,9.822105712890625,-0.24993896484375,-1.22283935546875,-0.203369140625
1791114726582176800,9.8321767578125,-1.415130615234375,-0.89056396484375,0.024688720703125
1791114726592246800,9.842246826171875,-1.41754150390625,-0.6939849853515625,0.0985260009765625
1791114726602317800,9.85231787109375,-0.1932373046875,-0.8575286865234375,-0.119293212890625
1791114726612388600,9.862388671875,0.696746826171875,-1.009063720703125,-0.3644256591796875
1791114726622459600,9.872459716796875,0.5151519775390625,-0.871002197265625,-0.241607666015625
1791114726632530700,9.88253076171875,-0.9857177734375,-0.307281494140625,0.172149658203125
1791114726642601500,9.8926015625,-1.6573486328125,-0.69879150390625,0.26519775390625
1791114726652672500,9.902672607421875,-0.7043914794921875,-1.34588623046875,-0.196136474609375
1791114726662743600,9.91274365234375,0.656768798828125,-1.34490966796875,-0.5262908935546875
1791114726672814300,9.922814453125,0.7566070556640625,-0.8466339111328125,-0.329254150390625
1791114726682885400,9.932885498046875,-0.4480133056640625,-0.4508819580078125,0.0046844482421875
1791114726692956400,9.942956298828125,-0.6396636962890625,-0.863739013671875,0.002166748046875
1791114726703027500,9.95302734375,-0.2586212158203125,-1.473876953125,-0.1368560791015625
1791114726713098500,9.963098388671876,-0.38525390625,-1.5026702880859375,-0.2304229736328125
1791114726723169500,9.97316943359375,-0.3040618896484375,-0.9710540771484375,-0.283294677734375
1791114726733240300,9.983240234375,-0.3111724853515625,-0.5088958740234375,-0.11322021484375
1791114726743311400,9.993311279296876,-0.496124267578125,-0.4516143798828125,0.0600738525390625
1791114726753382400,10.00338232421875,-0.0699920654296875,-0.9350128173828125,-0.1261138916015625
1791114726763452400,10.013452392578126,-0.106048583984375,-0.960662841796875,-0.1070556640625
1791114726773523500,10.0235234375,-0.5602264404296875,-0.8226776123046875,0.035247802734375
1791114726783594500,10.033594482421876,-1.065277099609375,-0.981597900390625,-0.05535888671875
1791114726793665500,10.04366552734375,-0.869476318359375,-1.4273681640625,-0.06671142578125
1791114726803736600,10.053736572265626,-0.1704559326171875,-1.3248443603515625,-0.1266326904296875
1791114726813807400,10.063807373046876,0.3997344970703125,-0.93670654296875,-0.2757110595703125
1791114726823878400,10.07387841796875,0.04693603515625,-0.4920654296875,-0.165557861328125
1791114726833949400,10.083949462890626,-0.2088623046875,-0.554443359375,0.0054473876953125
1791114726844020500,10.0940205078125,-0.481353759765625,-0.874603271484375,0.0470123291015625
1791114726854091500,10.104091552734374,-0.7827911376953125,-1.148712158203125,-0.146148681640625
1791114726864162600,10.11416259765625,-1.021484375,-1.015380859375,-0.20355224609375
1791114726874233600,10.124233642578124,-0.9911651611328125,-0.6456756591796875,-0.0989227294921875
1791114726884304600,10.1343046875,-0.6805877685546875,-0.65679931640625,-0.098358154296875
1791114726894375700,10.144375732421874,0.024932861328125,-1.00469970703125,-0.039398193359375
1791114726904446500,10.154446533203124,0.04302978515625,-1.02044677734375,-0.024017333984375
1791114726914517500,10.164517578125,-0.9315948486328125,-0.60321044921875,0.133056640625
1791114726924588500,10.174588623046875,-1.553009033203125,-0.6168060302734375,0.1851043701171875
1791114726934659600,10.18465966796875,-0.9114990234375,-1.038604736328125,0.045684814453125
1791114726944729600,10.1947294921875,-0.279266357421875,-0.997711181640625,-0.03277587890625
1791114726954800400,10.20480029296875,0.1208038330078125,-0.8821258544921875,-0.0896759033203125
1791114726964871400,10.214871337890624,0.447113037109375,-0.9604339599609375,-0.1186981201171875
1791114726974942500,10.2249423828125,-0.5789794921875,-0.4560546875,0.0748138427734375
1791114726985013500,10.235013427734375,-1.96856689453125,-0.4864654541015625,0.2016448974609375
1791114726995084500,10.24508447265625,-1.2468414306640625,-1.3656005859375,-0.0192108154296875
1791114727005155600,10.255155517578125,-0.1862335205078125,-1.291351318359375,-0.239715576171875
1791114727015226400,10.265226318359375,0.5460205078125,-0.962432861328125,-0.0773162841796875
1791114727025297400,10.27529736328125,0.359649658203125,-0.6237030029296875,0.026123046875
1791114727035368400,10.285368408203125,-0.010772705078125,-0.6405029296875,0.0888519287109375
1791114727045439500,10.295439453125,-0.642852783203125,-0.77130126953125,0.12335205078125
1791114727055510500,10.305510498046875,-1.2043914794921875,-1.0490875244140625,0.0260009765625
1791114727065581600,10.31558154296875,-1.0594482421875,-1.285308837890625,-0.0979461669921875
1791114727075652400,10.32565234375,-0.42791748046875,-1.1167449951171875,-0.165313720703125
1791114727085723400,10.335723388671875,0.1724090576171875,-0.8281097412109375,-0.150482177734375
1791114727095794400,10.34579443359375,0.30615234375,-0.7149810791015625,-0.108795166015625
1791114727105864400,10.355864501953125,-0.1834716796875,-0.6145172119140625,0.0232391357421875
1791114727115935500,10.365935546875,-0.733795166015625,-0.759552001953125,0.1424102783203125
1791114727126006300,10.37600634765625,-0.9014434814453125,-1.00701904296875,0.11688232421875
1791114727136077300,10.386077392578125,-0.721343994140625,-1.1536407470703125,0.0057373046875
1791114727146148400,10.3961484375,-0.3719635009765625,-1.0028839111328125,-0.0017242431640625
1791114727156219400,10.406219482421875,-0.260498046875,-0.787078857421875,0.067474365234375
1791114727166290400,10.41629052734375,-0.2743682861328125,-0.6963653564453125,0.049072265625
1791114727176361500,10.426361572265625,-0.2984619140625,-0.7700347900390625,0.0434112548828125
1791114727186432300,10.436432373046875,0.161102294921875,-0.9086456298828125,0.006317138671875
1791114727196503300,10.44650341796875,0.926849365234375,-0.9375152587890625,-0.1470947265625
1791114727206574300,10.45657421875,-1.531524658203125,-0.862335205078125,0.0500640869140625
1791114727216645400,10.466645263671875,-2.8896636962890625,-0.9009857177734375,0.3737640380859375
1791114727226716400,10.47671630859375,-1.1691131591796875,-1.1219940185546875,-0.0321807861328125
1791114727236787500,10.486787353515625,0.957000732421875,-1.407928466796875,-0.3768463134765625
1791114727246858200,10.496858154296875,1.756866455078125,-1.153106689453125,-0.5405426025390625
1791114727256929300,10.50692919921875,-0.247039794921875,-0.2267608642578125,-0.1587982177734375
1791114727267000300,10.517000244140625,-2.358642578125,-0.293304443359375,0.5102081298828125
1791114727277070600,10.527070556640625,-1.975677490234375,-1.264404296875,0.4888916015625
1791114727287141600,10.5371416015625,-0.3081512451171875,-1.668670654296875,-0.1811065673828125
1791114727297212400,10.54721240234375,0.865234375,-1.2645721435546875,-0.358917236328125
1791114727307283500,10.557283447265625,0.5242919921875,-0.564056396484375,-0.0317230224609375
1791114727317354500,10.5673544921875,-0.61669921875,-0.3604278564453125,0.21539306640625
1791114727327425500,10.577425537109375,-1.2769775390625,-0.9424896240234375,0.170806884765625
1791114727337496600,10.58749658203125,-0.7868804931640625,-1.541168212890625,-0.0240631103515625
1791114727347567600,10.597567626953126,-0.026123046875,-1.20159912109375,-0.3178558349609375
1791114727357638400,10.607638427734376,0.0368499755859375,-0.6865081787109375,-0.0221710205078125
1791114727367709400,10.61770947265625,-0.222015380859375,-0.640106201171875,0.1799774169921875
1791114727377780500,10.627780517578126,-0.2610321044921875,-0.9463043212890625,-0.0828857421875
1791114727387851500,10.6378515625,-0.2213287353515625,-0.9197540283203125,-0.150726318359375
1791114727397922600,10.647922607421876,0.5351715087890625,-0.68487548828125,-0.1868743896484375
1791114727407993600,10.65799365234375,0.47222900390625,-0.552215576171875,-0.1898193359375
1791114727418064400,10.668064453125,-0.5625,-0.6178741455078125,-0.0097808837890625
1791114727428135400,10.678135498046874,-1.2630157470703125,-0.781341552734375,0.12152099609375
1791114727438206500,10.68820654296875,-1.16888427734375,-1.019439697265625,-0.0964508056640625
1791114727448276500,10.6982763671875,-0.7614288330078125,-0.91241455078125,-0.2928466796875
1791114727458347500,10.708347412109376,-0.808746337890625,-0.30072021484375,-0.18609619140625
1791114727468418300,10.718418212890626,1.551177978515625,-0.8062744140625,-0.3442840576171875
1791114727478489300,10.7284892578125,1.97808837890625,-1.7892913818359375,-0.506134033203125
1791114727488560400,10.738560302734374,-4.9306182861328125,-1.1727142333984375,0.3840789794921875
1791114727498631400,10.74863134765625,-7.686859130859375,-0.67279052734375,1.0024871826171875
1791114727508702500,10.758702392578124,-1.063812255859375,-1.84423828125,-0.9833831787109375
1791114727518773500,10.7687734375,4.7078399658203125,-2.3468170166015625,-1.554595947265625
1791114727528844300,10.77884423828125,3.5167999267578125,-0.44561767578125,0.0081939697265625
1791114727538915300,10.788915283203124,3.3175048828125,0.292144775390625,0.44940185546875
1791114727548986400,10.798986328125,-3.108001708984375,0.9646148681640625,1.23797607421875
1791114727559057400,10.809057373046874,-4.5253143310546875,-0.9014129638671875,0.867279052734375
1791114727569128400,10.81912841796875,-2.3151397705078125,-2.3139190673828125,-0.844451904296875
1791114727579199500,10.829199462890625,1.39422607421875,-2.3818206787109375,-1.401123046875
1791114727589270300,10.839270263671875,1.7401885986328125,-1.2621612548828125,-1.38055419921875
1791114727599341300,10.84934130859375,-0.1489715576171875,-0.008575439453125,-0.1197967529296875
1791114727609412400,10.859412353515625,-0.6096954345703125,-0.23968505859375,0.5062408447265625
1791114727619482600,10.869482666015625,0.03826904296875,-0.90057373046875,0.48321533203125
1791114727629553700,10.8795537109375,-0.83697509765625,-0.7088470458984375,-0.153961181640625
1791114727639624200,10.889624267578125,-1.1235809326171875,-0.785003662109375,-0.3314208984375
1791114727649695200,10.8996953125,-1.9544677734375,-0.8115386962890625,-0.1942138671875
1791114727659766300,10.909766357421875,-2.2597808837890625,-0.6800079345703125,-0.12091064453125
1791114727669837300,10.91983740234375,-0.6639862060546875,-0.9578399658203125,-0.309661865234375
1791114727679908000,10.929908203125,0.88946533203125,-1.0710601806640625,-0.5910491943359375
1791114727689979100,10.939979248046875,1.0121307373046875,-0.749603271484375,-0.41131591796875
1791114727700050200,10.95005029296875,0.047760009765625,-0.547637939453125,0.1386871337890625
1791114727710121200,10.960121337890625,-0.8218841552734375,-0.6181640625,0.2907867431640625
1791114727720192300,10.970192138671875,-1.1149444580078125,-0.8458709716796875,0.125091552734375
1791114727730263300,10.98026318359375,-0.81134033203125,-0.4091644287109375,-0.034454345703125
1791114727740334000,10.990333984375,0.658203125,-0.6332550048828125,-0.2698974609375
1791114727750405000,11.000405029296875,3.3363494873046875,-2.4675140380859375,-0.544281005859375
1791114727760476200,11.01047607421875,1.803985595703125,-2.474395751953125,-0.4246368408203125
1791114727770547200,11.020547119140625,-3.774627685546875,-0.0572509765625,0.4155426025390625
1791114727780617200,11.0306171875,-4.9837493896484375,0.17132568359375,0.5020904541015625
1791114727790688000,11.04068798828125,-1.309600830078125,-0.6983642578125,-0.4502716064453125
1791114727800759000,11.050759033203125,2.6372222900390625,-1.98248291015625,-1.04168701171875
1791114727810830000,11.060830078125,1.8216094970703125,-1.008453369140625,-0.0467071533203125
1791114727820901000,11.070901123046875,-0.730010986328125,0.04522705078125,0.5908355712890625
1791114727830972200,11.08097216796875,-1.1001129150390625,-0.74053955078125,0.6708831787109375
1791114727841043200,11.091043212890625,-0.962310791015625,-1.452545166015625,0.215118408203125
1791114727851114000,11.101114013671875,-0.61639404296875,-1.687255859375,-0.3385772705078125
1791114727861185000,11.11118505859375,0.226104736328125,-1.3751983642578125,-0.56597900390625
1791114727871256000,11.121256103515625,0.3836212158203125,-0.5957489013671875,-0.4010772705078125
1791114727881327000,11.1313271484375,-0.769561767578125,-0.3733367919921875,-0.0175628662109375
1791114727891398100,11.141398193359375,-1.4429473876953125,-0.796905517578125,0.3019561767578125
1791114727901469200,11.15146923828125,-0.9604949951171875,-0.96319580078125,0.30657958984375
1791114727911540000,11.1615400390625,0.6007232666015625,-1.4582061767578125,-0.2312774658203125
1791114727921611000,11.171611083984375,1.10198974609375,-1.2504425048828125,-0.366180419921875
1791114727931682000,11.18168212890625,-0.29010009765625,-0.545196533203125,-0.03851318359375
1791114727941753000,11.191753173828126,-1.68585205078125,-0.5304412841796875,0.4235076904296875
1791114727951823400,11.2018232421875,-1.5605316162109375,-0.8260955810546875,0.34619140625
1791114727961894100,11.21189404296875,-0.5431060791015625,-0.9892578125,-0.2070770263671875
1791114727971965200,11.221965087890625,0.44073486328125,-0.939697265625,-0.3116607666015625
1791114727982036200,11.2320361328125,0.120758056640625,-0.704437255859375,0.0210113525390625
1791114727992107300,11.242107177734376,-1.2434234619140625,-0.432830810546875,0.216766357421875
1791114728002178300,11.25217822265625,-1.688934326171875,-0.7641143798828125,0.142608642578125
1791114728012249300,11.262249267578126,-1.033782958984375,-1.1043701171875,-0.118255615234375
1791114728022320000,11.272320068359376,-0.02874755859375,-1.0997161865234375,-0.209136962890625
1791114728032391200,11.28239111328125,0.6999969482421875,-0.771209716796875,-0.1084442138671875
1791114728042462200,11.292462158203126,0.420684814453125,-0.5326385498046875,0.0618896484375
1791114728052533200,11.302533203125,-0.5204010009765625,-0.43182373046875,0.2168731689453125
1791114728062604300,11.312604248046876,-1.4349517822265625,-0.5389556884765625,0.179229736328125
1791114728072675300,11.32267529296875,-1.070159912109375,-1.0261688232421875,0.1107635498046875
1791114728082746000,11.33274609375,0.1573333740234375,-1.5201568603515625,0.0132904052734375
1791114728092817200,11.342817138671874,0.350311279296875,-1.3165435791015625,-0.024749755859375
1791114728102888200,11.35288818359375,-0.7249298095703125,-0.619415283203125,-0.04290771484375
1791114728112959200,11.362959228515624,-0.886383056640625,-0.595458984375,0.171173095703125
1791114728123029200,11.373029296875,-0.8603668212890625,-0.8190460205078125,0.234344482421875
1791114728133100000,11.38310009765625,-0.1429595947265625,-1.1830596923828125,0.1564178466796875
1791114728143171000,11.393171142578124,0.1655426025390625,-0.974945068359375,0.0527801513671875
1791114728153242000,11.4032421875,-0.378662109375,-0.991485595703125,0.1036224365234375
1791114728163313200,11.413313232421874,-2.33367919921875,-1.052886962890625,0.2492218017578125
1791114728173384200,11.42338427734375,-3.41021728515625,-1.00823974609375,0.3441314697265625
1791114728183455200,11.433455322265624,-1.154815673828125,-1.4443817138671875,0.041046142578125
1791114728193526000,11.443526123046874,2.14337158203125,-1.664581298828125,-0.166259765625
1791114728203597000,11.45359716796875,2.7021636962890625,-0.7568359375,-0.11505126953125
1791114728213668000,11.463668212890624,2.2649993896484375,-0.191436767578125,0.01226806640625
1791114728223739100,11.4737392578125,-1.293609619140625,0.220611572265625,0.394195556640625
1791114728233810200,11.48381005859375,-2.7136077880859375,-0.81646728515625,0.6583709716796875
1791114728243881200,11.493881103515625,-1.862640380859375,-1.7920684814453125,0.0768585205078125
1791114728253952000,11.503951904296875,-0.90362548828125,-1.4627532958984375,-0.4844970703125
1791114728264023000,11.51402294921875,0.5703887939453125,-1.023651123046875,-0.404815673828125
1791114728274094000,11.524093994140625,0.6387481689453125,-0.2821807861328125,-0.079254150390625
1791114728284164000,11.5341640625,-0.028106689453125,-0.10699462890625,0.322845458984375
1791114728294235100,11.544235107421875,-0.4256134033203125,-0.613922119140625,0.26776123046875
1791114728304306000,11.554305908203125,-1.0692901611328125,-0.893218994140625,0.18756103515625
1791114728314377000,11.564376953125,-0.8980560302734375,-0.747039794921875,0.1357421875
1791114728324448000,11.574447998046875,0.747894287109375,-0.9239654541015625,-0.193511962890625
1791114728334519000,11.58451904296875,1.5914459228515625,-0.78533935546875,-0.0511016845703125
1791114728344590000,11.594590087890625,1.4688873291015625,-0.0456695556640625,0.155792236328125
1791114728354661000,11.6046611328125,-0.3014984130859375,0.1280059814453125,0.13299560546875
1791114728364732000,11.61473193359375,-5.5376434326171875,-1.0149383544921875,0.25897216796875
1791114728374803000,11.624802978515625,-5.9022216796875,-1.7373046875,0.283966064453125
1791114728384874000,11.6348740234375,-0.315765380859375,-2.40179443359375,-0.941314697265625
1791114728394945000,11.644945068359375,4.618804931640625,-2.40887451171875,-0.8041229248046875
1791114728405016000,11.65501611328125,2.4443817138671875,-0.2077178955078125,0.173126220703125
1791114728415087000,11.665087158203125,-0.875213623046875,1.0680999755859375,0.9068145751953125
1791114728425158100,11.675158203125,-1.552032470703125,0.0294342041015625,0.6111297607421875
1791114728435229200,11.685229248046875,-0.1987152099609375,-2.2451324462890625,0.0269775390625
1791114728445299200,11.69529931640625,-1.2867431640625,-2.14471435546875,-0.38848876953125
1791114728455370200,11.705370361328125,-2.2418060302734375,-1.0778961181640625,-0.0194091796875
1791114728465441300,11.715441162109375,-1.284942626953125,-0.9044647216796875,0.280914306640625
1791114728475512000,11.725511962890625,0.2465972900390625,-1.2996826171875,-0.1942901611328125
1791114728485583000,11.7355830078125,0.5863189697265625,-1.1421661376953125,-0.2501373291015625
1791114728495654100,11.745654052734375,0.038482666015625,-0.5616302490234375,0.079925537109375
1791114728505725200,11.75572509765625,-0.4392242431640625,-0.4622955322265625,0.0423736572265625
1791114728515796200,11.765796142578125,-0.3181304931640625,-0.917999267578125,-0.1228790283203125
1791114728525867300,11.7758671875,0.2623291015625,-1.300689697265625,-0.0499267578125
1791114728535938000,11.78593798828125,0.0772705078125,-0.82891845703125,-0.0990447998046875
1791114728546009000,11.796009033203125,-0.4778594970703125,-0.5004119873046875,-0.0394439697265625
1791114728556080000,11.806080078125,-1.010772705078125,-0.658599853515625,-0.0070037841796875
1791114728566151200,11.816151123046875,-1.5090789794921875,-1.0133514404296875,-0.08123779296875
1791114728576222200,11.82622216796875,-0.863250732421875,-1.1572113037109375,-0.2554473876953125
1791114728586293200,11.836293212890626,0.2079010009765625,-0.6664276123046875,-0.247100830078125
1791114728596364000,11.846364013671876,-0.1213226318359375,0.1982421875,0.023681640625
1791114728606434000,11.85643408203125,-1.278411865234375,1.0290985107421875,0.2689666748046875
1791114728616505000,11.866505126953125,-1.2368316650390625,0.4883575439453125,0.118682861328125
1791114728626576100,11.876576171875,2.8906097412109375,-3.43756103515625,-0.8360443115234375
1791114728636647200,11.886647216796876,4.0919952392578125,-3.964752197265625,-0.9423065185546875
1791114728646718700,11.89671875,-0.657867431640625,0.4792022705078125,0.107635498046875
1791114728656789800,11.906789794921876,-5.1862945556640625,1.472991943359375,0.93719482421875
1791114728666860800,11.91686083984375,-3.8035888671875,-0.8865966796875,-0.120147705078125
1791114728676931600,11.926931640625,-0.9570159912109375,-2.0467529296875,-1.3866119384765625
1791114728687002600,11.937002685546876,1.11956787109375,-1.5048980712890625,-0.3804931640625
1791114728697073700,11.94707373046875,1.9724273681640625,-0.8770599365234375,0.1902923583984375
1791114728707144700,11.957144775390624,0.5909423828125,-0.20123291015625,0.2499847412109375
1791114728717215700,11.9672158203125,-1.77679443359375,-0.3339385986328125,0.1047210693359375
1791114728727286800,11.977286865234374,-2.2243194580078125,-1.3950347900390625,0.20672607421875
1791114728737357600,11.987357666015624,-0.345794677734375,-2.30450439453125,-0.106903076171875
1791114728747428600,11.9974287109375,0.7588653564453125,-1.6114654541015625,-0.270294189453125
1791114728757499600,12.007499755859374,0.136016845703125,-0.7341766357421875,-0.2765350341796875
1791114728767570700,12.01757080078125,-2.159210205078125,-0.49432373046875,0.0851287841796875
1791114728777640700,12.027640625,-2.164581298828125,-1.2922210693359375,0.275177001953125
1791114728787711700,12.037711669921874,-0.43194580078125,-1.753021240234375,-0.2977142333984375
1791114728797782800,12.04778271484375,0.8674774169921875,-1.0520477294921875,-0.6944427490234375
1791114728807853800,12.057853759765624,0.4752349853515625,-0.4011688232421875,-0.5255889892578125
1791114728817924900,12.0679248046875,0.2608795166015625,-0.585784912109375,-0.2281341552734375
1791114728827996000,12.077995849609374,-0.536712646484375,-0.7921600341796875,-0.040863037109375
1791114728838067000,12.08806689453125,-1.170684814453125,-0.870880126953125,-0.042816162109375
1791114728848137700,12.0981376953125,-1.0809173583984375,-1.0462799072265625,-0.2390899658203125
1791114728858208800,12.108208740234375,-0.8936767578125,-0.803802490234375,-0.4135589599609375
1791114728868279800,12.11827978515625,-0.408172607421875,-0.662353515625,-0.2700347900390625
1791114728878350800,12.128350830078125,0.0587921142578125,-0.7141265869140625,-0.111114501953125
1791114728888422000,12.138421875,0.301116943359375,-0.780792236328125,0.1458892822265625
1791114728898493000,12.148492919921875,-0.5469818115234375,-0.3927764892578125,0.3375396728515625
1791114728908563700,12.158563720703125,-1.5115814208984375,0.013397216796875,0.19281005859375
1791114728918634800,12.168634765625,-0.909210205078125,-0.5214691162109375,-0.0765228271484375
1791114728928705800,12.178705810546875,1.2022552490234375,-1.8329925537109375,-0.27996826171875
1791114728938775800,12.18877587890625,1.5744171142578125,-1.8526458740234375,-0.097869873046875
1791114728948846800,12.198846923828125,-0.1019439697265625,-0.879608154296875,0.0303497314453125
1791114728958917600,12.208917724609375,-1.258331298828125,-0.5556793212890625,-0.085357666015625
1791114728968988700,12.21898876953125,-1.945220947265625,-0.3160247802734375,-0.024749755859375
1791114728979059700,12.229059814453125,-1.329071044921875,-0.4202880859375,-0.0458526611328125
1791114728989130800,12.239130859375,0.637420654296875,-1.2680511474609375,-0.192840576171875
1791114728999201800,12.249201904296875,2.023284912109375,-1.6486663818359375,-0.167724609375
1791114729009272800,12.25927294921875,0.4854736328125,-0.7487335205078125,-0.2114715576171875
1791114729019343600,12.269343505859375,-1.59442138671875,-0.239532470703125,-0.2677154541015625
1791114729029414700,12.27941455078125,-1.3123321533203125,-0.879486083984375,-0.086151123046875
1791114729039485700,12.289485595703125,-0.32452392578125,-1.3563079833984375,-0.3268585205078125
1791114729049556700,12.299556640625,-0.0111541748046875,-1.3856353759765625,-0.498291015625
1791114729059627800,12.309627685546875,-0.517486572265625,-1.0477752685546875,-0.225067138671875
1791114729069698800,12.31969873046875,-1.34808349609375,-0.67626953125,0.115020751953125
1791114729079769600,12.32976953125,-1.58636474609375,-0.625946044921875,0.2078399658203125
1791114729089840600,12.339840576171875,-0.217529296875,-1.3135223388671875,-0.1257476806640625
1791114729099910700,12.34991064453125,0.7552337646484375,-1.5921478271484375,-0.2963409423828125
1791114729109981700,12.359981689453125,0.0706329345703125,-1.0733184814453125,-0.1364898681640625
1791114729120052700,12.370052734375,-1.5084381103515625,-0.64007568359375,0.32708740234375
1791114729130123500,12.38012353515625,-1.537445068359375,-1.09033203125,0.3577117919921875
1791114729140194600,12.390194580078125,0.0204620361328125,-1.4200439453125,-0.1060943603515625
1791114729150265600,12.400265625,0.701873779296875,-1.0279693603515625,-0.3293304443359375
1791114729160336600,12.410336669921875,0.12982177734375,-0.4010467529296875,-0.044036865234375
1791114729170407700,12.42040771484375,-0.5266876220703125,-0.3328704833984375,0.230865478515625
1791114729180478700,12.430478759765625,-0.9151763916015625,-0.629669189453125,0.16815185546875
1791114729190549500,12.440549560546875,-0.9416961669921875,-1.00689697265625,-0.0339508056640625
1791114729200620500,12.45062060546875,-0.7819976806640625,-1.00048828125,-0.1370086669921875
1791114729210691600,12.460691650390626,-0.470367431640625,-0.6490020751953125,-0.03521728515625
1791114729220762600,12.4707626953125,-0.3814697265625,-0.3836517333984375,0.129425048828125
1791114729230833700,12.480833740234376,-0.2617950439453125,-0.5788116455078125,0.15869140625
1791114729240904700,12.49090478515625,-0.1696624755859375,-0.7562255859375,0.10595703125
1791114729250975500,12.5009755859375,-0.2480316162109375,-0.7423095703125,0.052520751953125
1791114729261045800,12.511045654296876,-0.6645050048828125,-0.666351318359375,0.059234619140625
1791114729271116800,12.52111669921875,-1.6294708251953125,-0.6754913330078125,0.168212890625
1791114729281187800,12.531187744140626,-1.4632568359375,-0.944610595703125,0.127838134765625
1791114729291259000,12.5412587890625,-0.350311279296875,-1.1965484619140625,-0.1413421630859375
1791114729301329700,12.55132958984375,0.3942413330078125,-1.0576629638671875,-0.104217529296875
1791114729311400700,12.561400634765626,-0.022552490234375,-0.55389404296875,0.09466552734375
1791114729321471700,12.5714716796875,-0.24932861328125,-0.487030029296875,0.087127685546875
1791114729331542800,12.581542724609376,-0.611846923828125,-0.9673309326171875,0.015228271484375
1791114729341613800,12.59161376953125,-1.1296539306640625,-1.33306884765625,-0.059234619140625
1791114729351684900,12.601684814453124,-0.8849029541015625,-1.3596649169921875,-0.1107025146484375
1791114729361755600,12.611755615234374,-0.3714141845703125,-1.1478729248046875,-0.0291900634765625
1791114729371826700,12.62182666015625,-0.026519775390625,-0.8576507568359375,0.0814208984375
1791114729381897700,12.631897705078124,0.3140716552734375,-0.835968017578125,0.12176513671875
1791114729391968800,12.64196875,0.392913818359375,-0.7469024658203125,0.10369873046875
1791114729402039800,12.652039794921874,0.0050201416015625,-0.90777587890625,0.0808563232421875
1791114729412110800,12.66211083984375,-0.8886871337890625,-1.1097564697265625,0.1660003662109375
1791114729422181600,12.672181640625,-1.6133575439453125,-1.0272369384765625,0.291473388671875
1791114729432251600,12.682251708984374,-0.9697113037109375,-1.217529296875,0.0599212646484375
1791114729442322700,12.69232275390625,0.000396728515625,-1.280242919921875,-0.260406494140625
1791114729452393700,12.702393798828124,0.293914794921875,-0.9629974365234375,-0.283294677734375
1791114729462464800,12.71246484375,-0.04180908203125,-0.7784423828125,-0.1328582763671875
1791114729472535600,12.72253564453125,-0.7319793701171875,-0.696746826171875,0.028839111328125
1791114729482606600,12.732606689453124,-0.797027587890625,-0.9067535400390625,0.07232666015625
1791114729492677600,12.742677734375,-0.1864471435546875,-1.1293182373046875,-0.0574798583984375
1791114729502748700,12.752748779296875,0.051025390625,-0.8305511474609375,-0.1793975830078125
1791114729512819700,12.76281982421875,-0.0469818115234375,-0.5670166015625,-0.075592041015625
1791114729522890800,12.772890869140625,-0.7017974853515625,-0.3692626953125,0.0746307373046875
1791114729532961500,12.78296142578125,-0.9608306884765625,-0.7972869873046875,-0.0293426513671875
1791114729543032600,12.793032470703125,-1.01483154296875,-1.409576416015625,-0.1428680419921875
1791114729553103600,12.803103515625,-0.5020751953125,-1.3773651123046875,-0.2186431884765625
1791114729563174700,12.813174560546875,-0.0759429931640625,-1.10418701171875,-0.070892333984375
1791114729573245700,12.82324560546875,-0.0642547607421875,-0.859954833984375,0.0555572509765625
1791114729583315700,12.833315673828125,-0.2682342529296875,-0.705322265625,0.149169921875
1791114729593386800,12.84338671875,-0.3049468994140625,-0.66082763671875,0.1536865234375
1791114729603457800,12.853457763671875,0.4236907958984375,-0.80865478515625,0.0202789306640625
1791114729613528800,12.86352880859375,-0.005645751953125,-0.7326812744140625,-0.0214996337890625
1791114729623599900,12.873599853515625,-1.454254150390625,-0.678131103515625,0.1524505615234375
1791114729633671000,12.8836708984375,-1.782989501953125,-0.92840576171875,0.1407012939453125
1791114729643744000,12.893743896484375,-0.9632568359375,-1.1108551025390625,-0.1850433349609375
1791114729653815000,12.90381494140625,0.11920166015625,-1.083526611328125,-0.21173095703125
1791114729663886000,12.913885986328125,0.5072784423828125,-0.7306060791015625,-0.110504150390625
1791114729673956900,12.923956787109375,0.7406158447265625,-0.66680908203125,-0.0483245849609375
1791114729684028000,12.93402783203125,-0.7495574951171875,-0.7845611572265625,0.053741455078125
1791114729694099000,12.944098876953126,-1.736358642578125,-1.1756134033203125,0.1805267333984375
1791114729704170000,12.954169921875,-0.7981719970703125,-1.5955352783203125,-0.0589752197265625
1791114729714241000,12.964240966796876,0.196929931640625,-1.2694091796875,-0.3529205322265625
1791114729724312000,12.97431201171875,0.70770263671875,-0.9860992431640625,-0.2623748779296875
1791114729734382800,12.9843828125,0.5227508544921875,-0.606231689453125,-0.1716156005859375
