time,seconds_elapsed,z,y,x
1791114716837275400,0.087275390625,1.922963035300374,-0.25808219638764857,-1.5759478792235255
1791114716847346400,0.097346435546875,-2.9272809473752974,1.451297124943137,-1.2920286462679504
1791114716857417500,0.10741748046875,-4.31476581762135,0.8718319341242313,-1.0857497023537754
1791114716867488300,0.11748828125,-0.9897153862267732,-1.0490578020334242,-0.3726241195099428
1791114716877559300,0.127559326171875,-0.7667395745337009,-0.880530788886547,1.4073361104026436
1791114716887630300,0.13763037109375,-0.16787410219609736,-0.13249065412580965,-0.05054243875741958
1791114716897701400,0.147701416015625,1.6066925615772605,0.3398118005692959,-0.1485169656993821
1791114716907772400,0.1577724609375,1.6209464201182127,0.42327568119764325,-0.655496802554652
1791114716917843500,0.167843505859375,-0.6426353482201695,1.0088719221174716,-1.1797378996059298
1791114716927914200,0.177914306640625,1.2415876220583915,0.8002747643887996,-1.6399395821407436
1791114716937985300,0.1879853515625,1.0916814304903149,0.7240010875254869,0.002225457497127354
1791114716948056300,0.198056396484375,-0.891148336751759,0.4098416146069765,-0.0817140778189525
1791114716958127400,0.20812744140625,-2.9532752203315495,0.7027659917950629,-0.371954257424362
1791114716968198400,0.218198486328125,-0.9709341133892535,-0.14104396293759344,0.5929139069894328
1791114716978268200,0.22826806640625,2.8490210651308296,0.382719798925519,2.3788113449312744
1791114716988339200,0.238339111328125,1.8307874404281377,2.793407898980379,1.9850497813791035
1791114716998410200,0.24841015625,0.5392828180342912,2.5860037504285573,0.1539121027411893
1791114717008481300,0.258481201171875,0.06902063699513673,0.7812468233138322,0.27962767324149607
1791114717018552300,0.26855224609375,-1.9617206359788775,-0.8448083181202412,0.40376006620358673
1791114717028623400,0.278623291015625,-2.445966041924059,-0.8912146799862384,0.3510076963117346
1791114717038694100,0.288694091796875,-1.8282655207350849,0.30601182229816914,1.778991056086868
1791114717048765200,0.29876513671875,-2.961348052150011,1.4302093287289142,2.073846985859424
1791114717058836200,0.308836181640625,-1.4681614582434295,1.0772393559008837,1.4386156302854418
1791114717068907300,0.3189072265625,5.04532524074912,0.7714940755844115,1.0380431446094065
1791114717078978300,0.328978271484375,8.42352215591967,0.759445325872302,1.028162240455672
1791114717089049300,0.33904931640625,3.8700674091666936,0.5622720639556646,0.20680625572390854
1791114717099120000,0.3491201171875,-4.880439214453101,-0.21007658263146875,-0.8904608659442513
1791114717109191200,0.359191162109375,-11.213556779074668,-2.108018573921919,-0.7986998432222753
1791114717119262200,0.36926220703125,-7.482612009394169,-3.6827906873643395,0.7349242672737687
1791114717129333200,0.379333251953125,0.1876882252126932,-2.847813442906737,2.29866652572304
1791114717139404300,0.389404296875,4.308585375420749,0.52207098647058,3.694828915682435
1791114717149475300,0.399475341796875,3.768364107492566,2.5743805326521394,2.6799270657509564
1791114717159545000,0.409545166015625,2.444075113610923,1.2409434789359568,-0.22916385267823933
1791114717169616100,0.4196162109375,1.066971644386649,-1.2598352264106274,-1.2356178999990224
1791114717179687200,0.429687255859375,-0.9979010307699442,-2.168158862107992,0.2633372308390215
1791114717189758200,0.43975830078125,-5.4561687258750196,-1.0178034165918826,-0.09390526820905506
1791114717199829200,0.449829345703125,-5.015809223407507,0.31449849561452864,-1.4928642300844193
1791114717209900000,0.459900146484375,0.24394231961518525,-0.011971008300781249,-1.165763150267303
1791114717219971000,0.46997119140625,6.052166533821821,-0.41095395976305005,0.40270854785665866
1791114717230042000,0.4800419921875,4.885854225239157,0.9184294346481561,2.202079982540756
1791114717240113200,0.490113037109375,-1.6069471208602188,1.9875310768008232,0.2872488157697022
1791114717250184200,0.50018408203125,-6.988857016825675,0.7012970882862806,-1.7795155183523892
1791114717260255200,0.510255126953125,-3.5194968986958264,-2.5468255862504243,-1.0531050315976143
1791114717270326000,0.520325927734375,0.6433169007435441,-2.0442881522893903,0.8055804695814848
1791114717280397000,0.53039697265625,3.3943151062786576,0.9623317047387361,1.3376197462283075
1791114717290468000,0.540468017578125,1.450470903252065,2.872158195090294,0.4452339035708457
1791114717300539100,0.5505390625,-3.5292379559874534,3.2569805192530152,-0.46982031902316956
1791114717310610200,0.560610107421875,-2.5596803916484117,0.548901125729084,-1.7562717131480574
1791114717320681200,0.57068115234375,2.7052684277564287,-2.333296232816577,-0.7332874598521739
1791114717330751200,0.580751220703125,4.172497865846753,-2.4231641352683306,0.3324645065464079
1791114717340822300,0.590822265625,-0.2932674915373325,0.3162497231960296,-0.7597324722506106
1791114717350893300,0.600893310546875,-4.203601152379811,1.1157073259830474,-2.2931372409075497
1791114717360964400,0.61096435546875,-3.1437668125271796,-0.7945949651867151,-0.9403974477630108
1791114717371035400,0.621035400390625,1.6000938939645886,-2.2505448843717573,1.236871991713345
1791114717381106200,0.631106201171875,0.20852467701435087,-0.4791033668816089,1.5427696861125528
1791114717391177200,0.64117724609375,-2.03863757918179,1.0331605601996183,-0.8932036618463695
1791114717401248300,0.651248291015625,0.18277941038310527,0.3648158934444189,-2.8105910889714956
1791114717411319300,0.6613193359375,2.9800597668826576,-1.3800304625868796,-1.2497026855833828
1791114717421390300,0.671390380859375,1.8127406193450093,-1.3458026142925024,0.4183648205414414
1791114717431461400,0.68146142578125,1.5986808122962712,-0.41109366049468515,-0.592925780090317
1791114717441532200,0.6915322265625,0.1769657556682825,1.0467349120438099,-1.3871195440649986
1791114717451603200,0.701603271484375,-2.2852952952355143,1.189062485051155,-0.603946392331086
1791114717461674200,0.71167431640625,-1.979237587969005,0.05407645810246467,0.1978131672553718
1791114717471745300,0.721745361328125,-2.6812229507803917,-0.6083493399977684,0.6963499872729182
1791114717481816300,0.73181640625,-1.476993291735649,-0.5922510226339102,0.19397541572339833
1791114717491887400,0.741887451171875,0.16050854186415672,0.7350128954052925,-1.3044652262538672
1791114717501958100,0.751958251953125,3.680492931815982,1.3151304126530885,-0.49962322701476514
1791114717512029200,0.762029296875,5.030333423322439,1.2623556847989559,0.32790001164246346
1791114717522099200,0.77209912109375,-1.496820274233818,2.0026240165144205,-0.45712059458903964
1791114717532170200,0.782170166015625,-6.9638517549067736,1.3089748126327991,-1.888956428541243
1791114717542241300,0.7922412109375,-6.673954032063484,-0.5444499915391207,-1.2160157392326743
1791114717552312000,0.80231201171875,-2.062998697978258,-1.3085825984448194,0.7664960481014103
1791114717562383000,0.812383056640625,2.48769476736784,-0.4589361926436424,1.8926850936755537
1791114717572454100,0.8224541015625,4.0061043575972315,0.8768331034123897,1.7084889483623205
1791114717582525200,0.832525146484375,2.403788988190889,1.881304160222411,0.24031554395277052
1791114717592596200,0.84259619140625,-0.658942047637701,1.4704197585642338,-1.1453074414115398
1791114717602667300,0.852667236328125,-3.6730706728607414,0.11064005684554576,-0.13804299102332443
1791114717612738000,0.862738037109375,-5.068524330028891,-1.1068857216238974,0.23909599382886662
1791114717622809000,0.87280908203125,-1.4194418509989977,-1.3379577460110186,0.26608313201367856
1791114717632880600,0.882880615234375,2.8642440609648823,-1.0709726967215538,1.2461502537988125
1791114717642951700,0.89295166015625,2.6226357372552154,-0.011121697995066642,1.8967891679935156
1791114717653022700,0.903022705078125,-1.3700272472277284,0.8508972826451062,1.4531538587257264
1791114717663093800,0.91309375,-2.447432607345283,0.6610024872988463,-0.1679186537238769
1791114717673164500,0.92316455078125,1.2815882085353136,-0.9439537520051002,-1.1063250190012157
1791114717683235600,0.933235595703125,2.4388117862552403,-0.49434302158951754,-0.5803263376928866
1791114717693306600,0.943306640625,3.1843045746207235,0.5140004927396774,-0.901129924800992
1791114717703377000,0.953376953125,3.633257133388519,1.221681729105115,-1.2069577688343822
1791114717713448000,0.963447998046875,-1.7673627237439156,1.5106757811069487,-1.3643120844513177
1791114717723518700,0.973518798828125,-3.591114274185896,0.09884148250222205,-1.2918994669303296
1791114717733589800,0.98358984375,-1.6177560996443032,-0.435437828156352,-1.0000879463549703
1791114717743660800,0.993660888671875,1.8492326131790875,0.20044249284565446,-0.32301333557944745
1791114717753731800,1.00373193359375,2.4118805247098205,1.2651298256874084,0.6932092050291597
1791114717763803000,1.013802978515625,0.4797004559919238,1.9754250439435241,0.34791349315606057
1791114717773874000,1.0238740234375,-1.6516984089955686,0.5471744480669498,-0.7103268555033951
1791114717783944700,1.03394482421875,-4.825297757467627,-0.9012631957918406,-0.9278964242387563
1791114717794015700,1.044015625,-4.566383201909065,-1.4498895962327718,-0.6806285403974354
1791114717804086800,1.054086669921875,-2.7232313699483868,-1.3430945243775845,0.3571780555097386
1791114717814157800,1.06415771484375,-0.27649463591277595,-0.1896183164924383,0.8434550038151443
1791114717824228900,1.074228759765625,4.7944233112543815,1.1521364837139845,0.20337529489453882
1791114717834300000,1.0842998046875,6.493231554210186,2.4813258168578147,0.09469078343040309
1791114717844370700,1.09437060546875,4.265098408132792,1.59014153200984,-1.268381959351152
1791114717854441700,1.104441650390625,-1.578992361485958,0.0524894811719656,-1.5620163845047355
1791114717864512800,1.1145126953125,-6.562855710056423,-0.9299790026664734,-1.9204110127300023
1791114717874583800,1.124583740234375,-5.667233150500059,-2.9500059894025323,-0.6945607657685875
1791114717884653800,1.13465380859375,-1.5173942757070065,-2.7237095088541508,0.6637185413245111
1791114717894724600,1.144724609375,-0.5768225673556328,-0.20276655187904832,1.6745079144358634
1791114717904795600,1.154795654296875,-2.485357848852873,1.9191998833745716,1.730931666316837
1791114717914866700,1.16486669921875,-3.2904631021380424,0.4726601820915937,0.3694645229678601
1791114717924937700,1.174937744140625,-5.009121708467602,-2.692268076407909,-0.321911073425971
1791114717935008800,1.1850087890625,-10.791411563211678,-4.671352811902761,-0.19651439614910632
1791114717945079800,1.195079833984375,-9.258080882704258,-3.7517344597309825,-0.3783305509906262
1791114717955150600,1.205150634765625,6.053050330919027,-1.4711439811855553,0.8523870097462087
1791114717965221600,1.2152216796875,21.891420289039612,2.7339053241759537,1.6128053453691302
1791114717975292700,1.225292724609375,30.322073027491566,5.7117871624976395,-0.20402541110003367
1791114717985363700,1.23536376953125,23.36581830358505,11.954578559505938,-1.5826669583454727
1791114717995434800,1.245434814453125,9.899535204446314,14.85188288629055,-1.1492051064372062
1791114718005505800,1.255505859375,-1.0301046797603368,8.108863501307368,-1.4664993702501057
1791114718015576600,1.26557666015625,-28.193999507534503,-3.739811966747045,-2.453916708667576
1791114718025647600,1.275647705078125,-35.80183481040001,-12.05284370342493,1.1685348069377244
1791114718035718700,1.28571875,-0.00943213747292757,-14.915490558326244,-3.1755691872403022
1791114718045789700,1.295789794921875,10.979164670354127,-9.405559262603521,0.33836050578244026
1791114718055860700,1.30586083984375,-7.907203449365496,4.56133819347918,9.841851077240705
1791114718065930500,1.315930419921875,-9.068268504944443,12.95218674480915,9.24908509082198
1791114718076001500,1.32600146484375,-1.7299170824468135,7.103709138408303,3.2891625409334897
1791114718086072600,1.336072509765625,-3.2269261572510004,-3.9926147614270446,2.0998795449994505
1791114718096143600,1.3461435546875,2.4684090521395206,-9.150766170889138,-0.8572199097953737
1791114718106214700,1.356214599609375,-1.33640700943768,-3.6636166158169505,-1.5820254455715417
1791114718116285700,1.36628564453125,-6.744927848953008,0.7963432701587676,0.11685392639171331
1791114718126356500,1.3763564453125,2.2543287868246433,-0.6707125649303197,-0.6519232549168169
1791114718136427500,1.386427490234375,15.686998662436007,-3.5165994236886498,-1.48881583147645
1791114718146498600,1.39649853515625,9.893832608890532,-1.0109849687486887,-1.0783208675272762
1791114718156569600,1.406569580078125,-3.089222444652021,0.23590017519593237,-4.901709381496906
1791114718166640600,1.416640625,-11.629904706835745,-4.013051400256157,-5.413789719828963
1791114718176711700,1.426711669921875,-7.942468239492177,-7.263776366245746,-1.7358192922279239
1791114718186782700,1.43678271484375,-3.763897775733471,-4.022385630312562,0.6766970461674034
1791114718196853800,1.446853759765625,-16.998026315945385,6.102868547055125,2.278751134289056
1791114718206924800,1.4569248046875,-26.535617382991312,14.17123052662611,1.563935954390466
1791114718216995800,1.466995849609375,-6.289437997370958,8.544176241779327,-5.582530083465576
1791114718227067000,1.47706689453125,19.736192220175266,-5.392330752214789,-1.7186944082953035
1791114718237138000,1.487137939453125,43.78210641858578,-13.838465721958874,2.2841309276312587
1791114718247207700,1.497207763671875,35.567467251598835,0.36673370976448055,-5.3178480504214765
1791114718257278700,1.50727880859375,3.4051042113184926,19.739972907757757,-4.410800426009297
1791114718267349800,1.517349853515625,-17.252818238615987,17.914978663778303,-1.8001646308884023
1791114718277420800,1.5274208984375,-24.7466554063797,-6.189781106832623,3.5990780926719306
1791114718287491800,1.537491943359375,-19.948242733228206,-20.696171224308014,-0.0484281865498051
1791114718297562600,1.547562744140625,-18.465556198287008,-16.06207934478521,-2.6379122168421745
1791114718307633700,1.557633544921875,3.862891526187956,-12.522810993170738,-1.2788937087543308
1791114718317704700,1.56770458984375,19.8378779861927,0.33284956034123897,4.10922278676629
1791114718327775700,1.577775634765625,25.645837119722366,14.428366382074355,9.585640519943833
1791114718337846800,1.5878466796875,10.8087531586349,23.030564604711532,4.376095900113881
1791114718347917800,1.597917724609375,10.212178427582979,13.405284732818602,-0.3379959833189845
1791114718357988600,1.607988525390625,-12.557454436528682,-1.5199731862843036,0.9135299721688032
1791114718368059600,1.6180595703125,-37.36435300694704,-10.23351230751276,-2.262985556010902
1791114718378130700,1.628130615234375,-23.309496112382412,-15.788422562646865,-6.850515298584103
1791114718388201700,1.63820166015625,0.8776283454433083,-12.949787866973876,-3.154137107633054
1791114718398272800,1.648272705078125,12.890952231645583,-0.019842180067300794,4.197909370478987
1791114718408343800,1.65834375,13.939814803367852,12.209550514918565,5.227917019605636
1791114718418414600,1.66841455078125,17.538815446889398,6.354744290018082,-1.2097598206430673
1791114718428484600,1.678484619140625,18.363935898721216,-0.5536947897464036,-5.972148994255066
1791114718438555600,1.6885556640625,23.775215097033975,-1.5050328067839145,-5.919710366487503
1791114718448626700,1.698626708984375,-1.7275497687935828,2.0154799909561874,-3.590431844879687
1791114718458697700,1.70869775390625,-58.45910503165722,2.661372587406635,-0.6069746175784617
1791114718468768500,1.7187685546875,-44.17100987458229,-0.821093096011877,-3.682424484400451
1791114718478839600,1.728839599609375,3.3614854343444107,-7.772672813844681,-6.454065664991736
1791114718488910600,1.73891064453125,48.29273558456897,-10.234214902824164,-1.4375193594813347
1791114718498981600,1.748981689453125,35.83944528687,7.872859865736961,8.411299218684434
1791114718509052700,1.759052734375,-14.689556481349467,18.04482669444084,11.82126665212512
1791114718519123700,1.769123779296875,-27.89284447761774,-0.8157558266371489,7.432243758159875
1791114718529194500,1.779194580078125,-21.76631623803377,-13.544618384706974,-3.312487594680488
1791114718539265500,1.789265625,0.6719064508900046,-13.04068102082014,-4.7788677224650975
1791114718549336600,1.799336669921875,8.971528378635645,3.082567370676994,3.9448654605194924
1791114718559407600,1.80940771484375,6.182935770982503,16.142419540435075,7.519539764297008
1791114718569478700,1.819478759765625,5.815633905941247,11.358043575942515,3.8623286316081877
1791114718579549700,1.8295498046875,0.6050754328936339,5.015149298194051,-0.3269126445729285
1791114718589620500,1.839620361328125,-15.448906530153751,5.537682641479373,-3.3120451116099954
1791114718599691500,1.84969140625,-7.650215477955341,-3.4238182641386983,-3.6582036508575078
1791114718609761800,1.85976171875,7.245630468702315,-16.4853129404068,-0.15674767322698607
1791114718619832800,1.869832763671875,-6.820154647111893,-11.6428974593997,1.8414812683999537
1791114718629904000,1.87990380859375,-13.103800032556057,-1.3295277713179587,-0.737587056742236
1791114718639975000,1.889974853515625,3.193677675382793,5.9357853029757734,-2.063185160461068
1791114718650046000,1.9000458984375,9.580436521559953,12.252719794559479,2.6096365549504754
1791114718660117000,1.910116943359375,7.6450617484539745,13.65111593492031,2.2788792907133697
1791114718670187800,1.920187744140625,-0.0911781082674861,7.925545161741971,-0.28614487311579284
1791114718680258800,1.9302587890625,4.883306002061069,-7.895015583443641,-3.332200010888278
1791114718690329900,1.940329833984375,6.669488284826278,-16.686082180988787,-4.191259557200968
1791114718700401000,1.95040087890625,-5.927109829089045,-7.744248098871111,-2.682626387837529
1791114718710472000,1.960471923828125,-11.635298674833773,1.487968859258294,0.40353469648249446
1791114718720543000,1.97054296875,2.352688038767874,3.4530087027877565,0.6375256039910018
1791114718730614000,1.980614013671875,12.443961328339576,3.3317969830453396,1.2547706364974378
1791114718740684800,1.990684814453125,10.998609375536441,1.3766694617211819,1.880535513937473
1791114718750755800,2.000755859375,-1.8958616778850554,-2.6804028665691613,-0.5171293653499335
1791114718760827000,2.010826904296875,-13.708102142989635,-4.254472384700179,-2.7471581889808174
1791114718770898000,2.02089794921875,-10.557232220458983,-4.621564406383038,-2.165564461700618
1791114718780969000,2.030968994140625,0.2512701782852411,-3.314986718019843,-0.2424904037738219
1791114718791040000,2.0410400390625,10.907851830768585,0.2926987517386675,1.7598071937978266
1791114718801109800,2.05110986328125,14.75251533408761,4.54845123937726,2.7067113200411197
1791114718811180800,2.061180908203125,-6.574323445010185,6.54760845656395,3.4614766714036462
1791114718821251800,2.071251953125,-25.1443500715971,0.7156517768532037,1.7482136405073105
1791114718831323000,2.081322998046875,-14.389768063610791,-9.46618996465504,-2.2879098616480826
1791114718841394000,2.091393798828125,4.0158448303669685,-10.928484284430741,-3.534434063325822
1791114718851464700,2.101464599609375,16.282254712104795,-4.4978298901647324,-0.7686414626322686
1791114718861535700,2.11153564453125,18.142093474972246,7.986542943540215,1.499863587452471
1791114718871606800,2.121606689453125,16.967995919340847,13.167251052725314,1.4899752306446432
1791114718881677800,2.131677734375,-16.499844154584405,10.037620317578314,2.5134862112283707
1791114718891748900,2.141748779296875,-38.50934487960338,1.4573819978147744,2.1714694479607046
1791114718901820000,2.15181982421875,-12.702341046369074,-11.622841344320774,-4.696227725440264
1791114718911890700,2.161890625,11.282416964811086,-10.594724623507261,-4.3990234789758915
1791114718921961700,2.171961669921875,16.23903165645003,-1.3147744388222693,0.8157254314988851
1791114718932032800,2.18203271484375,1.298083416262269,10.585267059332132,6.833039847648143
1791114718942103800,2.192103759765625,-6.558158492150902,11.586950531250238,4.242203562496602
1791114718952174800,2.2021748046875,-0.3645493514627218,1.6579232748597859,-0.9419154511105269
1791114718962246000,2.212245849609375,10.734108544278143,-6.178899062812328,-2.1453914422437546
1791114718972316700,2.222316650390625,4.370475429883599,-1.5673270581334828,-1.0482836027905345
1791114718982387000,2.232386962890625,-6.604784049725533,4.841988780027628,1.494642053411901
1791114718992458000,2.2424580078125,-8.80618642526567,2.8392449365258217,1.9342279411584138
1791114719002529000,2.252529052734375,1.1341902003958821,-4.208788491889834,-1.437175368349254
1791114719012600000,2.26260009765625,10.39970357118845,-3.0972815402060747,-1.9545390539117156
1791114719022670800,2.2726708984375,7.9884344563752405,4.201219517940283,-0.7419624953474849
1791114719032742000,2.282741943359375,-6.222893102839588,8.949967119690776,3.2521406780064104
1791114719042813000,2.29281298828125,-11.048153450906277,4.447563345739245,2.019454739806056
1791114719052884000,2.302884033203125,-1.1119430050134658,-6.536265224772691,-1.491298003681004
1791114719062955000,2.312955078125,5.4873243271172045,-9.96834512130022,-3.6836771148100493
1791114719073026000,2.323026123046875,5.404177257353067,-3.6178257555007933,-1.3306634973496199
1791114719083096800,2.333096923828125,-3.1892966838195917,4.585903310415149,1.6010890424817799
1791114719093167900,2.34316796875,-7.023079019901156,5.520480162265897,2.3648590996854004
1791114719103239000,2.353239013671875,-8.362821311241388,4.848538347801566,1.2539359392389655
1791114719113310000,2.36331005859375,-3.2406647597461937,3.814699742209911,-0.7961986740563064
1791114719123381000,2.373381103515625,23.831167870402336,-3.612126082554459,-3.949004460020363
1791114719133452000,2.3834521484375,20.602072552418708,-3.7461891005635257,-3.2559193197622895
1791114719143522800,2.393522705078125,-29.092895974195002,2.918739913523197,0.9870062003333121
1791114719153593900,2.40359375,-37.07155664005279,-3.572379763099551,2.774142349757254
1791114719163664000,2.413663818359375,-10.518436333596705,-7.648492307424545,-4.543221229769289
1791114719173735000,2.42373486328125,7.437725404441356,-7.376466925880313,-5.669196559527516
1791114719183806000,2.433805908203125,1.4482640408575533,-0.3797393218100071,2.211283425824344
1791114719193876700,2.443876708984375,-1.6114233894914387,4.809895605674385,5.7439194998174905
1791114719203947800,2.45394775390625,1.1735445979237555,7.634438647630811,0.8873777321718632
1791114719214018800,2.464018798828125,6.772138511961698,1.9077274722456932,-2.585195064394176
1791114719224089900,2.47408984375,9.393691714677214,-1.3392898713976145,-2.1275068259850145
1791114719234161000,2.484160888671875,2.8580139344036577,1.2377759548157452,-1.5220988001361488
1791114719244232000,2.49423193359375,-4.818300153665244,3.6981057453960178,-2.1692465112142263
1791114719254302700,2.504302734375,-0.04118395104259252,1.4797680171459913,-1.705106612447649
1791114719264373800,2.514373779296875,5.9458110224276775,-1.6963117499649523,-0.7111947243791074
1791114719274444800,2.52444482421875,3.6393753240078683,2.464025137966871,-0.5467557111982256
1791114719284515800,2.534515869140625,-3.1395795899704098,6.164565417033433,-0.24484918706072492
1791114719294587000,2.5445869140625,-4.347704210627079,2.7804823664337395,1.029143068186566
1791114719304658000,2.554657958984375,-2.32995159856379,-2.104112798655033,0.0013516886035911738
1791114719314728700,2.564728759765625,4.580182010158897,-4.1666947325259445,-0.19991171043720096
1791114719324799700,2.5747998046875,9.272040434473752,0.1410714354664087,2.1416414420604704
1791114719334870800,2.584870849609375,-2.590954066312313,5.677080590775609,4.380057204960286
1791114719344941800,2.59494189453125,-13.907078070414066,5.372210339727998,2.4762486597239968
1791114719355012900,2.605012939453125,-7.030594217836857,-3.312009748035669,-1.0311097651496528
1791114719365082600,2.61508251953125,1.6420757173866032,-7.8541861449271435,-1.19483463871181
1791114719375153700,2.625153564453125,-3.5174773755669593,1.218162322807312,0.49971587373428045
1791114719385224700,2.635224609375,-8.404172143283485,7.788120558345318,-1.5881686245016753
1791114719395295700,2.645295654296875,7.142837033703922,-1.5858786138683556,-1.661858276221156
1791114719405366800,2.65536669921875,20.239594162011144,-9.679389647743106,0.2735116015139967
1791114719415437800,2.665437744140625,6.881933350154757,-2.6367577861100435,-2.6392840897172687
1791114719425508900,2.6755087890625,-6.0046712076753375,1.216793372541666,-6.715671359330416
1791114719435580000,2.685579833984375,-7.98205790708065,0.2091033536851406,-5.024084884321689
1791114719445650700,2.695650634765625,-7.30733552198708,0.3696142336368561,-0.8666069660175592
1791114719455721700,2.7057216796875,0.3434516183763742,-5.393742372578382,-1.290612057468295
1791114719465792800,2.715792724609375,8.812669357544182,-6.963213457003236,-3.6694653418451546
1791114719475863800,2.72586376953125,-10.950837570536136,7.974182643660902,-0.027486922666803002
1791114719485934800,2.735934814453125,-16.201785921639203,8.327499237969517,2.898970506431162
1791114719496006000,2.746005859375,2.2481252560094,-4.647393844166397,0.5512302262637764
1791114719506077000,2.756076904296875,11.146996102452277,-7.668337994623184,0.10945088359359652
1791114719516148000,2.76614794921875,5.0974423814773555,1.4553279878944159,1.1589891991529613
1791114719526219000,2.776218994140625,-4.201407441727817,6.855285581725836,1.6701475272692738
1791114719536288800,2.786288818359375,-5.986416004538536,3.8322038347184657,2.3289725243985653
1791114719546359800,2.79635986328125,1.3070739474475384,-1.5296733270436524,0.3553764859804883
1791114719556430800,2.806430908203125,8.164263316968082,-2.8350714502334595,-0.908912906827405
1791114719566502000,2.816501953125,6.797456493091583,1.3961591750890017,-0.021715481392201034
1791114719576573000,2.826572998046875,-4.44658485609591,7.592239089804887,2.28333568560034
1791114719586644000,2.83664404296875,-1.180863981026411,5.470141721647978,1.3622379085257648
1791114719596714800,2.84671484375,15.816916835725307,-2.402019055908918,-0.6651131374880671
1791114719606785800,2.856785888671875,17.317204493808745,-1.958077018779516,-0.361392860193178
1791114719616856800,2.86685693359375,-25.78273916054964,2.7423744618356225,2.9346804099768398
1791114719626927900,2.876927978515625,-32.57182296209335,-1.5990812097907066,4.735602581234276
1791114719636998700,2.88699853515625,-7.558772289010882,-9.216704331699013,-3.0878073171570897
1791114719647069700,2.897069580078125,22.525250107252596,-11.530433109736443,-5.285697592923045
1791114719657140700,2.907140625,17.50359917207956,1.6238690295666456,1.6401768980279563
1791114719667211800,2.917211669921875,-4.226395752511919,16.59764051194787,3.8292423545643683
1791114719677282800,2.92728271484375,-15.192759685742853,14.516408238142727,2.701146087129414
1791114719687353900,2.937353759765625,-6.829362035918235,-1.447938462164998,0.7705276417050511
1791114719697424600,2.947424560546875,5.643520266479253,-10.944216106569767,-3.7662726881712674
1791114719707495700,2.95749560546875,-3.3532723172724244,-1.5343950948685408,-1.6419823400147258
1791114719717566700,2.967566650390625,-6.3117550431191916,6.719103671866655,3.430167048643529
1791114719727636700,2.97763671875,10.658477256971597,1.1007874047487973,0.04314978035599924
1791114719737707800,2.987707763671875,13.221416358155011,-4.913527245062589,-2.0205036643370984
1791114719747778600,2.997778564453125,0.7043006540164352,-1.9213363108813761,-0.07531222055316902
1791114719757849600,3.007849609375,-6.91479049461782,1.334238433226943,1.0280262660510837
1791114719767920600,3.017920654296875,-9.409802891522645,1.1097469562739133,1.2078059100963174
1791114719777991700,3.02799169921875,-0.2697837400972843,-4.621645654925704,1.442571528304368
1791114719788062700,3.038062744140625,8.557439043456316,-4.090409949746728,1.2776796567894517
1791114719798133800,3.0481337890625,8.783103071320056,1.5947580858945845,1.0601473513245583
1791114719808204500,3.05820458984375,-6.458380021059512,5.369350858643651,2.084682560389489
1791114719818275600,3.068275634765625,-16.059050352352855,3.578849835896492,1.310466804756224
1791114719828346600,3.0783466796875,-12.050834117168188,-1.3146177869558333,-1.6455765651144085
1791114719838417700,3.088417724609375,2.747039531037211,-6.070045304861664,-2.3472131144881248
1791114719848488700,3.09848876953125,4.936197926554083,-0.0008037175983190536,-0.2887084034608677
1791114719858559700,3.108559814453125,7.196750410199165,7.17874421338737,2.6686364409297703
1791114719868630500,3.118630615234375,10.999828688198328,5.648707313728332,1.9855232441097497
1791114719878701600,3.12870166015625,0.7028764664322137,-0.2847445778638124,-0.062362421214953064
1791114719888772600,3.138772705078125,-10.73094511181116,-3.5818735676318405,-0.04953833974879235
1791114719898843600,3.14884375,-7.791656915777922,-4.270142247518897,0.7637990641023963
1791114719908914700,3.158914794921875,-1.7132435955435037,-1.089292197266221,1.5516368831790983
1791114719918984700,3.168984619140625,4.481364493054151,0.29035657252669334,1.9040574054308235
1791114719929055700,3.1790556640625,9.42730639950931,1.180800268140435,0.8566677558053284
1791114719939126800,3.189126708984375,4.431101455760002,1.8378022876262663,-0.03271232916489243
1791114719949197800,3.19919775390625,-12.575663462436198,2.584928230151534,1.1194198437001555
1791114719959268900,3.209268798828125,-14.381492402696608,-0.8544792327851056,2.15564892462492
1791114719969340000,3.21933984375,0.6778934163451195,-5.572151312792301,0.630597046836838
1791114719979410700,3.22941064453125,13.568974242806433,-4.530764776039123,0.17627083220668135
1791114719989481700,3.239481689453125,9.657085461476445,3.8756273813813924,1.4596027426041662
1791114719999552800,3.249552734375,9.28392551805675,6.779395351222157,1.5186062818452715
1791114720009623800,3.259623779296875,4.68260193566978,3.5351796209961175,0.7816122225601225
1791114720019694800,3.26969482421875,-3.9618572195917365,-2.79616625777781,0.8022740484472364
1791114720029766000,3.279765869140625,-4.3714270315200086,-6.130798171988129,0.6131251030322163
1791114720039836700,3.289836669921875,-2.049021610552072,-3.8244139114946125,1.8918319839775561
1791114720049907700,3.29990771484375,-1.59913995424062,1.3376654850661753,2.277280623345077
1791114720059978800,3.309978759765625,0.9493293075636029,3.1189532737880943,1.422395440107584
1791114720070049800,3.3200498046875,11.324666206997632,0.203069334217906,0.02533142513334751
1791114720080120800,3.330120849609375,3.3843840793728828,-1.4208464570999144,0.14961400368846953
1791114720090192000,3.34019189453125,-10.660886656200885,-1.3602350442707538,-0.40422238648571074
1791114720100261600,3.35026171875,-8.664022518387437,-4.897663320976496,0.8493176853034645
1791114720110332700,3.360332763671875,-4.135564265725017,-2.753056599369645,1.1815683299034834
1791114720120403700,3.37040380859375,0.5288949872717261,2.3641496362417933,0.5623077197909355
1791114720130474800,3.380474853515625,4.363961517944932,2.753742828068137,0.36580271252468227
1791114720140545800,3.3905458984375,-0.7431985399484634,1.5529221006840466,-0.353868090711534
1791114720150616600,3.400616455078125,-7.654649661010503,0.03314765184223652,-1.9374252758949995
1791114720160687600,3.4106875,0.37432168067544697,-4.023166551557183,-2.0968984833620485
1791114720170758700,3.420758544921875,5.4386681404978034,-2.2270289842277764,-0.6505142649017274
1791114720180829700,3.43082958984375,-1.8786457546681166,4.364677557259798,2.096152779561281
1791114720190900700,3.440900634765625,-4.5757378902316095,4.458808377853035,1.6370415226116775
1791114720200971800,3.4509716796875,6.476760896402597,-0.3954541928142309,-3.279536634454131
1791114720211042600,3.46104248046875,7.539835533350706,-2.169246072822809,-4.015048711553216
1791114720221113600,3.471113525390625,-5.230751366248726,-1.356702193969488,0.29713074283674357
1791114720231184600,3.4811845703125,-9.459420616650581,-0.7731640546232461,1.6595141973130405
1791114720241255700,3.491255615234375,-7.246551675200462,-1.0785177052736281,1.5325671487890182
1791114720251326700,3.50132666015625,0.40466567327380176,-0.7054922018885612,1.5681573714777826
1791114720261397800,3.511397705078125,6.971106256079674,1.7825772440105676,1.9156201251916587
1791114720271468500,3.521468505859375,-0.5340642066031694,3.8544478152304884,2.491823245474696
1791114720281538800,3.531538818359375,-12.207145791864395,2.8647727610141036,1.0341836196370422
1791114720291609900,3.54160986328125,-4.089037784610689,-3.7176942429631947,-3.430907930138707
1791114720301681000,3.551680908203125,8.77425808608532,-6.5470853094726795,-2.720984175543487
1791114720311752000,3.561751953125,9.930998848724364,0.6073182433843612,0.6466874731551855
1791114720321822700,3.57182275390625,1.156109478998184,8.054166865479946,1.7002603414602577
1791114720331893800,3.581893798828125,-2.040463625565171,6.731636990225315,-1.0680606817323715
1791114720341964800,3.59196484375,5.999542028093337,-2.5165204643577335,-4.988659350675344
1791114720352035800,3.602035888671875,-2.972979453232884,-7.371893042093515,-2.678105987803638
1791114720362107000,3.61210693359375,-14.57923615797758,-3.562849718210101,0.24144706873334942
1791114720372178000,3.622177978515625,-11.281910768854617,-1.1708569662749766,-3.0603996702715754
1791114720382248700,3.632248779296875,1.784172988769412,-1.2929437152862548,-5.553759916055202
1791114720392319700,3.64231982421875,16.102697770899532,-4.236539253124595,-3.55156786121726
1791114720402390800,3.652390869140625,12.208126619595289,2.2971096516698597,1.5612575289614499
1791114720412461800,3.6624619140625,-3.3108380739077923,5.316901124960184,2.45514975759387
1791114720422532900,3.672532958984375,-15.387200892347096,1.806950053244829,0.17988767099697142
1791114720432604000,3.68260400390625,-15.308662193161249,-2.3301035742551086,-2.237352225321531
1791114720442674700,3.6926748046875,-2.1651742933392524,-5.10882828336656,-5.033991945829987
1791114720452745700,3.702745849609375,12.279001067763566,-2.8855320559263227,-2.741799584557116
1791114720462816800,3.712816650390625,10.178657266253232,6.479072095954418,1.4369304536774754
1791114720472886800,3.72288671875,6.579205956354737,9.067471217086911,2.0332266600489617
1791114720482957800,3.732957763671875,3.8030882148712872,2.523462830841541,1.1500726830519734
1791114720493028600,3.743028564453125,-3.3239339945852753,-2.8906396081984043,0.46478689143322405
1791114720503099600,3.753099609375,-7.50717128111124,-3.212325384968519,-1.4900925734139978
1791114720513170700,3.763170654296875,-6.234182558616996,-1.099305641758442,-4.354766988620161
1791114720523241700,3.77324169921875,-0.37497546840906143,1.3829378744661807,-4.003609325911104
1791114720533312800,3.783312744140625,4.289636637061834,2.909140895050764,-0.8685304083608091
1791114720543383800,3.7933837890625,9.75036346463263,2.3856530275195835,1.1379545944307
1791114720553454600,3.80345458984375,10.67442067603469,2.055467717951536,1.958283208876103
1791114720563525600,3.813525634765625,-6.8668614532291885,2.899548890841007,1.458121418005228
1791114720573596700,3.8235966796875,-16.73824725251198,0.11439385642111301,2.6015350815594194
1791114720583667700,3.833667724609375,-11.820454166698456,-2.7214029854774475,0.36917080071829256
1791114720593738800,3.84373876953125,-0.2965869913488626,-4.1470419375509024,-1.7532302996255456
1791114720603809800,3.853809814453125,6.143391111579537,0.6183598618805408,-1.1298571396276353
1791114720613880600,3.863880615234375,12.493259904515742,3.9278544122248884,0.4144801611278206
1791114720623951600,3.87395166015625,8.877416847264767,3.244910726752877,2.124920316623151
1791114720634022700,3.884022705078125,-6.215686532461643,0.13572364469766615,2.583969029730558
1791114720644093000,3.894093017578125,-12.60423255431652,-2.9241975944072007,2.0115271616771815
1791114720654163200,3.9041630859375,-6.013688626867532,-3.5095863300561905,-1.5727449915289877
1791114720664234200,3.914234130859375,0.8784729795739055,-0.7878080815255641,-2.54122908141762
1791114720674305000,3.924304931640625,3.065855305328965,3.4462802713155742,0.14056739493440837
1791114720684376000,3.9343759765625,3.990089042341709,2.2927631468981504,1.8585314796611665
1791114720694447000,3.944447021484375,-4.2678211110949515,0.7245277417480945,2.0009815100044013
1791114720704518100,3.95451806640625,-7.880224841547012,-1.180740646907687,0.9347210095617919
1791114720714589200,3.964589111328125,-0.20662410409003495,-3.710141635626554,0.2962229255431332
1791114720724660200,3.97466015625,4.295448538210988,-2.9926141280293463,-0.1822813977330923
1791114720734731300,3.984731201171875,1.6468255422621965,1.673057715627551,1.483189662157744
1791114720744802000,3.994802001953125,0.3631815702408552,4.409880388554931,2.6153528867706655
1791114720754873000,4.004873046875,9.49088659901619,3.7400200565397737,1.1178951914161444
1791114720764944100,4.014944091796875,11.111521468967199,2.3867776476353404,0.2543395392606035
1791114720775015200,4.02501513671875,-7.178720832511782,1.0252829586923122,0.824335292803496
1791114720785086200,4.035086181640625,-12.504191632896662,-3.624864568096399,0.8523539842594414
1791114720795157200,4.0451572265625,-7.597212202042341,-3.6987054648548363,-0.9748052557341754
1791114720805228000,4.05522802734375,-1.000241748677194,-2.702771934765577,-3.7357849031880495
1791114720815299000,4.065299072265625,6.639784051436186,-2.4108576114028692,-2.319467760080844
1791114720825370000,4.0753701171875,3.0217466990113255,1.1832289565920828,2.013123637088388
1791114720835441200,4.085441162109375,-7.3259145502507685,4.867023268041015,5.827164184737205
1791114720845511000,4.095510986328125,-1.579549703107774,1.005271851798892,1.7372468408130108
1791114720855582000,4.10558203125,8.613801566669345,-3.9883436599791047,-1.7407272302746772
1791114720865653000,4.115653076171875,8.167268344002961,-0.30880875954031944,-2.282795441243797
1791114720875724000,4.12572412109375,-2.216533893698454,5.463499214893579,1.5888441856756805
1791114720885795000,4.135795166015625,-9.568191957014799,5.810992802137136,3.3170638165548443
1791114720895866000,4.1458662109375,-5.136974765920638,-1.557213075876236,-0.6460504173606634
1791114720905937200,4.155937255859375,-0.025893150669336316,-5.289057424744963,-0.7706066252253949
1791114720916008000,4.166008056640625,4.23366662029773,-2.402286766934395,-0.030781105373986064
1791114720926079000,4.176078857421875,3.770620654247701,2.083563931623101,0.7681507565058767
1791114720936150000,4.18614990234375,-2.2054089808329937,3.9609447809219356,0.8090953458346426
1791114720946221000,4.196220947265625,0.20036212108582258,0.018308979150652886,0.3376131580138579
1791114720956292000,4.2062919921875,1.4779022232741117,-2.7693162447750566,-0.20094193026777354
1791114720966363100,4.216363037109375,-9.159106713733076,0.343230084580183,1.9891667151786385
1791114720976434000,4.226433837890625,-7.71873722551763,-1.3097165709108114,2.8710645546346902
1791114720986505000,4.2365048828125,1.9316566293656825,-1.8354799821585415,-0.10419829682763665
1791114720996576000,4.246575927734375,6.40980157585144,0.8301397412985563,-1.1196738915264606
1791114721006647000,4.25664697265625,4.448751094219088,2.9493957485496995,-0.09564012917764485
1791114721016718000,4.266718017578125,-1.0474085735216736,3.4661651214808225,1.4023624136433004
1791114721026788000,4.2767880859375,-6.108104109621047,1.8725784174531697,1.230348142902553
1791114721036859100,4.286859130859375,3.5048154623925685,-1.3710112898290157,-1.333788643632829
1791114721046930200,4.29693017578125,11.401632542300224,-2.2992384803920984,-1.1366928308665751
1791114721057001200,4.307001220703125,-1.3620575835227966,1.1891413955062626,2.459249594128132
1791114721067072300,4.317072265625,-11.129589040577411,1.394584473118186,4.279566201685369
1791114721077143300,4.327143310546875,-7.707277089348435,-2.908041993898153,1.6036068705216049
1791114721087214000,4.337214111328125,1.71940504078269,-3.7364211552649733,-0.6190332310974598
1791114721097285000,4.34728515625,9.520101003062724,-1.7542010443538427,-0.9227799580078572
1791114721107356200,4.357356201171875,3.3176398628771304,2.6133652200847863,1.7918670504033565
1791114721117427200,4.36742724609375,-7.704729742953181,2.0073013606756924,3.5037037017583845
1791114721127498200,4.377498291015625,-7.796534750947356,-1.4418138418048618,0.22534889749996362
1791114721137569300,4.3875693359375,3.383221173073351,-4.678935814377665,-1.7783644486211239
1791114721147640000,4.39764013671875,8.246006949675083,-0.08709902226030826,-1.708062101252377
1791114721157711000,4.407711181640625,5.454511606317758,3.6045308051198717,-0.04294504243098199
1791114721167782100,4.4177822265625,0.7683335657268762,2.7796885857075453,1.0115972554281354
1791114721177853200,4.427853271484375,-0.04597030853629112,-2.006358526867628,-0.8819241429410875
1791114721187924200,4.43792431640625,-4.501958952793479,-4.703312715265154,-0.7518496100462972
1791114721197995300,4.447995361328125,-7.5602897078365086,-2.978212677711248,-0.6724012486696243
1791114721208065000,4.45806494140625,-3.5011189459621903,0.5388777443647385,-1.2857244315572083
1791114721218136000,4.468135986328125,3.6641271956875916,0.8602426186174154,-1.1604531342256814
1791114721228207000,4.47820703125,11.344377454161643,-1.9405133050382135,-1.6916171624079346
1791114721238278100,4.488278076171875,10.219107350063323,-1.04488840739429,-1.5662955231286584
1791114721248349200,4.49834912109375,3.761236155308783,2.5502228274732825,0.055016077040135856
1791114721258420000,4.508419921875,-3.1429516967520117,2.01808520501852,0.45516259238906204
1791114721268491000,4.518490966796875,-13.25689216068387,0.8783832554638386,0.2618433755520731
1791114721278562000,4.52856201171875,-14.054578662145136,-0.08283025889992714,-0.5864121604125947
1791114721288633000,4.538633056640625,-0.9376777404755353,-3.8679134460031985,-2.9014450798511504
1791114721298704100,4.5487041015625,7.639283749574423,-1.6386358060657977,-1.006285924212262
1791114721308775200,4.558775146484375,0.1309679746031761,6.121681384074687,2.794400417149067
1791114721318846000,4.568845947265625,0.42436932165324687,4.61855645673871,1.9020421200856565
1791114721328917000,4.5789169921875,-0.2684989609837532,-1.1965700842022895,0.2645383137244731
1791114721338988000,4.588988037109375,-1.5014952803075312,-3.8206075049489736,-0.21321838778853416
1791114721349059000,4.59905908203125,-1.2157125915676354,-3.374782138291001,0.318837693862617
1791114721359130000,4.609130126953125,-2.3946277766138313,1.3131260870933532,1.5424277408070861
1791114721369201200,4.619201171875,-0.8291466386079788,2.8436200828701255,1.5814435540303586
1791114721379272000,4.62927197265625,4.985389535224438,0.5138789121866226,1.7551185975901782
1791114721389342000,4.639342041015625,8.888198353520036,-0.3854992005109787,1.5470456098660825
1791114721399413000,4.6494130859375,2.2303262722074986,0.6231605401605367,1.2065187198299914
1791114721409484000,4.659484130859375,-9.176597946760058,2.4835902546584605,1.65547237457633
1791114721419555000,4.66955517578125,-12.233795313858986,1.5179770440310238,1.1445026278346777
1791114721429626000,4.679626220703125,-2.904722494086623,-3.810872877398133,-0.7787267302516847
1791114721439697200,4.689697265625,6.4907490897446865,-4.269965137386322,-1.1478183282539247
1791114721449768200,4.699768310546875,10.14167690438032,-0.612937836831808,0.6164680567845702
1791114721459839200,4.709839111328125,9.236342513626813,3.5689644016981124,0.943422056281194
1791114721469910300,4.71991015625,-0.547778259178996,3.5393835024267433,0.647451808591187
1791114721479981300,4.729981201171875,-5.723708486437797,-1.058099771144986,-0.9465803741816431
1791114721490052000,4.740052001953125,-5.671988820594549,-2.920304678621888,-2.4484039365954695
1791114721500123100,4.750123046875,-3.9115304694116113,-1.1955986088216304,-3.7768171708002685
1791114721510194200,4.760194091796875,0.041860535129904744,1.675581096625328,-2.8850623925879595
1791114721520265200,4.77026513671875,3.67804407735914,2.660317525395751,-1.0260079850312323
1791114721530336300,4.780336181640625,8.51964385806918,1.0839192720562218,-0.8812575687911361
1791114721540407300,4.7904072265625,2.918497336938977,-0.013063479712605476,-0.3149160634394735
1791114721550478000,4.80047802734375,-6.55978580109179,-0.5778899043262005,0.6745590112254023
1791114721560549000,4.810549072265625,-5.156176894518732,-2.7749416834414005,1.0750545592077076
1791114721570620200,4.8206201171875,-2.7347388523906466,-1.5220318723797797,-0.08654014626853168
1791114721580690200,4.830690185546875,0.3627273967325687,0.34079788899719715,-0.4949385397972539
1791114721590761200,4.84076123046875,2.5722715776741505,1.4896616346508265,1.1122593774862586
1791114721600832000,4.85083203125,2.2629992922753095,3.5907618074864147,1.3812931759990752
1791114721610903000,4.860903076171875,6.384156262463331,2.6162182714283464,0.5837482749655842
1791114721620974000,4.87097412109375,-0.4105447944402694,0.6968786873221396,0.7320541917301714
1791114721631045000,4.881045166015625,-11.621789204919338,-0.28858430215716363,2.169344418630749
1791114721641116400,4.891116455078125,-10.063252771484851,-1.758693095076084,0.1497279489243403
1791114721651187500,4.9011875,-3.202511262440681,-2.3662305341690777,-1.569897639273852
1791114721661258500,4.911258544921875,3.8768390952587124,0.8314473167657852,-0.23157895099595188
1791114721671329300,4.921329345703125,7.829503539091348,4.053862718594074,0.8027367705881595
1791114721681400300,4.931400390625,7.034604038000106,5.054432676312327,1.1637109669778496
1791114721691471400,4.941471435546875,-2.076719764816761,1.7687579774945974,0.9153288382843137
1791114721701542400,4.95154248046875,-5.505947194522619,-3.4649323648154735,0.717464086972177
1791114721711613400,4.961613525390625,-3.4580127946853634,-4.799861702916026,-1.2930929144985972
1791114721721684500,4.9716845703125,-0.38361411741673945,-1.9091870234042405,-3.5756299970671535
1791114721731755300,4.98175537109375,2.2576892031684515,1.7171639838576316,-2.737440512564778
1791114721741826300,4.991826416015625,4.8570349579900505,2.726287834909558,-0.9662387951798737
1791114721751896300,5.001896240234375,7.48218004771769,1.6388994254380465,-0.7298627461005002
1791114721761967400,5.01196728515625,2.1019635116666553,0.3736643858104944,-0.547320761202462
1791114721772038400,5.022038330078125,-3.621231764551997,-0.23839257653355597,-0.03563875627191737
1791114721782109200,5.032109130859375,-4.136224775460362,-0.4566793536275625,-0.3823141042014584
1791114721792180200,5.04218017578125,-3.794450442646444,-0.7486690803140401,-0.9317598947338759
1791114721802251300,5.052251220703125,-1.7592235486909746,-0.8925397911101579,-1.1659238937869667
1791114721812322300,5.062322265625,-0.6225602361798286,0.676491732853651,-0.6733969817087054
1791114721822393300,5.072393310546875,2.9646704745709895,0.43259997438192366,-1.1290770221006126
1791114721832464400,5.08246435546875,1.0538292542189358,-0.3938730611026287,-0.6328581967018544
1791114721842535200,5.09253515625,-0.8240811719119548,0.20176818849146366,0.16031891930988057
1791114721852606200,5.102606201171875,-0.24604396806955336,0.8283201246559619,-0.21149198412103576
1791114721862677200,5.11267724609375,0.4090513410121202,0.9018559009879827,-0.4667258601391688
1791114721872748300,5.122748291015625,-1.620777493292093,1.4147574925750492,-0.5014507712354883
1791114721882819300,5.1328193359375,-4.020060402235389,2.0901672754108906,-0.438777055581659
1791114721892890400,5.142890380859375,2.7573282853394745,-0.9475596675425767,-1.8724058373652397
1791114721902961200,5.152961181640625,2.737778658477962,-1.7150415848761795,-2.073866421212256
1791114721913032200,5.1630322265625,-0.6858081349924207,-0.944203927373886,-1.2545716067939996
1791114721923103200,5.173103271484375,-0.1606935430422425,-0.8035773130655288,-0.6981546986073255
1791114721933174300,5.18317431640625,-0.8155681951105594,0.79460431753695,-0.5587964967995882
1791114721943244500,5.19324462890625,0.36642449768483637,0.4878057287752628,-0.4309780357358977
1791114721953315300,5.2033154296875,4.115625055024028,-0.5628893190711737,0.42658330790828913
1791114721963386400,5.213386474609375,1.7997335459947585,0.2278898872196674,1.2449345943987369
1791114721973457400,5.22345751953125,-4.858593877869844,0.07003624377846718,0.9369806981220841
1791114721983528400,5.233528564453125,-4.294557142329216,-1.8288579336702822,-0.4920222870243713
1791114721993599500,5.243599609375,-0.3772498430818319,-0.12131693368256091,-1.6563326446674764
1791114722003670500,5.25367041015625,1.507527546209097,1.073204401296377,-3.0628570002958178
1791114722013741300,5.2637412109375,3.640708618438244,0.2667120775669813,-1.7635307443656025
1791114722023812400,5.273812255859375,-0.06216156488060951,1.8499919071137905,0.29346054815771055
1791114722033883400,5.28388330078125,4.128988978987932,-0.026362521746754644,0.6909945977196097
1791114722043954400,5.293954345703125,2.0449208972349764,-1.2277484817981719,0.33942543160021305
1791114722054025500,5.304025390625,-3.177835670867562,0.06405775389075279,-1.0894459265232086
1791114722064096500,5.314096435546875,2.930071454876661,-0.550092965862155,-1.6345320240087806
1791114722074167300,5.324167236328125,5.676241801863909,1.818058307236433,-1.1751819898672402
1791114722084238300,5.33423828125,-1.6087287435799835,2.4788433523923157,0.9433197649504989
1791114722094309400,5.344309326171875,-4.96537199859023,-0.7311293319702148,2.0252831536985934
1791114722104380400,5.35438037109375,-7.981039085426926,-1.592983477437496,2.2092655101306735
1791114722114451500,5.364451416015625,-8.393712124067545,-0.9709282681703567,2.6187597726047036
1791114722124521200,5.374521240234375,-1.1505772715732454,-0.8720026145160198,1.022131508924067
1791114722134592300,5.38459228515625,1.113311663018167,2.7567537003219127,1.7736252912700174
1791114722144663300,5.394663330078125,0.8013546685799956,4.245168549782037,2.878310872501135
1791114722154734300,5.404734375,5.084686944800615,1.0209200873076916,2.2339282422222198
1791114722164805400,5.414805419921875,0.8506810095459222,1.6954419813930988,3.1338878080695864
1791114722174876400,5.42487646484375,-3.2334941374644637,2.1894325362831353,2.4842189079508183
1791114722184947200,5.434947265625,-5.021913970023394,-0.9161451231032609,1.3315952252417802
1791114722195018200,5.445018310546875,-3.710854167810082,-3.4158173285126683,2.351682953378558
1791114722205089300,5.45508935546875,1.2343272756665944,-2.9384388857275248,1.4913658082202077
1791114722215160300,5.465160400390625,3.5482030609592794,0.5564876353353262,0.7507483708061278
1791114722225231400,5.4752314453125,2.286915005391836,1.8863637816995382,-0.31366270237751304
1791114722235302400,5.485302490234375,-0.004918751701712608,2.2310814744889735,-0.9192232153743505
1791114722245373400,5.49537353515625,0.20747546022236346,-0.2824105819582939,0.04783414791310206
1791114722255444200,5.5054443359375,1.8812080063715575,-2.5040064352214335,0.15178475358998403
1791114722265515300,5.515515380859375,1.1056693315714596,-1.2197077986836433,0.17835932891853154
1791114722275586300,5.52558642578125,2.022874777382612,-0.3978232600331306,-0.4822992403134703
1791114722285657300,5.5356572265625,0.7461679111480712,0.7528074952930212,-0.7400017897337675
1791114722295728400,5.545728271484375,0.798358701634407,-0.7320616443842649,-0.3565319396259263
1791114722305799400,5.55579931640625,-1.1415765112549066,-0.2574766317099333,-0.549965101698786
1791114722315869400,5.565869384765625,-0.3756266257941723,-0.8221446508914232,-0.9024902533687651
1791114722325940500,5.5759404296875,-0.1411395322665572,-0.9841022225201129,-1.4650781052753328
1791114722336011500,5.586011474609375,-0.9937281289994716,-1.1857143436670303,-0.29141996397450565
1791114722346082600,5.59608251953125,3.4632658929079767,-1.96271344640851,-0.45373171933572737
1791114722356153600,5.606153564453125,5.827793130290508,-0.4411953687697649,-0.3641670741468668
1791114722366224400,5.616224365234375,2.8338749339252707,1.5217010329902172,0.37886301389951255
1791114722376295400,5.62629541015625,-0.8057406285792589,2.4711539669334885,1.5451023668438195
1791114722386366500,5.636366455078125,-0.17165391299575566,0.8927712617784738,0.47711135281417516
1791114722396437500,5.6464375,4.961635734671354,-1.200198796093464,-1.4262700895838438
1791114722406508500,5.656508544921875,0.5689867591634392,-1.3306862937033175,-1.006238797134906
1791114722416579600,5.66657958984375,-5.806183356028795,-0.8908551990240812,0.3521606657391414
1791114722426650400,5.676650390625,-6.256995863449573,-1.2062585345238446,0.2574635530326515
1791114722436721400,5.686721435546875,-2.0556258311226965,-1.0365262372404336,-0.7858245795581489
1791114722446792400,5.69679248046875,6.810158738276362,-1.7474965782791374,-1.5062094493478535
1791114722456863500,5.706863525390625,4.995786426076292,-0.9808300689816475,-1.5223827316440641
1791114722466934500,5.7169345703125,-7.588571799468994,1.8299059814184904,1.197432838511467
1791114722477005600,5.727005615234375,-8.927424448493122,1.0234709408342837,1.6795593526065349
1791114722487076400,5.737076416015625,3.5943583706736564,-1.2602946606159209,-0.9575311725892126
1791114722497146400,5.747146484375,7.7313552995502945,0.8463169691175222,-2.104857333412021
1791114722507217400,5.757217529296875,5.713621392187476,4.437456962266564,0.7410885620571672
1791114722517288400,5.767288330078125,-1.0621499233186245,5.093493351590633,2.3164373063437638
1791114722527359500,5.777359375,-5.067119723927974,0.4872399115860462,1.7335580692976713
1791114722537430300,5.78743017578125,-8.595876033878326,-3.337044236049056,1.457951614396274
1791114722547501300,5.797501220703125,-6.106922206360101,-3.7950656519353387,0.39149332635924217
1791114722557572400,5.807572265625,3.9292464511051772,-1.825982670494914,0.26716025972589846
1791114722567643400,5.817643310546875,6.917597953253984,3.0803584624558686,1.3076662142522633
1791114722577714400,5.82771435546875,4.093585657173395,4.405261496582627,2.171527169497311
1791114722587785500,5.837785400390625,0.5019412216335535,3.00648307890594,1.877450991925597
1791114722597856300,5.847856201171875,-1.8297604354679584,0.9644143562316894,1.0852815733853727
1791114722607927300,5.85792724609375,-0.8377171908155083,-1.0365233146309851,0.02939830924607813
1791114722617998300,5.867998291015625,-5.574552528715134,-2.1007564739644526,0.9381929965212941
1791114722628069400,5.8780693359375,-10.011087699961662,-0.5363479336261749,2.2129972440049053
1791114722638140700,5.888140625,-6.400797016140818,-0.12295359497368336,1.293663261732459
1791114722648211700,5.898211669921875,-0.37946868817508217,-2.8976269828677177,0.3070296210385859
1791114722658282800,5.90828271484375,-4.7939220837339755,-1.2612807490438223,-0.3033600656803697
1791114722668353800,5.918353759765625,-1.036535005068779,-1.1874059500157832,-0.8885479449950158
1791114722678423600,5.928423583984375,9.13606778345108,-0.9318623321950436,-3.1470179232776165
1791114722688494600,5.93849462890625,12.831674697768687,-0.8360124327242374,-1.9997607360377907
1791114722698565600,5.948565673828125,8.575307293102144,0.039950317594408986,-0.3052776628047228
1791114722708636700,5.95863671875,-4.07792865383625,1.9507418535858392,2.8575892792508006
1791114722718707700,5.968707763671875,-11.880000580644607,1.9549802218079566,4.65631394046396
1791114722728778500,5.978778564453125,-4.259327715776861,-3.6996722640603776,0.13690832443758844
1791114722738849500,5.988849609375,3.803253926827013,-5.62437366746068,-3.229574918194115
1791114722748920600,5.998920654296875,4.316799953797459,-1.8274340383470058,-2.0578058055102826
1791114722758991600,6.00899169921875,2.065902310465276,3.086691172608733,-0.42828532605320213
1791114722769062700,6.019062744140625,-2.0627344940841197,6.518471209406853,0.7546952818010002
1791114722779133700,6.0291337890625,-2.357825109395385,4.268223262155056,1.3734224426239727
1791114722789204500,6.03920458984375,2.8137410774350164,-1.8395231200695037,1.1235266944970934
1791114722799275500,6.049275634765625,7.4766270897656675,0.2700269012033939,1.0034234474532306
1791114722809346600,6.0593466796875,7.681541759589314,4.657290384280682,0.7528638285901397
1791114722819417600,6.06941748046875,6.451917547047138,3.0223604469954966,-0.4286180651389062
1791114722829488600,6.079488525390625,-8.49200532503724,0.5664870513021946,-0.18290201384946703
1791114722839559700,6.0895595703125,-15.423465799427031,-0.6119938339799642,1.2074166915830225
1791114722849630700,6.099630615234375,-9.03867825332284,-2.9647558147668835,-1.246148646363616
1791114722859701800,6.10970166015625,6.313653570216894,-5.2296378520488735,-4.349600984159112
1791114722869771800,6.119771728515625,8.49446616219282,2.530536714750528,-2.414794950851798
1791114722879842800,6.1298427734375,5.253714308685064,5.0709804910093546,0.9500842175841331
1791114722889913900,6.139913818359375,-3.6098265734404325,1.3543021470904348,1.6096363599441945
1791114722899984600,6.149984619140625,-12.819202169686555,-4.425382493591308,2.6479326755970716
1791114722910055700,6.1600556640625,-6.265718683609366,-7.816039661884307,-0.09448292196653783
1791114722920126700,6.170126708984375,8.479073947271704,-8.93811535385549,-3.6288887090459463
1791114722930197800,6.18019775390625,7.709657262483239,-1.6665958261370657,-1.9278899703085421
1791114722940268800,6.190268798828125,-4.756111700777709,5.245027728882432,2.4853935046881435
1791114722950339800,6.20033984375,-4.666239998933673,0.7921937492638826,1.341306764177978
1791114722960410600,6.21041064453125,-4.872807404400408,0.4810042320668697,-1.3601836063444614
1791114722970481700,6.220481689453125,-1.591476580005884,0.36061668818891046,-1.3590385279625654
1791114722980552700,6.230552734375,8.959746170905232,-0.9386404480278492,-1.314489484401047
1791114722990623700,6.240623779296875,7.70324038117826,0.4529799145877361,0.16284122259542344
1791114723000694800,6.25069482421875,-1.675961328114569,2.471035308989882,2.091411430253088
1791114723010765800,6.260765869140625,-4.166419422715902,0.10848434011638164,1.1612664233699441
1791114723020836600,6.270836669921875,-1.6855948333784936,-1.957687727200985,-1.172633620558679
1791114723030907600,6.28090771484375,0.7632149075388908,-2.4152917944580317,-1.3827087418854236
1791114723040978700,6.290978759765625,1.7822949199378488,0.9261924698650836,0.3523100476145744
1791114723051048700,6.301048583984375,6.369260306626558,2.2642203585028646,1.1603723240744321
1791114723061119700,6.31111962890625,3.0530659663826225,3.772759127581119,2.2109166383385657
1791114723071190500,6.3211904296875,-2.2169112025782463,4.81031587691307,2.895017092630267
1791114723081261600,6.331261474609375,-6.8438137551188465,6.042347735118866,2.7781585996612903
1791114723091332600,6.34133251953125,-3.0197008723974226,1.834727702486515,0.783171946157515
1791114723101403600,6.351403564453125,1.5390186630159615,-5.50689587354958,-1.13899643163383
1791114723111474700,6.361474609375,1.2440496282577513,-5.536926270154118,-0.4553380220212042
1791114723121545700,6.371545654296875,-3.173843386361003,0.4768693242192268,0.5139999082177877
1791114723131616500,6.381616455078125,-0.08458265552520751,1.9977765764832496,-0.13882102619111536
1791114723141687600,6.3916875,5.294827824839949,1.2310106984645128,-0.5990723930865526
1791114723151758600,6.401758544921875,4.057473894828558,2.4605279435008764,1.0137768644895404
1791114723161829600,6.41182958984375,3.550941253751516,-0.39657881292998787,0.801998738637194
1791114723171900700,6.421900634765625,0.07439940742403268,-2.7159271844148636,0.038374300449341536
1791114723181971700,6.4319716796875,-6.719577719119191,-1.0845131462961435,0.03744797938466072
1791114723192042500,6.44204248046875,-6.802897222840786,0.04964110600352287,-1.0632559848643839
1791114723202113500,6.452113525390625,-0.6670207246750592,-0.9915385100007057,-1.555829220302403
1791114723212184600,6.4621845703125,5.269858803278208,-1.9408745395660398,0.15129567316509782
1791114723222255600,6.472255615234375,3.247601865532994,-0.30685645642876624,1.8128142691031097
1791114723232326000,6.482325927734375,-0.6191992353141308,1.734806023532152,2.6233555759623646
1791114723242396700,6.492396728515625,-3.875267315897345,-0.5231231258720159,1.8977622508093714
1791114723252467700,6.5024677734375,-3.6710336140751836,-2.6940561288684606,0.0744069696759805
1791114723262538800,6.512538818359375,-3.7199417296290394,-1.6163731208533048,-0.8395342501748353
1791114723272609800,6.52260986328125,2.7394617892593143,-1.7533692697048187,-1.3431693431794642
1791114723282680800,6.532680908203125,7.154594691514968,-1.5713900697886942,-2.194333606197685
1791114723292752000,6.542751953125,1.6529796809777617,1.865757631522417,-0.766791962308064
1791114723302822700,6.55282275390625,-6.928813174751401,2.1319342870384452,1.376336430374533
1791114723312893700,6.562893798828125,-7.760945551171899,-0.9526116902351379,0.739829721102491
1791114723322964700,6.57296484375,-3.205774063628912,-0.6242039117336273,-1.3954016347199678
1791114723333035800,6.583035888671875,4.311051765534281,0.9342214625418186,-1.1533031894057988
1791114723343106800,6.59310693359375,7.2188348162353035,2.893456419184804,-0.7163916354350746
1791114723353177900,6.603177734375,5.008814834475517,2.5483377443790434,0.5000408679049462
1791114723363248600,6.61324853515625,0.7208423312336206,0.9642126961797475,1.4084487478196621
1791114723373319700,6.623319580078125,-0.4068307423532009,-2.0561831727445123,1.0241696636881679
1791114723383390700,6.633390625,-2.036644359537959,-4.681943764021993,-0.1480214007347822
1791114723393461800,6.643461669921875,-4.767826103968918,-1.166096620005369,-0.5633840803181752
1791114723403532800,6.65353271484375,-1.2370984939455985,0.2648088742941618,-0.33581115009319035
1791114723413602600,6.6636025390625,2.9057886620134115,0.4757774373292923,-0.9409249787684529
1791114723423673600,6.673673583984375,6.57994654558897,-0.3874760535418987,0.061311048998497424
1791114723433744600,6.68374462890625,3.7254941030591726,1.365564714860916,1.5714207571879029
1791114723443815700,6.693815673828125,8.673987447562814,1.2175292856007813,0.810157714369148
1791114723453886700,6.70388671875,9.3896514993757,0.9979214890360831,-1.5253475727990269
1791114723463957800,6.713957763671875,-2.7088661599874495,0.16113105767667293,0.6324442821387202
1791114723474028500,6.724028564453125,-10.470807151937484,-1.8022136723726987,1.5222906694464384
1791114723484099600,6.734099609375,-7.516667423731088,-3.9658167708724736,-2.2503508231043816
1791114723494170600,6.744170654296875,1.3586246864646672,-3.346798152822256,-2.518580319496989
1791114723504241700,6.75424169921875,10.381022251594066,-0.5610504132062196,-2.4708538149431347
1791114723514312700,6.764312744140625,1.405818983837962,2.2876433196663855,-0.5409788448298349
1791114723524383700,6.7743837890625,-13.061719132673739,0.27758360019326206,3.188800424735248
1791114723534454800,6.784454833984375,-11.137196008449791,-3.390610991063714,1.4847005051121114
1791114723544525600,6.794525634765625,-1.1747200714439152,-5.036102069851756,-0.42136374662909654
1791114723554596600,6.8045966796875,8.016191062828899,-1.9524574253320692,-1.7632281081572174
1791114723564667600,6.814667724609375,10.120449407434464,1.6938894912540912,-2.165349796036631
1791114723574738700,6.82473876953125,8.3921900290668,5.500422878143191,0.18822463364433495
1791114723584808700,6.83480859375,2.4417525158822535,3.972932155835628,1.3485603885680437
1791114723594879700,6.844879638671875,-7.664080921700596,0.4329290602058172,-0.27703447841051965
1791114723604950800,6.85495068359375,-12.69280164912939,-2.369505025795102,-1.694608891569823
1791114723615021800,6.865021728515625,-9.050765581479668,-3.207696556124091,-1.3585489908799528
1791114723625092900,6.8750927734375,0.5630465554594993,-2.390085457009077,-0.4485575315682217
1791114723635164000,6.885163818359375,8.533618607407808,-1.1369833382457495,-0.05822265452910214
1791114723645234400,6.895234375,4.423459416574239,2.0772277143388984,1.643253236733377
1791114723655305500,6.905305419921875,-3.5035786140739917,2.9198896680802107,2.8104660012871023
1791114723665376500,6.91537646484375,-1.21682318315804,0.37168811730146406,1.1786591644585132
1791114723675447300,6.925447265625,0.7008528516501188,-0.8061585617303848,-0.9422815810091792
1791114723685518300,6.935518310546875,1.5170084912598132,0.7556628847241401,-1.2717504128709434
1791114723695589400,6.94558935546875,-1.7331281534478067,4.0716947278827424,0.14935962706860154
1791114723705660400,6.955660400390625,-4.353387809221446,5.633372966474294,2.086966141282022
1791114723715731500,6.9657314453125,-4.23297629994601,2.0161340709507463,0.9592369535937905
1791114723725802500,6.975802490234375,-4.060889840751886,-1.7320839050918817,-0.2699045169327408
1791114723735873300,6.985873291015625,-1.447421744814515,-2.3749317270189523,-1.0404868114344774
1791114723745944300,6.9959443359375,1.289791388735175,-1.179288110011816,-0.045159576675295826
1791114723756015400,7.006015380859375,3.208824683371186,0.4104764053791761,0.373838573333621
1791114723766086400,7.01608642578125,6.075178576096892,0.3159165457189083,0.19208991250405086
1791114723776156400,7.026156494140625,5.8917947700798505,-1.8035247549712656,-0.31673860269151627
1791114723786227200,7.036227294921875,-3.7588749791353937,-1.412820387032628,-0.41642691128142173
1791114723796298200,7.04629833984375,-10.709565639173984,0.09659224227070808,-0.15376584440460428
1791114723806369300,7.056369384765625,-3.315176103112101,-1.5055027623832224,-1.0012314173016696
1791114723816440300,7.0664404296875,2.3528970053434373,-1.2860375891596079,-2.1710151283219457
1791114723826511400,7.076511474609375,0.09252806157171725,1.6811656187593935,-0.1942976882140152
1791114723836582400,7.08658251953125,-6.829171481782198,5.369841857030988,2.525157944321632
1791114723846653200,7.096653076171875,4.2381694846749305,0.16550912663042544,1.6644652438491583
1791114723856724200,7.10672412109375,11.859102754044532,-3.1155712301343677,-0.14118706120271235
1791114723866795300,7.116795166015625,5.001034263601899,-1.2280009952545166,0.8140726958557963
1791114723876866300,7.1268662109375,-0.37966070361584425,-0.052552609536051745,2.388998538555205
1791114723886937300,7.136937255859375,-3.396088545691967,0.5887713638246059,2.489592709943652
1791114723897008400,7.14700830078125,-1.51354519906342,-2.059434868016839,1.0234583736136555
1791114723907079200,7.1570791015625,4.790364391252398,-4.181797609111666,-1.967276662670821
1791114723917150200,7.167150146484375,2.7126684748798606,-1.406184894540906,-3.506925294153392
1791114723927221200,7.17722119140625,-5.754271382483839,2.152690659341216,-2.8819667646601794
1791114723937292300,7.187292236328125,-6.875871273636817,3.1569805143654346,-2.0004156928151846
1791114723947363300,7.19736328125,-0.5327455252200365,0.2303746897727251,-3.3745237796157594
1791114723957433300,7.207433349609375,3.5563287920087574,-0.1590542514026165,-3.4106454788327216
1791114723967504400,7.21750439453125,4.307613023257256,-0.3950011883497238,-1.81927104402706
1791114723977575400,7.227575439453125,-0.35442309424579144,2.923458758738637,1.0777287468530237
1791114723987646500,7.237646484375,-3.087179832908511,1.0793155776530503,1.051786642475426
1791114723997717500,7.247717529296875,-5.494536742714047,-4.069735410508513,-1.1507885762363672
1791114724007788500,7.25778857421875,-5.014435012444854,-3.5102404100507494,-3.456998941467702
1791114724017859300,7.267859375,3.373452935513854,-2.2764421266943216,-4.071277086992562
1791114724027930400,7.277930419921875,5.39878270483315,1.8497656971424816,-1.9473167014427482
1791114724038001400,7.28800146484375,6.730747347909212,1.9264310036718844,1.299300536967069
1791114724048072400,7.298072509765625,4.093768612524867,2.7055782243579625,3.37138109767586
1791114724058143500,7.3081435546875,-5.128791459465027,1.4822224245607851,2.889329986904561
1791114724068214500,7.318214599609375,-8.862775158450006,-1.0165338350474833,0.9443565606523304
1791114724078285300,7.328285400390625,-4.351286160767078,-1.2792822696805,-1.3981776753045618
1791114724088356400,7.3383564453125,3.235110632750392,-1.1391741262882946,-2.989103197298944
1791114724098427400,7.348427490234375,6.441697766327858,-0.3651853112787008,-1.6694082532092929
1791114724108498400,7.35849853515625,-0.8054790550336242,2.5600159072130917,0.8793515890393405
1791114724118569500,7.368569580078125,-6.707424924510717,4.93980442661345,3.465910269936919
1791114724128640500,7.378640625,1.520787425276637,2.543957337337732,2.2099558304823934
1791114724138710300,7.388710205078125,7.539980494779348,-0.905902546030283,-0.13026722418898715
1791114724148781300,7.39878125,5.513298141807318,0.07412438987493515,-0.09915281347371638
1791114724158852400,7.408852294921875,-1.0953621648296714,1.1059387961626053,0.3017276969718747
1791114724168923400,7.41892333984375,-4.978164844667911,0.956272550830245,0.710114016470313
1791114724178994400,7.428994384765625,-2.242639810335636,-1.6192226650655268,-0.4759986788645386
1791114724189065200,7.439065185546875,-0.41337621847391126,-3.8632343482762574,-1.7691193581528961
1791114724199136300,7.44913623046875,-8.248655418357252,-2.5454484526783228,-0.7273129154872149
1791114724209207300,7.459207275390625,-8.570303201204538,-0.047338089758157724,1.2343500720202922
1791114724219278300,7.4692783203125,1.5932655092492698,1.4393167642921207,0.7421390209581703
1791114724229349400,7.479349365234375,10.27465329619646,0.8721358855068683,-0.106200905354321
1791114724239420400,7.48942041015625,10.200414340031147,0.8862515046209096,-0.2430043811779469
1791114724249491200,7.4994912109375,-0.9673463180303573,3.166390732267499,0.8321759233012795
1791114724259562200,7.509562255859375,-4.593485143846273,1.61444244505167,2.040473270176351
1791114724269633300,7.51963330078125,-0.33083822051882744,-3.6800533713549375,-0.3534677297497168
1791114724279704300,7.529704345703125,0.07392039173543453,-4.654418043714761,-3.2190067624285814
1791114724289775400,7.539775390625,-4.831028410074114,-0.2072784763455391,-1.6813117492318153
1791114724299846400,7.549846435546875,-5.629059779450297,2.9985616382569074,1.111025305646658
1791114724309916200,7.559916259765625,-1.44435417393744,0.7914806325584649,0.779369339004159
1791114724319987200,7.5699873046875,6.112305068442225,-2.882000959190726,-0.20768329428676516
1791114724330058200,7.580058349609375,6.0930100008636705,-1.6138696135997772,0.008081599646806716
1791114724340129300,7.59012939453125,-5.2061482553899285,2.16948689584136,1.5986780358172952
1791114724350200300,7.600200439453125,-9.422855265319347,0.833888864699006,2.2378797563269734
1791114724360271000,7.61027099609375,-3.8568624751567837,-1.2189964355438947,0.3828915022306144
1791114724370342100,7.620342041015625,4.7397512253463265,-1.9638316367834805,-2.2515924937285483
1791114724380413200,7.6304130859375,9.257966900935768,-0.9644985273838043,-2.255758819627762
1791114724390484200,7.640484130859375,-1.4739350732088088,4.899418640211224,1.310733638998866
1791114724400555300,7.65055517578125,-4.483084156453609,4.880849548819661,3.903409122276306
1791114724410626300,7.660626220703125,1.1543541597634552,-0.020954525223374366,1.9275237673446535
1791114724420697000,7.670697021484375,6.390623997172713,-1.8978315166532993,-1.1761236546315252
1791114724430768000,7.68076806640625,6.7546127921432255,-0.17454174339175224,-1.1002786515090615
1791114724440839200,7.690839111328125,1.2432879962354897,2.2691858719557523,-0.2683882671508938
1791114724450910200,7.70091015625,-5.64701395381391,0.304844532084465,0.18823007700443267
1791114724460981200,7.710981201171875,-1.558432680799067,-6.132524265128374,0.059318523474410176
1791114724471052300,7.72105224609375,-2.7051702280789613,-7.128246782815456,-0.2549940211139619
1791114724481123300,7.731123291015625,-7.470356923454999,-1.6093424915641545,1.4109439256362617
1791114724491193300,7.741193359375,-3.429385835137963,3.80093775883913,1.7723416812002657
1791114724501264400,7.751264404296875,5.113926483288407,4.110923160943389,0.5880174767173826
1791114724511335400,7.76133544921875,11.05209897366166,1.020700891599059,-1.0847660981439053
1791114724521406500,7.771406494140625,7.804688246786594,1.238914018934965,-1.3090234740801154
1791114724531477200,7.781477294921875,-4.726314528407157,5.551491971123218,1.1735792308457196
1791114724541548300,7.79154833984375,-4.579480876152217,-0.3113286334067583,-0.6494884289853274
1791114724551619300,7.801619384765625,-2.310803830501437,-6.148939393356442,-3.4374946150526404
1791114724561690400,7.8116904296875,-0.021005963149666785,-4.307185737755894,-2.728108036074042
1791114724571761400,7.821761474609375,6.952592109745741,-1.9445114347636698,-1.4425550155609845
1791114724581832400,7.83183251953125,4.744925413113832,2.5478233651161193,-0.26299524900093674
1791114724591903200,7.8419033203125,-0.2549000592201948,3.5346699179083108,3.13589564076066
1791114724601974300,7.851974365234375,0.7190268062442541,-0.36492344547212124,3.4492154479846358
1791114724612045300,7.86204541015625,2.687152925351262,-3.2021617183506486,0.8950767622418702
1791114724622116400,7.872116455078125,-1.8319784037783742,-0.5031295546352863,0.6839712749540805
1791114724632187400,7.8821875,-1.976445911423862,1.0293237585157156,0.6643262979593128
1791114724642258400,7.892258544921875,-0.9773089091181755,0.24509587356448173,0.15641648677755146
1791114724652329500,7.90232958984375,-2.485648940753937,-0.06513385868966579,0.533239592347294
1791114724662399200,7.912399169921875,-4.152378622403741,1.6108669246524572,1.0530349620360882
1791114724672470300,7.92247021484375,2.2101491610974073,2.1240064166486263,0.8856748007114976
1791114724682541300,7.932541259765625,7.855828651437163,1.6764087796211242,-0.8227429821107536
1791114724692612400,7.9426123046875,1.0466630158513783,0.3758417298495769,0.27385427747182545
1791114724702683100,7.95268310546875,-5.759025883534551,-0.47332010730504986,1.0684536265727131
1791114724712754200,7.962754150390625,-5.592397397485375,-1.3322154029667377,0.3513054736819118
1791114724722825200,7.9728251953125,-4.669512152472138,0.5612140793353319,-0.6532490966930985
1791114724732896300,7.982896240234375,0.8918155684888363,-0.3911316534399986,-0.2535005676858127
1791114724742967300,7.99296728515625,4.2529409373492,-0.7864221801251172,-0.22826317751146852
1791114724753038300,8.003038330078125,-0.28609423890709873,0.13758476239442824,0.31983247705362733
1791114724763109400,8.013109375,-4.405756002101302,1.4750941801160573,0.731795175467804
1791114724773180200,8.02318017578125,-3.2158395305693146,1.9563778136461971,0.8790492450919002
1791114724783251200,8.033251220703125,-0.6337254810556769,1.9201684361457823,0.9421500635839998
1791114724793322200,8.043322265625,2.0315818154513834,0.6358873352646828,0.19163097148910163
1791114724803393300,8.053393310546875,4.622945339347422,-1.1306921291470526,0.9151971016634255
1791114724813464300,8.06346435546875,3.445562770695984,-0.6565659661561251,1.6077178129717706
1791114724823535400,8.073535400390625,-2.6540873988345264,0.1585048008263111,1.7230261538892984
1791114724833606100,8.083606201171875,-5.568374132341146,-0.1718243011265993,1.8233255801148711
1791114724843677200,8.09367724609375,-2.219782666361332,-0.9847539644271135,1.6756009703695773
1791114724853747500,8.10374755859375,2.386437455895543,-0.923071707496047,0.6116331839740276
1791114724863818500,8.113818603515625,4.906114338457584,-0.34997371362149715,-0.07620163454040885
1791114724873889500,8.1238896484375,2.8989556011229753,1.9478391178816556,0.6036698038794099
1791114724883960300,8.133960205078125,2.9129119380220767,1.5248276405781507,0.03029313919395208
1791114724894031400,8.14403125,-1.9657418543189762,-0.41938568802177906,-0.17545549723580478
1791114724904102400,8.154102294921875,-5.979433306044339,-1.7854150977849959,0.48245391941852867
1791114724914173400,8.16417333984375,-3.0278508611053225,-2.5281232238680125,0.502000696735829
1791114724924244500,8.174244384765625,0.8781345413997769,-1.7849369588792323,-0.22172047786973414
1791114724934315500,8.1843154296875,2.9430121849924324,0.1486579450726509,-0.8076549377679825
1791114724944386300,8.19438623046875,1.1351420942932366,2.3295313273251055,-0.13181633506081997
1791114724954457300,8.204457275390626,-0.9059507690861821,1.655617920526862,0.26230807045437393
1791114724964528400,8.2145283203125,-2.7129449537336825,-0.37753041358888145,0.1825014702245593
1791114724974599400,8.224599365234376,0.8755687825649976,-0.9561556464523077,-0.47282224078550933
1791114724984670500,8.23467041015625,4.058819464218616,-0.5945768352329731,-1.5877724647909401
1791114724994741500,8.244741455078126,1.7987597325265408,2.1634324181079863,-1.6562696624338626
1791114725004812300,8.254812255859376,-1.130864855365455,3.033652240860462,-1.3000517937257885
1791114725014883300,8.26488330078125,-4.353598821623623,-0.004579144483804702,-0.2532183166783303
1791114725024954400,8.274954345703126,-8.419429918169975,-2.6659844651162623,-0.23380334904715416
1791114725035024400,8.2850244140625,-9.688411743110418,-2.64556653098762,-1.645484502916783
1791114725045095400,8.295095458984376,1.7283482256948948,-1.9796540598154067,-3.106823860055208
1791114725055166200,8.305166259765626,10.263285514485835,-0.21968319988846777,-4.039515628811717
1791114725065237200,8.3152373046875,7.3865844152688975,3.2202637767523523,-1.3995280670002102
1791114725075308300,8.325308349609376,-0.8022536632463335,3.9110622673779725,1.218584786003083
1791114725085379300,8.33537939453125,-2.3812422253400087,2.2498194927066564,1.2605449821151793
1791114725095450400,8.345450439453124,-0.32478608087301253,-0.7374795777797698,-0.4959255415406078
1791114725105521400,8.355521484375,-1.354859780973196,-1.9850801765173673,-2.0631177943132815
1791114725115592200,8.36559228515625,-3.5487583567544814,-0.9923141705483197,-1.7432757457137107
1791114725125663200,8.375663330078124,-1.235189445453882,-0.9721662855327129,-0.5047467805735767
1791114725135734300,8.385734375,1.843601621554792,-0.7361410226523876,-0.6194127319343388
1791114725145805300,8.395805419921874,3.5369665044128893,-0.784359986898303,-0.604052738782391
1791114725155876400,8.40587646484375,1.1497533879697321,-1.1868471470892428,0.3707067050486803
1791114725165947400,8.415947509765624,-1.847894642573595,-0.5132873760342598,2.0540891230747103
1791114725176018200,8.42601806640625,-0.7834715136259793,-0.34386955152750015,2.6985902651667595
1791114725186089200,8.436089111328124,4.131615820360183,-0.6614461394131184,1.6901089498020707
1791114725196160300,8.44616015625,2.5845015291720626,0.3680792791545391,1.4146559318967162
1791114725206230500,8.45623046875,-2.810267263844609,2.7446529281616208,2.0709489263303578
1791114725216301600,8.466301513671874,-4.25545847312808,1.9626608394384384,1.3957672531619667
1791114725226372400,8.476372314453124,3.769498372219503,-0.9204466196894645,-0.4581874931681901
1791114725236443400,8.486443359375,6.137611943656205,-2.071234611403942,-1.6229798256419599
1791114725246514400,8.496514404296875,0.29296646276414395,-0.4747393264532089,0.5961612183475866
1791114725256585500,8.50658544921875,-5.855718079048395,2.3515368229061364,2.3840377012774345
1791114725266656500,8.516656494140625,-5.1598108671069145,1.2612152825921774,0.978427830145508
1791114725276727600,8.5267275390625,3.555050150375068,-2.782245868974924,-1.3381108907461166
1791114725286798300,8.53679833984375,10.93339309926033,-3.9167672010213135,-3.2757258439943193
1791114725296869400,8.546869384765625,3.9382258763745424,0.9083779962331056,-1.0197878684073687
1791114725306940400,8.5569404296875,-8.592638951653242,2.849104651761055,2.3061412455178796
1791114725317011500,8.567011474609375,-9.254428789937496,-0.16621756716072558,1.8541103022180496
1791114725327082500,8.57708251953125,-2.320306110601127,-1.7242887211710214,-1.4966414105355739
1791114725337153500,8.587153564453125,6.746687844362855,-1.782455078935623,-3.189876237273216
1791114725347224300,8.597224365234375,5.21763411052227,2.9037200390458104,-1.5740965522684156
1791114725357295400,8.60729541015625,0.7864595895260572,2.9616718772768973,1.0297063280925154
1791114725367366400,8.617366455078125,-3.1852129216372966,-0.45691608499288555,1.090757447513193
1791114725377436400,8.6274365234375,-4.595110699221491,-2.5241017132669685,0.1789391381004825
1791114725387507500,8.637507568359375,1.9486270533889531,-2.7120623256802556,-0.6891488237224519
1791114725397578200,8.647578125,4.844101826658845,-0.6827531313359737,-1.3547441917695104
1791114725407649300,8.657649169921875,1.9905799429774282,1.7644401142954826,0.12725509155988693
1791114725417720300,8.66772021484375,0.5486766693234444,0.07913841864466667,0.882827521521598
1791114725427791400,8.677791259765625,-2.8354110574513673,-0.792774764022231,0.2228826900495216
1791114725437862400,8.6878623046875,-3.9745799230426546,-1.1323416499197483,-1.0826166650250553
1791114725447933400,8.697933349609375,-3.8017946679294106,1.1010422562927007,-0.6075179306749254
1791114725458004200,8.708004150390625,-1.5131225897371767,2.2337924870133397,-0.43363019421249627
1791114725468075300,8.7180751953125,3.260750100919604,-0.1225415070414543,-0.3715641986608505
1791114725478146300,8.728146240234375,2.602324770632386,0.39447511864900586,-0.2037790899224579
1791114725488217300,8.73821728515625,-3.002389087590575,3.1825738053053616,0.3573356206916272
1791114725498288400,8.748288330078125,0.7703589340746402,1.8167139068901539,-0.37704083997365084
1791114725508359400,8.758359375,2.0617206408664583,-0.827307148221135,-1.4388557226516305
1791114725518430200,8.76843017578125,-2.2342872847929596,-2.0513789873331785,-1.4241732634350657
1791114725528501200,8.778501220703125,-3.727871061323583,-2.2090280481129883,-1.0912599171426147
1791114725538572300,8.788572265625,-2.305527935925126,-0.2977899373978376,-1.7649292129866778
1791114725548643300,8.798643310546876,1.7866858483731745,0.8795300874114036,-2.0092938496671615
1791114725558713300,8.80871337890625,9.336099357408285,0.6359890420734882,-1.424883457531035
1791114725568784100,8.8187841796875,1.750384700936079,-0.591837181136012,-0.48667661514747884
1791114725578855200,8.828855224609375,-12.916093687164782,-0.4333382255285978,3.0597035047009586
1791114725588926200,8.83892626953125,-8.758544384124875,-0.8239145831733942,2.533823189075291
1791114725598997200,8.848997314453126,0.518126632758975,-1.6044266624718904,-2.0539318866863847
1791114725609068300,8.859068359375,9.868384863901138,-1.6441922711491583,-3.451075396637618
1791114725619139300,8.869139404296876,10.129439354097842,0.42876141913235183,-1.898188075006008
1791114725629210000,8.879210205078126,1.46685505181998,1.799949234572053,1.3328117614246904
1791114725639281700,8.88928173828125,-7.490719912526011,-0.23901743043363094,3.254407453894615
1791114725649352700,8.899352783203126,-6.625457419919967,-3.2926357700020072,0.9442971586152911
1791114725659423500,8.909423583984376,-0.3138984838947654,-2.3484324271500108,-2.3584416338585314
1791114725669494500,8.91949462890625,4.760928453409671,0.1326537357330322,-3.280142491392791
1791114725679565600,8.929565673828124,5.214257327565551,0.7013853510916233,-0.6982984909921884
1791114725689636600,8.93963671875,0.6983411610901356,2.3990321490526196,1.8873127529874443
1791114725699707600,8.949707763671874,0.03663198682665825,0.9510767357528209,1.3581595531709492
1791114725709778700,8.95977880859375,-2.580806766307354,-1.6994512170344591,-0.5731818362331017
1791114725719849500,8.969849365234374,-5.865058154323696,-2.0852835950225592,-1.6331678960487246
1791114725729919700,8.979919677734374,-3.542137185049057,-2.369331422793865,-1.2135839089758693
1791114725739990800,8.98999072265625,1.4659166019260883,-1.66531981485188,-1.2228648014098404
1791114725750061800,9.000061767578124,4.551269803929329,1.3381944773763417,-0.7204019670549779
1791114725760132900,9.0101328125,8.359287876418232,4.4153743097960945,0.686551281509921
1791114725770203600,9.02020361328125,7.90421186633408,3.666221245357394,1.191166836919263
1791114725780274700,9.030274658203124,-4.044008264055848,0.13065525539219378,1.2801613906025886
1791114725790345700,9.040345703125,-12.453535796892643,-3.5099160004019736,0.4689233336508274
1791114725800416800,9.050416748046874,-10.230720630967616,-3.930580622318387,-0.9207171802591532
1791114725810487800,9.06048779296875,0.25779753422737123,-2.575146256327629,-2.2337514243505896
1791114725820558800,9.070558837890625,11.247607517236471,-0.5128162513911724,-0.8896692771751433
1791114725830629600,9.080629638671875,9.095154173782467,2.76151404659152,1.7355315613277256
1791114725840700700,9.09070068359375,-1.5756886437654494,2.953585601454973,2.438108460291475
1791114725850771700,9.100771728515625,-6.838903771245479,0.9660931030988693,1.567973831604421
1791114725860842800,9.1108427734375,-5.698328545987605,-1.4382055881798266,0.31833127871043976
1791114725870913800,9.120913818359375,-0.6236801801204681,-2.809976171943545,-0.25426428206730634
1791114725880984800,9.13098486328125,1.406611595520377,-0.6334142231494188,0.5399103022828697
1791114725891055600,9.1410556640625,-1.4440855861291289,0.5354454318284988,2.2403158974327146
1791114725901126700,9.151126708984375,-3.8493642283558844,0.5159715005517006,2.6184862163603304
1791114725911196700,9.16119677734375,1.25320908626914,-0.7414005506157875,1.4164274716138838
1791114725921267700,9.171267822265625,8.783073260703683,-1.0002981550395489,-0.7192402297992259
1791114725931338800,9.1813388671875,4.4042011738747355,1.8158827167630194,-0.8744418243616819
1791114725941409500,9.191409423828125,-1.5414999584376812,3.308292773339152,-0.07765387917533516
1791114725951480600,9.20148046875,-3.1062574583441016,1.1104092195749282,0.3400347956702113
1791114725961551600,9.211551513671875,-3.7656647854059933,-2.087099704533815,-0.997509035777673
1791114725971622700,9.22162255859375,-6.073344346407056,-4.001358039852977,-2.6036817381992936
1791114725981693700,9.231693603515625,-5.181606519329548,-1.6036305436581373,-1.0814774318620561
1791114725991764700,9.2417646484375,-0.9910130248218775,1.6436889978021383,0.18138223866997286
1791114726001835800,9.251835693359375,1.7302374004423617,2.12138834310472,1.4139895769424735
1791114726011906600,9.261906494140625,1.855595133948326,1.0545201590925455,0.8500263450294733
1791114726021977600,9.2719775390625,0.9029764294505119,1.0693699377000332,0.3286514510642737
1791114726032048600,9.282048583984375,0.43711774406731124,0.9089929132610559,0.05455766574814915
1791114726042119700,9.29211962890625,-1.247722179290652,0.32454934950768943,1.485011616887897
1791114726052190700,9.302190673828125,-1.1367048135653137,-0.6301221958667039,1.712633354690671
1791114726062261800,9.31226171875,1.351362878768146,-0.873240631878376,0.3262668940152973
1791114726072332500,9.32233251953125,0.5182289240896701,0.8777648313045501,-0.6792806329198181
1791114726082402800,9.33240283203125,-1.9238105920404194,2.4946646063804625,-0.2186052684586495
1791114726092473900,9.342473876953125,-0.32944296676814555,1.080504495176673,-0.34301943750418723
1791114726102545000,9.352544921875,1.186315232169628,-0.915003551852703,-1.507014335989952
1791114726112615700,9.36261572265625,-1.165419743657112,-1.755608573064208,-1.901791360194981
1791114726122686700,9.372686767578125,0.17620996886491774,-0.4189303454697132,-0.9022726650953292
1791114726132757800,9.3827578125,1.5400181954473255,1.0236462974011897,-0.15687204852532594
1791114726142828800,9.392828857421875,1.6143500905930994,1.3070043893426655,0.24772209388222544
1791114726152899800,9.40289990234375,2.4960481696933505,-0.703842096593976,-0.5000318808808922
1791114726162971000,9.412970947265626,0.01756751313358545,-0.01499824716746807,-0.16769596915021537
1791114726173042000,9.4230419921875,-4.17971963379383,1.414936940795183,0.5431120209336281
1791114726183112700,9.43311279296875,-7.449670109257101,0.546905567997694,0.23898133620694278
1791114726193183700,9.443183837890626,-5.969504617226123,0.5958014085918665,-0.04715031210109591
1791114726203254800,9.4532548828125,0.5996966624647379,-1.5391086793869733,-1.3398323077112435
1791114726213325800,9.463325927734376,7.147866260042786,-3.474343751761317,-1.2074252402156591
1791114726223396900,9.47339697265625,5.422480975806713,-0.7453805601626634,0.17733341993689536
1791114726233468000,9.483468017578126,7.096468665760755,0.3197632842749357,0.9647849431097507
1791114726243537700,9.49353759765625,5.032360545235872,1.3288766139328478,1.2991538219727574
1791114726253608700,9.503608642578126,0.046615912963449954,2.4296073200583455,1.3992821294151245
1791114726263679700,9.5136796875,-0.15771102010011673,0.3874374750971794,0.43079679741747673
1791114726273750800,9.523750732421876,-0.48333179823160166,-0.27317572062313555,-0.5405341332696378
1791114726283821800,9.53382177734375,-2.5099375788360834,-0.036233342897892,-0.4358824301186949
1791114726293892600,9.543892578125,-2.794382004709542,-1.0091647675842046,0.9310030850172042
1791114726303963600,9.553963623046876,-4.592196857601404,-1.0735317335546015,1.7044544321492314
1791114726314034700,9.56403466796875,-3.892291515934467,-0.5534399382025003,2.3621841813877222
1791114726324105700,9.574105712890624,2.3413743253320454,0.04061667254865169,1.1901342059358955
1791114726334176800,9.5841767578125,8.88035465428233,0.16781915713846682,0.8045675662118941
1791114726344247800,9.594247802734374,5.28721793435812,2.7244378231287003,1.3792654695637523
1791114726354318600,9.604318603515624,-1.5768120948374271,3.3504753800302742,2.6563737562060354
1791114726364389600,9.6143896484375,-4.198598521786928,0.7741413752228021,2.44910697029829
1791114726374460700,9.624460693359374,0.02625730780661106,-1.3371709795475006,-0.08815211150981485
1791114726384531700,9.63453173828125,1.0045908837974071,-1.857905748978257,-1.714127831032127
1791114726394602800,9.644602783203124,-1.5430869353681802,-0.4579804993540048,-1.9702397502601146
1791114726404673800,9.654673828125,-3.6102865921676157,1.5852672039717435,0.2340735442906618
1791114726414744600,9.66474462890625,-3.317151202577352,1.8530337590277195,0.8059732682913542
1791114726424814600,9.674814697265624,2.060347014425695,-0.9423913249939679,0.296396510278061
1791114726434885600,9.6848857421875,-1.833746582494676,-2.380473579055071,-0.12232508781179785
1791114726444956700,9.694956787109374,-11.007019476485251,-1.4970821400403975,1.2168683374740183
1791114726455027700,9.70502783203125,-9.122039842620492,-2.0142554175972935,1.2217925690684466
1791114726465098500,9.715098388671874,5.499888625136017,-2.528237205636501,-1.8001865504592656
1791114726475169500,9.72516943359375,15.484756426692009,-2.0767770479619503,-2.2833669575214386
1791114726485240600,9.735240478515625,10.255361735749243,2.675679345178604,-0.8152709657296537
1791114726495311600,9.7453115234375,-6.9942498157799236,7.8647186448574065,3.4641339079141615
1791114726505382700,9.755382568359375,-9.266145531216264,3.4731367140591143,4.816003274899721
1791114726515453700,9.76545361328125,-2.177795874503255,-2.5965087778300044,-0.08065138049088418
1791114726525524700,9.775524658203125,0.4695984564334154,-3.3708746094584465,-2.204598541232943
1791114726535595800,9.785595703125,0.6947311538994312,0.013501871129870413,-0.8390894290167837
1791114726545666800,9.795666748046875,-0.10006605586111544,2.3930220949828622,0.44046318203769624
1791114726555737900,9.80573779296875,-0.2779851667314768,1.7372668606877326,-0.13395407774187623
1791114726565809000,9.815808837890625,4.895983112804592,-2.8750661914914843,-0.7855278616338968
1791114726575880000,9.8258798828125,-1.5007751493394375,-2.314977901315689,-0.6663460402838886
1791114726585950700,9.83595068359375,-10.749961946970224,0.5038023393303156,1.8467365585796534
1791114726596020700,9.846020751953125,-7.339094349819422,2.0324358019322157,1.506513546860963
1791114726606091800,9.856091796875,5.2339942936927075,-0.1677899310439825,-0.8213554002098739
1791114726616162800,9.866162841796875,11.733153484386206,-1.189485678899288,-2.7364585157901047
1791114726626233900,9.87623388671875,6.405190867185592,1.712911002588272,-0.5910659045025706
1791114726636304600,9.8863046875,-8.78104730783403,5.817081182140112,3.647226622030139
1791114726646375400,9.89637548828125,-10.969641639727353,0.2871668365746736,2.703551979227364
1791114726656446500,9.906446533203125,0.6661024407863616,-5.359570053863525,-2.1224112564116715
1791114726666517500,9.916517578125,12.878008578920364,-2.931362079209089,-4.104975066193938
1791114726676588500,9.926588623046875,7.941551709169149,1.6857739893376826,-1.2241328485842793
1791114726686659300,9.936659423828125,-0.9474088608950376,4.222115006452799,1.3866735538631676
1791114726696730400,9.94673046875,-1.825853783418238,-1.364408530563116,0.6677689857590943
1791114726706801400,9.956801513671875,1.9396683786466717,-6.205331727185845,-0.825566953490302
1791114726716872400,9.96687255859375,-0.20460048930794,-4.8750399857580655,-1.498606865389645
1791114726726943500,9.976943603515625,1.4971747867599128,0.795344906771183,-1.7730206033751368
1791114726737014500,9.9870146484375,0.45893473133891816,4.506095029684901,0.6704832862190901
1791114726747085600,9.99708544921875,-0.26061434521377086,3.4849791275441646,1.0870903763730078
1791114726757156400,10.00715625,4.2770115487664935,-1.0239566785246133,-0.5807140218362212
1791114726767226400,10.017226318359375,2.011290722572803,-0.070862757730484,0.2987163315277546
1791114726777297400,10.02729736328125,-2.870235118073225,0.8807780416458845,0.8455326868720352
1791114726787368400,10.037368408203125,-6.423734239614009,-2.0339578969329595,0.24700112266391513
1791114726797439200,10.047439208984375,-3.634530806586146,-5.100286080470681,0.16999233645908535
1791114726807510300,10.05751025390625,4.817063597607612,-3.611259821113944,-0.6593528203956782
1791114726817581300,10.067581298828125,7.618088985854387,1.0858499478578567,-2.054137492261082
1791114726827652400,10.07765234375,3.772501061166823,4.292296211659908,-0.3864703105654567
1791114726837723400,10.087723388671876,1.4804577529758214,2.8020044624119995,0.8033210002169012
1791114726847794400,10.09779443359375,-1.1474907037347555,-0.7088847669363021,0.7053281704332679
1791114726857865500,10.107865478515626,-4.071577238982916,-2.54886673668921,-0.6864180105190724
1791114726867936300,10.117936279296876,-5.816154130423069,-0.3370072645425796,-1.3228069386303425
1791114726878007300,10.12800732421875,-5.292521885985136,3.1296354113221168,-0.28118958879597483
1791114726888078300,10.138078369140626,-0.5815113096937536,1.4325971006482838,-0.26021135390345007
1791114726898149400,10.1481494140625,5.383812514716387,-1.4740607454150914,-0.036464229044318196
1791114726908220400,10.158220458984376,3.2091093455314637,-0.4133791410833597,0.8541033852100371
1791114726918291500,10.16829150390625,-7.773236292946338,3.5736171959400176,2.2204330930940808
1791114726928362500,10.178362548828124,-10.357617995131015,1.9032488655269144,2.1274594797119497
1791114726938433500,10.18843359375,-2.285208201473951,-2.144555283680558,0.6241416601523757
1791114726948503600,10.198503662109376,2.0253701013296843,0.009451134434342383,0.12565591273494064
1791114726958574600,10.20857470703125,6.866934518465399,-0.5268254875212908,-0.5246615144204348
1791114726968645600,10.218645751953124,7.386060683655739,0.46642742518186564,-0.417262229594402
1791114726978716400,10.22871630859375,-5.332169421240687,5.047352947184443,1.914161889207363
1791114726988787500,10.238787353515624,-15.310386532735823,2.2508581881046292,2.3111269249759614
1791114726998858500,10.2488583984375,-5.153617273163795,-5.566412476879358,-0.39984124879203736
1791114727008929500,10.258929443359374,4.981573191806674,-2.948917609643936,-1.8023012045256792
1791114727019000600,10.26900048828125,9.625159460383653,0.39191666633784766,0.06413045380078256
1791114727029071600,10.279071533203124,7.262331428134441,2.8191940821439028,1.0289754565346985
1791114727039142400,10.289142333984374,2.4622809246480464,2.480450787588954,1.3053176052995026
1791114727049213400,10.29921337890625,-3.399581648504734,0.5068611423790454,1.7939084931030869
1791114727059284500,10.309284423828124,-8.026921131157875,-2.1424901678442954,0.3336606940610334
1791114727069355500,10.31935546875,-5.215767147606611,-3.6004297995418306,-0.7345066994488239
1791114727079426600,10.329426513671875,1.8666367524445056,-1.4123375719517468,-0.9777150057010352
1791114727089497600,10.33949755859375,6.473670529171824,1.291750121587515,-1.0088379467826336
1791114727099568400,10.349568359375,6.7840276871979235,1.9972399853885172,-0.12247834214475005
1791114727109638400,10.359638427734374,0.44558395911753174,2.858496164962649,1.181845831670612
1791114727119709400,10.36970947265625,-3.634185938671231,0.7784434563308954,1.9859799018360673
1791114727129780500,10.379780517578125,-4.396591867914796,-1.7431331223726272,1.4298539394199847
1791114727139851500,10.3898515625,-2.239489821872115,-2.069101106506586,0.4318718062378466
1791114727149922300,10.39992236328125,1.1613853735744952,-0.6395780064761638,0.6542222525741904
1791114727159993300,10.409993408203125,1.5534201133340597,1.6997370482385157,1.3229761577174066
1791114727170064400,10.420064453125,1.3833154756069181,1.9135580780953168,0.996274160220474
1791114727180135400,10.430135498046875,1.5749942317605017,0.88858199339509,1.1079663564674556
1791114727190206500,10.44020654296875,8.316854509836435,-0.03147767280340195,0.2946543427858502
1791114727200277500,10.450277587890625,10.884943248867987,-0.5226467405319214,-0.9172150904223322
1791114727210348300,10.460348388671875,-18.396837466847895,0.788791247344017,2.0967406624518334
1791114727220419300,10.47041943359375,-21.03969473887682,-0.641733723205328,3.9497158231601115
1791114727230490400,10.480490478515625,-2.2375433639794586,-2.743506096214056,-0.8525653619877993
1791114727240561400,10.4905615234375,17.783536057400703,-5.161387907165289,-3.457485848201811
1791114727250632400,10.500632568359375,19.098843580186365,-0.484690811625123,-4.352378632178902
1791114727260703500,10.510703369140625,-5.689252090084552,8.21589179739654,0.6157844584345817
1791114727270774300,10.520774169921875,-20.019542713332175,3.6697564337462185,6.551693680050969
1791114727280844500,10.530844482421875,-11.691678149181604,-5.394743658575416,4.1749107722073795
1791114727290915600,10.54091552734375,5.210378440305591,-7.096200954735279,-2.078370454633236
1791114727300986600,10.550986572265625,13.19616851965189,-1.9344740248739718,-2.262809907183051
1791114727311057700,10.5610576171875,6.531635811406374,4.785635609164833,1.010821887141466
1791114727321128400,10.57112841796875,-4.338988112469017,4.301882955172657,3.035596068404615
1791114727331199500,10.581199462890625,-7.864761314955353,-2.358981293693185,2.2601069318346676
1791114727341270500,10.5912705078125,-1.9101944468811154,-6.169055714190006,-0.3513261511437595
1791114727351341600,10.601341552734375,5.223491604378819,-1.5526637420088052,-1.839869449289143
1791114727361412600,10.61141259765625,3.60321037017107,2.806594128289819,1.221443974826485
1791114727371483600,10.621483642578125,2.0166227312505245,1.8019710957884787,2.1897776964589952
1791114727381554400,10.631554443359375,1.3326359664663672,-0.8280033137917518,-0.5960001460343599
1791114727391625500,10.64162548828125,3.5122181398645043,0.42421325430870055,-0.5914755812820047
1791114727401696500,10.651696533203125,10.529219593417643,2.5943624134510754,-0.9136680654652416
1791114727411767600,10.661767578125,6.7213967512398956,3.395180198675394,-0.5607929313138127
1791114727421838600,10.671838623046876,-3.7859985483825205,2.478531802225113,1.1456182609263807
1791114727431909600,10.68190966796875,-8.758148078283668,0.6238339093774556,1.7366177491292356
1791114727441980400,10.69198046875,-5.88388911152184,-1.5544266600280998,-0.7838509413976222
1791114727452050400,10.702050537109375,-3.8861306552171704,1.4858534745395182,-1.8524473374418913
1791114727462121500,10.71212158203125,0.23677754255235195,5.515197837948799,-0.6731601772781461
1791114727472192500,10.722192626953126,24.788666163635252,-0.9244026638388633,-3.3962662403464314
1791114727482263600,10.732263671875,11.934213816869258,-9.749341720369458,-3.073513126605749
1791114727492334300,10.742334228515626,-58.761447810053824,0.2268587906062603,8.231412607133388
1791114727502405400,10.7524052734375,-64.31729096212386,1.1836451361775397,6.783441411742568
1791114727512476400,10.762476318359376,17.128344302207232,-13.38880238457322,-13.079791380459069
1791114727522547500,10.77254736328125,47.843135375547405,-9.874690686047076,-9.065024408456683
1791114727532618500,10.782618408203126,39.70319109179973,7.465300809109211,0.6733070384029298
1791114727542689500,10.792689453125,26.101574808585642,13.463250599575042,8.300815813705325
1791114727552760300,10.80276025390625,-37.51218326902389,16.40202090921402,12.826081992328167
1791114727562831400,10.812831298828126,-36.93657183102369,-5.117874344131351,5.43287494404912
1791114727572902400,10.82290234375,-10.101441924625634,-14.71142695237398,-10.265079996687174
1791114727582973400,10.832973388671874,23.423307200479506,-13.292995739722251,-14.067952522981166
1791114727593044500,10.84304443359375,17.203718399882316,0.36300387558639047,-9.3019965967983
1791114727603115500,10.853115478515624,-0.6018666999801993,9.456991343677043,1.2184951349582522
1791114727613186300,10.863186279296874,0.44898616877645253,4.448554110342264,6.275104351592064
1791114727623256300,10.87325634765625,3.2928272009208794,-0.1192827975064516,3.0269033511221406
1791114727633327400,10.883327392578124,-5.09329461414814,2.3261130433142183,-1.2892214798927306
1791114727643398100,10.893398193359374,-8.623682909214496,0.6706295628219843,-2.1946020478755233
1791114727653469200,10.90346923828125,-17.231055319619177,1.6171867753237485,-1.170759351119399
1791114727663540200,10.913540283203124,-15.586816286718845,1.7562655756682157,-0.7889742026954889
1791114727673611300,10.923611328125,2.259526063206792,-1.097112515628338,-3.687249420338869
1791114727683682300,10.933682373046874,14.69031635980606,-1.1762111867845058,-5.220672455304861
1791114727693753000,10.943753173828124,12.060977910041808,2.529354811489582,-2.477013214355707
1791114727703824100,10.95382421875,1.9516472779929637,3.515700429022312,2.6567747382223605
1791114727713895200,10.963895263671875,-5.624799199396372,2.440354339522123,2.9488612032815813
1791114727723966200,10.97396630859375,-6.564344487309455,0.8733236339867114,0.9916074105184525
1791114727734037200,10.984037353515625,-2.553943017040193,6.412328463980555,-0.14755378322303295
1791114727744108300,10.9941083984375,17.74575490053892,-1.4571680628031491,-3.51080827306658
1791114727754179000,11.004178955078125,38.03017253913879,-17.856531150984765,-5.361664980316162
1791114727764250000,11.01425,9.682967506229877,-10.647344453060626,-2.607069334810972
1791114727774321200,11.024321044921875,-43.69748635365963,12.54132397046089,5.899415766477585
1791114727784391200,11.03439111328125,-37.41093472537994,8.285199726900458,3.0738454273000357
1791114727794462200,11.044462158203125,2.09884041121006,-1.0891127490460872,-6.93550945751965
1791114727804533000,11.054532958984375,33.15707901127338,-10.697127013361454,-8.438221712401509
1791114727814604000,11.06460400390625,14.294232636916636,3.2007372385054826,1.364499715977907
1791114727824675000,11.074675048828125,-5.4732823577612635,8.759231197345256,6.452800175100564
1791114727834746000,11.08474609375,-6.454630313137173,-0.7433329799830913,5.340520485478639
1791114727844817200,11.094817138671875,-5.516328887805343,-6.035925593116879,0.5314295472506433
1791114727854888200,11.10488818359375,0.014241583581268787,-7.46425802205801,-4.466028976756334
1791114727864959000,11.114958984375,7.846932228276133,-2.7920675902873278,-5.5493134580403565
1791114727875030000,11.125030029296875,5.399161475017666,4.711043601778149,-3.220783124451339
1791114727885101000,11.13510107421875,-5.510785866725445,3.806691792321205,0.04524451501239091
1791114727895172000,11.145172119140625,-10.283617523896693,1.086358481901884,3.119433166259527
1791114727905243100,11.1552431640625,-2.2644822243094445,-1.7809709778577087,1.1723673708379267
1791114727915314200,11.165314208984375,13.066991520118712,-5.626098007035255,-3.0696313167363405
1791114727925385200,11.17538525390625,12.918436450898646,-1.8485908081442117,-3.160299429655075
1791114727935456000,11.1854560546875,-3.226699362757802,4.576480817553401,0.4650120054259896
1791114727945527000,11.195527099609375,-13.294192840552329,2.713074717593193,3.807100373122096
1791114727955597000,11.20559716796875,-9.769485513731837,0.6127765087902546,1.362198453298211
1791114727965668000,11.215668212890625,2.1324001509845254,-1.1484387982398272,-3.522746548141539
1791114727975739000,11.22573876953125,9.03793181886971,0.21285189256370066,-2.668896553170681
1791114727985810000,11.235809814453125,2.424465280994773,2.711211846330762,0.7363121414355933
1791114727995881000,11.245880859375,-10.33765306546688,4.372555743288993,1.5840119432136415
1791114728005952000,11.255951904296875,-11.947194878995418,0.3726607617259025,-0.18391868007872253
1791114728016023000,11.26602294921875,-3.049189709471166,-2.4532448007553813,-2.29871723299697
1791114728026094000,11.276093994140625,5.852675642612576,-1.089767998084426,-2.536012808074057
1791114728036165000,11.2861650390625,11.476254944825172,1.8939742567032574,-0.9398162138089537
1791114728046236200,11.296236083984375,6.297523688670992,4.155229335659742,0.851115893831849
1791114728056307200,11.30630712890625,-3.5666508640587327,4.407757989573478,1.6441104380846023
1791114728066378200,11.316378173828125,-10.831531976675986,3.105844785889983,0.9207027133423834
1791114728076449300,11.32644921875,-3.16607099879384,-3.043025633883476,0.18534513268526642
1791114728086520300,11.336520263671876,7.37486825851202,-5.9517310601264235,-0.46793479753751305
1791114728096591400,11.34659130859375,5.3742696103453635,-2.524579852172732,-0.9594145021177828
1791114728106662100,11.356662109375,-4.5019002083435655,3.7336382465481757,-0.1083186646932736
1791114728116733200,11.366733154296876,-4.517480931574106,2.509718383127451,1.253776072502136
1791114728126803200,11.37680322265625,-3.135587597724795,-0.07549217109680176,2.095148132563382
1791114728136874200,11.386874267578126,3.865452608847618,-2.6075235083192587,0.3159924970319494
1791114728146945300,11.3969453125,5.808775710609555,-0.522197827720642,0.35029249724708494
1791114728157016000,11.40701611328125,-2.7425030566513535,-0.9988070396989583,0.8192834162414073
1791114728167087000,11.417087158203126,-25.038385605347155,-1.1127473071336746,2.696964709791541
1791114728177158100,11.427158203125,-25.84657830325365,-1.6839684012204408,2.5142320611596105
1791114728187229200,11.437229248046876,1.25665951898396,-6.499011306655406,-0.7721179065711796
1791114728197300200,11.44730029296875,28.105963496685025,-5.348777441692352,-2.08544053914994
1791114728207371300,11.457371337890624,31.211886023986338,3.0010306587189435,-0.9607851328838616
1791114728217442000,11.467442138671874,19.060353982794283,9.01993497440815,0.7631505370657891
1791114728227513000,11.47751318359375,-15.391419971346854,9.630353521895408,5.134236865389346
1791114728237584100,11.487584228515624,-22.58695925219059,-1.941342741599679,5.5168526194185015
1791114728247655200,11.4976552734375,-11.323649138909577,-8.917611495009064,-1.2238228327870369
1791114728257726200,11.507726318359374,-2.217098834104836,-3.99217637000978,-4.941749130940437
1791114728267797200,11.51779736328125,11.839364618873596,0.5626385591804981,-3.3271284067124127
1791114728277868000,11.527867919921874,8.390860241767763,7.444822669225931,0.5018165723405779
1791114728287938000,11.53793798828125,2.3491472974210974,7.158637244904041,3.303117416527867
1791114728298009000,11.548009033203124,-1.2687854255855082,1.6767214988321064,2.8502076445668934
1791114728308080000,11.558080078125,-8.112451296666263,0.4314724316567182,1.977825675344467
1791114728318151200,11.568151123046874,-0.9144166918754577,1.6080208875715731,0.8388030132908374
1791114728328222000,11.578221923828124,14.414120414578914,-0.527362078616023,-1.96120786415115
1791114728338293000,11.58829296875,19.856311468505858,2.840838343197107,0.6022034211212769
1791114728348364000,11.598364013671874,17.23440813717842,10.09786815779209,2.044597802760452
1791114728358435000,11.60843505859375,-11.106921281695366,8.101898338469862,1.9305095051571726
1791114728368506000,11.618506103515625,-56.563327524924276,-4.115922576665878,3.36544089397192
1791114728378577200,11.6285771484375,-44.72680602052211,-9.045115008372068,0.5288618887197226
1791114728388648000,11.63864794921875,17.5190071690917,-16.466743849015234,-9.74428502150178
1791114728398719000,11.648718994140625,49.84630592002868,-10.74874029622078,-5.327202154222131
1791114728408790000,11.6587900390625,18.540605301791427,12.079974871456622,5.182281642112136
1791114728418861000,11.668861083984375,-9.490410798197985,18.990919796562192,9.43208135882616
1791114728428932000,11.67893212890625,-7.64389445824027,3.217829243081808,5.974840133035182
1791114728439003100,11.689003173828125,1.5364906058430672,-15.265240400063991,-1.0723194351553915
1791114728449073200,11.6990732421875,-12.139170572268963,-9.560903553572297,-2.5117300152108073
1791114728459144200,11.709144287109375,-17.370185557889936,-0.20092180079519747,1.8729848062969743
1791114728469215200,11.71921533203125,-3.815805657625198,-1.0697235734432935,2.611968797290325
1791114728479286300,11.729286376953125,8.842996691268683,-4.258399202755093,-1.7287956772014497
1791114728489357300,11.739357421875,8.664694718560575,-0.9685025023281574,-0.6744177761238068
1791114728499428000,11.749427978515625,3.7337621651887893,4.064648316502571,2.285351701597869
1791114728509499100,11.7594990234375,-1.3892898738414048,3.8811230561882257,0.9442685901079326
1791114728519570200,11.769570068359375,2.788888960251212,-1.8718214616060256,-0.3236058581124991
1791114728529641200,11.77964111328125,7.059017179244757,-3.249291718316078,0.4489044087771326
1791114728539712300,11.789712158203125,3.6590918318688868,1.9232383451104162,0.23257972553633152
1791114728549783300,11.799783203125,-1.6564689843982456,3.8844349572151895,1.0506253436110913
1791114728559854000,11.80985400390625,-7.878852968671917,1.616628556919098,1.1976208353642375
1791114728569925000,11.819925048828125,-9.744477913725376,-1.9156547581136225,0.16363354201689362
1791114728579996200,11.82999609375,-1.6982681447297334,-1.9793647214800119,-1.6678977025158703
1791114728590067200,11.840067138671875,7.262662267524004,4.240559594681859,-0.7423556593835353
1791114728600138200,11.85013818359375,0.07632862192094325,12.95996322402954,2.0642032514624296
1791114728610208000,11.8602080078125,-10.42103745111823,19.900964264702797,4.6309836843743915
1791114728620279000,11.870279052734375,-1.236980420523882,6.099592886385321,0.5850402144722641
1791114728630350000,11.88035009765625,41.892478082132335,-32.53182997440099,-8.87653188112378
1791114728640421000,11.890421142578125,35.946305240654944,-20.775100384116172,-6.334102484005689
1791114728650492700,11.90049267578125,-16.06491544499397,21.394069317805766,6.589155687960982
1791114728660563700,11.910563720703125,-47.74535655384064,17.645441591918466,8.850237748438119
1791114728670634800,11.920634765625,-26.359540685117242,-3.9306075103253124,-3.4899159994244573
1791114728680705800,11.930705810546876,1.4299164832621811,-11.552987471371889,-12.135124511748552
1791114728690776600,11.940776611328126,18.789575386440752,-4.150218814021349,0.44016222632974383
1791114728700847600,11.95084765625,22.151083617138863,1.9928812056571243,3.726192022195458
1791114728710918700,11.960918701171876,3.8373867903143166,7.442596809870004,3.3959412461757656
1791114728720989700,11.97098974609375,-17.38655333984494,3.9095571235120294,2.7210446735590694
1791114728731060700,11.981060791015626,-13.810261371737719,-8.353050443333387,3.3816137378767133
1791114728741131800,11.9911318359375,5.044885095766187,-13.238677289557456,-0.01374927001968026
1791114728751202800,12.001202880859376,11.803304294455051,-4.732314937865734,-1.720720361164957
1791114728761273600,12.011273681640626,0.6518485822454094,3.20398659569025,-1.5450136656470597
1791114728771344600,12.0213447265625,-20.100276876735688,2.6115070249974726,3.311527517476678
1791114728781414700,12.03141455078125,-13.55079561203718,-6.090212479099631,3.193203628130257
1791114728791485700,12.041485595703126,5.0525247968643905,-7.648579401186108,-3.464899047067761
1791114728801556500,12.051556396484376,12.48365971699953,0.8094657865822315,-5.023513221913576
1791114728811627500,12.06162744140625,8.010528214761614,4.816957214623689,-3.02032105012238
1791114728821698600,12.071698486328126,5.5929766586780545,2.4065526076853274,-0.7099463317532092
1791114728831769600,12.08176953125,-3.1752780953392383,0.7802677491486072,1.151108455840498
1791114728841840600,12.091840576171874,-7.912178899690509,-0.1689051988095045,0.29036935894303023
1791114728851911700,12.10191162109375,-5.5052808395683765,-1.4125357248723507,-2.1792881588876245
1791114728861982700,12.111982666015624,-3.4602994443178177,1.5378554644554852,-2.563642865538597
1791114728872053500,12.122053466796874,1.296259123444557,2.2868910399943587,-1.1309367515578865
1791114728882124500,12.13212451171875,6.095004389551281,1.3376970492482185,0.3651837769087404
1791114728892195600,12.142195556640624,6.0202387791633605,1.8169944773972033,3.049480509111285
1791114728902266600,12.1522666015625,-4.068639139704406,6.157662213516235,4.04208460251689
1791114728912337700,12.162337646484374,-11.085088220071793,8.949601793509721,2.2707005143024026
1791114728922408700,12.17240869140625,-0.16256255178451537,0.4525368469953537,-0.6945024597100913
1791114728932479700,12.182479736328125,19.713276624011993,-10.85681605553627,-1.446653683051467
1791114728942549800,12.1925498046875,16.155796908402444,-7.152030393984913,0.327661051787436
1791114728952620800,12.202620849609374,-0.6390551516458391,1.912897568359971,0.7053365729354322
1791114728962691800,12.21269189453125,-9.909771351778506,3.550773495969176,-0.15800598445869982
1791114728972762600,12.2227626953125,-15.271629224318264,6.312095819380879,0.5854082440670579
1791114728982833700,12.232833740234375,-4.847143386311829,3.2465883045762776,-0.07490699161998927
1791114728992904700,12.24290478515625,15.751462074518203,-5.892021564573049,-1.0821381607931106
1791114729002975700,12.252975830078125,22.34489704723358,-5.547182875752449,-0.7590122682172805
1791114729013046800,12.263046875,3.323655177643895,3.40126740963459,-2.200472401213646
1791114729023117800,12.273117919921875,-13.865579354333876,6.243226281294226,-1.5588034138076006
1791114729033188900,12.28318896484375,-5.300666029474139,-1.9731734656244515,-0.3963497899470851
1791114729043259600,12.293259765625,2.163522726739943,-4.490515767759084,-3.289158449280262
1791114729053330700,12.30333056640625,3.333097251988947,-4.262701868385077,-3.9891798185423015
1791114729063401700,12.313401611328125,-2.5992832109794017,-0.48209904156625266,-0.7044179237205535
1791114729073472800,12.32347265625,-11.16890632096529,3.051776511093974,2.2162464550592005
1791114729083543800,12.333543701171875,-8.943402354347706,1.4758324312627316,1.6166922698050736
1791114729093614800,12.34361474609375,5.247768552023172,-5.423897272345424,-1.5735051622465253
1791114729103684600,12.3536845703125,12.014783145099878,-6.107171797206997,-2.128971199449152
1791114729113755600,12.363755615234375,-0.15786182674765586,0.24501988571882247,0.349646856287308
1791114729123826700,12.37382666015625,-11.817641447365283,1.8525386689871548,4.352944157107174
1791114729133897700,12.383897705078125,-8.37512374345362,-2.995271949061751,2.798219390915334
1791114729143968800,12.39396875,7.71301124908626,-4.632622391492128,-1.9720421235069632
1791114729154039600,12.40403955078125,10.271696784478426,0.34402561887204647,-2.405443769660592
1791114729164110600,12.414110595703125,3.7756738459840413,5.785757823115587,0.9469166934639215
1791114729174181600,12.424181640625,-2.4447549125686288,4.968419695723057,2.9606732216283675
1791114729184252700,12.434252685546875,-4.6804815825149415,1.6080682338446377,1.507380685084313
1791114729194323700,12.44432373046875,-4.849540218320489,-1.471642578357458,-0.6951750982746482
1791114729204394800,12.454394775390625,-2.6006790492519736,-0.33927696304023264,-1.0165913373883813
1791114729214465500,12.464465576171875,0.010419687205553054,3.502231291118264,0.290136390437372
1791114729224536600,12.47453662109375,0.68216334874928,4.906660866424441,1.9501820277459918
1791114729234607600,12.484607666015625,2.0213523901209234,2.547763743883371,1.8168369487479328
1791114729244678700,12.4946787109375,2.7629005325138567,1.1255226175546647,1.2369023868516087
1791114729254749700,12.504749755859375,1.3694266509860753,1.8438094190865755,0.5308160549947991
1791114729264819700,12.51481982421875,-4.401131264910101,2.353564529341459,1.0365848355598748
1791114729274890800,12.524890869140625,-13.029521328902243,1.844371729144454,2.0825316659659148
1791114729284961800,12.5349619140625,-7.475868964874744,-1.3560767555475235,1.0046233247622847
1791114729295032800,12.54503271484375,3.505205923014879,-3.02753814189434,-1.1693395474493502
1791114729305104000,12.555103759765625,8.003514536607264,-0.44689036554098127,-0.23181652261149135
1791114729315175000,12.5651748046875,2.651398598141968,4.34611548013091,1.4299144374355672
1791114729325245700,12.57524560546875,1.6961431153997777,3.0138357797563073,0.9884752499725669
1791114729335316700,12.585316650390626,-3.227931242640316,-1.8829525119513273,0.26092786814235147
1791114729345387800,12.5953876953125,-7.170380289667844,-4.476944923046231,-0.2696447700180113
1791114729355458800,12.605458740234376,-2.982004471209645,-4.250080871742964,-0.6107781745798886
1791114729365529900,12.61552978515625,1.2979250108301639,-1.563503700453043,0.48520694445371626
1791114729375601000,12.625600830078126,4.990251588302851,0.7274240477114915,1.3814371145144104
1791114729385671700,12.635671630859376,7.363761173564195,0.7741092265188694,1.5748451786786317
1791114729395742700,12.64574267578125,8.171135540825128,1.4004893132477998,1.5436583055153488
1791114729405813800,12.655813720703126,2.281888701662421,-0.7882283527642489,1.1494329238437115
1791114729415884800,12.665884765625,-6.955791198047995,-1.9619079752445219,2.734050870126486
1791114729425955800,12.675955810546874,-11.226401063078642,-1.403359315726161,3.048696665257215
1791114729436025600,12.686025634765626,-2.5225325642541048,-3.7270045076221225,0.35504886146131903
1791114729446096600,12.6960966796875,5.2402913480103015,-2.9041677828133103,-2.4896587609171865
1791114729456167700,12.706167724609376,7.231245384997129,-0.2074871506601572,-1.6989920750901102
1791114729466238700,12.71623876953125,2.0267516188159584,1.6413690304219721,-0.5422071810483933
1791114729476309800,12.726309814453124,-4.1291330636337396,1.7923773380130528,1.319781599459797
1791114729486380800,12.736380859375,-2.1191215672165153,-1.0364590172231196,1.1358284691222011
1791114729496451600,12.74645166015625,3.4866035138756035,-1.8052964408189058,-0.28701055003441867
1791114729506522600,12.756522705078124,4.923967390534282,1.3618319580733775,-0.9652003920428455
1791114729516593700,12.76659375,2.177830945816636,4.055040530201793,0.22697306463569403
1791114729526664700,12.776664794921874,-3.3057825440838933,4.582352924457192,1.567447761903703
1791114729536735700,12.78673583984375,-5.567177616032958,-0.6185019006997347,0.1397077458977699
1791114729546806800,12.796806884765624,-5.011973590767384,-5.686455152842402,-0.933619258864969
1791114729556877600,12.806877685546874,0.6062056059673429,-3.8715778137296435,-1.3510882996104656
1791114729566948600,12.816948486328124,3.9600677058264613,-1.3925883308649063,0.6215385649818926
1791114729577019600,12.82701953125,3.1046018000915643,0.7932476422309875,1.5466978193417191
