time,seconds_elapsed,z,y,x
1790936108146275600,0.046275634765625,-0.4651947021484375,-0.9944305419921875,-0.0185546875
1790936108156249600,0.05624951171875,-0.573699951171875,-0.863372802734375,-0.1026611328125
1790936108166223600,0.0662236328125,-0.5794830322265625,-0.8198699951171875,-0.129608154296875
1790936108176196600,0.076196533203125,-0.5417938232421875,-0.874298095703125,-0.0179901123046875
1790936108186170600,0.086170654296875,-0.533111572265625,-0.894439697265625,0.0100860595703125
1790936108196144600,0.09614453125,-0.5334930419921875,-0.887115478515625,0.0118408203125
1790936108206117400,0.106117431640625,-0.507659912109375,-0.914337158203125,0.0411529541015625
1790936108216091400,0.11609130859375,-0.533416748046875,-0.8672332763671875,0.0323944091796875
1790936108226065400,0.1260654296875,-0.561492919921875,-0.787933349609375,-0.0350799560546875
1790936108236038400,0.136038330078125,-0.4782257080078125,-0.823150634765625,-0.0281524658203125
1790936108246012400,0.146012451171875,-0.5033721923828125,-0.805572509765625,0.04364013671875
1790936108255986400,0.155986328125,-0.5171356201171875,-0.782379150390625,0.1042938232421875
1790936108265959400,0.16595947265625,-0.4564361572265625,-0.8505401611328125,0.151092529296875
1790936108275933400,0.175933349609375,-0.496124267578125,-0.8654327392578125,0.139678955078125
1790936108285906400,0.185906494140625,-0.518646240234375,-0.85504150390625,0.1056060791015625
1790936108295880400,0.19588037109375,-0.4670257568359375,-0.8783111572265625,0.096099853515625
1790936108305854500,0.2058544921875,-0.4308624267578125,-0.920074462890625,0.101165771484375
1790936108315827700,0.21582763671875,-0.4604644775390625,-0.8866729736328125,0.0576934814453125
1790936108325801700,0.2258017578125,-0.4537353515625,-0.885955810546875,0.036956787109375
1790936108335775500,0.235775390625,-0.398895263671875,-0.9356231689453125,0.0929718017578125
1790936108345748500,0.24574853515625,-0.4027862548828125,-0.93597412109375,0.097930908203125
1790936108355722500,0.255722412109375,-0.4472503662109375,-0.9027252197265625,0.0668182373046875
1790936108365696500,0.265696533203125,-0.4427490234375,-0.930572509765625,0.063385009765625
1790936108375669500,0.27566943359375,-0.4483489990234375,-0.9889984130859375,0.11767578125
1790936108385643500,0.2856435546875,-0.4558258056640625,-1.0099945068359375,0.0693817138671875
1790936108395616500,0.295616455078125,-0.5133056640625,-0.9359588623046875,0.0187835693359375
1790936108405590500,0.305590576171875,-0.4681854248046875,-0.958770751953125,0.0618438720703125
1790936108415564500,0.315564453125,-0.3884429931640625,-1.0003204345703125,0.0673828125
1790936108425537500,0.32553759765625,-0.4432220458984375,-0.9329986572265625,0.0058135986328125
1790936108435511600,0.335511474609375,-0.4453887939453125,-0.89862060546875,-0.0175323486328125
1790936108445485600,0.345485595703125,-0.3444061279296875,-0.9452972412109375,-0.0486907958984375
1790936108455458300,0.355458251953125,-0.3732757568359375,-0.908660888671875,-0.075836181640625
1790936108465432300,0.365432373046875,-0.42535400390625,-0.8567657470703125,-0.097869873046875
1790936108475406300,0.37540625,-0.31732177734375,-0.9309539794921875,-0.093597412109375
1790936108485379600,0.385379638671875,-0.288238525390625,-0.977569580078125,-0.044158935546875
1790936108495353300,0.395353271484375,-0.3647308349609375,-0.9448089599609375,-0.0396881103515625
1790936108505327400,0.405327392578125,-0.3495941162109375,-0.9494171142578125,-0.0415191650390625
1790936108515300600,0.415300537109375,-0.3438568115234375,-0.9528350830078125,0.0128173828125
1790936108525274600,0.425274658203125,-0.33758544921875,-0.968841552734375,0.034149169921875
1790936108535247600,0.43524755859375,-0.3490142822265625,-0.9221343994140625,-0.0487060546875
1790936108545221600,0.4452216796875,-0.4585723876953125,-0.8065185546875,-0.054107666015625
1790936108555195600,0.455195556640625,-0.4102325439453125,-0.926116943359375,-0.019012451171875
1790936108565168400,0.46516845703125,-0.47125244140625,-0.881134033203125,0.0095977783203125
1790936108575142400,0.475142333984375,-0.4310302734375,-1.008270263671875,0.148223876953125
1790936108585116400,0.485116455078125,-0.535064697265625,-0.8762054443359375,0.03759765625
1790936108595089400,0.49508935546875,-0.497589111328125,-0.8522491455078125,-0.0720672607421875
1790936108605063400,0.5050634765625,-0.4207000732421875,-0.896820068359375,-0.0858306884765625
1790936108615037400,0.515037353515625,-0.4323883056640625,-0.8593597412109375,-0.15289306640625
1790936108625010400,0.525010498046875,-0.40106201171875,-0.806884765625,-0.1974945068359375
1790936108634984400,0.534984375,-0.369415283203125,-0.8298797607421875,-0.109344482421875
1790936108644958500,0.54495849609375,-0.4954681396484375,-0.4696502685546875,0.011627197265625
1790936108654931500,0.554931396484375,-0.367584228515625,-0.980316162109375,0.1983642578125
1790936108664905500,0.564905517578125,-0.2660675048828125,-1.1789093017578125,0.1595611572265625
1790936108674878700,0.574878662109375,-0.7585906982421875,-0.696044921875,0.024505615234375
1790936108684852500,0.5848525390625,-0.92315673828125,-0.7116241455078125,0.0279083251953125
1790936108694826500,0.594826416015625,-0.701995849609375,-0.82672119140625,0.2444305419921875
1790936108704799500,0.604799560546875,-0.594512939453125,-0.9519805908203125,0.2661895751953125
1790936108714773500,0.6147734375,-0.62213134765625,-0.9022369384765625,0.1119384765625
1790936108724747500,0.62474755859375,-0.49200439453125,-0.9556427001953125,0.0200347900390625
1790936108734720500,0.634720458984375,-0.4723052978515625,-0.8927764892578125,-0.1348724365234375
1790936108744694500,0.644694580078125,-0.4644317626953125,-0.879791259765625,-0.22894287109375
1790936108754668500,0.65466845703125,-0.4060516357421875,-0.9757537841796875,-0.1306304931640625
1790936108764641500,0.6646416015625,-0.46917724609375,-0.9831085205078125,-0.12493896484375
1790936108774615600,0.674615478515625,-0.5977630615234375,-0.90374755859375,-0.1043701171875
1790936108784588500,0.684588623046875,-0.53955078125,-0.8641815185546875,-0.0398406982421875
1790936108794562600,0.6945625,-0.5365142822265625,-0.84002685546875,0.048492431640625
1790936108804536600,0.70453662109375,-0.535552978515625,-0.8185577392578125,0.0103912353515625
1790936108814509300,0.71450927734375,-0.453765869140625,-0.834930419921875,-0.0151214599609375
1790936108824483300,0.7244833984375,-0.4564361572265625,-0.79241943359375,-0.08172607421875
1790936108834457300,0.734457275390625,-0.5103912353515625,-0.730133056640625,-0.1582489013671875
1790936108844430300,0.744430419921875,-0.5270843505859375,-0.77484130859375,-0.1239013671875
1790936108854404400,0.754404296875,-0.505859375,-0.857635498046875,-0.0234222412109375
1790936108864378400,0.76437841796875,-0.4834136962890625,-0.8747711181640625,0.0816650390625
1790936108874351600,0.7743515625,-0.55157470703125,-0.8257598876953125,0.0013427734375
1790936108884325600,0.78432568359375,-0.591064453125,-0.8011322021484375,-0.061370849609375
1790936108894298600,0.794298583984375,-0.5822601318359375,-0.79803466796875,0.0203704833984375
1790936108904272600,0.804272705078125,-0.556396484375,-0.795684814453125,-0.0067901611328125
1790936108914246700,0.81424658203125,-0.4929351806640625,-0.854217529296875,0.07061767578125
1790936108924219400,0.824219482421875,-0.477996826171875,-0.8795166015625,0.080352783203125
1790936108934193400,0.834193359375,-0.5236358642578125,-0.8563995361328125,-0.04058837890625
1790936108944167400,0.84416748046875,-0.524627685546875,-0.91607666015625,-0.0133056640625
1790936108954140400,0.854140380859375,-0.5189208984375,-0.982666015625,0.0403594970703125
1790936108964114400,0.864114501953125,-0.528778076171875,-0.959716796875,0.0495758056640625
1790936108974088400,0.87408837890625,-0.5019989013671875,-0.9185028076171875,0.0321197509765625
1790936108984061400,0.8840615234375,-0.4483795166015625,-0.8870391845703125,-0.0003814697265625
1790936108994035500,0.894035400390625,-0.4002532958984375,-0.8781890869140625,0.055633544921875
1790936109004008400,0.904008544921875,-0.4580078125,-0.830810546875,0.0887908935546875
1790936109013982500,0.913982421875,-0.4891815185546875,-0.8346405029296875,-0.0035400390625
1790936109023956500,0.92395654296875,-0.4870758056640625,-0.875213623046875,0.036865234375
1790936109033929500,0.933929443359375,-0.538787841796875,-0.851348876953125,0.1142425537109375
1790936109043903200,0.9439033203125,-0.5838165283203125,-0.8252105712890625,0.13909912109375
1790936109053877200,0.953877197265625,-0.569183349609375,-0.8369598388671875,0.188690185546875
1790936109063850500,0.9638505859375,-0.5626373291015625,-0.8297576904296875,0.194091796875
1790936109073824500,0.973824462890625,-0.531494140625,-0.8690185546875,0.198822021484375
1790936109083798500,0.983798583984375,-0.519775390625,-0.912445068359375,0.2610015869140625
1790936109093771500,0.993771484375,-0.51422119140625,-0.9602813720703125,0.348114013671875
1790936109103745500,1.00374560546875,-0.505615234375,-0.931182861328125,0.3744049072265625
1790936109113718500,1.013718505859375,-0.4504547119140625,-0.8353118896484375,0.2375030517578125
1790936109123692500,1.023692626953125,-0.3765716552734375,-0.81671142578125,0.0667572021484375
1790936109133666600,1.03366650390625,-0.3831939697265625,-0.9392242431640625,0.1450958251953125
1790936109143639600,1.0436396484375,-0.4573516845703125,-0.9726715087890625,0.13824462890625
1790936109153613600,1.053613525390625,-0.52581787109375,-0.8919219970703125,0.0160980224609375
1790936109163587600,1.063587646484375,-0.4757537841796875,-0.8915252685546875,-0.0437774658203125
1790936109173560300,1.073560302734375,-0.4581298828125,-0.93023681640625,-0.12420654296875
1790936109183534300,1.083534423828125,-0.5121917724609375,-0.9006195068359375,-0.213287353515625
1790936109193507300,1.09350732421875,-0.5142974853515625,-0.89129638671875,-0.1651611328125
1790936109203481300,1.1034814453125,-0.4972381591796875,-0.8994293212890625,-0.0703887939453125
1790936109213455400,1.113455322265625,-0.466796875,-0.9121856689453125,-0.0057525634765625
1790936109223428600,1.1234287109375,-0.48150634765625,-0.859527587890625,0.0005035400390625
1790936109233402400,1.13340234375,-0.4824676513671875,-0.7996368408203125,-0.0148468017578125
1790936109243376400,1.14337646484375,-0.45379638671875,-0.7914276123046875,0.0043792724609375
1790936109253349600,1.153349609375,-0.459320068359375,-0.82830810546875,0.0846099853515625
1790936109263323600,1.16332373046875,-0.4601593017578125,-0.8712310791015625,0.112396240234375
1790936109273297700,1.173297607421875,-0.491302490234375,-0.848114013671875,0.08160400390625
1790936109283270400,1.1832705078125,-0.523040771484375,-0.8145904541015625,0.0205230712890625
1790936109293244400,1.193244384765625,-0.494964599609375,-0.8528289794921875,-0.018890380859375
1790936109303217400,1.203217529296875,-0.44720458984375,-0.9217681884765625,-0.010650634765625
1790936109313191400,1.21319140625,-0.4478912353515625,-0.930816650390625,-0.0100555419921875
1790936109323165400,1.22316552734375,-0.4748992919921875,-0.899200439453125,-0.030548095703125
1790936109333138400,1.233138427734375,-0.430633544921875,-0.9166717529296875,-0.0456695556640625
1790936109343112400,1.243112548828125,-0.3936309814453125,-0.9512939453125,-0.033050537109375
1790936109353086500,1.25308642578125,-0.4205169677734375,-0.951507568359375,-0.01715087890625
1790936109363059500,1.2630595703125,-0.46234130859375,-0.947418212890625,-0.039398193359375
1790936109373033500,1.273033447265625,-0.4537506103515625,-0.971710205078125,-0.018646240234375
1790936109383006500,1.28300634765625,-0.440460205078125,-0.9980010986328125,-0.003448486328125
1790936109392980500,1.29298046875,-0.532012939453125,-0.9898529052734375,-0.036041259765625
1790936109402954200,1.302954345703125,-0.5273284912109375,-1.0133819580078125,-0.015594482421875
1790936109412927500,1.312927490234375,-0.5206146240234375,-1.008636474609375,0.0551300048828125
1790936109422901500,1.322901611328125,-0.5533905029296875,-0.9385528564453125,0.0800018310546875
1790936109432875500,1.33287548828125,-0.5954437255859375,-0.8294830322265625,0.07208251953125
1790936109442848500,1.3428486328125,-0.55194091796875,-0.7795867919921875,0.106414794921875
1790936109452822500,1.352822509765625,-0.536529541015625,-0.760101318359375,0.197418212890625
1790936109462796500,1.362796630859375,-0.573150634765625,-0.74151611328125,0.2713623046875
1790936109472769500,1.37276953125,-0.5676422119140625,-0.7545013427734375,0.2765350341796875
1790936109482743600,1.38274365234375,-0.618896484375,-0.7213592529296875,0.2696685791015625
1790936109492716500,1.392716552734375,-0.6404571533203125,-0.7090911865234375,0.2317962646484375
1790936109502690600,1.402690673828125,-0.5951995849609375,-0.7502593994140625,0.2368011474609375
1790936109512664600,1.41266455078125,-0.6009368896484375,-0.7926788330078125,0.234222412109375
1790936109522637300,1.42263720703125,-0.6307830810546875,-0.7740631103515625,0.1750030517578125
1790936109532611300,1.432611328125,-0.539886474609375,-0.8049774169921875,0.1923980712890625
1790936109542585300,1.44258544921875,-0.4737091064453125,-0.829742431640625,0.113037109375
1790936109552558300,1.452558349609375,-0.4252777099609375,-0.830535888671875,-0.01544189453125
1790936109562532400,1.462532470703125,-0.3823699951171875,-0.8211517333984375,-0.0561065673828125
1790936109572505600,1.472505615234375,-0.3861541748046875,-0.819488525390625,-0.1209716796875
1790936109582479400,1.482479248046875,-0.38604736328125,-0.871124267578125,-0.143096923828125
1790936109592453400,1.492453369140625,-0.366546630859375,-0.9389495849609375,-0.1296539306640625
1790936109602426600,1.502426513671875,-0.4066162109375,-0.9597015380859375,-0.145843505859375
1790936109612400600,1.512400634765625,-0.400543212890625,-0.978851318359375,-0.154327392578125
1790936109622374700,1.522374755859375,-0.3585662841796875,-0.986114501953125,-0.1610870361328125
1790936109632347400,1.532347412109375,-0.3738861083984375,-0.9697265625,-0.1603546142578125
1790936109642321400,1.5423212890625,-0.3620452880859375,-0.961669921875,-0.130523681640625
1790936109652294400,1.55229443359375,-0.3213348388671875,-0.98541259765625,-0.0634307861328125
1790936109662268400,1.562268310546875,-0.351348876953125,-0.967681884765625,-0.0417633056640625
1790936109672242400,1.572242431640625,-0.3920440673828125,-0.9550323486328125,-0.0119781494140625
1790936109682215400,1.58221533203125,-0.4499359130859375,-0.9522705078125,0.0252532958984375
1790936109692189400,1.592189453125,-0.456268310546875,-0.9415130615234375,0.0438385009765625
1790936109702163500,1.60216357421875,-0.4661407470703125,-0.9566192626953125,0.0685272216796875
1790936109712136400,1.612136474609375,-0.536163330078125,-0.9022064208984375,0.061248779296875
1790936109722110500,1.6221103515625,-0.555816650390625,-0.82977294921875,0.083953857421875
1790936109732084500,1.63208447265625,-0.4601287841796875,-0.90478515625,0.1541595458984375
1790936109742057500,1.642057373046875,-0.391845703125,-1.012359619140625,0.1705169677734375
1790936109752031500,1.652031494140625,-0.48590087890625,-0.9227447509765625,0.1365814208984375
1790936109762004500,1.66200439453125,-0.5693359375,-0.799224853515625,0.0659027099609375
1790936109771978500,1.671978515625,-0.5204315185546875,-0.8252105712890625,0.02679443359375
1790936109781952300,1.6819521484375,-0.4605560302734375,-0.8505706787109375,0.020050048828125
1790936109791925500,1.691925537109375,-0.47686767578125,-0.84515380859375,0.01129150390625
1790936109801899500,1.7018994140625,-0.45977783203125,-0.8776092529296875,-0.007110595703125
1790936109811873500,1.71187353515625,-0.41107177734375,-0.8834686279296875,0.0179595947265625
1790936109821846500,1.721846435546875,-0.482513427734375,-0.8359527587890625,0.0145721435546875
1790936109831820500,1.731820556640625,-0.5191497802734375,-0.86907958984375,-0.01416015625
1790936109841793500,1.74179345703125,-0.4917144775390625,-0.91876220703125,0.00921630859375
1790936109851767600,1.751767578125,-0.5433502197265625,-0.8689117431640625,0.0156707763671875
1790936109861741600,1.761741455078125,-0.5076751708984375,-0.8889312744140625,0.035491943359375
1790936109871714600,1.771714599609375,-0.4332275390625,-0.9278564453125,0.10992431640625
1790936109881688600,1.7816884765625,-0.426239013671875,-0.9105987548828125,0.1407928466796875
1790936109891662600,1.79166259765625,-0.4397735595703125,-0.896484375,0.1353302001953125
1790936109901635600,1.801635498046875,-0.4108428955078125,-0.9063568115234375,0.15460205078125
1790936109911609600,1.811609619140625,-0.481719970703125,-0.8561248779296875,0.1846160888671875
1790936109921582600,1.82158251953125,-0.5275421142578125,-0.8156280517578125,0.140716552734375
1790936109931556400,1.831556396484375,-0.505279541015625,-0.83367919921875,0.128326416015625
1790936109941530400,1.8415302734375,-0.444122314453125,-0.8563385009765625,0.089141845703125
1790936109951503600,1.851503662109375,-0.436614990234375,-0.8688812255859375,-0.0042266845703125
1790936109961477600,1.8614775390625,-0.405975341796875,-0.952850341796875,-0.086883544921875
1790936109971451600,1.87145166015625,-0.4307403564453125,-0.972930908203125,-0.1736907958984375
1790936109981424600,1.881424560546875,-0.450225830078125,-0.9926910400390625,-0.204925537109375
1790936109991398700,1.891398681640625,-0.4637451171875,-1.02789306640625,-0.179840087890625
1790936110001371600,1.90137158203125,-0.52459716796875,-0.966827392578125,-0.18621826171875
1790936110011345700,1.911345703125,-0.4891204833984375,-0.9098358154296875,-0.16705322265625
1790936110021319700,1.921319580078125,-0.414642333984375,-0.911651611328125,-0.065277099609375
1790936110031292700,1.931292724609375,-0.4555511474609375,-0.884033203125,0.0594482421875
1790936110041266700,1.9412666015625,-0.3860626220703125,-0.9290771484375,0.160064697265625
1790936110051240700,1.95124072265625,-0.3980865478515625,-0.912750244140625,0.146484375
1790936110061213400,1.96121337890625,-0.442108154296875,-0.8729095458984375,0.1431427001953125
1790936110071187500,1.9711875,-0.43994140625,-0.874542236328125,0.10772705078125
1790936110081160400,1.981160400390625,-0.47113037109375,-0.88299560546875,0.0792694091796875
1790936110091134500,1.991134521484375,-0.435821533203125,-0.87884521484375,0.0872955322265625
1790936110101108500,2.0011083984375,-0.43780517578125,-0.8452911376953125,0.1046905517578125
1790936110111081700,2.011081787109375,-0.5078125,-0.7786407470703125,0.0680389404296875
1790936110121055500,2.021055419921875,-0.3898468017578125,-0.8609619140625,0.0404510498046875
1790936110131029500,2.031029541015625,-0.295989990234375,-0.967987060546875,0.0700225830078125
1790936110141002800,2.041002685546875,-0.369232177734375,-0.9792938232421875,0.0511932373046875
1790936110150976800,2.050976806640625,-0.3988800048828125,-0.9281005859375,0.025360107421875
1790936110160949500,2.060949462890625,-0.4282989501953125,-0.882080078125,0.0442352294921875
1790936110170923500,2.070923583984375,-0.389678955078125,-0.9405517578125,0.069427490234375
1790936110180897500,2.0808974609375,-0.31353759765625,-0.975433349609375,0.1089630126953125
1790936110190870500,2.09087060546875,-0.3582611083984375,-0.9232025146484375,0.123077392578125
1790936110200844500,2.100844482421875,-0.422119140625,-0.87969970703125,0.097808837890625
1790936110210818600,2.110818603515625,-0.3838043212890625,-0.9102325439453125,0.119842529296875
1790936110220791600,2.12079150390625,-0.4812774658203125,-0.8946380615234375,0.1879119873046875
1790936110230765600,2.130765625,-0.5467071533203125,-0.88775634765625,0.1788330078125
1790936110240738600,2.140738525390625,-0.38214111328125,-0.9647369384765625,0.18768310546875
1790936110250712600,2.150712646484375,-0.43939208984375,-0.9416351318359375,0.211456298828125
1790936110260686600,2.1606865234375,-0.4754180908203125,-0.864288330078125,0.165496826171875
1790936110270659600,2.17065966796875,-0.3898773193359375,-0.852874755859375,0.1128997802734375
1790936110280633600,2.180633544921875,-0.4556884765625,-0.8373565673828125,0.0790863037109375
1790936110290607600,2.190607666015625,-0.4700927734375,-0.8298187255859375,-0.0184173583984375
1790936110300580600,2.20058056640625,-0.4747161865234375,-0.884735107421875,-0.017547607421875
1790936110310554600,2.2105546875,-0.428253173828125,-0.9160308837890625,0.026947021484375
1790936110320527600,2.220527587890625,-0.387939453125,-0.9429168701171875,0.0890045166015625
1790936110330501600,2.230501708984375,-0.4200439453125,-0.92083740234375,0.0589141845703125
1790936110340475600,2.2404755859375,-0.3230743408203125,-0.9320220947265625,-0.0316162109375
1790936110350448600,2.25044873046875,-0.3979644775390625,-0.9440460205078125,-0.0755462646484375
1790936110360422700,2.260422607421875,-0.38671875,-1.018096923828125,-0.149169921875
1790936110370396700,2.270396728515625,-0.316619873046875,-1.0988922119140625,-0.2020416259765625
1790936110380369700,2.28036962890625,-0.6214447021484375,-0.8069000244140625,-0.2133941650390625
1790936110390343700,2.29034375,-0.3893585205078125,-1.0798797607421875,-0.0622100830078125
1790936110400316400,2.30031640625,-0.317169189453125,-1.0690155029296875,0.0327911376953125
1790936110410290400,2.31029052734375,-0.6658477783203125,-0.6637115478515625,-0.1565704345703125
1790936110420264400,2.320264404296875,-0.322235107421875,-0.9812164306640625,-0.0972137451171875
1790936110430237400,2.330237548828125,-0.195281982421875,-1.1412200927734375,0.20269775390625
1790936110440211500,2.34021142578125,-0.608978271484375,-0.7704315185546875,0.1253509521484375
1790936110450185500,2.350185546875,-0.526519775390625,-0.7541351318359375,-0.035675048828125
1790936110460158500,2.360158447265625,-0.28558349609375,-0.963531494140625,0.1194610595703125
1790936110470132500,2.370132568359375,-0.5220489501953125,-0.832244873046875,0.21270751953125
1790936110480105700,2.380105712890625,-0.4719696044921875,-0.8159027099609375,-0.0062408447265625
1790936110490079700,2.390079833984375,-0.4521026611328125,-0.82806396484375,-0.1161346435546875
1790936110500053800,2.4000537109375,-0.51300048828125,-0.820556640625,-0.067901611328125
1790936110510026800,2.41002685546875,-0.47119140625,-0.8933258056640625,-0.0523529052734375
1790936110520000800,2.420000732421875,-0.46063232421875,-0.9212188720703125,-0.0932464599609375
1790936110529974800,2.429974853515625,-0.4297027587890625,-0.9714508056640625,-0.0362396240234375
1790936110539947500,2.439947509765625,-0.444549560546875,-0.9426727294921875,-0.0130767822265625
1790936110549921500,2.449921630859375,-0.45928955078125,-0.9036102294921875,0.003387451171875
1790936110559894500,2.45989453125,-0.4707489013671875,-0.8697967529296875,0.0382080078125
1790936110569868500,2.46986865234375,-0.4086761474609375,-0.89404296875,-0.0078125
1790936110579842600,2.479842529296875,-0.383880615234375,-0.9266204833984375,-0.05303955078125
1790936110589815600,2.489815673828125,-0.3031158447265625,-0.9951171875,-0.11529541015625
1790936110599789600,2.49978955078125,-0.2563629150390625,-1.017364501953125,-0.1091766357421875
1790936110609763600,2.509763671875,-0.342620849609375,-0.9706268310546875,-0.07830810546875
1790936110619736600,2.519736572265625,-0.3427276611328125,-0.9813995361328125,0.0308074951171875
1790936110629710600,2.529710693359375,-0.3088531494140625,-0.994537353515625,0.0819854736328125
1790936110639683600,2.53968359375,-0.3365325927734375,-1.0099945068359375,0.0522613525390625
1790936110649657600,2.54965771484375,-0.3043365478515625,-1.0394287109375,0.0492706298828125
1790936110659631600,2.559631591796875,-0.3075408935546875,-1.02801513671875,-0.0755767822265625
1790936110669604600,2.5696044921875,-0.2444305419921875,-1.039306640625,-0.1340484619140625
1790936110679578600,2.57957861328125,-0.2920989990234375,-1.0283355712890625,-0.130218505859375
1790936110689552600,2.589552734375,-0.31597900390625,-0.9800262451171875,-0.074676513671875
1790936110699525600,2.599525634765625,-0.385833740234375,-0.8873443603515625,-0.01507568359375
1790936110709499600,2.609499755859375,-0.3497772216796875,-0.892822265625,-0.0238189697265625
1790936110719472600,2.61947265625,-0.293731689453125,-0.9366455078125,-0.0975189208984375
1790936110729446700,2.62944677734375,-0.2786407470703125,-0.955352783203125,-0.13616943359375
1790936110739420700,2.639420654296875,-0.3520660400390625,-0.9058685302734375,-0.175933837890625
1790936110749393400,2.649393310546875,-0.3188629150390625,-0.9054412841796875,-0.219268798828125
1790936110759367400,2.659367431640625,-0.358062744140625,-0.8758544921875,-0.2379608154296875
1790936110769341400,2.669341552734375,-0.3540191650390625,-0.8905029296875,-0.2210540771484375
1790936110779314400,2.679314453125,-0.4521942138671875,-0.8447418212890625,-0.2191162109375
1790936110789288400,2.689288330078125,-0.532379150390625,-0.792694091796875,-0.1991424560546875
1790936110799261700,2.69926171875,-0.4876708984375,-0.8457794189453125,-0.1853179931640625
1790936110809235500,2.7092353515625,-0.4909515380859375,-0.8834228515625,-0.1683349609375
1790936110819209000,2.719208984375,-0.4669189453125,-0.9240264892578125,-0.195404052734375
1790936110829182000,2.729181884765625,-0.4410247802734375,-0.9278106689453125,-0.129058837890625
1790936110839156000,2.739156005859375,-0.4736175537109375,-0.903594970703125,-0.08062744140625
1790936110849130000,2.7491298828125,-0.49029541015625,-0.9013519287109375,-0.0182037353515625
1790936110859103000,2.75910302734375,-0.5482025146484375,-0.8813934326171875,-0.0029449462890625
1790936110869077000,2.769076904296875,-0.5500946044921875,-0.8570404052734375,-0.12164306640625
1790936110879050000,2.779050048828125,-0.556243896484375,-0.8459320068359375,-0.181304931640625
1790936110889024000,2.78902392578125,-0.5658111572265625,-0.8494873046875,-0.1603240966796875
1790936110898998000,2.798998046875,-0.4751434326171875,-0.88775634765625,-0.1544647216796875
1790936110908971000,2.808970947265625,-0.4757232666015625,-0.923980712890625,-0.140533447265625
1790936110918945000,2.818945068359375,-0.4465484619140625,-0.9199676513671875,-0.09893798828125
1790936110928918800,2.828918701171875,-0.4997711181640625,-0.8689727783203125,-0.1274261474609375
1790936110938891800,2.838891845703125,-0.531982421875,-0.8362884521484375,-0.158905029296875
1790936110948865800,2.84886572265625,-0.5272674560546875,-0.83612060546875,-0.147064208984375
1790936110958839000,2.858839111328125,-0.5723419189453125,-0.803619384765625,-0.1155242919921875
1790936110968813000,2.86881298828125,-0.552490234375,-0.7888641357421875,-0.07806396484375
1790936110978787000,2.878787109375,-0.472900390625,-0.842987060546875,-0.104461669921875
1790936110988760000,2.888760009765625,-0.457305908203125,-0.86651611328125,-0.1131134033203125
1790936110998734000,2.898734130859375,-0.4085693359375,-0.8631744384765625,-0.1693572998046875
1790936111008708000,2.9087080078125,-0.434539794921875,-0.8393402099609375,-0.1827545166015625
1790936111018681000,2.91868115234375,-0.40582275390625,-0.8285064697265625,-0.2324981689453125
1790936111028655000,2.928655029296875,-0.46771240234375,-0.8010101318359375,-0.2151641845703125
1790936111038627800,2.9386279296875,-0.5099029541015625,-0.8126220703125,-0.2003326416015625
1790936111048601900,2.948601806640625,-0.524322509765625,-0.8430633544921875,-0.19439697265625
1790936111058576000,2.958575927734375,-0.5334930419921875,-0.8495330810546875,-0.1854705810546875
1790936111068548900,2.968548828125,-0.5235443115234375,-0.864898681640625,-0.158905029296875
1790936111078523000,2.97852294921875,-0.5375213623046875,-0.8636932373046875,-0.1686553955078125
1790936111088497000,2.988496826171875,-0.5478057861328125,-0.858428955078125,-0.21490478515625
1790936111098470000,2.998469970703125,-0.607391357421875,-0.791839599609375,-0.285125732421875
1790936111108444000,3.00844384765625,-0.559173583984375,-0.7346038818359375,-0.378875732421875
1790936111118417200,3.018417236328125,-0.3403472900390625,-0.798553466796875,-0.4720458984375
1790936111128391000,3.028390869140625,-0.351318359375,-0.7901153564453125,-0.4312744140625
1790936111138365000,3.038364990234375,-0.63201904296875,-0.7951812744140625,-0.232208251953125
1790936111148338000,3.048337890625,-0.50628662109375,-0.821990966796875,0.04022216796875
1790936111158312000,3.05831201171875,-0.5580596923828125,-0.7799530029296875,0.1048431396484375
1790936111168286000,3.068285888671875,-0.6336669921875,-0.8119659423828125,-0.0968780517578125
1790936111178259000,3.078259033203125,-0.6021575927734375,-0.8388671875,-0.1213226318359375
1790936111188233000,3.08823291015625,-0.6926422119140625,-0.84173583984375,-0.08917236328125
1790936111198206000,3.0982060546875,-0.5548095703125,-0.9382476806640625,-0.0870208740234375
1790936111208180000,3.108179931640625,-0.661956787109375,-0.8559722900390625,-0.0600433349609375
1790936111218154000,3.118154052734375,-0.6473388671875,-0.8007354736328125,-0.0554656982421875
1790936111228127000,3.128126953125,-0.542816162109375,-0.8040008544921875,-0.2172393798828125
1790936111238101000,3.13810107421875,-0.520782470703125,-0.7609100341796875,-0.39715576171875
1790936111248075000,3.148074951171875,-0.4856719970703125,-0.6643218994140625,-0.5271148681640625
1790936111258048000,3.158048095703125,-0.5793304443359375,-0.557037353515625,-0.55718994140625
1790936111268022000,3.16802197265625,-0.570770263671875,-0.6014404296875,-0.5056304931640625
1790936111277994800,3.177994873046875,-0.63726806640625,-0.726531982421875,-0.4319915771484375
1790936111287968800,3.18796875,-0.671630859375,-0.7938690185546875,-0.460113525390625
1790936111297942800,3.19794287109375,-0.785552978515625,-0.7177734375,-0.45648193359375
1790936111307916000,3.207916015625,-0.802276611328125,-0.679046630859375,-0.4913482666015625
1790936111317890000,3.21789013671875,-0.69366455078125,-0.758453369140625,-0.454986572265625
1790936111327863800,3.22786376953125,-0.6455230712890625,-0.8039093017578125,-0.3001556396484375
1790936111337837000,3.237837158203125,-0.6627655029296875,-0.8316192626953125,-0.138397216796875
1790936111347811000,3.24781103515625,-0.5674896240234375,-0.8261566162109375,-0.073089599609375
1790936111357784000,3.2577841796875,-0.5709991455078125,-0.7755584716796875,-0.089141845703125
1790936111367758000,3.267758056640625,-0.4616546630859375,-0.810455322265625,-0.1519622802734375
1790936111377732000,3.277732177734375,-0.54095458984375,-0.814483642578125,-0.2583160400390625
1790936111387704800,3.287704833984375,-0.6068878173828125,-0.806854248046875,-0.2985992431640625
1790936111397678800,3.297678955078125,-0.5360107421875,-0.8115692138671875,-0.3484649658203125
1790936111407652900,3.30765283203125,-0.580078125,-0.783416748046875,-0.3705902099609375
1790936111417625900,3.3176259765625,-0.5340728759765625,-0.8552703857421875,-0.3355255126953125
1790936111427600000,3.327599853515625,-0.539703369140625,-0.8848724365234375,-0.276580810546875
1790936111437572900,3.33757275390625,-0.444427490234375,-0.8961334228515625,-0.1617279052734375
1790936111447547000,3.347546875,-0.4563140869140625,-0.89599609375,-0.11181640625
1790936111457521000,3.35752099609375,-0.4376068115234375,-0.8805694580078125,-0.0660858154296875
1790936111467494000,3.367493896484375,-0.4275665283203125,-0.8427581787109375,-0.01678466796875
1790936111477468000,3.377468017578125,-0.4361419677734375,-0.78955078125,0.028228759765625
1790936111487442000,3.38744189453125,-0.4157257080078125,-0.77392578125,-0.0152587890625
1790936111497415200,3.397415283203125,-0.5631103515625,-0.7022552490234375,-0.0500335693359375
1790936111507389200,3.40738916015625,-0.44866943359375,-0.74981689453125,-0.0223541259765625
1790936111517362000,3.41736181640625,-0.318267822265625,-0.8154449462890625,-0.0638427734375
1790936111527336000,3.4273359375,-0.2859649658203125,-0.8681488037109375,-0.031280517578125
1790936111537310000,3.43731005859375,-0.4200897216796875,-0.925872802734375,-0.042724609375
1790936111547283000,3.447282958984375,-0.671234130859375,-0.837005615234375,-0.105224609375
1790936111557257000,3.457257080078125,-0.7125091552734375,-0.808197021484375,-0.146697998046875
1790936111567231000,3.46723095703125,-0.663482666015625,-0.8416748046875,-0.1595916748046875
1790936111577204000,3.477203857421875,-0.5448150634765625,-0.9454345703125,-0.23046875
1790936111587178000,3.487177978515625,-0.504150390625,-0.9062042236328125,-0.238128662109375
1790936111597151000,3.49715087890625,-0.6185302734375,-0.9785614013671875,0.0267791748046875
1790936111607125000,3.507125,-0.3517303466796875,-1.16583251953125,-0.1913604736328125
1790936111617099000,3.51709912109375,-0.4824066162109375,-1.000244140625,-0.1940155029296875
1790936111627071700,3.52707177734375,-0.4683990478515625,-0.9320220947265625,-0.0937042236328125
1790936111637045800,3.537045654296875,-0.3550872802734375,-0.9496307373046875,-0.25396728515625
1790936111647019800,3.547019775390625,-0.430450439453125,-0.9011383056640625,-0.2777862548828125
1790936111656993000,3.556992919921875,-0.3688201904296875,-0.9900970458984375,-0.2168731689453125
1790936111666967000,3.566967041015625,-0.4144134521484375,-0.947357177734375,-0.048553466796875
1790936111676940000,3.57693994140625,-0.44769287109375,-0.89666748046875,-0.0100250244140625
1790936111686914000,3.5869140625,-0.4571380615234375,-0.8672027587890625,0.0662689208984375
1790936111696888000,3.59688818359375,-0.479217529296875,-0.8373565673828125,0.1055145263671875
1790936111706861000,3.606861083984375,-0.4647979736328125,-0.8408050537109375,0.079071044921875
1790936111716835000,3.6168349609375,-0.549072265625,-0.7710113525390625,0.1045684814453125
1790936111726809000,3.62680908203125,-0.5288543701171875,-0.7638092041015625,0.1525421142578125
1790936111736782000,3.636781982421875,-0.5508880615234375,-0.51739501953125,0.047271728515625
1790936111746755800,3.646755859375,-0.234100341796875,-0.874664306640625,-0.01177978515625
1790936111756728800,3.656728759765625,-0.1662750244140625,-0.9241943359375,0.084625244140625
1790936111766702800,3.666702880859375,-0.5083160400390625,-1.080841064453125,-0.0909271240234375
1790936111776676900,3.6766767578125,-0.7133331298828125,-1.22607421875,-0.137664794921875
1790936111786649900,3.68664990234375,-0.7369384765625,-0.79949951171875,0.187042236328125
1790936111796624000,3.696623779296875,-0.643585205078125,-0.5782012939453125,0.2389068603515625
1790936111806597000,3.70659716796875,-0.75341796875,-0.6357879638671875,0.105255126953125
1790936111816571000,3.71657080078125,-0.6182708740234375,-0.84844970703125,0.0764007568359375
1790936111826545000,3.726544921875,-0.4390411376953125,-1.061248779296875,0.034881591796875
1790936111836518100,3.73651806640625,-0.34759521484375,-1.1226348876953125,-0.157745361328125
1790936111846492200,3.7464921875,-0.3276519775390625,-1.1072540283203125,-0.2974395751953125
1790936111856466200,3.756466064453125,-0.31805419921875,-1.0693511962890625,-0.289215087890625
1790936111866439000,3.76643896484375,-0.3002166748046875,-1.0166778564453125,-0.2430877685546875
1790936111876413000,3.776412841796875,-0.429656982421875,-0.8887176513671875,-0.174896240234375
1790936111886386000,3.786385986328125,-0.5102996826171875,-0.8314361572265625,-0.162811279296875
1790936111896360000,3.79635986328125,-0.479339599609375,-0.814178466796875,-0.1924285888671875
1790936111906334000,3.806333984375,-0.508636474609375,-0.7504425048828125,-0.159271240234375
1790936111916307000,3.816306884765625,-0.585784912109375,-0.7695770263671875,-0.086578369140625
1790936111926281000,3.826281005859375,-0.647796630859375,-0.7596893310546875,-0.08966064453125
1790936111936255000,3.8362548828125,-0.58935546875,-0.7839508056640625,-0.17987060546875
1790936111946228000,3.84622802734375,-0.3824920654296875,-0.88922119140625,-0.306854248046875
1790936111956202000,3.856201904296875,-0.33740234375,-0.789520263671875,-0.3291168212890625
1790936111966174700,3.8661748046875,-0.256561279296875,-1.02142333984375,-0.1358184814453125
1790936111976148700,3.876148681640625,-0.4195709228515625,-0.8940887451171875,0.038787841796875
1790936111986122800,3.886122802734375,-0.3624725341796875,-1.0381317138671875,0.102630615234375
1790936111996096000,3.896095947265625,-0.487213134765625,-0.8616790771484375,0.0045318603515625
1790936112006070000,3.906070068359375,-0.33599853515625,-0.861785888671875,-0.044830322265625
1790936112016043800,3.916043701171875,-0.34716796875,-0.9556121826171875,-0.132415771484375
1790936112026017000,3.92601708984375,-0.35931396484375,-1.0585174560546875,-0.0139007568359375
1790936112035991000,3.935990966796875,-0.4120330810546875,-1.02825927734375,0.1639862060546875
1790936112045964000,3.945964111328125,-0.5645904541015625,-0.9333953857421875,0.3277130126953125
1790936112055938000,3.95593798828125,-0.53851318359375,-0.8807220458984375,0.398712158203125
1790936112065912000,3.965912109375,-0.5497894287109375,-0.8368377685546875,0.3417205810546875
1790936112075885000,3.975885009765625,-0.4232635498046875,-0.87646484375,0.0905914306640625
1790936112085859000,3.985859130859375,-0.41668701171875,-0.8280029296875,-0.13427734375
1790936112095831800,3.995831787109375,-0.3713531494140625,-0.8511199951171875,-0.2397003173828125
1790936112105805800,4.005805908203125,-0.3649139404296875,-0.8820037841796875,-0.2766876220703125
1790936112115779800,4.01577978515625,-0.48321533203125,-0.89483642578125,-0.1672515869140625
1790936112125752800,4.0257529296875,-0.4104766845703125,-0.909027099609375,-0.1707000732421875
1790936112135726800,4.035726806640625,-0.5254974365234375,-0.8558197021484375,-0.24310302734375
1790936112145700900,4.045700927734375,-0.4730682373046875,-0.86474609375,-0.2904052734375
1790936112155673900,4.055673828125,-0.5186004638671875,-0.8353118896484375,-0.2837677001953125
1790936112165648000,4.06564794921875,-0.3906097412109375,-0.8563079833984375,-0.3092041015625
1790936112175621000,4.07562109375,-0.1500701904296875,-1.0655670166015625,-0.27276611328125
1790936112185595100,4.08559521484375,-0.1825103759765625,-1.1802825927734375,-0.1652984619140625
1790936112195569200,4.095569091796875,-0.1981201171875,-1.156646728515625,0.01080322265625
1790936112205542000,4.1055419921875,-0.3528900146484375,-0.9588165283203125,0.12030029296875
1790936112215516000,4.115515869140625,-0.3708343505859375,-0.844482421875,0.1272125244140625
1790936112225490000,4.125489990234375,-0.4213714599609375,-0.75732421875,0.0971221923828125
1790936112235463000,4.135462890625,-0.406463623046875,-0.85638427734375,0.109130859375
1790936112245437000,4.14543701171875,-0.3552093505859375,-1.0412445068359375,0.08740234375
1790936112255410000,4.155409912109375,-0.39593505859375,-1.0937347412109375,0.0549774169921875
1790936112265384000,4.165384033203125,-0.4587249755859375,-1.073577880859375,0.02593994140625
1790936112275358000,4.17535791015625,-0.5233154296875,-0.952239990234375,-0.0350494384765625
1790936112285331000,4.1853310546875,-0.502655029296875,-0.89288330078125,-0.0551910400390625
1790936112295305000,4.195304931640625,-0.45538330078125,-0.8570556640625,-0.044158935546875
1790936112305278000,4.20527783203125,-0.429443359375,-0.8641815185546875,-0.021026611328125
1790936112315252000,4.215251953125,-0.3700103759765625,-0.849029541015625,0.0396575927734375
1790936112325226000,4.22522607421875,-0.34234619140625,-0.877716064453125,-0.003509521484375
1790936112335199000,4.235198974609375,-0.3043212890625,-0.928955078125,-0.113800048828125
1790936112345173000,4.245173095703125,-0.2832183837890625,-0.943939208984375,-0.169586181640625
1790936112355147000,4.25514697265625,-0.4249267578125,-0.86212158203125,-0.266998291015625
1790936112365120000,4.2651201171875,-0.5078125,-0.7952423095703125,-0.305633544921875
1790936112375094000,4.275093994140625,-0.5274505615234375,-0.8267974853515625,-0.2874603271484375
1790936112385067000,4.28506689453125,-0.5301971435546875,-0.91119384765625,-0.2126007080078125
1790936112395041000,4.295041015625,-0.5310821533203125,-0.986724853515625,-0.165924072265625
1790936112405015000,4.30501513671875,-0.5484771728515625,-0.970977783203125,-0.06451416015625
1790936112414988000,4.314988037109375,-0.509613037109375,-0.933013916015625,-0.0196380615234375
1790936112424962000,4.324962158203125,-0.484954833984375,-0.8527069091796875,-0.001739501953125
1790936112434936000,4.33493603515625,-0.503173828125,-0.7902069091796875,0.03118896484375
1790936112444908800,4.34490869140625,-0.4812469482421875,-0.7568206787109375,0.021759033203125
1790936112454882800,4.3548828125,-0.4385986328125,-0.83251953125,-0.0445556640625
1790936112464855800,4.364855712890625,-0.49102783203125,-0.866943359375,-0.0649261474609375
1790936112474829800,4.374829833984375,-0.5336456298828125,-0.884613037109375,-0.054107666015625
1790936112484803800,4.384803955078125,-0.6084442138671875,-0.8232574462890625,-0.1033172607421875
1790936112494777000,4.394777099609375,-0.54241943359375,-0.8949127197265625,-0.106170654296875
1790936112504750800,4.404750732421875,-0.5231781005859375,-0.9101715087890625,-0.081329345703125
1790936112514724900,4.414724853515625,-0.4787139892578125,-0.9148712158203125,-0.123077392578125
1790936112524698000,4.424697998046875,-0.4681396484375,-0.83270263671875,-0.1945648193359375
1790936112534672100,4.434672119140625,-0.422332763671875,-0.80841064453125,-0.18756103515625
1790936112544645000,4.44464501953125,-0.3665924072265625,-0.8279876708984375,-0.210784912109375
1790936112554619100,4.454619140625,-0.438812255859375,-0.859619140625,-0.2309722900390625
1790936112564593000,4.464593017578125,-0.4181671142578125,-0.9246063232421875,-0.14410400390625
1790936112574566000,4.47456591796875,-0.4741668701171875,-0.923248291015625,-0.096954345703125
1790936112584540000,4.484539794921875,-0.501007080078125,-0.9381103515625,-0.0615692138671875
1790936112594513000,4.494512939453125,-0.5282440185546875,-0.919952392578125,-0.0797271728515625
1790936112604487000,4.50448681640625,-0.527496337890625,-0.922576904296875,-0.02642822265625
1790936112614461000,4.5144609375,-0.46746826171875,-0.9669342041015625,-0.0226593017578125
1790936112624434000,4.524433837890625,-0.43487548828125,-0.9919586181640625,-0.0359649658203125
1790936112634408000,4.534407958984375,-0.479339599609375,-0.9225921630859375,-0.1101837158203125
1790936112644382000,4.5443818359375,-0.337371826171875,-0.9513092041015625,-0.1263275146484375
1790936112654355000,4.55435498046875,-0.3008270263671875,-0.9488677978515625,-0.179473876953125
1790936112664329000,4.564328857421875,-0.4156341552734375,-0.919464111328125,-0.1808319091796875
1790936112674302000,4.574302001953125,-0.482330322265625,-0.8570098876953125,-0.12164306640625
1790936112684276000,4.58427587890625,-0.400909423828125,-0.8908538818359375,-0.0393524169921875
1790936112694250000,4.59425,-0.4097747802734375,-0.8720550537109375,-0.0062713623046875
1790936112704223000,4.604222900390625,-0.5014190673828125,-0.8568115234375,0.062530517578125
1790936112714197000,4.614197021484375,-0.5432281494140625,-0.8896636962890625,0.1276092529296875
1790936112724170000,4.624169921875,-0.5075531005859375,-0.9000701904296875,0.1164398193359375
1790936112734144000,4.63414404296875,-0.434356689453125,-0.8880157470703125,0.1863250732421875
1790936112744118000,4.644117919921875,-0.4922637939453125,-0.8857421875,0.1904144287109375
1790936112754091000,4.654091064453125,-0.4510040283203125,-0.905303955078125,0.193695068359375
1790936112764065000,4.66406494140625,-0.4481964111328125,-0.8591766357421875,0.18463134765625
1790936112774039000,4.6740390625,-0.5064544677734375,-0.831787109375,0.1926727294921875
1790936112784011800,4.68401171875,-0.4699249267578125,-0.8745880126953125,0.1638336181640625
1790936112793985800,4.69398583984375,-0.4817962646484375,-0.909454345703125,0.117462158203125
1790936112803958800,4.703958740234375,-0.5289764404296875,-0.8893280029296875,0.0608367919921875
1790936112813932800,4.713932861328125,-0.548431396484375,-0.851043701171875,-0.0000762939453125
1790936112823907600,4.723907470703125,-0.5360260009765625,-0.8572540283203125,-0.02325439453125
1790936112833880600,4.733880615234375,-0.516815185546875,-0.890899658203125,-0.0500640869140625
1790936112843854600,4.7438544921875,-0.5420074462890625,-0.8529510498046875,-0.0001678466796875
1790936112853828600,4.75382861328125,-0.50653076171875,-0.8603668212890625,0.0328521728515625
1790936112863801600,4.763801513671875,-0.492828369140625,-0.877716064453125,0.033203125
1790936112873775600,4.773775634765625,-0.430908203125,-0.881317138671875,0.00225830078125
1790936112883748600,4.78374853515625,-0.507904052734375,-0.8564300537109375,-0.0786590576171875
1790936112893722600,4.79372265625,-0.52447509765625,-0.8701019287109375,-0.1181182861328125
1790936112903696600,4.803696533203125,-0.46783447265625,-0.8481903076171875,-0.1072540283203125
1790936112913669600,4.813669677734375,-0.58697509765625,-0.78521728515625,-0.1550445556640625
1790936112923643600,4.8236435546875,-0.5440826416015625,-0.8425445556640625,-0.1727752685546875
1790936112933616600,4.83361669921875,-0.609710693359375,-0.8274688720703125,-0.175384521484375
1790936112943590700,4.843590576171875,-0.592742919921875,-0.818084716796875,-0.198638916015625
1790936112953564700,4.853564697265625,-0.5322418212890625,-0.8262786865234375,-0.178009033203125
1790936112963537700,4.86353759765625,-0.5098876953125,-0.8442535400390625,-0.15594482421875
1790936112973511700,4.87351171875,-0.526092529296875,-0.895721435546875,-0.094390869140625
1790936112983485700,4.883485595703125,-0.4715118408203125,-0.9441986083984375,0.0614166259765625
1790936112993458400,4.89345849609375,-0.4427642822265625,-0.9478302001953125,0.1118621826171875
1790936113003432400,4.903432373046875,-0.496246337890625,-0.91156005859375,0.096893310546875
1790936113013405400,4.913405517578125,-0.3765716552734375,-0.925262451171875,0.152801513671875
1790936113023379500,4.92337939453125,-0.4377899169921875,-0.8775634765625,0.1151885986328125
1790936113033353500,4.933353515625,-0.4485321044921875,-0.8819732666015625,0.051483154296875
1790936113043326700,4.94332666015625,-0.438446044921875,-0.90106201171875,0.0402679443359375
1790936113053300700,4.95330078125,-0.460235595703125,-0.918426513671875,0.00030517578125
1790936113063273700,4.963273681640625,-0.4352569580078125,-0.9349212646484375,-0.0385284423828125
1790936113073247700,4.973247802734375,-0.47564697265625,-0.904937744140625,-0.0288543701171875
1790936113083221800,4.9832216796875,-0.4560546875,-0.92059326171875,-0.0551300048828125
1790936113093194800,4.99319482421875,-0.474517822265625,-0.89984130859375,-0.00897216796875
1790936113103168800,5.003168701171875,-0.4833221435546875,-0.88812255859375,0.06427001953125
1790936113113142800,5.013142822265625,-0.5048828125,-0.8677978515625,0.108673095703125
1790936113123115500,5.023115478515625,-0.4558563232421875,-0.853790283203125,0.1841583251953125
1790936113133089500,5.033089599609375,-0.4237518310546875,-0.8775482177734375,0.225189208984375
1790936113143062500,5.0430625,-0.387847900390625,-0.8786773681640625,0.1900634765625
1790936113153036500,5.05303662109375,-0.35443115234375,-0.8808135986328125,0.1370391845703125
1790936113163010600,5.063010498046875,-0.360107421875,-0.8935699462890625,0.0972442626953125
1790936113172983600,5.072983642578125,-0.38214111328125,-0.9098052978515625,0.0862579345703125
1790936113182957600,5.08295751953125,-0.398406982421875,-0.9013671875,0.066864013671875
1790936113192930800,5.092930908203125,-0.4693145751953125,-0.9186859130859375,0.07232666015625
1790936113202904600,5.102904541015625,-0.4842376708984375,-0.942413330078125,0.076568603515625
1790936113212878600,5.112878662109375,-0.5269775390625,-0.92755126953125,0.050994873046875
1790936113222851600,5.1228515625,-0.5034027099609375,-0.9208831787109375,0.075408935546875
1790936113232825600,5.13282568359375,-0.4979705810546875,-0.9344940185546875,0.0958099365234375
1790936113242799600,5.142799560546875,-0.4359588623046875,-0.9026336669921875,0.11822509765625
1790936113252772600,5.152772705078125,-0.4463958740234375,-0.8719329833984375,0.1093597412109375
1790936113262746600,5.16274658203125,-0.3830718994140625,-0.9128875732421875,0.092529296875
1790936113272719600,5.1727197265625,-0.3404693603515625,-0.9276123046875,0.095703125
1790936113282693600,5.182693603515625,-0.40093994140625,-0.8976593017578125,0.049285888671875
1790936113292667600,5.192667724609375,-0.359771728515625,-0.9445953369140625,0.040679931640625
1790936113302640600,5.202640625,-0.3940887451171875,-0.956329345703125,0.0274810791015625
1790936113312614700,5.21261474609375,-0.4386444091796875,-0.9760589599609375,-0.0160980224609375
1790936113322587600,5.222587646484375,-0.3672943115234375,-1.0004730224609375,-0.039520263671875
1790936113332561700,5.232561767578125,-0.4360809326171875,-0.9691925048828125,-0.0450897216796875
1790936113342535700,5.24253564453125,-0.4354705810546875,-0.97003173828125,-0.0637054443359375
1790936113352508700,5.2525087890625,-0.379730224609375,-0.9747772216796875,-0.0529327392578125
1790936113362482400,5.262482421875,-0.39471435546875,-0.943115234375,-0.0264129638671875
1790936113372455700,5.27245556640625,-0.3674163818359375,-0.9141998291015625,-0.0097808837890625
1790936113382429700,5.2824296875,-0.337249755859375,-0.8892364501953125,0.0598602294921875
1790936113392403700,5.29240380859375,-0.3791046142578125,-0.8869171142578125,0.121307373046875
1790936113402376700,5.302376708984375,-0.4073028564453125,-0.910888671875,0.1332855224609375
1790936113412350700,5.312350830078125,-0.4155426025390625,-0.943878173828125,0.1383209228515625
1790936113422324700,5.32232470703125,-0.4340362548828125,-0.9499053955078125,0.12176513671875
1790936113432297700,5.332297607421875,-0.4705657958984375,-0.9234466552734375,0.1290283203125
1790936113442271700,5.342271728515625,-0.4531097412109375,-0.9338531494140625,0.154754638671875
1790936113452244500,5.352244384765625,-0.429718017578125,-0.9106597900390625,0.1477508544921875
1790936113462218500,5.362218505859375,-0.4395751953125,-0.82366943359375,0.0582427978515625
1790936113472192500,5.372192626953125,-0.3544464111328125,-0.8217620849609375,-0.0069122314453125
1790936113482165500,5.38216552734375,-0.324920654296875,-0.8925628662109375,-0.028533935546875
1790936113492139500,5.392139404296875,-0.3029327392578125,-0.9407806396484375,-0.0258026123046875
1790936113502112500,5.402112548828125,-0.347747802734375,-0.9839019775390625,0.00897216796875
1790936113512086500,5.41208642578125,-0.4524383544921875,-0.96826171875,0.0084075927734375
1790936113522060500,5.422060546875,-0.5908966064453125,-0.8919677734375,0.0049285888671875
1790936113532033800,5.43203369140625,-0.54656982421875,-0.8866119384765625,0.002685546875
1790936113542007800,5.4420078125,-0.457611083984375,-0.949462890625,-0.0259552001953125
1790936113551981600,5.451981689453125,-0.4291534423828125,-0.965240478515625,0.015045166015625
1790936113561954800,5.461954833984375,-0.396575927734375,-0.94195556640625,0.052215576171875
1790936113571928800,5.4719287109375,-0.36358642578125,-0.849212646484375,0.06573486328125
1790936113581901600,5.481901611328125,-0.32989501953125,-0.844329833984375,0.0613555908203125
1790936113591875600,5.49187548828125,-0.3358001708984375,-0.858551025390625,0.065582275390625
1790936113601849600,5.501849609375,-0.370086669921875,-0.8815460205078125,0.0444183349609375
1790936113611822600,5.511822509765625,-0.4737396240234375,-0.837646484375,-0.014862060546875
1790936113621796600,5.521796630859375,-0.4302825927734375,-0.906585693359375,-0.054046630859375
1790936113631769600,5.53176953125,-0.4169158935546875,-0.9436492919921875,-0.0222015380859375
1790936113641743600,5.54174365234375,-0.479522705078125,-0.9326171875,-0.0172271728515625
1790936113651717600,5.551717529296875,-0.5494842529296875,-0.8825531005859375,-0.0775299072265625
1790936113661690600,5.561690673828125,-0.4740447998046875,-0.830535888671875,-0.0850830078125
1790936113671664600,5.57166455078125,-0.4682464599609375,-0.8264923095703125,-0.14019775390625
1790936113681637600,5.5816376953125,-0.481536865234375,-0.8537750244140625,-0.1722259521484375
1790936113691611600,5.591611572265625,-0.4091796875,-0.9168853759765625,-0.11077880859375
1790936113701585400,5.60158544921875,-0.435577392578125,-0.9047698974609375,-0.0664215087890625
1790936113711558700,5.61155859375,-0.498291015625,-0.8416900634765625,-0.04571533203125
1790936113721532700,5.62153271484375,-0.43035888671875,-0.87005615234375,-0.0077667236328125
1790936113731506700,5.631506591796875,-0.49163818359375,-0.8562164306640625,-0.0531158447265625
1790936113741479700,5.641479736328125,-0.4903717041015625,-0.8489990234375,-0.0691070556640625
1790936113751453700,5.65145361328125,-0.462799072265625,-0.8943634033203125,-0.068695068359375
1790936113761426700,5.6614267578125,-0.5250701904296875,-0.91278076171875,-0.0824737548828125
1790936113771400700,5.671400634765625,-0.54534912109375,-0.911956787109375,-0.0711517333984375
1790936113781374700,5.681374755859375,-0.5228729248046875,-0.8758697509765625,-0.025421142578125
1790936113791347700,5.69134765625,-0.4970703125,-0.8832244873046875,-0.0467529296875
1790936113801321500,5.701321533203125,-0.4106597900390625,-0.9241790771484375,-0.07537841796875
1790936113811294500,5.71129443359375,-0.384796142578125,-0.928131103515625,-0.1040496826171875
1790936113821268000,5.72126806640625,-0.406402587890625,-0.8714447021484375,-0.1261749267578125
1790936113831241700,5.73124169921875,-0.36785888671875,-0.8403778076171875,-0.1758575439453125
1790936113841215000,5.741215087890625,-0.382720947265625,-0.8453369140625,-0.0982818603515625
1790936113851189000,5.75118896484375,-0.3654022216796875,-0.9422607421875,-0.0732879638671875
1790936113861162000,5.761161865234375,-0.4295196533203125,-0.9019622802734375,-0.0048675537109375
1790936113871136000,5.771135986328125,-0.47125244140625,-0.8981781005859375,-0.0540008544921875
1790936113881110000,5.781110107421875,-0.5450897216796875,-0.8345947265625,-0.08624267578125
1790936113891082800,5.791082763671875,-0.4802093505859375,-0.9024505615234375,-0.0631561279296875
1790936113901056800,5.801056884765625,-0.410003662109375,-1.008697509765625,-0.0597991943359375
1790936113911030800,5.81103076171875,-0.4823455810546875,-1.0396728515625,-0.049468994140625
1790936113921003800,5.821003662109375,-0.471771240234375,-0.96649169921875,0.02813720703125
1790936113930977800,5.830977783203125,-0.448822021484375,-0.9163360595703125,0.0102996826171875
1790936113940950800,5.84095068359375,-0.4354400634765625,-0.8883514404296875,-0.034210205078125
1790936113950924800,5.8509248046875,-0.420501708984375,-0.91668701171875,-0.0062103271484375
1790936113960898800,5.86089892578125,-0.4174346923828125,-0.93182373046875,0.010528564453125
1790936113970871800,5.870871826171875,-0.5075225830078125,-0.8580169677734375,-0.0592803955078125
1790936113980845800,5.880845703125,-0.5420989990234375,-0.8111114501953125,0.0008544921875
1790936113990819000,5.890819091796875,-0.4592742919921875,-0.8746185302734375,-0.0007171630859375
1790936114000793000,5.90079296875,-0.5338134765625,-0.8784027099609375,0.0010986328125
1790936114010767000,5.91076708984375,-0.594268798828125,-0.870819091796875,-0.041290283203125
1790936114020739800,5.92073974609375,-0.5411529541015625,-0.881134033203125,-0.0356903076171875
1790936114030713900,5.9307138671875,-0.571685791015625,-0.8300628662109375,-0.0351715087890625
1790936114040686800,5.940686767578125,-0.5961761474609375,-0.8133392333984375,-0.024017333984375
1790936114050660900,5.950660888671875,-0.6297760009765625,-0.8295745849609375,0.016265869140625
1790936114060635000,5.960634765625,-0.421112060546875,-0.91558837890625,0.0557708740234375
1790936114070608000,5.97060791015625,-0.484649658203125,-0.8570404052734375,0.014923095703125
1790936114080582000,5.980581787109375,-0.4887237548828125,-0.7860870361328125,-0.060699462890625
1790936114090555000,5.990554931640625,-0.534912109375,-0.790435791015625,-0.1019439697265625
1790936114100529000,6.00052880859375,-0.4741058349609375,-0.8899993896484375,-0.099395751953125
1790936114110503000,6.0105029296875,-0.47528076171875,-0.9071502685546875,-0.10797119140625
1790936114120475600,6.0204755859375,-0.4881439208984375,-0.8596954345703125,-0.0713043212890625
1790936114130449700,6.03044970703125,-0.460418701171875,-0.860382080078125,-0.066925048828125
1790936114140423700,6.040423583984375,-0.3800201416015625,-0.957977294921875,-0.0063323974609375
1790936114150397000,6.05039697265625,-0.360137939453125,-0.981536865234375,0.028533935546875
1790936114160371000,6.060370849609375,-0.3530120849609375,-0.955963134765625,0.013702392578125
1790936114170344000,6.070343994140625,-0.465576171875,-0.8762359619140625,0.020843505859375
1790936114180318000,6.08031787109375,-0.5952606201171875,-0.8531951904296875,0.0616912841796875
1790936114190292000,6.0902919921875,-0.46258544921875,-0.960205078125,0.1152801513671875
1790936114200265000,6.100264892578125,-0.5037841796875,-0.9459228515625,0.188079833984375
1790936114210239000,6.110239013671875,-0.506195068359375,-0.953338623046875,0.117919921875
1790936114220212000,6.1202119140625,-0.42584228515625,-0.939483642578125,0.096588134765625
1790936114230186000,6.13018603515625,-0.3791046142578125,-0.925872802734375,0.011962890625
1790936114240160000,6.140159912109375,-0.3366851806640625,-0.9288482666015625,-0.08013916015625
1790936114250132700,6.1501328125,-0.3899383544921875,-0.87603759765625,-0.1392669677734375
1790936114260106800,6.160106689453125,-0.470062255859375,-0.8746490478515625,-0.10308837890625
1790936114270079700,6.170079833984375,-0.5164947509765625,-0.8582916259765625,-0.090728759765625
1790936114280053800,6.1800537109375,-0.490478515625,-0.901275634765625,-0.0456390380859375
1790936114290027800,6.19002783203125,-0.424346923828125,-0.949798583984375,-0.0622711181640625
1790936114300001000,6.2000009765625,-0.458953857421875,-0.9483795166015625,-0.0439910888671875
1790936114309974800,6.209974853515625,-0.4225006103515625,-0.935546875,-0.0333404541015625
1790936114319948000,6.219947998046875,-0.4150848388671875,-0.8580322265625,-0.0279541015625
1790936114329922000,6.229922119140625,-0.42657470703125,-0.8418121337890625,-0.0760345458984375
1790936114339896000,6.23989599609375,-0.3448333740234375,-0.904052734375,-0.063995361328125
1790936114349868800,6.249868896484375,-0.4125823974609375,-0.9022369384765625,-0.1147003173828125
1790936114359842800,6.2598427734375,-0.471832275390625,-0.9063568115234375,-0.1351165771484375
1790936114369816800,6.26981689453125,-0.43695068359375,-0.96002197265625,-0.1177825927734375
1790936114379789800,6.279789794921875,-0.5068359375,-0.912261962890625,-0.10821533203125
1790936114389763800,6.289763916015625,-0.449798583984375,-0.91461181640625,-0.047943115234375
1790936114399736800,6.29973681640625,-0.4672698974609375,-0.8947296142578125,0.03131103515625
1790936114409710800,6.3097109375,-0.4272003173828125,-0.9319000244140625,0.0677947998046875
1790936114419684900,6.319684814453125,-0.389373779296875,-0.9320831298828125,0.128021240234375
1790936114429657900,6.329657958984375,-0.4476165771484375,-0.932708740234375,0.131317138671875
1790936114439632000,6.3396318359375,-0.441009521484375,-0.880035400390625,0.06756591796875
1790936114449604900,6.34960498046875,-0.420684814453125,-0.87042236328125,0.0613250732421875
1790936114459579000,6.359578857421875,-0.4291229248046875,-0.8820648193359375,0.05645751953125
1790936114469552600,6.369552734375,-0.34320068359375,-0.935760498046875,0.0502777099609375
1790936114479526000,6.37952587890625,-0.3549041748046875,-0.9470977783203125,0.077789306640625
1790936114489500000,6.3895,-0.47283935546875,-0.886474609375,0.0601959228515625
1790936114499473000,6.399472900390625,-0.4129486083984375,-0.8872833251953125,0.0516815185546875
1790936114509447000,6.409447021484375,-0.4820098876953125,-0.9096527099609375,0.0508270263671875
1790936114519421000,6.4194208984375,-0.4404296875,-0.9571075439453125,0.0477142333984375
1790936114529394000,6.429393798828125,-0.3746185302734375,-0.956756591796875,-0.00616455078125
1790936114539368000,6.439367919921875,-0.4923095703125,-0.86444091796875,-0.0453643798828125
1790936114549341000,6.4493408203125,-0.4425811767578125,-0.817047119140625,-0.039825439453125
1790936114559315000,6.45931494140625,-0.35455322265625,-0.9303436279296875,-0.0403594970703125
1790936114569289000,6.4692890625,-0.3329010009765625,-1.010528564453125,-0.0865020751953125
1790936114579261700,6.47926171875,-0.50860595703125,-0.87567138671875,-0.085113525390625
1790936114589235700,6.489235595703125,-0.6015472412109375,-0.72747802734375,-0.0695648193359375
1790936114599208700,6.499208740234375,-0.4901580810546875,-0.7880096435546875,-0.0279998779296875
1790936114609182700,6.5091826171875,-0.344757080078125,-1.02581787109375,-0.0298004150390625
1790936114619156700,6.51915673828125,-0.38226318359375,-1.0162200927734375,-0.09771728515625
1790936114629130000,6.5291298828125,-0.60089111328125,-0.8487701416015625,-0.08770751953125
1790936114639104000,6.53910400390625,-0.4817352294921875,-0.8561248779296875,-0.068267822265625
1790936114649077000,6.549076904296875,-0.46710205078125,-0.9173583984375,-0.06219482421875
1790936114659051000,6.559051025390625,-0.4857025146484375,-0.9172210693359375,-0.073577880859375
1790936114669025000,6.56902490234375,-0.4511566162109375,-0.9138336181640625,-0.0048828125
1790936114678997800,6.578997802734375,-0.437286376953125,-0.9245147705078125,-0.0264434814453125
1790936114688971800,6.5889716796875,-0.3910064697265625,-0.9184417724609375,-0.0623016357421875
1790936114698945800,6.59894580078125,-0.4496612548828125,-0.8586883544921875,-0.124053955078125
1790936114708918800,6.608918701171875,-0.4696197509765625,-0.8594207763671875,-0.112335205078125
1790936114718892800,6.618892822265625,-0.406646728515625,-0.9306640625,-0.1199188232421875
1790936114728865800,6.62886572265625,-0.41546630859375,-0.9471588134765625,-0.1193084716796875
1790936114738839800,6.63883984375,-0.4498748779296875,-0.9141845703125,-0.1438140869140625
1790936114748813800,6.648813720703125,-0.4676513671875,-0.9129180908203125,-0.077789306640625
1790936114758786800,6.658786865234375,-0.3984832763671875,-1.012969970703125,-0.09539794921875
1790936114768760800,6.6687607421875,-0.415740966796875,-0.9326171875,-0.075653076171875
1790936114778734000,6.678734130859375,-0.535186767578125,-0.8616790771484375,-0.04278564453125
1790936114788708000,6.6887080078125,-0.3364410400390625,-0.9251251220703125,-0.0712127685546875
1790936114798681900,6.698681884765625,-0.3058319091796875,-0.9090576171875,-0.064056396484375
1790936114808654800,6.70865478515625,-0.4581756591796875,-0.813262939453125,-0.0448150634765625
1790936114818629400,6.71862939453125,-0.358673095703125,-0.810821533203125,-0.06268310546875
1790936114828602400,6.728602294921875,-0.507476806640625,-0.8449249267578125,-0.03875732421875
1790936114838576400,6.738576416015625,-0.651123046875,-0.84967041015625,-0.0121307373046875
1790936114848550400,6.74855029296875,-0.71099853515625,-0.8798828125,-0.0349884033203125
1790936114858523100,6.758523193359375,-0.626495361328125,-0.9278106689453125,-0.0442352294921875
1790936114868497200,6.7684970703125,-0.531158447265625,-0.9254608154296875,-0.0214691162109375
1790936114878470100,6.77847021484375,-0.4479522705078125,-0.90966796875,0.0063934326171875
1790936114888444200,6.788444091796875,-0.37847900390625,-0.882965087890625,-0.0765228271484375
1790936114898418200,6.798418212890625,-0.3471527099609375,-0.8306121826171875,0.0231781005859375
1790936114908391200,6.80839111328125,-0.38067626953125,-0.7471466064453125,-0.002227783203125
1790936114918365200,6.818365234375,-0.52117919921875,-0.7375030517578125,-0.053955078125
1790936114928338200,6.828338134765625,-0.5541839599609375,-0.833465576171875,-0.0035247802734375
1790936114938312200,6.838312255859375,-0.5436553955078125,-0.9176177978515625,0.014617919921875
1790936114948286200,6.8482861328125,-0.5935211181640625,-0.9069061279296875,-0.0274200439453125
1790936114958259200,6.85825927734375,-0.474945068359375,-0.9406585693359375,-0.0855255126953125
1790936114968233200,6.868233154296875,-0.5590362548828125,-0.887603759765625,-0.043731689453125
1790936114978206200,6.878206298828125,-0.46502685546875,-0.8903045654296875,-0.099945068359375
1790936114988180200,6.88818017578125,-0.4375457763671875,-0.8311767578125,-0.0894775390625
1790936114998154200,6.898154296875,-0.4790802001953125,-0.8380889892578125,-0.0666961669921875
1790936115008127200,6.908127197265625,-0.442779541015625,-0.8953094482421875,-0.0394439697265625
1790936115018101200,6.918101318359375,-0.505462646484375,-0.8716888427734375,-0.0757598876953125
1790936115028074200,6.92807421875,-0.4985198974609375,-0.8778839111328125,-0.1003570556640625
1790936115038048300,6.93804833984375,-0.368499755859375,-0.9912109375,-0.180450439453125
1790936115048022300,6.948022216796875,-0.47174072265625,-0.9114532470703125,-0.167083740234375
1790936115057995300,6.957995361328125,-0.500946044921875,-0.8714599609375,-0.1432342529296875
1790936115067969300,6.96796923828125,-0.446868896484375,-0.8848114013671875,-0.1492767333984375
1790936115077942000,6.97794189453125,-0.3604278564453125,-0.9232635498046875,-0.1963043212890625
1790936115087916000,6.987916015625,-0.473297119140625,-0.906494140625,-0.1109466552734375
1790936115097890000,6.99789013671875,-0.501312255859375,-0.88299560546875,-0.1213531494140625
1790936115107863300,7.00786328125,-0.47174072265625,-0.8565521240234375,-0.1032562255859375
1790936115117837300,7.01783740234375,-0.5634918212890625,-0.831298828125,-0.091827392578125
1790936115127810300,7.027810302734375,-0.388702392578125,-0.9321136474609375,-0.0577850341796875
1790936115137784300,7.037784423828125,-0.5224456787109375,-0.882659912109375,-0.0302734375
1790936115147758300,7.04775830078125,-0.56842041015625,-0.8700103759765625,0.077880859375
1790936115157731300,7.0577314453125,-0.4107513427734375,-0.922393798828125,0.043060302734375
1790936115167705300,7.067705322265625,-0.5255584716796875,-0.912750244140625,0.0398712158203125
1790936115177678000,7.077677978515625,-0.5521087646484375,-0.8631744384765625,-0.024749755859375
1790936115187652000,7.087652099609375,-0.443328857421875,-0.83697509765625,-0.015716552734375
1790936115197626000,7.097626220703125,-0.3757171630859375,-0.9273223876953125,-0.082977294921875
1790936115207599000,7.10759912109375,-0.4463653564453125,-0.90692138671875,-0.0638580322265625
1790936115217573000,7.117572998046875,-0.607147216796875,-0.7639312744140625,-0.025054931640625
1790936115227546000,7.127546142578125,-0.583984375,-0.7145843505859375,-0.0601348876953125
1790936115237520100,7.13752001953125,-0.31719970703125,-0.9542388916015625,-0.1236724853515625
1790936115247494100,7.147494140625,-0.3795928955078125,-1.0054473876953125,-0.132415771484375
1790936115257467400,7.15746728515625,-0.5785980224609375,-0.8117218017578125,-0.1163330078125
1790936115267441200,7.167441162109375,-0.4993896484375,-0.781646728515625,-0.05548095703125
1790936115277414400,7.177414306640625,-0.32855224609375,-0.946502685546875,-0.0920867919921875
1790936115287388400,7.187388427734375,-0.482208251953125,-0.9616851806640625,-0.124908447265625
1790936115297362200,7.197362060546875,-0.6578521728515625,-0.8145599365234375,-0.0907135009765625
1790936115307335200,7.207335205078125,-0.5408782958984375,-0.8229827880859375,-0.1141357421875
1790936115317309200,7.21730908203125,-0.39642333984375,-0.9116058349609375,-0.18231201171875
1790936115327282200,7.2272822265625,-0.4158935546875,-0.9184417724609375,-0.165069580078125
1790936115337256200,7.237256103515625,-0.517425537109375,-0.855682373046875,-0.1264190673828125
1790936115347230200,7.247230224609375,-0.4440460205078125,-0.8449249267578125,-0.17742919921875
1790936115357203200,7.257203125,-0.3097381591796875,-0.863128662109375,-0.143951416015625
1790936115367177200,7.26717724609375,-0.30792236328125,-0.9313812255859375,-0.1244354248046875
1790936115377150200,7.277150146484375,-0.4060211181640625,-0.9286651611328125,-0.1411285400390625
1790936115387124200,7.287124267578125,-0.3349761962890625,-0.9603729248046875,-0.1603546142578125
1790936115397098200,7.29709814453125,-0.4387969970703125,-0.875579833984375,-0.14483642578125
1790936115407071200,7.3070712890625,-0.427825927734375,-0.865447998046875,-0.157989501953125
1790936115417045000,7.317044921875,-0.395843505859375,-0.927490234375,-0.126312255859375
1790936115427018200,7.327018310546875,-0.3949737548828125,-1.00762939453125,-0.1528167724609375
1790936115436992300,7.3369921875,-0.389801025390625,-1.000640869140625,-0.157684326171875
1790936115446966300,7.34696630859375,-0.4949493408203125,-0.8645477294921875,-0.1118927001953125
1790936115456939300,7.356939208984375,-0.421661376953125,-0.891693115234375,-0.0835418701171875
1790936115466913300,7.366913330078125,-0.4111785888671875,-0.9345703125,-0.0977325439453125
1790936115476886300,7.37688623046875,-0.400421142578125,-0.92193603515625,-0.127410888671875
1790936115486860300,7.3868603515625,-0.5393218994140625,-0.8376312255859375,-0.05810546875
1790936115496834300,7.396834228515625,-0.51080322265625,-0.843475341796875,-0.0879364013671875
1790936115506807000,7.40680712890625,-0.4554290771484375,-0.850006103515625,-0.0093231201171875
1790936115516781000,7.416781005859375,-0.4733428955078125,-0.930328369140625,-0.0060272216796875
1790936115526754000,7.426754150390625,-0.47991943359375,-0.94525146484375,0.0170135498046875
1790936115536728000,7.43672802734375,-0.4720458984375,-0.8629608154296875,0.0068511962890625
1790936115546702000,7.4467021484375,-0.53875732421875,-0.8222808837890625,0.0118865966796875
1790936115556675000,7.456675048828125,-0.3851318359375,-0.87310791015625,-0.058868408203125
1790936115566649000,7.466649169921875,-0.381195068359375,-0.877899169921875,-0.0340728759765625
1790936115576622300,7.476622314453125,-0.4319305419921875,-0.84503173828125,-0.1059112548828125
1790936115586596400,7.486596435546875,-0.35955810546875,-0.882476806640625,-0.174102783203125
1790936115596570400,7.4965703125,-0.460906982421875,-0.8309326171875,-0.1959991455078125
1790936115606543400,7.50654345703125,-0.48065185546875,-0.8895721435546875,-0.178619384765625
1790936115616517400,7.516517333984375,-0.401092529296875,-0.9658660888671875,-0.229644775390625
1790936115626490000,7.526489990234375,-0.4661712646484375,-0.9186553955078125,-0.2042083740234375
1790936115636464000,7.536464111328125,-0.469757080078125,-0.9319610595703125,-0.13287353515625
1790936115646438100,7.546438232421875,-0.5777130126953125,-0.857086181640625,-0.110443115234375
1790936115656411100,7.5564111328125,-0.5384368896484375,-0.846923828125,-0.0837249755859375
1790936115666385200,7.56638525390625,-0.5368499755859375,-0.8421630859375,-0.1077117919921875
1790936115676358100,7.576358154296875,-0.450531005859375,-0.964996337890625,-0.111541748046875
1790936115686332200,7.586332275390625,-0.38275146484375,-0.99542236328125,-0.0845184326171875
1790936115696306200,7.59630615234375,-0.4210205078125,-0.9604034423828125,-0.0856170654296875
1790936115706279200,7.606279052734375,-0.4571533203125,-0.860992431640625,-0.09405517578125
1790936115716253200,7.616253173828125,-0.5059356689453125,-0.824859619140625,-0.0705718994140625
1790936115726226200,7.62622607421875,-0.41650390625,-0.8824920654296875,-0.055694580078125
1790936115736200200,7.6362001953125,-0.3675689697265625,-0.9546356201171875,0.0538330078125
1790936115746174200,7.64617431640625,-0.5503997802734375,-0.8413848876953125,0.070709228515625
1790936115756147200,7.656147216796875,-0.4646453857421875,-0.8468170166015625,0.0169830322265625
1790936115766121200,7.666121337890625,-0.47509765625,-0.841064453125,0.0276641845703125
1790936115776094200,7.67609423828125,-0.5034637451171875,-0.86871337890625,0.0283660888671875
1790936115786068200,7.686068115234375,-0.5250396728515625,-0.84051513671875,0.0694427490234375
1790936115796042200,7.696042236328125,-0.5053253173828125,-0.860870361328125,0.05950927734375
1790936115806015200,7.70601513671875,-0.536407470703125,-0.8345184326171875,0.1440277099609375
1790936115815989200,7.7159892578125,-0.40753173828125,-0.895416259765625,0.102142333984375
1790936115825962000,7.7259619140625,-0.556610107421875,-0.829315185546875,0.0703125
1790936115835936000,7.73593603515625,-0.487030029296875,-0.880859375,0.023681640625
1790936115845910000,7.745909912109375,-0.536529541015625,-0.8480072021484375,0.00201416015625
1790936115855883000,7.755883056640625,-0.5558319091796875,-0.84027099609375,-0.06866455078125
1790936115865856800,7.765856689453125,-0.471038818359375,-0.8893585205078125,-0.0727691650390625
1790936115875830000,7.775830078125,-0.545562744140625,-0.8659820556640625,-0.16595458984375
1790936115885804000,7.785803955078125,-0.6036529541015625,-0.8377532958984375,-0.20831298828125
1790936115895778000,7.795778076171875,-0.520751953125,-0.87481689453125,-0.292144775390625
1790936115905751000,7.8057509765625,-0.5098114013671875,-0.8838348388671875,-0.2738037109375
1790936115915725000,7.81572509765625,-0.41900634765625,-0.9337615966796875,-0.250640869140625
1790936115925698000,7.825697998046875,-0.4273529052734375,-0.927032470703125,-0.24444580078125
1790936115935672000,7.835672119140625,-0.5533294677734375,-0.8175506591796875,-0.266998291015625
1790936115945646000,7.84564599609375,-0.42218017578125,-0.85406494140625,-0.2002410888671875
1790936115955619000,7.855619140625,-0.405670166015625,-0.847442626953125,-0.190338134765625
1790936115965593000,7.865593017578125,-0.42010498046875,-0.9010772705078125,-0.2117156982421875
1790936115975565800,7.87556591796875,-0.5076141357421875,-0.8794403076171875,-0.1541290283203125
1790936115985539800,7.885539794921875,-0.460601806640625,-0.914459228515625,-0.1715240478515625
1790936115995513900,7.895513916015625,-0.4648895263671875,-0.8376007080078125,-0.10418701171875
1790936116005486800,7.90548681640625,-0.5410919189453125,-0.849884033203125,-0.0747222900390625
1790936116015460900,7.9154609375,-0.3984832763671875,-0.9522552490234375,-0.030303955078125
1790936116025434000,7.92543408203125,-0.377899169921875,-1.030914306640625,-0.008331298828125
1790936116035408100,7.935408203125,-0.5413360595703125,-0.9498138427734375,-0.0357666015625
1790936116045382100,7.945382080078125,-0.496307373046875,-0.8866119384765625,-0.0562744140625
1790936116055355100,7.955355224609375,-0.4943389892578125,-0.8968353271484375,-0.0186920166015625
1790936116065329200,7.9653291015625,-0.41644287109375,-1.00140380859375,0.0428466796875
1790936116075302000,7.975302001953125,-0.3917999267578125,-0.9723663330078125,0.0891876220703125
1790936116085276000,7.98527587890625,-0.4569854736328125,-0.849151611328125,0.0461883544921875
1790936116095250000,7.99525,-0.3596038818359375,-0.8701324462890625,0.06048583984375
1790936116105223000,8.005222900390624,-0.3157806396484375,-0.859283447265625,0.044097900390625
1790936116115197000,8.015197021484376,-0.3618011474609375,-0.785675048828125,-0.02349853515625
1790936116125170000,8.025169921875,-0.3290252685546875,-0.8380279541015625,-0.0544586181640625
1790936116135144000,8.03514404296875,-0.35638427734375,-0.868560791015625,-0.0266876220703125
1790936116145117000,8.045116943359375,-0.3568878173828125,-0.8775787353515625,-0.01373291015625
1790936116155091000,8.055091064453125,-0.36468505859375,-0.904022216796875,-0.049407958984375
1790936116165065000,8.06506494140625,-0.4476470947265625,-0.9590606689453125,-0.0611419677734375
1790936116175038200,8.0750380859375,-0.4704437255859375,-1.0057373046875,-0.0307159423828125
1790936116185012200,8.08501220703125,-0.554779052734375,-1.01861572265625,-0.00579833984375
1790936116194985000,8.09498486328125,-0.5913543701171875,-0.9349822998046875,-0.0195770263671875
1790936116204959000,8.104958984375,-0.5878753662109375,-0.8568115234375,0.004302978515625
1790936116214933000,8.11493310546875,-0.4844512939453125,-0.9022674560546875,0.046295166015625
1790936116224906000,8.124906005859375,-0.41009521484375,-0.9366455078125,0.0917510986328125
1790936116234880000,8.1348798828125,-0.45599365234375,-0.8089141845703125,0.0610198974609375
1790936116244853000,8.14485302734375,-0.4543609619140625,-0.836669921875,0.106170654296875
1790936116254827000,8.154826904296876,-0.354248046875,-0.965087890625,0.1218109130859375
1790936116264801000,8.164801025390625,-0.4650726318359375,-0.9765472412109375,0.0871124267578125
1790936116274774000,8.17477392578125,-0.506591796875,-0.9144439697265625,0.0586090087890625
1790936116284748000,8.184748046875,-0.4744873046875,-0.923583984375,-0.0169830322265625
1790936116294720800,8.194720703125,-0.470611572265625,-0.88592529296875,-0.063018798828125
1790936116304694800,8.20469482421875,-0.4216461181640625,-0.9337615966796875,-0.0379791259765625
1790936116314668800,8.214668701171876,-0.371063232421875,-0.91375732421875,-0.03399658203125
1790936116324642000,8.22464208984375,-0.409393310546875,-0.8759002685546875,-0.0482025146484375
1790936116334616000,8.234615966796875,-0.4172821044921875,-0.8867645263671875,-0.030670166015625
1790936116344589000,8.244589111328125,-0.3856964111328125,-0.9129486083984375,-0.0302886962890625
1790936116354563000,8.25456298828125,-0.3543853759765625,-0.9291534423828125,-0.09173583984375
1790936116364537000,8.264537109375,-0.3152313232421875,-0.939056396484375,-0.1158447265625
1790936116374510000,8.274510009765624,-0.3624420166015625,-0.90069580078125,-0.15643310546875
1790936116384484000,8.284484130859376,-0.416778564453125,-0.8491058349609375,-0.1242218017578125
1790936116394457000,8.29445703125,-0.439544677734375,-0.858123779296875,-0.12908935546875
1790936116404431000,8.30443115234375,-0.4307708740234375,-0.9114837646484375,-0.2237548828125
1790936116414405000,8.314405029296875,-0.347686767578125,-1.0289459228515625,-0.242584228515625
1790936116424377900,8.3243779296875,-0.493927001953125,-1.011474609375,-0.1248321533203125
1790936116434351900,8.334351806640624,-0.4699249267578125,-0.9654693603515625,-0.070770263671875
1790936116444324900,8.344324951171876,-0.51092529296875,-0.8560943603515625,0.002471923828125
1790936116454299000,8.354298828125,-0.50469970703125,-0.8770294189453125,-0.0517730712890625
1790936116464272100,8.364272216796875,-0.4028778076171875,-0.90948486328125,-0.177032470703125
1790936116474246100,8.37424609375,-0.3382720947265625,-0.962799072265625,0.0371246337890625
1790936116484220000,8.384219970703125,-0.5073699951171875,-0.8104095458984375,0.2166900634765625
1790936116494193200,8.394193115234375,-0.406494140625,-0.742919921875,0.13507080078125
1790936116504167200,8.404167236328124,-0.2793426513671875,-0.8948516845703125,-0.0034942626953125
1790936116514140000,8.414139892578126,-0.5126190185546875,-0.8670196533203125,0.0815887451171875
1790936116524114000,8.424114013671876,-0.665618896484375,-0.90264892578125,0.221282958984375
1790936116534088000,8.434087890625,-0.8318023681640625,-0.8885345458984375,0.2454833984375
1790936116544061000,8.44406103515625,-0.5980682373046875,-1.1601104736328125,0.1643524169921875
1790936116554035000,8.454034912109375,-0.6757049560546875,-1.0679779052734375,0.0481719970703125
1790936116564008000,8.464008056640624,-0.6248626708984375,-0.9905548095703125,0.0063629150390625
1790936116573982000,8.47398193359375,-0.3815155029296875,-0.9470367431640625,0.0091705322265625
1790936116583956000,8.4839560546875,-0.31207275390625,-0.86907958984375,-0.11761474609375
1790936116593929000,8.493928955078125,-0.4196319580078125,-0.7179107666015625,-0.129608154296875
1790936116603903000,8.503903076171875,-0.29443359375,-0.7750396728515625,-0.0551910400390625
1790936116613876200,8.513876220703125,-0.42950439453125,-0.800537109375,-0.088226318359375
1790936116623850000,8.52385009765625,-0.44085693359375,-0.896453857421875,-0.0964813232421875
1790936116633824000,8.533823974609374,-0.45220947265625,-0.9429779052734375,-0.1350250244140625
1790936116643797000,8.543796875,-0.558868408203125,-0.9307708740234375,-0.202178955078125
1790936116653771000,8.55377099609375,-0.5288238525390625,-0.9954833984375,-0.20068359375
1790936116663744000,8.563743896484375,-0.5453033447265625,-0.9043426513671875,-0.14776611328125
1790936116673718000,8.573718017578125,-0.5813751220703125,-0.8563079833984375,-0.1562042236328125
1790936116683692000,8.583692138671875,-0.525482177734375,-0.81805419921875,-0.1507110595703125
1790936116693665000,8.5936650390625,-0.403350830078125,-0.829803466796875,-0.1404571533203125
1790936116703639000,8.60363916015625,-0.3665008544921875,-0.819915771484375,-0.0870513916015625
1790936116713612000,8.613612060546876,-0.4055023193359375,-0.8100128173828125,-0.07562255859375
1790936116723586000,8.6235859375,-0.25531005859375,-0.84185791015625,0.0043487548828125
1790936116733558800,8.633558837890625,-0.4178619384765625,-0.725860595703125,-0.02471923828125
1790936116743532800,8.64353271484375,-0.456695556640625,-0.8094024658203125,-0.0218505859375
1790936116753506800,8.6535068359375,-0.5073699951171875,-0.8787384033203125,-0.027984619140625
1790936116763480000,8.66347998046875,-0.49639892578125,-0.948699951171875,-0.005340576171875
1790936116773453800,8.673453857421874,-0.6206512451171875,-0.8975830078125,-0.0296630859375
1790936116783427000,8.683427001953126,-0.672607421875,-0.828094482421875,-0.0396270751953125
1790936116793401000,8.693401123046876,-0.3915252685546875,-0.932708740234375,-0.132781982421875
1790936116803375000,8.703375,-0.3880157470703125,-0.899200439453125,-0.1171722412109375
1790936116813348000,8.71334814453125,-0.3325347900390625,-0.84869384765625,-0.012603759765625
1790936116823322000,8.723322021484375,-0.449676513671875,-0.792266845703125,0.0132904052734375
1790936116833295000,8.733295166015624,-0.5432281494140625,-0.78265380859375,-0.091094970703125
1790936116843269000,8.74326904296875,-0.322265625,-0.933502197265625,-0.1383819580078125
1790936116853243100,8.7532431640625,-0.4386444091796875,-0.8876190185546875,-0.10797119140625
1790936116863216000,8.763216064453125,-0.5913848876953125,-0.9120635986328125,-0.1306915283203125
1790936116873190100,8.773190185546875,-0.57977294921875,-0.9610748291015625,-0.1405792236328125
1790936116883163100,8.7831630859375,-0.478759765625,-1.0229949951171875,-0.1068115234375
1790936116893137200,8.79313720703125,-0.61187744140625,-0.968048095703125,-0.1173248291015625
1790936116903111200,8.803111083984374,-0.6864471435546875,-0.9072113037109375,-0.0128631591796875
1790936116913084000,8.813083984375,-0.6827239990234375,-0.89093017578125,0.028717041015625
1790936116923058000,8.823057861328126,-0.5790557861328125,-0.916229248046875,-0.00128173828125
1790936116933031200,8.83303125,-0.565887451171875,-0.9485321044921875,-0.076416015625
1790936116943005200,8.843005126953125,-0.5412750244140625,-0.8412628173828125,-0.048187255859375
1790936116952978200,8.852978271484375,-0.60064697265625,-0.8000946044921875,-0.0383148193359375
1790936116962952200,8.8629521484375,-0.4649200439453125,-0.8945770263671875,0.0448760986328125
1790936116972926200,8.87292626953125,-0.327667236328125,-0.9557647705078125,0.0416412353515625
1790936116982899200,8.882899169921876,-0.5484771728515625,-0.8318023681640625,-0.000152587890625
1790936116992873200,8.892873291015626,-0.384063720703125,-0.808990478515625,-0.0360870361328125
1790936117002846200,8.90284619140625,-0.439544677734375,-0.792266845703125,-0.04827880859375
1790936117012820000,8.912820068359375,-0.4829559326171875,-0.8444366455078125,-0.1086883544921875
1790936117022794000,8.9227939453125,-0.22021484375,-1.044647216796875,-0.135162353515625
1790936117032767000,8.93276708984375,-0.5811767578125,-0.8336181640625,-0.1715545654296875
1790936117042741000,8.942740966796874,-0.554443359375,-0.7843780517578125,-0.2176361083984375
1790936117052714000,8.9527138671875,-0.3723602294921875,-0.870361328125,-0.2438201904296875
1790936117062688000,8.96268798828125,-0.4443359375,-0.818634033203125,-0.20416259765625
1790936117072662000,8.972662109375,-0.505401611328125,-0.746337890625,-0.148529052734375
1790936117082635300,8.98263525390625,-0.5037689208984375,-0.79571533203125,-0.0658111572265625
1790936117092609300,8.992609375,-0.440460205078125,-0.8514404296875,-0.1164703369140625
1790936117102582300,9.002582275390624,-0.48199462890625,-0.8447113037109375,-0.0165863037109375
1790936117112556300,9.012556396484374,-0.4836883544921875,-0.928009033203125,0.101409912109375
1790936117122529000,9.022529052734376,-0.4877777099609375,-0.949676513671875,0.0753631591796875
1790936117132503000,9.0325029296875,-0.4926910400390625,-0.85296630859375,0.0620574951171875
1790936117142477000,9.04247705078125,-0.5425872802734375,-0.7735595703125,0.083251953125
1790936117152450000,9.052449951171875,-0.4729766845703125,-0.8686370849609375,0.0408935546875
1790936117162424000,9.062424072265625,-0.4504241943359375,-0.89593505859375,0.0597381591796875
1790936117172397000,9.07239697265625,-0.3971405029296875,-0.927398681640625,0.0736846923828125
1790936117182371000,9.08237109375,-0.516845703125,-0.84906005859375,0.0054473876953125
1790936117192345000,9.092344970703126,-0.443084716796875,-0.9354248046875,0.024627685546875
1790936117202318000,9.102318115234375,-0.452301025390625,-0.9233856201171875,-0.01312255859375
1790936117212292000,9.1122919921875,-0.513031005859375,-0.8863983154296875,-0.0504150390625
1790936117222265000,9.12226513671875,-0.5239105224609375,-0.8656005859375,-0.110595703125
1790936117232239000,9.132239013671875,-0.324554443359375,-0.9951019287109375,-0.1835174560546875
1790936117242213000,9.142213134765624,-0.3886260986328125,-0.96612548828125,-0.2624359130859375
1790936117252186000,9.15218603515625,-0.533935546875,-0.888336181640625,-0.20880126953125
1790936117262160100,9.16216015625,-0.5259857177734375,-0.9151763916015625,-0.15240478515625
1790936117272133000,9.172133056640625,-0.4153289794921875,-0.994354248046875,-0.18438720703125
1790936117282107100,9.182107177734375,-0.5295257568359375,-0.9269866943359375,-0.242340087890625
1790936117292080000,9.192080078125,-0.5488128662109375,-0.8534088134765625,-0.1768646240234375
1790936117302054100,9.20205419921875,-0.512176513671875,-0.8836822509765625,-0.1697845458984375
1790936117312028200,9.212028076171874,-0.3902435302734375,-0.9074554443359375,-0.1368560791015625
1790936117322001200,9.222001220703126,-0.3511505126953125,-0.8688812255859375,-0.0985260009765625
1790936117331975200,9.23197509765625,-0.524932861328125,-0.755126953125,-0.0180206298828125
1790936117341948200,9.2419482421875,-0.3331451416015625,-0.86468505859375,-0.032562255859375
1790936117351922000,9.251921875,-0.412353515625,-0.8649139404296875,-0.06500244140625
1790936117361896000,9.26189599609375,-0.4878997802734375,-0.8694305419921875,-0.022552490234375
1790936117371869200,9.271869140625,-0.5391998291015625,-0.9204254150390625,0.007843017578125
1790936117381843200,9.28184326171875,-0.604400634765625,-0.87664794921875,-0.003082275390625
1790936117391816200,9.291816162109376,-0.5218658447265625,-0.8939208984375,-0.004669189453125
1790936117401790200,9.301790283203125,-0.5614776611328125,-0.8630828857421875,0.032318115234375
1790936117411764200,9.31176416015625,-0.4803924560546875,-0.8806610107421875,0.0883026123046875
1790936117421737200,9.3217373046875,-0.5037078857421875,-0.8302001953125,0.079193115234375
1790936117431711200,9.331711181640625,-0.4078826904296875,-0.864410400390625,0.03656005859375
1790936117441684000,9.34168408203125,-0.3891754150390625,-0.8743743896484375,0.008453369140625
1790936117451658000,9.351657958984376,-0.563079833984375,-0.76544189453125,0.0669097900390625
1790936117461631000,9.361630859375,-0.621246337890625,-0.7851409912109375,0.0483856201171875
1790936117471605000,9.37160498046875,-0.61895751953125,-0.808349609375,-0.00787353515625
1790936117481579000,9.3815791015625,-0.70159912109375,-0.787109375,-0.0494232177734375
1790936117491552000,9.391552001953125,-0.6902923583984375,-0.7704620361328125,-0.0794830322265625
1790936117501526000,9.401526123046875,-0.617767333984375,-0.812713623046875,-0.11285400390625
1790936117511499300,9.411499267578124,-0.6901397705078125,-0.7490234375,-0.129119873046875
1790936117521473300,9.421473388671876,-0.60052490234375,-0.7762451171875,-0.132232666015625
1790936117531447300,9.431447265625,-0.6010284423828125,-0.7385711669921875,-0.0532379150390625
1790936117541420300,9.441420166015625,-0.385498046875,-0.853057861328125,-0.129638671875
1790936117551394300,9.451394287109375,-0.419677734375,-0.854278564453125,-0.252777099609375
1790936117561367000,9.461366943359375,-0.589630126953125,-0.78192138671875,-0.2285308837890625
1790936117571341000,9.471341064453124,-0.648284912109375,-0.7215728759765625,-0.1714324951171875
1790936117581315000,9.481315185546874,-0.508697509765625,-1.019775390625,-0.1520233154296875
1790936117591288000,9.4912880859375,-0.590972900390625,-0.9874267578125,-0.1200103759765625
1790936117601262000,9.501261962890625,-0.740447998046875,-0.74932861328125,-0.090118408203125
1790936117611235000,9.511235107421875,-0.4588775634765625,-0.850250244140625,-0.20013427734375
1790936117621209000,9.521208984375,-0.0951385498046875,-0.95831298828125,-0.34149169921875
1790936117631182000,9.53118212890625,-0.142608642578125,-1.0800018310546875,-0.2683868408203125
1790936117641156000,9.541156005859374,-0.3987884521484375,-0.9260711669921875,0.041778564453125
1790936117651130000,9.551130126953124,-0.3648223876953125,-0.9613189697265625,0.1917572021484375
1790936117661103000,9.56110302734375,-0.401885986328125,-0.8820037841796875,0.0679168701171875
1790936117671077000,9.5710771484375,-0.39886474609375,-0.890167236328125,-0.04296875
1790936117681050000,9.581050048828125,-0.3560333251953125,-1.0025787353515625,-0.14288330078125
1790936117691024100,9.591024169921875,-0.3615264892578125,-0.9593505859375,-0.119293212890625
1790936117700998100,9.600998046875,-0.3156890869140625,-1.00762939453125,-0.1291351318359375
1790936117710971100,9.61097119140625,-0.492401123046875,-0.925689697265625,-0.073394775390625
1790936117720945200,9.620945068359376,-0.4479827880859375,-1.0145416259765625,-0.017669677734375
1790936117730918100,9.630918212890625,-0.4930877685546875,-0.899871826171875,0.0012359619140625
1790936117740892200,9.64089208984375,-0.38641357421875,-0.90057373046875,-0.0115509033203125
1790936117750865200,9.650865234375,-0.41485595703125,-0.7798919677734375,-0.0195770263671875
1790936117760839200,9.660839111328125,-0.394683837890625,-0.8502655029296875,-0.0269775390625
1790936117770813200,9.670813232421875,-0.45904541015625,-0.8178253173828125,-0.043060302734375
1790936117780786000,9.680785888671876,-0.546875,-0.798980712890625,0.024810791015625
1790936117790760000,9.690760009765626,-0.660888671875,-0.775238037109375,0.002593994140625
1790936117800733200,9.700733154296875,-0.6052093505859375,-0.911376953125,-0.0031280517578125
1790936117810707200,9.710707275390625,-0.6910247802734375,-0.90802001953125,-0.0697479248046875
1790936117820681200,9.72068115234375,-0.6328887939453125,-0.8546905517578125,-0.11834716796875
1790936117830654500,9.730654541015625,-0.451751708984375,-0.991973876953125,-0.1701507568359375
1790936117840628500,9.74062841796875,-0.5305023193359375,-0.886016845703125,-0.1566925048828125
1790936117850601500,9.7506015625,-0.4568023681640625,-0.8958892822265625,-0.1494598388671875
1790936117860575500,9.760575439453126,-0.512969970703125,-0.7808074951171875,-0.1463470458984375
1790936117870549500,9.770549560546876,-0.360626220703125,-0.9039764404296875,-0.29705810546875
1790936117880522200,9.780522216796875,-0.3903961181640625,-0.87567138671875,-0.342041015625
1790936117890496300,9.790496337890625,-0.4912872314453125,-0.886199951171875,-0.29644775390625
1790936117900469200,9.80046923828125,-0.4905548095703125,-0.854034423828125,-0.2458648681640625
1790936117910443300,9.810443359375,-0.4640350341796875,-0.8832550048828125,-0.25811767578125
1790936117920416300,9.820416259765626,-0.37872314453125,-0.9460601806640625,-0.2171173095703125
1790936117930390300,9.830390380859376,-0.3664703369140625,-0.9254608154296875,-0.1557159423828125
1790936117940364300,9.8403642578125,-0.3647918701171875,-0.931884765625,-0.151885986328125
1790936117950337500,9.850337646484375,-0.4539337158203125,-0.87408447265625,-0.133514404296875
1790936117960311300,9.860311279296875,-0.4061126708984375,-0.8863983154296875,-0.0501556396484375
1790936117970284300,9.8702841796875,-0.3718414306640625,-0.906097412109375,0.0188751220703125
1790936117980258300,9.88025830078125,-0.5148162841796875,-0.8480377197265625,0.0490875244140625
1790936117990232300,9.890232421875,-0.5482025146484375,-0.8578033447265625,0.099700927734375
1790936118000205300,9.900205322265625,-0.519012451171875,-0.8723907470703125,0.1256561279296875
1790936118010179300,9.910179443359375,-0.4186553955078125,-0.8872833251953125,0.083160400390625
1790936118020152300,9.92015234375,-0.5034942626953125,-0.85601806640625,0.041351318359375
1790936118030126300,9.930126220703125,-0.50762939453125,-0.8814544677734375,0.0599212646484375
1790936118040099300,9.940099365234374,-0.35736083984375,-0.9697265625,0.090972900390625
1790936118050073300,9.9500732421875,-0.5385894775390625,-0.790771484375,0.098968505859375
1790936118060047400,9.96004736328125,-0.47833251953125,-0.834320068359375,0.0228271484375
1790936118070020400,9.970020263671875,-0.40911865234375,-0.92010498046875,-0.149169921875
1790936118079994400,9.979994384765625,-0.4857330322265625,-0.895233154296875,-0.18365478515625
1790936118089967400,9.98996728515625,-0.7467498779296875,-0.7412872314453125,-0.130462646484375
1790936118099941400,9.99994140625,-0.454254150390625,-0.8748016357421875,-0.068328857421875
1790936118109915100,10.0099150390625,-0.41461181640625,-0.965667724609375,-0.2039947509765625
1790936118119888400,10.019888427734376,-0.4744873046875,-0.8726043701171875,-0.1935882568359375
1790936118129862400,10.0298623046875,-0.5923614501953125,-0.8656005859375,-0.154541015625
1790936118139835400,10.03983544921875,-0.622100830078125,-0.89190673828125,-0.108184814453125
1790936118149809400,10.049809326171875,-0.532623291015625,-0.94451904296875,-0.138397216796875
1790936118159782400,10.059782470703125,-0.6622161865234375,-0.857086181640625,-0.124755859375
1790936118169756400,10.06975634765625,-0.440216064453125,-0.968658447265625,-0.1056671142578125
1790936118179730400,10.07973046875,-0.30462646484375,-0.95654296875,-0.0410919189453125
1790936118189703200,10.089703125,-0.349273681640625,-0.8516998291015625,-0.013427734375
1790936118199677200,10.09967724609375,-0.3298187255859375,-0.8676300048828125,0.0421295166015625
1790936118209650200,10.109650146484375,-0.370361328125,-0.9054107666015625,0.0413970947265625
1790936118219624200,10.119624267578125,-0.286468505859375,-0.9241943359375,0.01556396484375
1790936118229597400,10.129597412109375,-0.368072509765625,-0.89837646484375,0.0013427734375
1790936118239571500,10.139571533203124,-0.4089813232421875,-0.94403076171875,-0.043914794921875
1790936118249545200,10.149545166015624,-0.6089630126953125,-0.9497833251953125,-0.123382568359375
1790936118259518500,10.1595185546875,-0.684722900390625,-0.90069580078125,-0.13043212890625
1790936118269492500,10.169492431640625,-0.4912567138671875,-0.9963531494140625,-0.124908447265625
1790936118279465500,10.179465576171875,-0.57171630859375,-0.9173736572265625,-0.115966796875
1790936118289439500,10.189439453125,-0.400787353515625,-0.9580078125,-0.1095428466796875
1790936118299413500,10.19941357421875,-0.4524383544921875,-0.841796875,-0.1027374267578125
1790936118309386200,10.20938623046875,-0.4479827880859375,-0.856689453125,-0.13848876953125
1790936118319360300,10.2193603515625,-0.3838958740234375,-0.904541015625,-0.1092071533203125
1790936118329333200,10.229333251953125,-0.49078369140625,-0.800994873046875,0.0207061767578125
1790936118339307300,10.239307373046875,-0.6882476806640625,-0.7758331298828125,0.0441436767578125
1790936118349281300,10.24928125,-0.5089263916015625,-0.915130615234375,0.0014801025390625
1790936118359254300,10.259254150390625,-0.466552734375,-0.8826904296875,-0.029327392578125
1790936118369228300,10.269228271484375,-0.606903076171875,-0.693359375,0.0202484130859375
1790936118379201500,10.279201416015624,-0.4484710693359375,-0.787109375,0.0302734375
1790936118389175300,10.28917529296875,-0.461334228515625,-0.79339599609375,0.014190673828125
1790936118399148300,10.299148193359375,-0.592254638671875,-0.756683349609375,0.02825927734375
1790936118409122300,10.309122314453125,-0.508880615234375,-0.7900848388671875,0.0775299072265625
1790936118419096300,10.319096435546875,-0.57208251953125,-0.843017578125,0.0419769287109375
1790936118429069300,10.3290693359375,-0.60113525390625,-0.8480987548828125,-0.022735595703125
1790936118439043300,10.339043212890624,-0.5992279052734375,-0.857330322265625,-0.0239410400390625
1790936118449016300,10.349016357421876,-0.677154541015625,-0.7958831787109375,-0.046783447265625
1790936118458990300,10.358990234375,-0.466094970703125,-0.9472808837890625,-0.073516845703125
1790936118468963300,10.36896337890625,-0.4242095947265625,-0.9623870849609375,-0.0218658447265625
1790936118478937300,10.378937255859375,-0.50494384765625,-0.930511474609375,0.000244140625
1790936118488911400,10.388911376953125,-0.4593048095703125,-0.9243621826171875,-0.014617919921875
1790936118498884400,10.39888427734375,-0.3224029541015625,-0.965545654296875,-0.0858306884765625
1790936118508858400,10.4088583984375,-0.5916595458984375,-0.76812744140625,-0.0833892822265625
1790936118518831400,10.418831298828126,-0.4743804931640625,-0.818145751953125,-0.0823974609375
1790936118528805400,10.428805419921876,-0.4469146728515625,-0.904449462890625,-0.0571441650390625
1790936118538779100,10.438779052734375,-0.3932647705078125,-0.928070068359375,-0.1107330322265625
1790936118548752400,10.44875244140625,-0.4127349853515625,-0.863250732421875,-0.0758209228515625
1790936118558726400,10.458726318359375,-0.414306640625,-0.877838134765625,-0.0182647705078125
1790936118568699400,10.468699462890624,-0.4199371337890625,-0.87371826171875,-0.04290771484375
1790936118578673400,10.47867333984375,-0.41302490234375,-0.8577880859375,-0.0127410888671875
1790936118588646400,10.488646484375,-0.1951446533203125,-1.0372772216796875,-0.0262298583984375
1790936118598620400,10.498620361328125,-0.4455413818359375,-0.9649810791015625,-0.04534912109375
1790936118608594400,10.508594482421875,-0.572601318359375,-0.86004638671875,-0.053985595703125
1790936118618567200,10.518567138671875,-0.65924072265625,-0.8898162841796875,-0.0801849365234375
1790936118628541200,10.528541259765625,-0.5406646728515625,-0.96966552734375,-0.110565185546875
1790936118638514200,10.53851416015625,-0.5103302001953125,-0.91265869140625,-0.159332275390625
1790936118648488200,10.54848828125,-0.598175048828125,-0.828857421875,-0.120513916015625
1790936118658462200,10.558462158203126,-0.3807373046875,-0.9029388427734375,-0.055755615234375
1790936118668435500,10.568435546875,-0.4255218505859375,-0.8485107421875,-0.0906829833984375
1790936118678409200,10.5784091796875,-0.3925628662109375,-0.8397064208984375,-0.042449951171875
1790936118688382500,10.588382568359375,-0.2105712890625,-0.901153564453125,0.0252532958984375
1790936118698356500,10.5983564453125,-0.412872314453125,-0.8152313232421875,0.006683349609375
1790936118708329500,10.60832958984375,-0.3885955810546875,-0.8308563232421875,-0.0732421875
1790936118718303500,10.618303466796876,-0.593505859375,-0.792449951171875,-0.0867919921875
1790936118728277500,10.628277587890626,-0.762176513671875,-0.841552734375,-0.123870849609375
1790936118738250200,10.638250244140625,-0.611358642578125,-1.0173797607421875,-0.0868072509765625
1790936118748224300,10.648224365234375,-0.739715576171875,-0.938079833984375,-0.1074676513671875
1790936118758197200,10.658197265625,-0.7804412841796875,-0.826080322265625,-0.0649566650390625
1790936118768171300,10.668171142578124,-0.2598419189453125,-1.0283050537109375,-0.069580078125
1790936118778144300,10.678144287109374,-0.352325439453125,-0.8786468505859375,-0.10601806640625
1790936118788118300,10.6881181640625,-0.297698974609375,-0.84808349609375,0.043548583984375
1790936118798092300,10.69809228515625,-0.254364013671875,-0.8455810546875,0.089385986328125
1790936118808065500,10.7080654296875,-0.47149658203125,-0.7246246337890625,0.0274505615234375
1790936118818039300,10.718039306640625,-0.383087158203125,-0.9384613037109375,0.061187744140625
1790936118828012300,10.72801220703125,-0.4649810791015625,-0.958221435546875,0.0060577392578125
1790936118837986300,10.737986328125,-0.7983245849609375,-0.7516937255859375,-0.004638671875
1790936118847960300,10.747960205078124,-0.6324462890625,-0.864288330078125,-0.0469818115234375
1790936118857933300,10.757933349609376,-0.419403076171875,-1.0188140869140625,-0.159759521484375
1790936118867907300,10.7679072265625,-0.5708770751953125,-0.862640380859375,-0.1262664794921875
1790936118877880300,10.77788037109375,-0.6206817626953125,-0.729400634765625,-0.0512237548828125
1790936118887854300,10.787854248046875,-0.4268798828125,-0.8452606201171875,-0.0573272705078125
1790936118897827300,10.797827392578125,-0.3579559326171875,-0.8910064697265625,-0.1161346435546875
1790936118907801300,10.80780126953125,-0.52703857421875,-0.734466552734375,-0.0185394287109375
1790936118917775400,10.817775390625,-0.4622344970703125,-0.8242034912109375,0.0383758544921875
1790936118927748400,10.827748291015626,-0.5614471435546875,-0.8333282470703125,-0.036895751953125
1790936118937722400,10.837722412109375,-0.62579345703125,-0.824615478515625,-0.08734130859375
1790936118947695400,10.8476953125,-0.6899566650390625,-0.8418426513671875,-0.0254058837890625
1790936118957669400,10.85766943359375,-0.6229095458984375,-0.88128662109375,-0.125335693359375
1790936118967642400,10.867642333984374,-0.5399627685546875,-0.8750762939453125,-0.262359619140625
1790936118977616400,10.877616455078124,-0.4530792236328125,-0.8862762451171875,-0.22430419921875
1790936118987590400,10.88759033203125,-0.4696197509765625,-0.873748779296875,-0.0983428955078125
1790936118997563400,10.8975634765625,-0.48529052734375,-0.861083984375,-0.0890045166015625
1790936119007537400,10.907537353515625,-0.3728179931640625,-0.9468841552734375,-0.0768280029296875
1790936119017510400,10.917510498046875,-0.5438232421875,-0.908111572265625,-0.0443267822265625
1790936119027484400,10.927484375,-0.504852294921875,-0.90826416015625,0.0216827392578125
1790936119037457200,10.93745703125,-0.4685821533203125,-0.900115966796875,-0.0493011474609375
1790936119047431200,10.94743115234375,-0.3028411865234375,-1.0069732666015625,-0.14422607421875
1790936119057405200,10.9574052734375,-0.275238037109375,-0.995147705078125,-0.0662384033203125
1790936119067378200,10.967378173828125,-0.436126708984375,-0.8093719482421875,-0.028717041015625
1790936119077352200,10.977352294921875,-0.3690185546875,-0.853973388671875,-0.026458740234375
1790936119087325400,10.987325439453125,-0.235748291015625,-1.0498199462890625,-0.05902099609375
1790936119097299500,10.997299560546875,-0.5177459716796875,-0.86187744140625,-0.1701202392578125
1790936119107273200,11.007273193359374,-0.629364013671875,-0.872833251953125,-0.100921630859375
1790936119117246500,11.01724658203125,-0.4271392822265625,-1.0556640625,-0.080810546875
1790936119127220500,11.027220458984376,-0.53125,-0.96685791015625,-0.0810394287109375
1790936119137193500,11.037193359375,-0.60650634765625,-0.89910888671875,0.0234832763671875
1790936119147167500,11.04716748046875,-0.4667816162109375,-0.852386474609375,0.0998992919921875
1790936119157140200,11.05714013671875,-0.2701263427734375,-0.942108154296875,-0.022674560546875
1790936119167114200,11.0671142578125,-0.3349761962890625,-0.8919219970703125,-0.0397186279296875
1790936119177088300,11.077088134765624,-0.4488525390625,-0.8351287841796875,0.004364013671875
1790936119187061200,11.087061279296876,-0.5571441650390625,-0.743621826171875,-0.0101318359375
1790936119197035300,11.09703515625,-0.2713470458984375,-0.9784393310546875,-0.0517730712890625
1790936119207008300,11.10700830078125,-0.4408416748046875,-0.8905792236328125,-0.1082000732421875
1790936119216982300,11.116982177734375,-0.4516143798828125,-0.84063720703125,-0.0773773193359375
1790936119226955500,11.12695556640625,-0.571533203125,-0.812164306640625,-0.0729522705078125
1790936119236929500,11.136929443359374,-0.3433074951171875,-0.9941558837890625,-0.1023406982421875
1790936119246903300,11.1469033203125,-0.3958282470703125,-0.88385009765625,-0.1339569091796875
1790936119256876300,11.156876220703126,-0.560516357421875,-0.7879486083984375,-0.0931396484375
1790936119266850300,11.166850341796875,-0.3734588623046875,-0.9542236328125,-0.138580322265625
1790936119276823300,11.1768232421875,-0.44482421875,-0.9383544921875,-0.0951995849609375
1790936119286797300,11.18679736328125,-0.6751556396484375,-0.7971038818359375,0.0552825927734375
1790936119296771300,11.196771240234375,-0.5828857421875,-0.90325927734375,0.026611328125
1790936119306744300,11.206744384765624,-0.4368743896484375,-1.0208282470703125,-0.051849365234375
1790936119316718300,11.21671826171875,-0.480316162109375,-0.937408447265625,-0.037750244140625
1790936119326691300,11.22669140625,-0.5008087158203125,-0.8082733154296875,0.0016326904296875
1790936119336665300,11.236665283203125,-0.4415435791015625,-0.822357177734375,0.006683349609375
1790936119346638300,11.246638427734375,-0.3273162841796875,-0.8834381103515625,-0.1016082763671875
1790936119356612400,11.2566123046875,-0.3581390380859375,-0.8684234619140625,-0.12969970703125
1790936119366586400,11.26658642578125,-0.416717529296875,-0.8650360107421875,-0.0684967041015625
1790936119376559400,11.276559326171874,-0.6574859619140625,-0.8194732666015625,-0.0895233154296875
1790936119386533400,11.286533447265626,-0.583770751953125,-0.9544219970703125,-0.1486053466796875
1790936119396506400,11.29650634765625,-0.629974365234375,-0.9063262939453125,-0.1046142578125
1790936119406480400,11.30648046875,-0.6715240478515625,-0.8489990234375,-0.15032958984375
1790936119416453400,11.316453369140625,-0.4428558349609375,-0.950469970703125,-0.1220703125
1790936119426427400,11.326427490234375,-0.3765411376953125,-0.9307708740234375,-0.080078125
1790936119436401400,11.3364013671875,-0.4460601806640625,-0.8327484130859375,-0.0498046875
1790936119446374400,11.34637451171875,-0.2718353271484375,-0.85205078125,-0.019989013671875
1790936119456348400,11.356348388671876,-0.266937255859375,-0.846221923828125,-0.046630859375
1790936119466321200,11.366321044921875,-0.48046875,-0.805633544921875,-0.0418853759765625
1790936119476295200,11.376295166015625,-0.4913330078125,-0.845794677734375,0.014984130859375
1790936119486268200,11.38626806640625,-0.6038665771484375,-0.8954010009765625,-0.0735931396484375
1790936119496242200,11.3962421875,-0.6960906982421875,-0.926239013671875,-0.10772705078125
1790936119506216200,11.40621630859375,-0.8257293701171875,-0.9014892578125,-0.0585174560546875
1790936119516189400,11.416189453125,-0.589874267578125,-0.97393798828125,0.009979248046875
1790936119526163500,11.42616357421875,-0.45233154296875,-0.9544830322265625,-0.0658111572265625
1790936119536136400,11.436136474609375,-0.3502349853515625,-0.8436737060546875,-0.0412750244140625
1790936119546110500,11.4461103515625,-0.128570556640625,-0.86663818359375,-0.0095062255859375
1790936119556083500,11.45608349609375,-0.1122894287109375,-0.8330841064453125,0.036041259765625
1790936119566057500,11.466057373046874,-0.1422271728515625,-0.8270721435546875,-0.0374908447265625
1790936119576031500,11.476031494140624,-0.4633331298828125,-0.6560516357421875,0.0371856689453125
1790936119586004200,11.486004150390626,-0.6797637939453125,-0.791259765625,0.0758819580078125
1790936119595978200,11.495978271484375,-0.4590911865234375,-1.0190582275390625,-0.0177459716796875
1790936119605951200,11.505951171875,-0.986602783203125,-0.898406982421875,-0.1208343505859375
1790936119615925200,11.51592529296875,-1.006011962890625,-0.79046630859375,0.004364013671875
1790936119625899300,11.525899169921875,-0.65313720703125,-1.0765533447265625,-0.02734375
1790936119635872300,11.535872314453124,-0.666107177734375,-0.953216552734375,-0.1494140625
1790936119645846300,11.54584619140625,-0.2703857421875,-0.937835693359375,-0.1036224365234375
1790936119655819500,11.555819580078126,-0.3569488525390625,-0.7318878173828125,0.0890960693359375
1790936119665793500,11.56579345703125,-0.1146087646484375,-0.923095703125,0.105438232421875
1790936119675766300,11.575766357421875,-0.2416229248046875,-0.8629302978515625,0.0792236328125
1790936119685740300,11.585740234375,-0.8405914306640625,-0.722381591796875,0.015869140625
1790936119695714300,11.59571435546875,-0.396820068359375,-1.011993408203125,0.1186065673828125
1790936119705687300,11.605687255859374,-0.5577392578125,-0.9526214599609375,0.0680694580078125
1790936119715661300,11.615661376953126,-0.71563720703125,-0.8134307861328125,-0.118408203125
1790936119725634300,11.62563427734375,-0.3731842041015625,-1.0227813720703125,-0.24859619140625
1790936119735608300,11.6356083984375,-0.617645263671875,-0.7705230712890625,-0.166259765625
1790936119745581300,11.645581298828125,-0.205474853515625,-0.901336669921875,-0.144744873046875
1790936119755555300,11.655555419921875,-0.2978515625,-0.8597412109375,-0.101470947265625
1790936119765529300,11.665529296875,-0.5691986083984375,-0.743804931640625,-0.0250091552734375
1790936119775502300,11.67550244140625,-0.5404052734375,-0.861114501953125,-0.0677642822265625
1790936119785476400,11.685476318359376,-0.5366363525390625,-0.8720550537109375,-0.12640380859375
1790936119795449300,11.695449462890625,-0.4830474853515625,-0.9499053955078125,-0.1640625
1790936119805423400,11.70542333984375,-0.5454254150390625,-0.921234130859375,-0.097137451171875
1790936119815396400,11.715396240234375,-0.4966888427734375,-0.8939971923828125,-0.0538787841796875
1790936119825370600,11.72537060546875,-0.5393524169921875,-0.8175506591796875,-0.0681915283203125
1790936119835344600,11.7353447265625,-0.2966766357421875,-0.940399169921875,-0.1124114990234375
1790936119845317600,11.745317626953126,-0.3270416259765625,-0.941741943359375,-0.0257720947265625
1790936119855291600,11.755291748046876,-0.607879638671875,-0.782379150390625,-0.03411865234375
1790936119865264600,11.7652646484375,-0.6330413818359375,-0.78094482421875,-0.0310516357421875
1790936119875238700,11.77523876953125,-0.5290679931640625,-0.934661865234375,-0.0643157958984375
1790936119885211400,11.78521142578125,-0.5625152587890625,-0.9062347412109375,-0.0443572998046875
1790936119895185400,11.795185302734374,-0.6186981201171875,-0.7949066162109375,-0.0477447509765625
1790936119905159400,11.805159423828124,-0.5252532958984375,-0.800933837890625,-0.0217742919921875
1790936119915132400,11.81513232421875,-0.308868408203125,-0.89483642578125,-0.0954742431640625
1790936119925106400,11.8251064453125,-0.188507080078125,-1.035675048828125,-0.0305938720703125
1790936119935079700,11.83507958984375,-0.5031585693359375,-0.77044677734375,0.070068359375
1790936119945053700,11.8450537109375,-0.5668182373046875,-0.827545166015625,0.132171630859375
1790936119955026700,11.855026611328125,-0.297698974609375,-1.09228515625,-0.032867431640625
1790936119965000700,11.865000732421874,-0.510498046875,-0.9895782470703125,-0.040863037109375
1790936119974974700,11.874974609375,-0.7819061279296875,-0.769866943359375,-0.062774658203125
1790936119984947700,11.88494775390625,-0.486846923828125,-0.8987274169921875,-0.125518798828125
1790936119994921700,11.894921630859375,-0.4732818603515625,-0.867584228515625,-0.183746337890625
1790936120004894500,11.90489453125,-0.32904052734375,-0.8891143798828125,-0.1758270263671875
1790936120014868500,11.914868408203125,-0.2825775146484375,-0.9254150390625,-0.042633056640625
1790936120024841500,11.924841552734375,-0.352935791015625,-0.9942169189453125,0.03472900390625
1790936120034815500,11.9348154296875,-0.52154541015625,-0.82470703125,-0.01141357421875
1790936120044789500,11.94478955078125,-0.567626953125,-0.87091064453125,0.0264739990234375
1790936120054762500,11.954762451171876,-0.4623260498046875,-0.9828948974609375,-0.045013427734375
1790936120064736500,11.964736572265625,-0.583953857421875,-0.921539306640625,-0.011962890625
1790936120074709800,11.974709716796875,-0.7606048583984375,-0.772003173828125,-0.0479888916015625
1790936120084683800,11.984683837890625,-0.421478271484375,-0.891845703125,-0.0655975341796875
1790936120094656500,11.994656494140624,-0.435302734375,-0.873504638671875,-0.087554931640625
1790936120104630500,12.004630615234374,-0.3905487060546875,-0.8614349365234375,-0.0627288818359375
1790936120114604500,12.0146044921875,-0.418365478515625,-0.8203887939453125,0.0034942626953125
1790936120124577500,12.02457763671875,-0.5081939697265625,-0.8047332763671875,0.0361480712890625
1790936120134551600,12.034551513671875,-0.42962646484375,-0.8740997314453125,-0.002227783203125
1790936120144524500,12.044524658203125,-0.578582763671875,-0.8272705078125,-0.0086212158203125
1790936120154498600,12.05449853515625,-0.5585479736328125,-0.8878631591796875,0.020660400390625
1790936120164471600,12.064471435546874,-0.571624755859375,-0.8482513427734375,-0.0031585693359375
1790936120174445600,12.074445556640624,-0.4966583251953125,-0.8558197021484375,-0.0339202880859375
1790936120184419600,12.084419677734376,-0.4557647705078125,-0.8413543701171875,0.047637939453125
1790936120194392600,12.094392578125,-0.4754638671875,-0.867431640625,0.0417938232421875
1790936120204366600,12.10436669921875,-0.4021759033203125,-0.864593505859375,-0.087371826171875
1790936120214339600,12.114339599609375,-0.48724365234375,-0.84393310546875,-0.174346923828125
1790936120224313600,12.124313720703125,-0.6186981201171875,-0.8309173583984375,-0.1660308837890625
1790936120234286600,12.13428662109375,-0.3822784423828125,-0.960662841796875,-0.1212310791015625
1790936120244260600,12.144260498046876,-0.5807037353515625,-0.94281005859375,-0.1000823974609375
1790936120254234600,12.154234619140626,-0.5026397705078125,-0.8960723876953125,-0.10797119140625
1790936120264207600,12.16420751953125,-0.4439849853515625,-0.8858489990234375,-0.076995849609375
1790936120274181600,12.174181640625,-0.5330657958984375,-0.90167236328125,-0.09759521484375
1790936120284154600,12.184154541015625,-0.403411865234375,-0.97576904296875,-0.063568115234375
1790936120294128600,12.194128662109375,-0.5595550537109375,-0.8697662353515625,-0.0935821533203125
1790936120304101400,12.204101318359376,-0.5308685302734375,-0.95855712890625,-0.095611572265625
1790936120314075400,12.214075439453126,-0.359619140625,-1.00811767578125,-0.075897216796875
1790936120324049400,12.22404931640625,-0.451629638671875,-0.8983917236328125,-0.00714111328125
1790936120334022400,12.2340224609375,-0.3714752197265625,-0.8791656494140625,0.0523681640625
1790936120343996400,12.243996337890625,-0.3056793212890625,-0.9216461181640625,-0.0361480712890625
1790936120353969700,12.2539697265625,-0.47027587890625,-0.84423828125,-0.1105499267578125
1790936120363943700,12.263943603515624,-0.454803466796875,-0.8355712890625,-0.0675201416015625
1790936120373916700,12.273916748046876,-0.473419189453125,-0.8715667724609375,-0.0422515869140625
1790936120383890700,12.283890625,-0.518035888671875,-0.9079742431640625,-0.0727386474609375
1790936120393864700,12.29386474609375,-0.4875640869140625,-0.918426513671875,-0.1213226318359375
1790936120403837700,12.303837646484375,-0.52813720703125,-0.887725830078125,-0.04412841796875
1790936120413811700,12.313811767578125,-0.4532623291015625,-0.90887451171875,-0.0165863037109375
1790936120423784400,12.323784423828124,-0.51104736328125,-0.850982666015625,0.0587921142578125
1790936120433758500,12.333758544921874,-0.50885009765625,-0.8415679931640625,0.11114501953125
1790936120443731500,12.3437314453125,-0.5017242431640625,-0.8320465087890625,0.07257080078125
1790936120453705500,12.35370556640625,-0.5532379150390625,-0.8085174560546875,-0.016082763671875
1790936120463678700,12.3636787109375,-0.5612640380859375,-0.81829833984375,0.0289154052734375
1790936120473652500,12.373652587890625,-0.4991607666015625,-0.8492889404296875,-0.00164794921875
1790936120483626500,12.38362646484375,-0.5250396728515625,-0.874755859375,-0.0224151611328125
1790936120493599700,12.393599853515624,-0.53955078125,-0.8610382080078125,-0.01531982421875
1790936120503573800,12.40357373046875,-0.53472900390625,-0.802154541015625,-0.031036376953125
1790936120513546500,12.41354638671875,-0.6140289306640625,-0.786895751953125,0.0018310546875
1790936120523520500,12.4235205078125,-0.375213623046875,-0.9390716552734375,0.06658935546875
1790936120533493500,12.433493408203125,-0.3159332275390625,-0.9134979248046875,0.011932373046875
1790936120543467500,12.443467529296875,-0.4020843505859375,-0.82257080078125,-0.005615234375
1790936120553441500,12.453441650390625,-0.4379425048828125,-0.862213134765625,0.0184478759765625
1790936120563414500,12.46341455078125,-0.36590576171875,-0.8674468994140625,0.02593994140625
1790936120573388500,12.473388427734376,-0.674407958984375,-0.7975006103515625,-0.0096435546875
1790936120583361500,12.483361572265625,-0.4557952880859375,-0.9979400634765625,-0.1030426025390625
1790936120593335600,12.49333544921875,-0.63824462890625,-0.8973388671875,-0.133514404296875
1790936120603308800,12.503308837890625,-0.563018798828125,-0.87481689453125,-0.097686767578125
1790936120613282600,12.513282470703125,-0.2510986328125,-1.06402587890625,-0.1024017333984375
1790936120623256600,12.523256591796875,-0.6663818359375,-0.79931640625,-0.1559600830078125
1790936120633229600,12.5332294921875,-0.5472564697265625,-0.854248046875,-0.065582275390625
1790936120643203600,12.54320361328125,-0.256988525390625,-0.9696044921875,0.08660888671875
1790936120653176600,12.553176513671875,-0.5483856201171875,-0.8834686279296875,-0.036834716796875
1790936120663150600,12.563150634765625,-0.51068115234375,-0.8426971435546875,-0.0254364013671875
1790936120673123600,12.57312353515625,-0.4992523193359375,-0.8814239501953125,-0.040863037109375
1790936120683097600,12.58309765625,-0.48895263671875,-0.911407470703125,-0.1376190185546875
1790936120693071600,12.593071533203124,-0.5023345947265625,-0.8741302490234375,-0.1172332763671875
1790936120703044600,12.603044677734376,-0.568939208984375,-0.8974761962890625,-0.0337677001953125
1790936120713018600,12.6130185546875,-0.4757080078125,-0.970062255859375,-0.0062408447265625
1790936120722991400,12.622991455078125,-0.5080718994140625,-0.8697509765625,-0.002777099609375
1790936120732965400,12.63296533203125,-0.4792633056640625,-0.8419647216796875,-0.0024566650390625
1790936120742938600,12.642938720703125,-0.4619293212890625,-0.841278076171875,0.067474365234375
1790936120752912600,12.65291259765625,-0.403717041015625,-0.8456878662109375,0.0509185791015625
1790936120762885600,12.6628857421875,-0.39862060546875,-0.771881103515625,-0.0133209228515625
1790936120772859600,12.672859619140626,-0.451141357421875,-0.8140869140625,0.0379180908203125
1790936120782833700,12.682833740234376,-0.48016357421875,-0.8554229736328125,0.03106689453125
1790936120792806700,12.692806640625,-0.43792724609375,-0.9099578857421875,0.03680419921875
1790936120802780700,12.70278076171875,-0.5854644775390625,-0.86419677734375,0.044952392578125
1790936120812753700,12.712753662109375,-0.5768585205078125,-0.914215087890625,0.02740478515625
1790936120822727700,12.722727783203124,-0.5041351318359375,-0.9144287109375,0.0676422119140625
1790936120832700400,12.732700439453126,-0.46734619140625,-0.8962860107421875,0.0075836181640625
1790936120842674400,12.74267431640625,-0.4053955078125,-0.88861083984375,-0.0459747314453125
1790936120852648400,12.7526484375,-0.42333984375,-0.8142547607421875,0.007568359375
1790936120862621400,12.762621337890625,-0.459564208984375,-0.786590576171875,-0.0108489990234375
1790936120872595500,12.772595458984375,-0.3937225341796875,-0.8986968994140625,-0.1114654541015625
