time,seconds_elapsed,z,y,x
1790936108151262500,0.051262451171875,-0.2042388916015625,-0.22790560126304626,-0.018739067018032074
1790936108161236500,0.061236572265625,-0.24248135089874268,-0.2196980118751526,0.00355931487865746
1790936108171210500,0.07121044921875,-0.24929851293563843,-0.21218310296535492,0.010337325744330883
1790936108181183500,0.08118359375,-0.23580054938793182,-0.1974683403968811,-0.00830613262951374
1790936108191157500,0.091157470703125,-0.22452445328235626,-0.1953388750553131,-0.007665643002837896
1790936108201131500,0.101131591796875,-0.2032998502254486,-0.1964201182126999,-0.022354308515787125
1790936108211104500,0.1111044921875,-0.18891745805740356,-0.2065691500902176,-0.03358219563961029
1790936108221078300,0.121078369140625,-0.23455311357975006,-0.22408369183540344,-0.01164493802934885
1790936108231051500,0.131051513671875,-0.28408923745155334,-0.23463407158851624,-0.020851485431194305
1790936108241025500,0.141025634765625,-0.29472458362579346,-0.23651693761348724,-0.03199708089232445
1790936108250999600,0.15099951171875,-0.31153950095176697,-0.25176939368247986,-0.009787117131054401
1790936108260972500,0.16097265625,-0.30830830335617065,-0.26698777079582214,-0.020566260442137718
1790936108270946600,0.170946533203125,-0.3118281960487366,-0.28841981291770935,-0.024474982172250748
1790936108280920600,0.180920654296875,-0.3220424950122833,-0.31514835357666016,-0.011717109940946102
1790936108290893600,0.1908935546875,-0.3355710804462433,-0.3327595889568329,0.000568052229937166
1790936108300867600,0.20086767578125,-0.31450706720352173,-0.3343159258365631,-0.016016783192753792
1790936108310841600,0.210841552734375,-0.29891079664230347,-0.33226528763771057,-0.008469651453197002
1790936108320814600,0.220814697265625,-0.2981230318546295,-0.3273693323135376,0.01110671367496252
1790936108330788600,0.23078857421875,-0.29026246070861816,-0.3251402676105499,0.008771386928856373
1790936108340761300,0.24076123046875,-0.26592037081718445,-0.315083384513855,-0.005626993253827095
1790936108350735400,0.2507353515625,-0.2505595088005066,-0.29976168274879456,0.003853327827528119
1790936108360709400,0.26070947265625,-0.2288036197423935,-0.2785884737968445,0.011963984929025173
1790936108370682400,0.270682373046875,-0.19123093783855438,-0.2521536946296692,0.002008023438975215
1790936108380656400,0.280656494140625,-0.13367897272109985,-0.2294345200061798,-0.018437596037983894
1790936108390630400,0.29063037109375,-0.10221745073795319,-0.19525018334388733,0.011685417965054512
1790936108400603600,0.300603759765625,-0.07206806540489197,-0.1692689210176468,0.016830645501613617
1790936108410577400,0.310577392578125,0.015482819639146328,-0.1226915642619133,-0.009979663416743279
1790936108420551400,0.320551513671875,0.07841544598340988,-0.07154635339975357,-0.004019509069621563
1790936108430524700,0.330524658203125,0.11202693730592728,-0.04753769189119339,0.013288108631968498
1790936108440498700,0.340498779296875,0.16104188561439514,0.003555053612217307,-0.005215002223849297
1790936108450472700,0.35047265625,0.21326221525669098,0.0586787611246109,-0.023781761527061462
1790936108460445400,0.360445556640625,0.22136621177196503,0.07906738668680191,0.008988435380160809
1790936108470419500,0.37041943359375,0.23492969572544098,0.11788588762283325,0.0014687333023175597
1790936108480392400,0.380392333984375,0.2706669270992279,0.1526302844285965,-0.025120534002780914
1790936108490366500,0.390366455078125,0.2735857367515564,0.1623937040567398,-0.018161160871386528
1790936108500340500,0.400340576171875,0.2809634804725647,0.16493383049964905,-0.016217319294810295
1790936108510313500,0.4103134765625,0.3004586398601532,0.16455912590026855,-0.014374944381415844
1790936108520287500,0.42028759765625,0.33854609727859497,0.15903252363204956,-0.016164323315024376
1790936108530261500,0.430261474609375,0.3070520758628845,0.16057449579238892,0.004279167391359806
1790936108540234500,0.440234375,0.23458588123321533,0.09421251714229584,-0.0338093638420105
1790936108550208500,0.45020849609375,0.15112373232841492,0.061403706669807434,-0.061101969331502914
1790936108560182500,0.4601826171875,0.06178427115082741,0.06513319909572601,0.039801474660634995
1790936108570155300,0.4701552734375,0.13825879991054535,0.048957157880067825,-0.07077910006046295
1790936108580129300,0.48012939453125,0.11551221460103989,0.0427250936627388,0.010788732208311558
1790936108590102500,0.4901025390625,0.10684522241353989,0.05041683465242386,0.016956878826022148
1790936108600076500,0.50007666015625,0.12260820716619492,0.09960195422172546,-0.006191849708557129
1790936108610050600,0.510050537109375,0.15353097021579742,0.11346717178821564,-0.01455603912472725
1790936108620023600,0.5200234375,0.12336082011461258,0.16090339422225952,0.0632157176733017
1790936108629997600,0.52999755859375,0.18402735888957977,0.14749784767627716,-0.015185876749455929
1790936108639971600,0.5399716796875,0.16336096823215485,0.17422959208488464,-0.0236483383923769
1790936108649944600,0.549944580078125,0.1742064207792282,0.16968676447868347,-0.03562643751502037
1790936108659918600,0.559918701171875,0.27414846420288086,0.1250077188014984,-0.07328592985868454
1790936108669892600,0.569892578125,0.17807891964912415,0.0689881220459938,-0.0010034791193902493
1790936108679865600,0.579865478515625,-0.001743305241689086,-0.03144846856594086,-0.01871589757502079
1790936108689839600,0.589839599609375,-0.10663030296564102,-0.09347109496593475,-0.017947042360901833
1790936108699812400,0.599812255859375,-0.13575942814350128,-0.1433023065328598,-0.015846608206629753
1790936108709786400,0.609786376953125,-0.17793990671634674,-0.1924392133951187,0.06076614558696747
1790936108719760400,0.619760498046875,-0.16447682678699493,-0.19723983108997345,-0.006837399676442146
1790936108729733400,0.6297333984375,-0.1564287543296814,-0.19914372265338898,-0.046902261674404144
1790936108739707400,0.639707275390625,-0.27630987763404846,-0.19118674099445343,-0.019408319145441055
1790936108749681400,0.649681396484375,-0.3306383788585663,-0.20035892724990845,-0.04021080210804939
1790936108759654400,0.659654296875,-0.3280028998851776,-0.18274743854999542,-0.06994818896055222
1790936108769628400,0.66962841796875,-0.27764466404914856,-0.19150444865226746,-0.06767678260803223
1790936108779602400,0.6796025390625,-0.2799171507358551,-0.17514465749263763,-0.0528472363948822
1790936108789575700,0.68957568359375,-0.26061561703681946,-0.175156369805336,-0.05219316482543945
1790936108799549700,0.6995498046875,-0.24801219999790192,-0.17136801779270172,-0.044856153428554535
1790936108809523500,0.7095234375,-0.1969013512134552,-0.15052932500839233,-0.028198881074786186
1790936108819496400,0.719496337890625,-0.16768673062324524,-0.1412988007068634,-0.013996508903801441
1790936108829470500,0.729470458984375,-0.22880281507968903,-0.15230032801628113,-0.02171355113387108
1790936108839443500,0.739443359375,-0.2944454848766327,-0.1733424961566925,-0.029519010335206985
1790936108849417500,0.74941748046875,-0.3082808554172516,-0.1769484132528305,-0.011257714591920376
1790936108859391500,0.7593916015625,-0.26520928740501404,-0.19173933565616608,-0.015519305132329464
1790936108869364500,0.769364501953125,-0.21568381786346436,-0.21046829223632812,-0.03309909626841545
1790936108879338500,0.77933837890625,-0.25735536217689514,-0.2227606475353241,-0.020808875560760498
1790936108889312500,0.7893125,-0.30219554901123047,-0.26341885328292847,-0.01546684093773365
1790936108899285500,0.799285400390625,-0.3441339433193207,-0.2597474157810211,-0.009544769302010536
1790936108909259500,0.809259521484375,-0.35756292939186096,-0.24104776978492737,-0.023254189640283585
1790936108919233500,0.819233642578125,-0.36341044306755066,-0.23401755094528198,-0.03503148630261421
1790936108929206300,0.829206298828125,-0.4010462164878845,-0.22017790377140045,-0.012861469760537148
1790936108939180300,0.83918017578125,-0.4168265163898468,-0.22860202193260193,-0.00732422573491931
1790936108949153500,0.849153564453125,-0.40081533789634705,-0.2495989054441452,-0.02106906659901142
1790936108959127600,0.85912744140625,-0.37017005681991577,-0.2616230845451355,-0.01859179325401783
1790936108969101300,0.869101318359375,-0.336718887090683,-0.2656165063381195,-0.022842997685074806
1790936108979074600,0.879074462890625,-0.31989437341690063,-0.2513675093650818,-0.013666011393070221
1790936108989048600,0.889048583984375,-0.3075290620326996,-0.23811562359333038,-0.027101658284664154
1790936108999022600,0.899022705078125,-0.30562782287597656,-0.2511177062988281,-0.0432654470205307
1790936109008995600,0.90899560546875,-0.3552859127521515,-0.26751798391342163,-0.028444690629839897
1790936109018969600,0.918969482421875,-0.4208332300186157,-0.2772079110145569,-0.03982331231236458
1790936109028943600,0.928943603515625,-0.45794573426246643,-0.3047838807106018,-0.06712257862091064
1790936109038916400,0.938916259765625,-0.4751944839954376,-0.3245876729488373,-0.03880305588245392
1790936109048890400,0.948890380859375,-0.44768109917640686,-0.34213364124298096,-0.02166454866528511
1790936109058863400,0.95886328125,-0.44150683283805847,-0.3601438105106354,0.0014679343439638615
1790936109068837400,0.96883740234375,-0.4393070638179779,-0.3834632337093353,0.0024346618447452784
1790936109078811400,0.978811279296875,-0.43381616473197937,-0.3923265039920807,0.010448912158608437
1790936109088784400,0.988784423828125,-0.4012470245361328,-0.411615788936615,0.0015219965716823936
1790936109098758400,0.99875830078125,-0.36368927359580994,-0.4398562014102936,0.001936917076818645
1790936109108732400,1.008732421875,-0.3915989398956299,-0.46063393354415894,0.015513712540268898
1790936109118705400,1.018705322265625,-0.4755423069000244,-0.4350239038467407,0.008404936641454697
1790936109128679400,1.028679443359375,-0.48858964443206787,-0.4332750141620636,-0.02263287454843521
1790936109138653400,1.0386533203125,-0.39939531683921814,-0.4406612813472748,-0.021628063172101974
1790936109148626700,1.048626708984375,-0.3137158453464508,-0.4235808253288269,0.005831790156662464
1790936109158600400,1.058600341796875,-0.29052823781967163,-0.40017271041870117,0.019184879958629608
1790936109168573400,1.068573486328125,-0.24579457938671112,-0.34336748719215393,-0.015798671171069145
1790936109178547500,1.07854736328125,-0.1991351991891861,-0.27792802453041077,-0.005005677696317434
1790936109188521500,1.088521484375,-0.15260818600654602,-0.22343415021896362,0.00261868629604578
1790936109198494500,1.098494384765625,-0.10693603754043579,-0.17079970240592957,0.011930695734918118
1790936109208468500,1.108468505859375,-0.03862835094332695,-0.11925715208053589,-0.005977198481559753
1790936109218442500,1.1184423828125,0.02052338421344757,-0.07619570195674896,-0.010016148909926414
1790936109228415500,1.12841552734375,0.05476684123277664,-0.033075395971536636,0.0052205948159098625
1790936109238389500,1.138389404296875,0.08273003250360489,0.00021385183208622038,-0.003722300287336111
1790936109248362500,1.148362548828125,0.12133947759866714,0.025705896317958832,-0.0004918858758173883
1790936109258336500,1.15833642578125,0.17236776649951935,0.0369630791246891,-0.009236374869942665
1790936109268310500,1.168310546875,0.20250703394412994,0.03988270089030266,-0.015399462543427944
1790936109278283300,1.178283203125,0.19284588098526,0.0377175509929657,0.006539391819387674
1790936109288257300,1.18825732421875,0.18017908930778503,0.03803925961256027,0.024447552859783173
1790936109298231300,1.198231201171875,0.18136286735534668,0.059665992856025696,0.02490907721221447
1790936109308204300,1.208204345703125,0.19912216067314148,0.08305627107620239,0.011738681234419346
1790936109318178300,1.21817822265625,0.20017969608306885,0.09869195520877838,0.02569364570081234
1790936109328152300,1.22815234375,0.208088219165802,0.11586881428956985,0.03458061441779137
1790936109338125600,1.23812548828125,0.22280192375183105,0.14481471478939056,0.0218493714928627
1790936109348099600,1.248099609375,0.24428777396678925,0.17185059189796448,0.005274123977869749
1790936109358072600,1.258072509765625,0.26677975058555603,0.19806727766990662,0.014308365061879158
1790936109368046600,1.268046630859375,0.2975829541683197,0.22457878291606903,0.02346484549343586
1790936109378020600,1.2780205078125,0.3222712576389313,0.2468279004096985,-0.001205080421641469
1790936109387993600,1.28799365234375,0.32091331481933594,0.2519496977329254,0.016331568360328674
1790936109397967400,1.29796728515625,0.3082318603992462,0.26458293199539185,0.009925601072609425
1790936109407941400,1.30794140625,0.3118356466293335,0.27165892720222473,-0.006602775305509567
1790936109417914400,1.317914306640625,0.33108657598495483,0.2713492214679718,-0.017582189291715622
1790936109427888400,1.327888427734375,0.33633992075920105,0.26575949788093567,-0.009131180122494698
1790936109437861400,1.337861328125,0.31675317883491516,0.26309287548065186,-0.007399593014270067
1790936109447835400,1.34783544921875,0.2942630648612976,0.24348242580890656,-0.022098910063505173
1790936109457809400,1.357809326171875,0.2790057957172394,0.2025672197341919,-0.014725150540471077
1790936109467782400,1.367782470703125,0.25118961930274963,0.15986290574073792,-0.036069586873054504
1790936109477756400,1.37775634765625,0.2088642716407776,0.11195875704288483,-0.032771263271570206
1790936109487730400,1.38773046875,0.15146541595458984,0.05505393072962761,-0.01931644044816494
1790936109497703700,1.39770361328125,0.08140377700328827,0.007480286993086338,-0.00942093227058649
1790936109507677400,1.407677490234375,0.042755454778671265,-0.03754977136850357,-0.01786501705646515
1790936109517650400,1.417650390625,-0.01321087684482336,-0.07347527891397476,0.006961503066122532
1790936109527624400,1.42762451171875,-0.05715010315179825,-0.11376997828483582,0.026631344109773636
1790936109537598500,1.437598388671875,-0.0665004625916481,-0.1514774113893509,0.030725954100489616
1790936109547571500,1.447571533203125,-0.07891105860471725,-0.14569461345672607,0.023303192108869553
1790936109557545500,1.45754541015625,-0.09222020953893661,-0.13253434002399445,0.01967037469148636
1790936109567519500,1.46751953125,-0.0888260081410408,-0.11415160447359085,0.014791196212172508
1790936109577492500,1.477492431640625,-0.06577155739068985,-0.06441360712051392,0.0234717708081007
1790936109587466500,1.487466552734375,-0.008331965655088425,-0.011138671077787876,0.015536082908511162
1790936109597440500,1.4974404296875,0.054907988756895065,0.031679634004831314,0.022158298641443253
1790936109607413500,1.50741357421875,0.11222507804632187,0.06964752078056335,0.03538355603814125
1790936109617387500,1.517387451171875,0.15010134875774384,0.11605256795883179,0.035480231046676636
1790936109627360300,1.5273603515625,0.18473762273788452,0.1574639230966568,0.03443280979990959
1790936109637334300,1.537334228515625,0.20467405021190643,0.19746807217597961,0.05125173553824425
1790936109647308300,1.547308349609375,0.24267202615737915,0.23694729804992676,0.0313938744366169
1790936109657281300,1.55728125,0.2648734748363495,0.27735063433647156,0.029161080718040466
1790936109667255300,1.56725537109375,0.2845819294452667,0.295133113861084,0.015027685090899467
1790936109677229300,1.577229248046875,0.29794272780418396,0.287698358297348,0.008168714120984077
1790936109687202600,1.58720263671875,0.28451108932495117,0.26415762305259705,0.035401131957769394
1790936109697176600,1.597176513671875,0.2603397071361542,0.23867729306221008,0.033961694687604904
1790936109707149600,1.607149658203125,0.21530857682228088,0.20279864966869354,0.025618011131882668
1790936109717123600,1.61712353515625,0.14562112092971802,0.17102819681167603,0.05480838567018509
1790936109727097600,1.62709765625,0.11470873653888702,0.14083541929721832,0.061107296496629715
1790936109737070600,1.637070556640625,0.11781558394432068,0.13998480141162872,0.018555041402578354
1790936109747044600,1.647044677734375,0.1260993480682373,0.10750888288021088,-0.0019441075855866075
1790936109757018600,1.6570185546875,0.07490033656358719,0.054720502346754074,0.027880100533366203
1790936109766991400,1.666991455078125,0.019344402477145195,0.018228804692626,0.034867435693740845
1790936109776965400,1.67696533203125,-0.018971027806401253,-0.0010048106778413057,0.017422400414943695
1790936109786938400,1.6869384765625,-0.03699903190135956,-0.019996345043182373,0.012742160819470882
1790936109796912400,1.696912353515625,-0.04854969307780266,-0.020554542541503906,0.01727352850139141
1790936109806886400,1.706886474609375,-0.04176289215683937,-0.007368966471403837,-0.008386294357478619
1790936109816859400,1.716859375,-0.04646976292133331,-0.016318518668413162,-0.010692591778934002
1790936109826833400,1.72683349609375,-0.05541825294494629,-0.017426127567887306,0.012458533979952335
1790936109836807400,1.736807373046875,-0.034326549619436264,-0.011402057483792305,-0.007662979885935783
1790936109846780400,1.746780517578125,-0.02269226312637329,-0.027825506404042244,0.01233522966504097
1790936109856754400,1.75675439453125,-0.02484862506389618,-0.03605733811855316,0.027049195021390915
1790936109866727700,1.766727783203125,-0.027834028005599976,-0.03696547448635101,0.025136511772871017
1790936109876701700,1.77670166015625,-0.023148462176322937,-0.04566895216703415,0.008173507638275623
1790936109886675700,1.78667578125,-0.030590666458010674,-0.056644901633262634,0.011836419813334942
1790936109896648700,1.796648681640625,-0.0459216870367527,-0.0692102313041687,-0.009347961284220219
1790936109906622700,1.806622802734375,-0.06160584092140198,-0.1020217090845108,-0.007268565706908703
1790936109916596700,1.8165966796875,-0.1035413071513176,-0.14087243378162384,0.007210774812847376
1790936109926569700,1.82656982421875,-0.13825027644634247,-0.17467141151428223,0.013421799056231976
1790936109936543500,1.83654345703125,-0.14380031824111938,-0.1920754313468933,-0.0008263788768090308
1790936109946516500,1.8465166015625,-0.14326076209545135,-0.18627293407917023,0.019235480576753616
1790936109956490500,1.856490478515625,-0.1422000229358673,-0.16702547669410706,0.020283168181777
1790936109966464500,1.866464599609375,-0.13455595076084137,-0.1388034224510193,0.008538627065718174
1790936109976437500,1.8764375,-0.13276630640029907,-0.09804587066173553,0.005787581671029329
1790936109986411500,1.88641162109375,-0.1015348806977272,-0.06496036052703857,-0.004283428192138672
1790936109996385500,1.896385498046875,-0.06169745326042175,-0.03798386827111244,0.003944940399378538
1790936110006358500,1.906358642578125,-0.02425660379230976,0.03939773887395859,0.012345349416136742
1790936110016332500,1.91633251953125,0.07578583806753159,0.09554223716259003,-0.007650196552276611
1790936110026305800,1.926305908203125,0.09758354723453522,0.11440194398164749,0.019723637029528618
1790936110036279600,1.936279541015625,0.1505599468946457,0.1347293257713318,0.008888034150004387
1790936110046253600,1.946253662109375,0.1937745362520218,0.1816994845867157,0.001669003046117723
1790936110056226600,1.9562265625,0.21916963160037994,0.1580072045326233,0.0009898969437927008
1790936110066200600,1.96620068359375,0.20882298052310944,0.12922722101211548,-0.003522030543535948
1790936110076174600,1.976174560546875,0.1829857975244522,0.1189546138048172,-0.0006064017652533948
1790936110086147600,1.986147705078125,0.1443672925233841,0.1159130185842514,0.009002815932035446
1790936110096121600,1.99612158203125,0.1540532112121582,0.10629741102457047,-0.006816360633820295
1790936110106094600,2.006094482421875,0.17667649686336517,0.09977053850889206,0.03167004510760307
1790936110116068600,2.016068603515625,0.18256022036075592,0.10449045896530151,0.06095203384757042
1790936110126042600,2.026042724609375,0.2099529653787613,0.11661183089017868,0.03153768554329872
1790936110136015600,2.036015625,0.22446958720684052,0.12412434816360474,0.023033414036035538
1790936110145989600,2.04598974609375,0.21908068656921387,0.12131763994693756,0.014482269994914532
1790936110155963600,2.055963623046875,0.1930576115846634,0.1037660762667656,0.031924109905958176
1790936110165936400,2.065936279296875,0.1925034075975418,0.09045346826314926,0.039862725883722305
1790936110175910400,2.075910400390625,0.2059427797794342,0.10319509357213974,0.012999954633414745
1790936110185884400,2.085884521484375,0.22225837409496307,0.10459085553884506,0.0008572715451009572
1790936110195857400,2.095857421875,0.23981791734695435,0.10888014733791351,0.017223196104168892
1790936110205831400,2.10583154296875,0.23845438659191132,0.12733079493045807,0.013533119112253189
1790936110215804700,2.1158046875,0.2617320120334625,0.12068354338407516,-0.0022501046769320965
1790936110225778700,2.12577880859375,0.25456729531288147,0.09516645967960358,0.04928099736571312
1790936110235752700,2.135752685546875,0.2608904540538788,0.09539762884378433,0.020929517224431038
1790936110245725700,2.1457255859375,0.2743220925331116,0.07969136536121368,0.009491506032645702
1790936110255699700,2.15569970703125,0.2698594331741333,0.04596243053674698,0.02754986844956875
1790936110265673700,2.165673828125,0.2422986477613449,0.042391929775476456,0.006370281334966421
1790936110275646700,2.175646728515625,0.24877706170082092,0.032279375940561295,-0.0041161817498505116
1790936110285620700,2.185620849609375,0.21091437339782715,0.0400661937892437,0.03086497075855732
1790936110295593500,2.195593505859375,0.19160938262939453,0.03705602139234543,0.03394119068980217
1790936110305567500,2.2055673828125,0.19984014332294464,0.044444162398576736,0.03580034151673317
1790936110315541500,2.21554150390625,0.2620534598827362,0.06665119528770447,0.011626562103629112
1790936110325514500,2.225514404296875,0.32368138432502747,0.06516169011592865,0.037271738052368164
1790936110335488500,2.235488525390625,0.35282251238822937,0.09968078881502151,0.019825635477900505
1790936110345462500,2.245462646484375,0.38649097084999084,0.1308072805404663,0.010937602259218693
1790936110355435500,2.255435546875,0.3924380838871002,0.1648573875427246,0.027238013222813606
1790936110365409500,2.265409423828125,0.4323197305202484,0.23829299211502075,-0.0029590383637696505
1790936110375382800,2.2753828125,0.36595189571380615,0.22624272108078003,0.01703357882797718
1790936110385356500,2.2853564453125,0.3866015076637268,0.24079982936382294,0.04885222762823105
1790936110395330600,2.29533056640625,0.5337768197059631,0.36429885029792786,0.03670874610543251
1790936110405303600,2.305303466796875,0.4924975633621216,0.2593037486076355,0.059590891003608704
1790936110415277600,2.315277587890625,0.4333929717540741,0.25444266200065613,0.0836980938911438
1790936110425251600,2.32525146484375,0.5647736191749573,0.3658658564090729,0.01471582893282175
1790936110435224600,2.335224609375,0.5789483189582825,0.31582188606262207,-0.01594061776995659
1790936110445198600,2.345198486328125,0.4952337145805359,0.26025527715682983,0.04824529215693474
1790936110455171600,2.355171630859375,0.5354881882667542,0.3063521981239319,-0.05950593575835228
1790936110465145600,2.3651455078125,0.5577918887138367,0.2763245403766632,-0.02370852418243885
1790936110475119600,2.37511962890625,0.5561681389808655,0.28330734372138977,0.0023164174053817987
1790936110485092600,2.385092529296875,0.538706362247467,0.33453989028930664,-0.013369068503379822
1790936110495066600,2.395066650390625,0.5351696610450745,0.3466567397117615,0.004253334365785122
1790936110505040600,2.40504052734375,0.5993608832359314,0.36819133162498474,0.00016405072528868914
1790936110515013600,2.415013671875,0.6000338792800903,0.41582223773002625,0.009918410331010818
1790936110524987600,2.424987548828125,0.6039735078811646,0.4489050805568695,0.009424127638339996
1790936110534960400,2.43496044921875,0.6259147524833679,0.4682508409023285,0.018764900043606758
1790936110544934400,2.444934326171875,0.6826171875,0.4755476117134094,-0.0012032161466777325
1790936110554908400,2.454908447265625,0.7610328793525696,0.4690798819065094,0.021017666906118393
1790936110564881700,2.464881591796875,0.8242118954658508,0.49594929814338684,0.06368257105350494
1790936110574855700,2.474855712890625,0.8650636672973633,0.5128992795944214,0.058273427188396454
1790936110584829700,2.48482958984375,0.8953039050102234,0.5552312731742859,0.04500902071595192
1790936110594802700,2.494802734375,0.9114522337913513,0.605506956577301,0.020448284223675728
1790936110604776700,2.504776611328125,0.9197421073913574,0.6323897242546082,-0.00361763802357018
1790936110614749700,2.514749755859375,0.9228135347366333,0.6264335513114929,0.00004447478931979276
1790936110624723700,2.5247236328125,0.9598714113235474,0.640396773815155,-0.007725563831627369
1790936110634697700,2.53469775390625,1.0125223398208618,0.6616171002388,0.002703374717384577
1790936110644670500,2.54467041015625,1.0607093572616577,0.6807905435562134,-0.009762083180248737
1790936110654644500,2.55464453125,1.0790750980377197,0.6949707865715027,0.006929811555892229
1790936110664618500,2.564618408203125,1.0534194707870483,0.7234692573547363,-0.0057218014262616634
1790936110674591500,2.574591552734375,1.0151832103729248,0.7236388921737671,-0.011284345760941505
1790936110684565500,2.5845654296875,0.9728665947914124,0.7207648158073425,-0.046962980180978775
1790936110694538500,2.59453857421875,0.9492784142494202,0.6860902309417725,-0.007469367701560259
1790936110704512500,2.604512451171875,0.9287446737289429,0.6810730695724487,0.016043148934841156
1790936110714486500,2.614486572265625,0.9242457747459412,0.6890655159950256,0.04695499315857887
1790936110724459800,2.624459716796875,0.9469010233879089,0.717879593372345,0.000018908443962573074
1790936110734433500,2.63443359375,0.9377208352088928,0.7427124977111816,0.0429525263607502
1790936110744407600,2.644407470703125,0.9172179698944092,0.7686641812324524,0.020802749320864677
1790936110754380500,2.654380615234375,0.9136096835136414,0.7695028185844421,0.033846382051706314
1790936110764354600,2.6643544921875,0.8994032740592957,0.7836971879005432,0.006736998446285725
1790936110774327600,2.67432763671875,0.8703562021255493,0.786703884601593,0.016381369903683662
1790936110784301600,2.684301513671875,0.8692088723182678,0.7915385961532593,0.0556052066385746
1790936110794275600,2.694275634765625,0.8578976392745972,0.8082243800163269,0.06727437674999237
1790936110804248600,2.70424853515625,0.8599389791488647,0.7960135340690613,0.10190186649560928
1790936110814221800,2.714221923828125,0.8615517616271973,0.8047934174537659,0.10262437909841537
1790936110824195800,2.72419580078125,0.8347819447517395,0.811061680316925,0.0960056260228157
1790936110834168800,2.7341689453125,0.7914491295814514,0.8081697821617126,0.07150347530841827
1790936110844142800,2.744142822265625,0.7892919778823853,0.7985299229621887,0.060384780168533325
1790936110854115800,2.75411572265625,0.8041478991508484,0.7620773911476135,0.07689691334962845
1790936110864089900,2.76408984375,0.7919412851333618,0.7418384552001953,0.059851616621017456
1790936110874064000,2.77406396484375,0.7545433044433594,0.7383536696434021,0.06630898267030716
1790936110884037000,2.784037109375,0.7228303551673889,0.7250235080718994,0.11214917153120041
1790936110894011100,2.79401123046875,0.7097617387771606,0.7359198331832886,0.07814726233482361
1790936110903985000,2.80398486328125,0.700245201587677,0.7261595726013184,0.0864400863647461
1790936110913958100,2.813958251953125,0.7124102115631104,0.7099303007125854,0.048106543719768524
1790936110923932200,2.82393212890625,0.6892005205154419,0.7080820798873901,0.013013270683586597
1790936110933905000,2.83390478515625,0.667595624923706,0.6873568296432495,0.05819113552570343
1790936110943879000,2.84387890625,0.6239022016525269,0.6720524430274963,0.03828107565641403
1790936110953853000,2.85385302734375,0.5915828943252563,0.637417197227478,0.06323782354593277
1790936110963826000,2.863825927734375,0.583696722984314,0.6209045648574829,0.10331972688436508
1790936110973800000,2.873800048828125,0.5566331744194031,0.6149166822433472,0.10064538568258286
1790936110983774000,2.88377392578125,0.5634186267852783,0.5847851634025574,0.11658307164907455
1790936110993747000,2.893746826171875,0.5384365916252136,0.5876296758651733,0.08234307914972305
1790936111003721000,2.903720947265625,0.5068259239196777,0.5728395581245422,0.07860027253627777
1790936111013694000,2.91369384765625,0.5000865459442139,0.5754848718643188,0.08243868499994278
1790936111023668000,2.92366796875,0.4787950813770294,0.5903927087783813,0.08606377989053726
1790936111033642000,2.93364208984375,0.44271910190582275,0.6057384014129639,0.09623385965824127
1790936111043615000,2.943614990234375,0.4368327260017395,0.6042528748512268,0.11339793354272842
1790936111053589000,2.953589111328125,0.4176797866821289,0.6113880276679993,0.1083507090806961
1790936111063562800,2.963562744140625,0.4017101526260376,0.6077674627304077,0.11215396970510483
1790936111073536000,2.973535888671875,0.4454858601093292,0.5934092998504639,0.1262519508600235
1790936111083510000,2.983510009765625,0.48820483684539795,0.5984218716621399,0.11510901153087616
1790936111093483000,2.99348291015625,0.47162291407585144,0.6004506945610046,0.1423901617527008
1790936111103457000,3.00345703125,0.4462549686431885,0.586311936378479,0.19748111069202423
1790936111113431000,3.01343115234375,0.38725823163986206,0.5919943451881409,0.15782584249973297
1790936111123404000,3.023404052734375,0.3001880645751953,0.584735095500946,0.13930968940258026
1790936111133378000,3.0333779296875,0.23669137060642242,0.5845907330513,0.12581199407577515
1790936111143352000,3.04335205078125,0.26227396726608276,0.5542061924934387,0.11453350633382797
1790936111153324800,3.05332470703125,0.29452085494995117,0.48748818039894104,0.1281702220439911
1790936111163298800,3.063298828125,0.2689174711704254,0.4276874363422394,0.16386297345161438
1790936111173271800,3.073271728515625,0.17840169370174408,0.3987724184989929,0.09965282678604126
1790936111183245800,3.083245849609375,0.020443223416805267,0.3642338812351227,0.14820225536823273
1790936111193219800,3.0932197265625,-0.012299809604883194,0.32294318079948425,0.13224992156028748
1790936111203192800,3.10319287109375,0.0004700479330495,0.29432111978530884,0.14224421977996826
1790936111213166800,3.113166748046875,-0.03037974424660206,0.2431522011756897,0.20264285802841187
1790936111223140900,3.123140869140625,-0.029743514955043793,0.19927741587162018,0.16228024661540985
1790936111233114000,3.133114013671875,-0.052322592586278915,0.1917225569486618,0.0798112079501152
1790936111243088100,3.143088134765625,-0.11299818754196167,0.21139267086982727,0.09892018884420395
1790936111253061000,3.15306103515625,-0.09989038109779358,0.2530152201652527,0.12040417641401291
1790936111263035100,3.16303515625,-0.08750135451555252,0.29976460337638855,0.1254950761795044
1790936111273009200,3.173009033203125,-0.09117384999990463,0.3113131523132324,0.15834489464759827
1790936111282982000,3.18298193359375,-0.06011047586798668,0.2997957766056061,0.11700251698493958
1790936111292956000,3.192955810546875,-0.10930438339710236,0.2931983172893524,0.12886902689933777
1790936111302930000,3.202929931640625,-0.2343621701002121,0.25741368532180786,0.22021439671516418
1790936111312903000,3.21290283203125,-0.33275851607322693,0.2397766411304474,0.1993117779493332
1790936111322877000,3.222876953125,-0.43091198801994324,0.1987631618976593,0.20304818451404572
1790936111332850000,3.232849853515625,-0.4932001233100891,0.1490592509508133,0.18028801679611206
1790936111342824000,3.242823974609375,-0.48651424050331116,0.08250952512025833,0.16147305071353912
1790936111352798000,3.2527978515625,-0.5132111310958862,0.014663098379969597,0.19583581387996674
1790936111362771000,3.26277099609375,-0.5461844801902771,-0.024354875087738037,0.10347206145524979
1790936111372745000,3.272744873046875,-0.5463232398033142,-0.04622209072113037,0.05742254480719566
1790936111382718000,3.282718017578125,-0.5399002432823181,-0.04062199592590332,0.06142447888851166
1790936111392692000,3.29269189453125,-0.5545598864555359,-0.02503957226872444,0.10756054520606995
1790936111402665700,3.302665771484375,-0.5637387633323669,-0.01618403010070324,0.10090743750333786
1790936111412639000,3.312638916015625,-0.5897668600082397,-0.01005076989531517,0.07142224907875061
1790936111422613000,3.322613037109375,-0.5823273062705994,-0.021890385076403618,0.09422130882740021
1790936111432587000,3.3325869140625,-0.5840394496917725,-0.042884085327386856,0.10413013398647308
1790936111442560000,3.34256005859375,-0.6558572053909302,-0.1011042445898056,0.11769440770149231
1790936111452534000,3.352533935546875,-0.6577949523925781,-0.18503883481025696,0.07078815251588821
1790936111462507000,3.362507080078125,-0.7301588654518127,-0.21864312887191772,0.036611273884773254
1790936111472481000,3.37248095703125,-0.8116076588630676,-0.2969323396682739,0.08322484791278839
1790936111482455000,3.382455078125,-0.8587895631790161,-0.36378034949302673,-0.004727110732346773
1790936111492428000,3.392427978515625,-0.9661572575569153,-0.43593549728393555,0.06314301490783691
1790936111502402000,3.402402099609375,-1.030799388885498,-0.5368972420692444,0.04212161898612976
1790936111512376000,3.4123759765625,-1.0995938777923584,-0.6054922938346863,0.0023246733471751213
1790936111522348800,3.422348876953125,-1.13078773021698,-0.6777960658073425,-0.018745457753539085
1790936111532322800,3.43232275390625,-1.201366662979126,-0.6983671188354492,-0.11801531910896301
1790936111542295800,3.4422958984375,-1.2023847103118896,-0.7616574168205261,-0.09021058678627014
1790936111552269800,3.452269775390625,-1.2135926485061646,-0.7627860307693481,-0.09003695100545883
1790936111562243800,3.462243896484375,-1.236124873161316,-0.7767695188522339,-0.016993097960948944
1790936111572217000,3.472217041015625,-1.2175322771072388,-0.7790781855583191,-0.01375016663223505
1790936111582191000,3.482191162109375,-1.2551928758621216,-0.7611181139945984,-0.03593163564801216
1790936111592165000,3.4921650390625,-1.277746558189392,-0.8064126372337341,0.04314986616373062
1790936111602138000,3.50213818359375,-1.1845312118530273,-0.7848399877548218,-0.11115847527980804
1790936111612112100,3.512112060546875,-1.1021300554275513,-0.7100386619567871,-0.031021298840641975
1790936111622084900,3.5220849609375,-1.0622318983078003,-0.6766484975814819,-0.005308745428919792
1790936111632059000,3.532058837890625,-0.9380888938903809,-0.64332515001297,-0.04784715175628662
1790936111642033000,3.542032958984375,-0.8554264903068542,-0.5516413450241089,-0.04496028274297714
1790936111652006000,3.552005859375,-0.7894413471221924,-0.4904530644416809,-0.01613742485642433
1790936111661980000,3.56197998046875,-0.6962533593177795,-0.4103752672672272,0.007625162601470947
1790936111671954000,3.571953857421875,-0.6008224487304688,-0.3831886649131775,-0.0017323862994089723
1790936111681927000,3.581927001953125,-0.4670630693435669,-0.3304460942745209,-0.05271008238196373
1790936111691901000,3.59190087890625,-0.3589048981666565,-0.2925671637058258,-0.015413844026625156
1790936111701874000,3.6018740234375,-0.2693944573402405,-0.28151530027389526,-0.004239752423018217
1790936111711848000,3.611847900390625,-0.31101781129837036,-0.26759815216064453,0.013380520045757294
1790936111721822000,3.621822021484375,-0.3327641189098358,-0.2971440553665161,-0.00024501082953065634
1790936111731795200,3.631795166015625,-0.32945379614830017,-0.363163560628891,0.05333273112773895
1790936111741769000,3.64176904296875,-0.2573726773262024,-0.372950941324234,0.07144462317228317
1790936111751742700,3.65174267578125,-0.1898048222064972,-0.2737378180027008,0.08517641574144363
1790936111761716000,3.661716064453125,-0.19243043661117554,-0.27801722288131714,0.12777873873710632
1790936111771690000,3.67168994140625,-0.16506777703762054,-0.22208499908447266,0.03063487447798252
1790936111781663000,3.6816630859375,-0.14836923778057098,-0.18824315071105957,-0.04830228537321091
1790936111791637000,3.691636962890625,-0.1673530489206314,-0.2415202111005783,0.018032796680927277
1790936111801611000,3.701611083984375,-0.11167752742767334,-0.26399701833724976,0.10514266788959503
1790936111811584000,3.711583984375,-0.13646996021270752,-0.2644854485988617,0.1377384215593338
1790936111821558000,3.72155810546875,-0.19407066702842712,-0.2915509045124054,0.14241626858711243
1790936111831531000,3.731531005859375,-0.16219529509544373,-0.2888115644454956,0.09384100884199142
1790936111841505000,3.741505126953125,-0.14020690321922302,-0.22778283059597015,0.04193786159157753
1790936111851479000,3.75147900390625,-0.10446462035179138,-0.1778956949710846,0.035824310034513474
1790936111861451800,3.76145166015625,-0.05615967512130737,-0.11743714660406113,-0.029224198311567307
1790936111871425800,3.77142578125,-0.014152037911117077,-0.0873309075832367,-0.06415341794490814
1790936111881399800,3.78139990234375,0.0582025870680809,-0.0780215635895729,-0.014750183559954166
1790936111891372800,3.791372802734375,0.15676963329315186,-0.017529193311929703,-0.04151708260178566
1790936111901346800,3.801346923828125,0.17252783477306366,0.04060707986354828,-0.017618674784898758
1790936111911320000,3.811320068359375,0.18266728520393372,0.07268272340297699,0.011539210565388203
1790936111921294000,3.821294189453125,0.2080053985118866,0.09936840087175369,0.014624216593801975
1790936111931268000,3.83126806640625,0.19087354838848114,0.1121813952922821,0.0656445249915123
1790936111941241000,3.841240966796875,0.09830766171216965,0.1399187594652176,0.08906196802854538
1790936111951215000,3.851215087890625,0.015862319618463516,0.19519080221652985,0.16420331597328186
1790936111961189000,3.861189208984375,0.11141733825206757,0.27543503046035767,0.0013651363551616669
1790936111971161900,3.871161865234375,0.20676302909851074,0.281538724899292,0.197626531124115
1790936111981136000,3.881135986328125,0.4565350413322449,0.28894978761672974,-0.019032280892133713
1790936111991108900,3.89110888671875,0.5337480902671814,0.2862301468849182,0.11995942890644073
1790936112001083000,3.901082763671875,0.5782569646835327,0.28041914105415344,0.10299962013959885
1790936112011057000,3.911056884765625,0.5058650374412537,0.3022962212562561,0.10989960283041
1790936112021030000,3.92102978515625,0.38584837317466736,0.33215025067329407,0.1732117235660553
1790936112031004000,3.93100390625,0.27783480286598206,0.33497318625450134,-0.011514975689351559
1790936112040978000,3.94097802734375,0.16296015679836273,0.237770214676857,0.06515823304653168
1790936112050951000,3.950950927734375,0.07437223196029663,0.11631862074136734,0.08246345072984695
1790936112060925000,3.960925048828125,0.042930956929922104,-0.010522948578000069,0.07461591064929962
1790936112070898200,3.970898193359375,-0.012564261443912983,-0.08877194672822952,0.09008781611919403
1790936112080872000,3.980871826171875,-0.11747975647449493,-0.11774687469005585,0.10763511806726456
1790936112090846000,3.990845947265625,-0.18351683020591736,-0.11846752464771271,0.01672758162021637
1790936112100819000,4.00081884765625,-0.24225124716758728,-0.09069208800792694,-0.03592284768819809
1790936112110793000,4.01079296875,-0.25851675868034363,-0.08879031985998154,0.0903506651520729
1790936112120767000,4.02076708984375,-0.18242652714252472,-0.06559445708990097,-0.006604905705899
1790936112130740000,4.030739990234375,-0.0922716036438942,-0.045034851878881454,-0.04104437306523323
1790936112140714000,4.0407138671875,-0.08732505142688751,-0.020772656425833702,0.05013427510857582
1790936112150687000,4.05068701171875,-0.07975821197032928,0.01116050872951746,0.12440957129001617
1790936112160661000,4.060660888671875,-0.06490709632635117,0.0486982986330986,0.1260141283273697
1790936112170635000,4.070635009765625,-0.05074040964245796,0.08622276782989502,0.05234842374920845
1790936112180608000,4.08060791015625,-0.07199855893850327,0.138712078332901,0.11083757132291794
1790936112190582000,4.09058203125,-0.01176451425999403,0.17140157520771027,0.0180575642734766
1790936112200556000,4.10055615234375,0.1022787019610405,0.18652327358722687,-0.06834550201892853
1790936112210528800,4.11052880859375,0.15514057874679565,0.1786581575870514,-0.0028929917607456446
1790936112220502800,4.120502685546875,0.1283148229122162,0.18073302507400513,0.030195452272892
1790936112230475800,4.130475830078125,0.0754886344075203,0.1388702690601349,0.03948722034692764
1790936112240449800,4.14044970703125,0.011355452239513397,0.0844363197684288,0.027521373704075813
1790936112250423800,4.150423828125,-0.04915183410048485,0.017412811517715454,0.043289683759212494
1790936112260397000,4.16039697265625,-0.05306428298354149,-0.023734623566269875,-0.028194086626172066
1790936112270371000,4.17037109375,-0.08695540577173233,-0.04315812140703201,0.0031103058718144894
1790936112280344000,4.180343994140625,-0.13582786917686462,-0.061594922095537186,0.011188472621142864
1790936112290318000,4.190318115234375,-0.16347575187683105,-0.07398661226034164,0.0007145261042751372
1790936112300292000,4.2002919921875,-0.18564735352993011,-0.09226495027542114,0.030482275411486626
1790936112310265000,4.21026513671875,-0.2049715220928192,-0.10956111550331116,0.08523526787757874
1790936112320239000,4.220239013671875,-0.16781537234783173,-0.12505671381950378,0.03686480596661568
1790936112330213000,4.230213134765625,-0.11380939185619354,-0.14050064980983734,0.009740778245031834
1790936112340185900,4.240185791015625,-0.10132129490375519,-0.11479608714580536,0.008146876469254494
1790936112350160000,4.250159912109375,-0.10224274545907974,-0.08430182933807373,-0.027578897774219513
1790936112360132900,4.2601328125,-0.11352070420980453,-0.05806197226047516,-0.010001501068472862
1790936112370107000,4.27010693359375,-0.14007695019245148,-0.031001858413219452,0.011559717357158661
1790936112380081000,4.280080810546875,-0.15322071313858032,-0.030917968600988388,0.04651983082294464
1790936112390054000,4.290053955078125,-0.14693911373615265,-0.022667229175567627,0.03002873808145523
1790936112400028000,4.30002783203125,-0.1627500355243683,-0.03440910577774048,0.05871258303523064
1790936112410002000,4.310001953125,-0.17754895985126495,-0.04687536507844925,-0.008929313160479069
1790936112419975200,4.31997509765625,-0.19660307466983795,-0.08106209337711334,-0.01691107265651226
1790936112429949000,4.329948974609375,-0.2288089394569397,-0.12881630659103394,0.006215019151568413
1790936112439922000,4.339921875,-0.29187873005867004,-0.18286356329917908,0.007477889768779278
1790936112449896000,4.34989599609375,-0.3605464696884155,-0.2349501997232437,-0.03840677812695503
1790936112459870000,4.359869873046875,-0.4525853097438812,-0.28231877088546753,-0.032525718212127686
1790936112469843000,4.369843017578125,-0.5375745296478271,-0.34285667538642883,-0.03982171416282654
1790936112479817000,4.37981689453125,-0.61649489402771,-0.4002811014652252,-0.03301467373967171
1790936112489790000,4.3897900390625,-0.6910490393638611,-0.4430703818798065,-0.0747823640704155
1790936112499764000,4.399763916015625,-0.7293679118156433,-0.49027010798454285,0.005440838169306517
1790936112509738000,4.409738037109375,-0.7609727382659912,-0.5212671756744385,-0.005654956214129925
1790936112519711000,4.4197109375,-0.8013033270835876,-0.5500546097755432,-0.1033644750714302
1790936112529685000,4.42968505859375,-0.8603584170341492,-0.5983438491821289,-0.03707093745470047
1790936112539659000,4.439658935546875,-0.910284698009491,-0.6230105757713318,-0.0399404913187027
1790936112549632000,4.449632080078125,-0.9608437418937683,-0.6192182302474976,-0.08416307717561722
1790936112559606000,4.45960595703125,-0.9676864743232727,-0.6433432698249817,-0.11483870446681976
1790936112569579000,4.4695791015625,-0.975212037563324,-0.6516933441162109,-0.0549231693148613
1790936112579552800,4.479552734375,-0.9517690539360046,-0.6426897644996643,-0.09526073932647705
1790936112589526800,4.48952685546875,-0.9199668765068054,-0.6344512701034546,-0.09228279441595078
1790936112599500000,4.4995,-0.8979824781417847,-0.626284122467041,-0.04273361340165138
1790936112609474000,4.50947412109375,-0.876129686832428,-0.610073447227478,-0.007817975245416164
1790936112619448000,4.519447998046875,-0.8120042085647583,-0.5833848714828491,-0.039863791316747665
1790936112629421000,4.529421142578125,-0.7423782348632812,-0.5622028708457947,-0.000319845654303208
1790936112639395000,4.53939501953125,-0.7017176151275635,-0.5266057252883911,0.012840431183576584
1790936112649368000,4.5493681640625,-0.6395858526229858,-0.4693472385406494,-0.06294913589954376
1790936112659342000,4.559342041015625,-0.5393623113632202,-0.41574475169181824,-0.0765853226184845
1790936112669316000,4.569316162109375,-0.4603723883628845,-0.39180824160575867,-0.014512097463011742
1790936112679288800,4.579288818359375,-0.37556031346321106,-0.3479771614074707,0.01004917174577713
1790936112689262800,4.589262939453125,-0.30599507689476013,-0.3108034133911133,-0.037582796066999435
1790936112699235800,4.59923583984375,-0.3023177981376648,-0.3135046660900116,-0.00643686018884182
1790936112709209900,4.6092099609375,-0.2874767780303955,-0.32302573323249817,-0.001651692553423345
1790936112719184000,4.619183837890625,-0.2889244854450226,-0.32677891850471497,0.02755519561469555
1790936112729156900,4.629156982421875,-0.30383312702178955,-0.32148322463035583,0.036385439336299896
1790936112739131000,4.639130859375,-0.29894542694091797,-0.32285076379776,0.041187118738889694
1790936112749105000,4.64910498046875,-0.27293404936790466,-0.33580997586250305,0.00185036426410079
1790936112759078100,4.659078125,-0.2625107169151306,-0.33581873774528503,0.018507903441786766
1790936112769052000,4.669052001953125,-0.23048460483551025,-0.3406289517879486,0.011803662404417992
1790936112779025000,4.67902490234375,-0.19252337515354156,-0.3555317223072052,0.029350964352488518
1790936112788999000,4.6889990234375,-0.14310495555400848,-0.34900805354118347,0.0007946872501634061
1790936112798973000,4.698972900390625,-0.13909797370433807,-0.3455728590488434,0.008400674909353256
1790936112808946000,4.70894580078125,-0.14310842752456665,-0.33732691407203674,0.003762780223041773
1790936112818920700,4.718920654296875,-0.1568913459777832,-0.338920533657074,0.022898390889167786
1790936112828893700,4.728893798828125,-0.17238694429397583,-0.33304721117019653,0.051777977496385574
1790936112838867700,4.73886767578125,-0.17097094655036926,-0.3576372265815735,0.07038574665784836
1790936112848841700,4.748841796875,-0.19484005868434906,-0.39595693349838257,0.038789473474025726
1790936112858814700,4.758814697265625,-0.2257910519838333,-0.42693427205085754,0.037266410887241364
1790936112868788700,4.768788818359375,-0.25359898805618286,-0.4505426585674286,0.032948095351457596
1790936112878762800,4.7787626953125,-0.2957717478275299,-0.46954697370529175,0.018972625955939293
1790936112888735500,4.788735595703125,-0.35089224576950073,-0.4663163125514984,-0.018741730600595474
1790936112898709500,4.79870947265625,-0.394693523645401,-0.44769415259361267,-0.07707241177558899
1790936112908682500,4.8086826171875,-0.4332672655582428,-0.4551914930343628,-0.001130511867813766
1790936112918656500,4.818656494140625,-0.4307652413845062,-0.4466158449649811,-0.0009890979854390025
1790936112928630500,4.828630615234375,-0.40366464853286743,-0.43367740511894226,-0.020803548395633698
1790936112938603500,4.838603515625,-0.39294862747192383,-0.4186862111091614,-0.018984077498316765
1790936112948577500,4.84857763671875,-0.40870681405067444,-0.4029695689678192,0.03333691880106926
1790936112958550800,4.85855078125,-0.40981096029281616,-0.3617214560508728,0.03813832998275757
1790936112968524800,4.86852490234375,-0.39737799763679504,-0.31916946172714233,0.04074529930949211
1790936112978498800,4.878498779296875,-0.3640735447406769,-0.30053532123565674,0.02316097915172577
1790936112988471600,4.888471435546875,-0.332832008600235,-0.2863161861896515,0.029408754780888557
1790936112998445600,4.898445556640625,-0.28875216841697693,-0.26408305764198303,0.04397997632622719
1790936113008419600,4.908419677734375,-0.22607681155204773,-0.25391775369644165,-0.0008141283178701997
1790936113018392600,4.918392578125,-0.16948889195919037,-0.24698661267757416,0.011550129391252995
1790936113028366600,4.92836669921875,-0.12940992414951324,-0.21958482265472412,0.023443007841706276
1790936113038339600,4.938339599609375,-0.11045008152723312,-0.19053372740745544,0.006897054612636566
1790936113048313600,4.948313720703125,-0.08568880707025528,-0.18069414794445038,0.03128548339009285
1790936113058287600,4.95828759765625,-0.07626361399888992,-0.17235738039016724,0.012475045397877693
1790936113068260600,4.968260498046875,-0.08016114681959152,-0.1682196408510208,0.017197629436850548
1790936113078234600,4.978234619140625,-0.07020358741283417,-0.16102616488933563,-0.0003787015157286078
1790936113088208600,4.988208740234375,-0.08976956456899643,-0.151678204536438,0.03503015637397766
1790936113098181600,4.998181640625,-0.1130804792046547,-0.16445446014404297,0.05234948918223381
1790936113108155600,5.00815576171875,-0.11021491885185242,-0.17863179743289948,0.030542995780706406
1790936113118128600,5.018128662109375,-0.12167370319366455,-0.2020881175994873,0.046555519104003906
1790936113128102700,5.0281025390625,-0.12090937793254852,-0.220436230301857,0.039864592254161835
1790936113138076400,5.038076416015625,-0.09716916084289551,-0.23523515462875366,0.030252976343035698
1790936113148049700,5.048049560546875,-0.07354053109884262,-0.24194152653217316,0.04436160624027252
1790936113158023700,5.058023681640625,-0.05872003734111786,-0.24342170357704163,0.02315751649439335
1790936113167996700,5.06799658203125,-0.04577627778053284,-0.2471780925989151,-0.0031579763162881136
1790936113177970700,5.077970703125,-0.051116980612277985,-0.2462547868490219,-0.004207261838018894
1790936113187944700,5.08794482421875,-0.05915866047143936,-0.24819302558898926,0.036553751677274704
1790936113197917700,5.097917724609375,-0.05198436975479126,-0.2498074322938919,0.0067995828576385975
1790936113207891700,5.1078916015625,-0.05360836535692215,-0.2523813843727112,-0.013519536703824997
1790936113217864400,5.117864501953125,-0.0598076730966568,-0.24978506565093994,0.009969543665647507
1790936113227838500,5.12783837890625,-0.055757004767656326,-0.2523054778575897,0.07196792960166931
1790936113237812500,5.1378125,-0.0313296914100647,-0.24298948049545288,0.0300202164798975
1790936113247785500,5.147785400390625,-0.00806272029876709,-0.24718822538852692,0.030467361211776733
1790936113257759500,5.157759521484375,0.01302418950945139,-0.2334074229001999,0.04063158109784126
1790936113267733500,5.1677333984375,0.029836459085345268,-0.219333678483963,0.04037698358297348
1790936113277706500,5.17770654296875,0.06560377776622772,-0.199945867061615,0.015056713484227657
1790936113287680500,5.187680419921875,0.07818961143493652,-0.16993364691734314,0.006585997529327869
1790936113297653800,5.19765380859375,0.08869338035583496,-0.13391652703285217,0.0002069276088150218
1790936113307627800,5.207627685546875,0.1410181075334549,-0.09663759171962738,0.006136721931397915
1790936113317601800,5.217601806640625,0.20101432502269745,-0.05605953931808472,-0.00951201282441616
1790936113327574800,5.22757470703125,0.2477962225675583,-0.015220231376588345,0.026703249663114548
1790936113337548800,5.237548828125,0.29400551319122314,0.031138477846980095,-0.0007281082216650248
1790936113347521500,5.247521484375,0.32967138290405273,0.07425691932439804,0.0007070692372508347
1790936113357495600,5.25749560546875,0.38437190651893616,0.1047341376543045,0.03567676991224289
1790936113367469600,5.267469482421875,0.4492105543613434,0.13198040425777435,0.03185566887259483
1790936113377442600,5.277442626953125,0.45764559507369995,0.16187359392642975,0.02039342187345028
1790936113387416600,5.28741650390625,0.4532819986343384,0.15633074939250946,0.028986910358071327
1790936113397390600,5.297390625,0.45907145738601685,0.16354285180568695,0.021107681095600128
1790936113407363600,5.307363525390625,0.4560719132423401,0.17256245017051697,0.009873669594526291
1790936113417337600,5.317337646484375,0.45201167464256287,0.16934508085250854,0.011914449743926525
1790936113427310600,5.327310546875,0.4358215034008026,0.16648352146148682,0.022346850484609604
1790936113437284600,5.33728466796875,0.41923296451568604,0.17384715378284454,0.02273434028029442
1790936113447258600,5.347258544921875,0.4301084876060486,0.17465676367282867,-0.014803446829319
1790936113457231600,5.357231689453125,0.4394040107727051,0.173288956284523,-0.013261742889881134
1790936113467205600,5.36720556640625,0.4501442611217499,0.1865997016429901,0.032292161136865616
1790936113477178600,5.3771787109375,0.472701758146286,0.23162737488746643,0.02382384054362774
1790936113487152600,5.387152587890625,0.49261075258255005,0.2537207007408142,0.030844464898109436
1790936113497126700,5.397126708984375,0.5148404240608215,0.28003910183906555,-0.013530190102756023
1790936113507099600,5.407099609375,0.5657352805137634,0.30568987131118774,-0.058038268238306046
1790936113517073700,5.41707373046875,0.5979830026626587,0.33330100774765015,-0.03129533678293228
1790936113527046700,5.427046630859375,0.6035346388816833,0.3411772847175598,0.0008828379213809967
1790936113537020700,5.437020751953125,0.5961733460426331,0.3448564410209656,0.04032425209879875
1790936113546994700,5.44699462890625,0.5853060483932495,0.3623241186141968,0.03729783743619919
1790936113556967700,5.4569677734375,0.554555356502533,0.36660197377204895,0.03116883896291256
1790936113566941700,5.466941650390625,0.5135210752487183,0.35021206736564636,0.04731238633394241
1790936113576915700,5.476915771484375,0.4929039776325226,0.3437453806400299,0.0004924184759147465
1790936113586888400,5.486888427734375,0.4730634391307831,0.32127708196640015,0.006792658474296331
1790936113596862500,5.496862548828125,0.4583478569984436,0.30617403984069824,-0.03948935121297836
1790936113606835700,5.506835693359375,0.4316195845603943,0.27996906638145447,-0.006743123754858971
1790936113616809700,5.516809814453125,0.37228673696517944,0.27896878123283386,-0.0008386294357478619
1790936113626783500,5.526783447265625,0.3007209599018097,0.2634955644607544,-0.014998123981058598
1790936113636756700,5.5367568359375,0.3058704435825348,0.24407897889614105,-0.04689160734415054
1790936113646730800,5.546730712890625,0.31645891070365906,0.24083711206912994,-0.021987324580550194
1790936113656703700,5.556703857421875,0.24509577453136444,0.22393563389778137,0.004622715059667826
1790936113666677800,5.566677734375,0.17866428196430206,0.1839677095413208,0.004520449787378311
1790936113676651800,5.57665185546875,0.13822737336158752,0.17774629592895508,0.04707350209355354
1790936113686624500,5.58662451171875,0.07930414378643036,0.16921032965183258,0.025405224412679672
1790936113696598500,5.5965986328125,0.04386306181550026,0.14000797271728516,0.012547217309474945
1790936113706572500,5.606572509765625,0.01378079317510128,0.10908360779285431,-0.002944657113403082
1790936113716545500,5.616545654296875,-0.03236087039113045,0.059476375579833984,-0.009257680736482143
1790936113726519600,5.62651953125,-0.06477607041597366,0.01714329980313778,0.005569202359765768
1790936113736492500,5.636492431640625,-0.11500914394855499,-0.00839428324252367,-0.007640076335519552
1790936113746466600,5.646466552734375,-0.18004938960075378,-0.04315146431326866,0.004162786994129419
1790936113756440600,5.656440673828125,-0.22704672813415527,-0.06302583962678909,-0.006985737942159176
1790936113766413600,5.66641357421875,-0.2709721028804779,-0.08996717631816864,-0.016290290281176567
1790936113776387600,5.6763876953125,-0.2998996376991272,-0.11350365728139877,0.01059112511575222
1790936113786360800,5.68636083984375,-0.3133230209350586,-0.145437091588974,0.03880305588245392
1790936113796334600,5.69633447265625,-0.3396283984184265,-0.18198338150978088,0.030283071100711823
1790936113806308600,5.70630859375,-0.3665982484817505,-0.215391144156456,0.007237140089273453
1790936113816281600,5.716281494140625,-0.40351444482803345,-0.24778130650520325,0.03862595558166504
1790936113826254800,5.7262548828125,-0.4619508683681488,-0.2638196647167206,-0.006146575789898634
1790936113836227800,5.736227783203125,-0.499189555644989,-0.27979224920272827,0.012318185530602932
1790936113846201900,5.746201904296875,-0.49959543347358704,-0.27832937240600586,-0.025672607123851776
1790936113856175900,5.75617578125,-0.4747140407562256,-0.30268850922584534,-0.05056144297122955
1790936113866148900,5.76614892578125,-0.4772901237010956,-0.33418411016464233,-0.09777183085680008
1790936113876123000,5.776122802734375,-0.4951183795928955,-0.34092697501182556,-0.027729365974664688
1790936113886097000,5.786096923828125,-0.518978476524353,-0.3460274338722229,-0.009190035983920097
1790936113896070000,5.79606982421875,-0.5089551210403442,-0.35674402117729187,-0.010727745480835438
1790936113906043600,5.806043701171875,-0.48319169878959656,-0.34975001215934753,-0.029092904180288315
1790936113916017000,5.816016845703125,-0.4535547196865082,-0.35446566343307495,-0.02462172321975231
1790936113925991000,5.825990966796875,-0.4264266788959503,-0.3646352291107178,-0.022885607555508614
1790936113935965000,5.83596484375,-0.40997233986854553,-0.34249716997146606,-0.011012171395123005
1790936113945938000,5.84593798828125,-0.3917970657348633,-0.3294772207736969,-0.0068054418079555035
1790936113955912000,5.855911865234375,-0.3338086009025574,-0.3364672362804413,-0.04204811900854111
1790936113965885000,5.865885009765625,-0.3063839077949524,-0.30446723103523254,-0.05658178776502609
1790936113975859000,5.87585888671875,-0.29285210371017456,-0.28589752316474915,-0.007726895622909069
1790936113985833000,5.8858330078125,-0.29303374886512756,-0.29094210267066956,-0.0012634035665541887
1790936113995806000,5.895805908203125,-0.23417627811431885,-0.2830791175365448,-0.04037005826830864
1790936114005780000,5.905780029296875,-0.2060554325580597,-0.26948660612106323,-0.03472042828798294
1790936114015752700,5.915752685546875,-0.18660183250904083,-0.2752153277397156,-0.022052304819226265
1790936114025726700,5.925726806640625,-0.1964147835969925,-0.2821672558784485,0.00024980452144518495
1790936114035700700,5.93570068359375,-0.1861696094274521,-0.2768494486808777,0.011559717357158661
1790936114045673700,5.945673828125,-0.18080785870552063,-0.27940207719802856,0.04296291247010231
1790936114055647700,5.955647705078125,-0.1567280888557434,-0.2854517102241516,-0.004427771549671888
1790936114065621000,5.96562109375,-0.14748932421207428,-0.2905820310115814,0.02857998013496399
1790936114075595000,5.975594970703125,-0.16401609778404236,-0.2854365408420563,0.002490588231012225
1790936114085569000,5.985569091796875,-0.1961900144815445,-0.28036269545555115,0.033848509192466736
1790936114095542000,5.9955419921875,-0.1732599288225174,-0.2536298632621765,0.037096500396728516
1790936114105516000,6.00551611328125,-0.13834509253501892,-0.22273187339305878,0.023085610941052437
1790936114115490000,6.015489990234375,-0.10909292846918106,-0.20074322819709778,-0.016448214650154114
1790936114125462800,6.025462890625,-0.09377389401197433,-0.17947761714458466,0.051175836473703384
1790936114135436800,6.035436767578125,-0.07300470024347305,-0.15460900962352753,0.05137850344181061
1790936114145409800,6.045409912109375,-0.03910292685031891,-0.16446511447429657,-0.0016764599131420255
1790936114155383800,6.0553837890625,0.002525209216400981,-0.16323472559452057,-0.02220463752746582
1790936114165357800,6.06535791015625,0.0028061727061867714,-0.14895805716514587,-0.025528263300657272
1790936114175330800,6.075330810546875,-0.021083980798721313,-0.1549837291240692,0.009343966841697693
1790936114185304800,6.085304931640625,-0.03807787597179413,-0.1618879735469818,0.003973702434450388
1790936114195277800,6.09527783203125,-0.02449469082057476,-0.18684791028499603,0.0194285586476326
1790936114205251800,6.105251953125,-0.041489120572805405,-0.21743299067020416,0.03935326635837555
1790936114215225900,6.115225830078125,-0.06930956244468689,-0.2586834728717804,0.03579794615507126
1790936114225199000,6.12519921875,-0.10205020010471344,-0.30224373936653137,0.03728505223989487
1790936114235172900,6.1351728515625,-0.10425343364477158,-0.31260237097740173,0.005660548806190491
1790936114245145900,6.145145751953125,-0.11837191879749298,-0.2892081141471863,0.014629542827606201
1790936114255120000,6.155119873046875,-0.10628755390644073,-0.25645682215690613,-0.016870593652129173
1790936114265094000,6.165093994140625,-0.08924199640750885,-0.22924597561359406,0.010914965532720089
1790936114275067000,6.17506689453125,-0.05513409152626991,-0.21399565041065216,0.02382463961839676
1790936114285041000,6.185041015625,-0.010631871409714222,-0.1988808810710907,0.022285597398877144
1790936114295014000,6.195013916015625,0.030342459678649902,-0.17611537873744965,0.037330061197280884
1790936114304988000,6.20498779296875,0.053152699023485184,-0.15337437391281128,0.021166803315281868
1790936114314962000,6.2149619140625,0.09252141416072845,-0.13168905675411224,0.011110974475741386
1790936114324935000,6.224934814453125,0.12641146779060364,-0.08742678165435791,0.027534155175089836
1790936114334909000,6.234908935546875,0.17979799211025238,-0.0494794026017189,0.045216478407382965
1790936114344881700,6.244881591796875,0.21156683564186096,-0.013731790706515312,0.021147895604372025
1790936114354855700,6.254855712890625,0.2283162623643875,0.01785995624959469,0.03608396649360657
1790936114364829700,6.26482958984375,0.26750120520591736,0.04819229617714882,0.020178504288196564
1790936114374803000,6.274802978515625,0.3041481673717499,0.08306053280830383,0.03845524787902832
1790936114384776700,6.284776611328125,0.33089083433151245,0.11101546883583069,0.03099546581506729
1790936114394750700,6.294750732421875,0.33690345287323,0.1329769641160965,0.03171052411198616
1790936114404724000,6.304723876953125,0.35407018661499023,0.15136581659317017,0.04037778452038765
1790936114414698000,6.314697998046875,0.37528201937675476,0.169012188911438,0.04144491255283356
1790936114424671000,6.3246708984375,0.40020573139190674,0.1467851847410202,0.019420836120843887
1790936114434645000,6.33464501953125,0.3966943621635437,0.14419978857040405,0.045400772243738174
1790936114444619000,6.344618896484375,0.37144970893859863,0.13788649439811707,0.03142796456813812
1790936114454592000,6.354592041015625,0.32867881655693054,0.11677348613739014,0.06991410255432129
1790936114464566000,6.36456591796875,0.3205045163631439,0.13317696750164032,0.04447053000330925
1790936114474538800,6.374538818359375,0.3211905360221863,0.1345578134059906,-0.0030722226947546005
1790936114484512800,6.3845126953125,0.3143664598464966,0.11229830980300903,0.017551563680171967
1790936114494486800,6.39448681640625,0.3137592673301697,0.0932772159576416,0.0021819279063493013
1790936114504459800,6.404459716796875,0.3005382716655731,0.09615263342857361,0.020921526476740837
1790936114514433800,6.414433837890625,0.29643991589546204,0.0893823429942131,0.019527629017829895
1790936114524406800,6.42440673828125,0.2919764518737793,0.08639054745435715,-0.022951122373342514
1790936114534380800,6.434380859375,0.2687278687953949,0.09265883266925812,-0.025481924414634705
1790936114544354800,6.444354736328125,0.26344627141952515,0.09391877055168152,0.01679309457540512
1790936114554328000,6.454328125,0.27571600675582886,0.10130558162927628,0.031980834901332855
1790936114564302000,6.464302001953125,0.28431054949760437,0.12118874490261078,-0.021854965016245842
1790936114574274800,6.47427490234375,0.26981309056282043,0.13841699063777924,-0.06000634655356407
1790936114584248800,6.484248779296875,0.25570979714393616,0.11870560795068741,-0.01314882468432188
1790936114594222800,6.494222900390625,0.25944462418556213,0.11677641421556473,0.056343432515859604
1790936114604195800,6.50419580078125,0.27572745084762573,0.10117748379707336,0.04117833077907562
1790936114614169900,6.514169921875,0.24879251420497894,0.10626545548439026,-0.05594902113080025
1790936114624142800,6.524142822265625,0.18758800625801086,0.0908590629696846,-0.03134540468454361
1790936114634116900,6.534116943359375,0.1718287467956543,0.08952268958091736,0.01986238732933998
1790936114644091000,6.5440908203125,0.18264810740947723,0.08345600962638855,0.00826964806765318
1790936114654063900,6.55406396484375,0.1412426084280014,0.08831734210252762,0.009552492760121822
1790936114664038000,6.564037841796875,0.11793196201324463,0.07850013673305511,-0.0221436507999897
1790936114674011000,6.574010986328125,0.11661209911108017,0.057914700359106064,-0.007683752104640007
1790936114683984600,6.583984619140625,0.10605080425739288,0.036988645792007446,0.004507932811975479
1790936114693958700,6.593958740234375,0.0849982500076294,0.04164091870188713,-0.0025768745690584183
1790936114703932000,6.603931884765625,0.08588055521249771,0.0522213913500309,-0.004503405187278986
1790936114713906000,6.613906005859375,0.10947535932064056,0.05594742298126221,0.040174584835767746
1790936114723880000,6.6238798828125,0.11841186136007309,0.07691288739442825,0.03009265474975109
1790936114733853000,6.63385302734375,0.08161470293998718,0.08062853664159775,-0.015063371509313583
1790936114743827000,6.643826904296875,0.07432163506746292,0.05066477507352829,0.04422391951084137
1790936114753800000,6.653800048828125,0.0920066237449646,0.06494277715682983,0.014782408252358437
1790936114763774000,6.66377392578125,0.10849957913160324,0.08577615767717361,-0.028772791847586632
1790936114773748000,6.673748046875,0.08621158450841904,0.06089797243475914,0.02749181166291237
1790936114783721000,6.683720947265625,0.10224860906600952,0.065031997859478,-0.013666809536516666
1790936114793695000,6.693695068359375,0.09730764478445053,0.0926620289683342,-0.0585344173014164
1790936114803667700,6.703667724609375,0.10041901469230652,0.060257215052843094,0.0005648564547300339
1790936114813641700,6.713641845703125,0.09017596393823624,0.0890214815735817,-0.05519401282072067
1790936114823616300,6.7236162109375,0.11526933312416077,0.08970858156681061,-0.05904600769281387
1790936114833589200,6.73358935546875,0.1075216680765152,0.09178265184164047,-0.052024852484464645
1790936114843563300,6.743563232421875,0.1255267709493637,0.0750231146812439,0.005160673521459103
1790936114853536300,6.753536376953125,0.14429885149002075,0.08137980848550797,0.03720515966415405
1790936114863510000,6.763510009765625,0.12791508436203003,0.08153107762336731,-0.00017177389236167073
1790936114873484000,6.773484130859375,0.13732297718524933,0.05030977725982666,0.024052338674664497
1790936114883457300,6.783457275390625,0.12203375995159149,0.07079081237316132,0.04908871650695801
1790936114893431300,6.793431396484375,0.12806396186351776,0.06795641034841537,-0.006779076531529427
1790936114903404300,6.803404296875,0.08978261798620224,0.03472868725657463,-0.019168633967638016
1790936114913378300,6.81337841796875,0.09785812348127365,0.04896541312336922,-0.034334804862737656
1790936114923352300,6.823352294921875,0.09114295989274979,0.07437010109424591,-0.00008468852320220321
1790936114933325300,6.8333251953125,0.14144288003444672,0.0531388521194458,-0.005953230429440737
1790936114943299300,6.84329931640625,0.17768584191799164,0.05968809872865677,-0.008955411612987518
1790936114953272000,6.85327197265625,0.17827945947647095,0.08068419247865677,-0.050880756229162216
1790936114963246000,6.86324609375,0.16103363037109375,0.068720743060112,0.013194631785154343
1790936114973220000,6.87322021484375,0.17100024223327637,0.06787465512752533,-0.0010426276130601764
1790936114983193000,6.883193115234375,0.1904035061597824,0.11372896283864975,-0.01679922081530094
1790936114993167000,6.8931669921875,0.16322460770606995,0.1241680234670639,0.013546168804168701
1790936115003140000,6.90314013671875,0.16674689948558807,0.12614168226718903,0.010238522663712502
1790936115013114000,6.913114013671875,0.21539700031280518,0.1546766608953476,0.01076875813305378
1790936115023088000,6.923088134765625,0.2433767020702362,0.17384423315525055,0.07080306857824326
1790936115033061400,6.933061279296875,0.27362993359565735,0.20059888064861298,-0.002017078222706914
1790936115043035400,6.943035400390625,0.3088843524456024,0.24761006236076355,0.005530053749680519
1790936115053008400,6.95300830078125,0.330777645111084,0.2892991900444031,0.019719375297427177
1790936115062982400,6.962982421875,0.3503068685531616,0.30417054891586304,0.03187084570527077
1790936115072956400,6.972956298828125,0.38233378529548645,0.34177303314208984,0.012778379023075104
1790936115082929200,6.98292919921875,0.3835314214229584,0.37565404176712036,0.01570599153637886
1790936115092903200,6.992903076171875,0.4165183901786804,0.367605984210968,0.0006119944155216217
1790936115102876200,7.002876220703125,0.44027671217918396,0.4126317799091339,-0.04920802637934685
1790936115112850200,7.01285009765625,0.4116804897785187,0.4129745364189148,0.048743836581707
1790936115122824200,7.02282421875,0.40476879477500916,0.4141670763492584,0.046059370040893555
1790936115132797200,7.032797119140625,0.406760036945343,0.4176771342754364,0.03946911171078682
1790936115142771200,7.042771240234375,0.40431684255599976,0.3819063603878021,0.05066903680562973
1790936115152744200,7.052744140625,0.3595757484436035,0.36692288517951965,0.036192093044519424
1790936115162718200,7.06271826171875,0.3404420018196106,0.3620367646217346,0.030959513038396835
1790936115172692200,7.072692138671875,0.30980658531188965,0.34123536944389343,0.03888082131743431
1790936115182665200,7.082665283203125,0.30577269196510315,0.3155249357223511,0.06030461937189102
1790936115192639200,7.09263916015625,0.26458266377449036,0.3319537043571472,0.04523272439837456
1790936115202612200,7.1026123046875,0.2095620185136795,0.3272670805454254,-0.007644337601959705
1790936115212586200,7.112586181640625,0.21087442338466644,0.30361315608024597,0.00016964336100500077
1790936115222560300,7.122560302734375,0.21862635016441345,0.2779778242111206,0.11189723759889603
1790936115232533200,7.132533203125,0.19289222359657288,0.2781197726726532,0.08090363442897797
1790936115242507300,7.14250732421875,0.15978273749351501,0.2659728229045868,0.0075513930059969425
1790936115252480300,7.152480224609375,0.12731455266475677,0.2721305787563324,0.0255703404545784
1790936115262454300,7.162454345703125,0.0993601456284523,0.24580363929271698,0.07372402399778366
1790936115272428300,7.17242822265625,0.07078522443771362,0.218435138463974,0.040159668773412704
1790936115282401300,7.1824013671875,0.04963839426636696,0.2153855413198471,-0.028534438461065292
1790936115292375000,7.192375,0.012496883049607277,0.20454861223697662,0.03528155758976936
1790936115302348000,7.20234814453125,-0.00971308071166277,0.17521175742149353,0.05373246967792511
1790936115312322000,7.212322021484375,-0.04283774644136429,0.14529168605804443,0.05523742362856865
1790936115322296000,7.222296142578125,-0.0785273015499115,0.13405607640743256,0.036801423877477646
1790936115332269300,7.232269287109375,-0.1114698052406311,0.11023169755935669,0.05968836322426796
1790936115342243000,7.2422431640625,-0.11592713743448257,0.11015819758176804,0.07232852280139923
1790936115352216300,7.25221630859375,-0.15835128724575043,0.11300937831401825,0.06115017458796501
1790936115362190300,7.2621904296875,-0.20239225029945374,0.06481920927762985,0.03863687440752983
1790936115372164400,7.272164306640625,-0.15507027506828308,0.06530816853046417,0.03038986399769783
1790936115382137300,7.282137451171875,-0.15540210902690887,0.08441527932882309,-0.012802880257368088
1790936115392111400,7.292111328125,-0.19757619500160217,0.05880286172032356,0.011626295745372772
1790936115402084000,7.302083984375,-0.21424411237239838,0.06698010116815567,0.02165096625685692
1790936115412058000,7.31205810546875,-0.18788547813892365,0.07895420491695404,0.006489058490842581
1790936115422032100,7.3220322265625,-0.19626884162425995,0.07795844972133636,0.02835014835000038
1790936115432005000,7.332005126953125,-0.18795499205589294,0.07207898795604706,-0.026701118797063828
1790936115441979100,7.341979248046875,-0.2198151797056198,0.07528117299079895,0.0243197213858366
1790936115451952000,7.3519521484375,-0.21139293909072876,0.05796423181891441,-0.009157013148069382
1790936115461926100,7.361926025390625,-0.18769186735153198,0.03255314752459526,-0.021621938794851303
1790936115471900200,7.371900146484375,-0.19649522006511688,0.021086908876895905,-0.0014391721924766898
1790936115481873200,7.381873046875,-0.23530332744121552,-0.0117940753698349,-0.0028543761000037193
1790936115491847200,7.39184716796875,-0.2583146393299103,-0.030915571376681328,0.012716860510408878
1790936115501820400,7.4018203125,-0.2933567762374878,-0.04068537801504135,0.03701873868703842
1790936115511794200,7.411794189453125,-0.3174775540828705,-0.06169398874044418,-0.0002402171230642125
1790936115521768200,7.421768310546875,-0.2983850836753845,-0.08631917834281921,-0.022337796166539192
1790936115531741200,7.4317412109375,-0.30037474632263184,-0.10356580466032028,-0.01907622255384922
1790936115541715200,7.441715087890625,-0.3236933648586273,-0.12791402637958527,0.03845817595720291
1790936115551688200,7.451688232421875,-0.3354853093624115,-0.14514121413230896,0.013110741972923279
1790936115561662200,7.461662109375,-0.3389551639556885,-0.15168219804763794,-0.037280794233083725
1790936115571636200,7.47163623046875,-0.3357425928115845,-0.17952927947044373,-0.03977644070982933
1790936115581609200,7.481609130859375,-0.2816343307495117,-0.16485287249088287,-0.0315997377038002
1790936115591583200,7.491583251953125,-0.2975810766220093,-0.11689519137144089,-0.023936491459608078
1790936115601556200,7.50155615234375,-0.28497233986854553,-0.09239810705184937,-0.004822984803467989
1790936115611530200,7.5115302734375,-0.23900006711483002,-0.05752827227115631,-0.05759991332888603
1790936115621504300,7.521504150390625,-0.18967220187187195,-0.0186461228877306,-0.01631399244070053
1790936115631477000,7.53147705078125,-0.15662875771522522,0.012711534276604652,-0.06275100260972977
1790936115641451000,7.541450927734375,-0.12363965064287186,0.029498504474759102,-0.038728486746549606
1790936115651424300,7.55142431640625,-0.07550381124019623,0.0567903108894825,-0.02251143380999565
1790936115661398300,7.561398193359375,-0.0500197559595108,0.08008471876382828,0.02888304740190506
1790936115671372300,7.571372314453125,-0.041123732924461365,0.09750844538211823,0.037943653762340546
1790936115681345300,7.58134521484375,-0.019354788586497307,0.10544386506080627,0.0009211873984895647
1790936115691319300,7.5913193359375,0.027399932965636253,0.11249937862157822,-0.005113801918923855
1790936115701292300,7.601292236328125,0.006250439211726189,0.13297855854034424,0.006572947837412357
1790936115711266300,7.611266357421875,0.01708045043051243,0.13232608139514923,0.0005241101025603712
1790936115721240300,7.621240234375,0.026697658002376556,0.153245747089386,0.008207063190639019
1790936115731213000,7.631213134765625,0.028739236295223236,0.1572074592113495,-0.05602411925792694
1790936115741187000,7.64118701171875,0.013076387345790863,0.10120677947998047,0.019605392590165138
1790936115751160000,7.65116015625,0.02629445493221283,0.10501403361558914,0.011997007764875889
1790936115761134000,7.661134033203125,0.0028551749419420958,0.0869801715016365,-0.002124403603374958
1790936115771108000,7.671108154296875,-0.06427699327468872,0.03659289702773094,0.006783603690564632
1790936115781081000,7.6810810546875,-0.0968136265873909,-0.00797190610319376,0.006003297865390778
1790936115791055000,7.69105517578125,-0.14931252598762512,-0.031074030324816704,-0.02388695627450943
1790936115801028400,7.7010283203125,-0.20249558985233307,-0.0981244370341301,0.03287858888506889
1790936115811002400,7.71100244140625,-0.2441950887441635,-0.17222502827644348,0.0013611416798084974
1790936115820976000,7.72097607421875,-0.26538294553756714,-0.22274786233901978,0.015548333525657654
1790936115830949000,7.73094921875,-0.3266361653804779,-0.2551840841770172,-0.004796353168785572
1790936115840923100,7.740923095703125,-0.3541572690010071,-0.2776270806789398,-0.04252615571022034
1790936115850896000,7.750895751953125,-0.40449076890945435,-0.2781485319137573,0.00187992537394166
1790936115860870000,7.760869873046875,-0.37641197443008423,-0.2894267439842224,-0.022423550486564636
1790936115870844000,7.770843994140625,-0.3643779456615448,-0.2858530580997467,-0.009784187190234661
1790936115880817000,7.78081689453125,-0.3519207537174225,-0.2917977571487427,-0.006690126843750477
1790936115890791000,7.790791015625,-0.37459543347358704,-0.26810041069984436,-0.027907265350222588
1790936115900764000,7.800763916015625,-0.36097097396850586,-0.24269945919513702,-0.0009089368977583945
1790936115910738000,7.810738037109375,-0.35591548681259155,-0.21684150397777557,0.030126210302114487
1790936115920712000,7.8207119140625,-0.2724107503890991,-0.21174180507659912,-0.024418789893388748
1790936115930685000,7.830684814453125,-0.274021178483963,-0.17176084220409393,0.002560895634815097
1790936115940659000,7.840658935546875,-0.2626055181026459,-0.14386077225208282,-0.04584365338087082
1790936115950632200,7.850632080078125,-0.23346495628356934,-0.1479942500591278,0.03331534564495087
1790936115960606200,7.860606201171875,-0.19807660579681396,-0.11185836046934128,-0.006077333353459835
1790936115970580200,7.870580322265625,-0.17562641203403473,-0.09106706082820892,0.007349791936576366
1790936115980553000,7.880552978515625,-0.18407316505908966,-0.09133044630289078,0.019180351868271828
1790936115990527000,7.89052685546875,-0.19996212422847748,-0.10189014673233032,0.01672278717160225
1790936116000500000,7.9005,-0.2339475154876709,-0.11525681614875793,0.041851308196783066
1790936116010474000,7.910473876953125,-0.22680091857910156,-0.13326750695705414,0.06765547394752502
1790936116020448000,7.920447998046875,-0.2329472303390503,-0.14495877921581268,0.001546763931401074
1790936116030421000,7.9304208984375,-0.24730779230594635,-0.1710260659456253,0.02105095610022545
1790936116040395000,7.94039501953125,-0.25620755553245544,-0.18080493807792664,0.07723113894462585
1790936116050368000,7.950367919921875,-0.2984410226345062,-0.19278064370155334,0.06512387841939926
1790936116060342000,7.960342041015625,-0.31063005328178406,-0.23361940681934357,0.06292490661144257
1790936116070315000,7.97031494140625,-0.26859310269355774,-0.23933428525924683,0.037214744836091995
1790936116080288800,7.980288818359375,-0.2763623595237732,-0.22048576176166534,0.030006101354956627
1790936116090262800,7.9902626953125,-0.26099351048469543,-0.22929604351520538,0.05903562158346176
1790936116100236000,8.000236083984374,-0.2246144711971283,-0.22898072004318237,0.002502039773389697
1790936116110210000,8.0102099609375,-0.195705845952034,-0.21675628423690796,0.006654706783592701
1790936116120183000,8.02018310546875,-0.1874452531337738,-0.1895664632320404,-0.012058260850608349
1790936116130157000,8.030156982421875,-0.1495809704065323,-0.1754663586616516,-0.014737666584551334
1790936116140131000,8.040131103515625,-0.09449641406536102,-0.1839061826467514,-0.01242231484502554
1790936116150104000,8.05010400390625,-0.037641383707523346,-0.14643284678459167,-0.06707410514354706
1790936116160078000,8.060078125,0.006031527183949947,-0.11871253699064255,-0.056164201349020004
1790936116170051000,8.070051025390624,0.03857988119125366,-0.10871236771345139,-0.03169694170355797
1790936116180025000,8.080025146484376,0.0753922238945961,-0.09927438944578171,-0.05609442666172981
1790936116189999000,8.0899990234375,0.08687631040811539,-0.07782022655010223,-0.06476061791181564
1790936116199971800,8.099971923828125,0.09623758494853973,-0.05420651286840439,-0.01828419789671898
1790936116209945900,8.10994580078125,0.081143319606781,-0.044080376625061035,0.019210446625947952
1790936116219918800,8.1199189453125,0.11213825643062592,-0.04995797201991081,-0.010269415564835072
1790936116229892900,8.129892822265624,0.07809560000896454,-0.046293728053569794,0.013331783935427666
1790936116239867000,8.139866943359374,0.06616117805242538,-0.060209810733795166,0.045885201543569565
1790936116249840000,8.149840087890626,0.11036725342273712,-0.05943483114242554,-0.024296551942825317
1790936116259814100,8.159814208984375,0.15430408716201782,-0.07378234714269638,-0.028731247410178185
1790936116269787100,8.169787109375,0.1325247585773468,-0.08881482481956482,0.02653121016919613
1790936116279761200,8.17976123046875,0.168861985206604,-0.07742635160684586,-0.028559472411870956
1790936116289735200,8.189735107421875,0.15321777760982513,-0.0674954205751419,-0.03232438489794731
1790936116299708000,8.1997080078125,0.1021796315908432,-0.05925692990422249,0.0046852994710206985
1790936116309682000,8.209681884765626,0.10803352296352386,-0.04266410693526268,-0.018758773803710938
1790936116319655000,8.219655029296876,0.09502371400594711,-0.026798857375979424,-0.05552957206964493
1790936116329629000,8.22962890625,0.10559646785259247,-0.029211947694420815,0.010807107202708721
1790936116339603000,8.23960302734375,0.14551405608654022,0.0022114890161901712,0.022537266835570335
1790936116349576000,8.249575927734375,0.17545756697654724,0.024577248841524124,-0.058707255870103836
1790936116359550000,8.259550048828125,0.1838579773902893,0.054247792810201645,-0.03446796163916588
1790936116369523000,8.26952294921875,0.2044125199317932,0.08967182785272598,-0.0466492623090744
1790936116379497000,8.2794970703125,0.19318357110023499,0.12798592448234558,-0.06776440143585205
1790936116389471000,8.289470947265626,0.23008406162261963,0.1487330198287964,-0.09202579408884048
1790936116399444200,8.2994443359375,0.25461524724960327,0.18546120822429657,-0.0052267201244831085
1790936116409418000,8.30941796875,0.23173069953918457,0.2343009114265442,-0.06440801918506622
1790936116419391000,8.319390869140625,0.21414372324943542,0.2453538328409195,-0.08693862706422806
1790936116429365000,8.329364990234374,0.2585737705230713,0.257179319858551,-0.09747116267681122
1790936116439339000,8.339339111328124,0.302045077085495,0.27876266837120056,-0.04463937506079674
1790936116449312000,8.34931201171875,0.33150017261505127,0.2854621112346649,-0.031318239867687225
1790936116459286000,8.3592861328125,0.32206326723098755,0.32375675439834595,0.019877834245562553
1790936116469259000,8.369259033203125,0.27724093198776245,0.2732387185096741,-0.06728795915842056
1790936116479233000,8.37923291015625,0.3100185692310333,0.2502966523170471,-0.03879932686686516
1790936116489206000,8.3892060546875,0.40799573063850403,0.24559910595417023,0.13294260203838348
1790936116499180000,8.399179931640624,0.25160452723503113,0.19532422721385956,0.016760604456067085
1790936116509154000,8.409154052734374,0.08659374713897705,0.09475207328796387,0.017610153183341026
1790936116519126800,8.419126708984376,0.09236348420381546,0.1337657868862152,-0.00025033715064637363
1790936116529100800,8.429100830078125,0.1459215134382248,0.1331508606672287,0.18107230961322784
1790936116539074000,8.439073974609375,0.07918030768632889,0.03821103647351265,0.06386180222034454
1790936116549048000,8.449048095703125,0.02899516560137272,-0.06471268087625504,0.13820341229438782
1790936116559021800,8.459021728515625,-0.02478630654513836,-0.03723471984267235,0.16616366803646088
1790936116568995000,8.4689951171875,-0.06337285041809082,-0.12837927043437958,0.15121641755104065
1790936116578969000,8.478968994140626,-0.09752495586872101,-0.13502758741378784,0.08223575353622437
1790936116588942000,8.488942138671876,-0.10119932144880295,-0.10415463149547577,0.1234510987997055
1790936116598916000,8.498916015625,-0.1018238365650177,-0.09086332470178604,0.10259801149368286
1790936116608890000,8.50889013671875,-0.06083938106894493,-0.10070636868476868,0.06812366098165512
1790936116618863000,8.518863037109375,-0.002132392954081297,-0.02466433309018612,0.04223800078034401
1790936116628837000,8.528837158203125,0.049132660031318665,0.011000986211001873,0.02321770414710045
1790936116638809900,8.538809814453124,0.07796643674373627,0.04638747125864029,0.04003716632723808
1790936116648784000,8.548783935546876,0.09689085930585861,0.0613618940114975,-0.002272741636261344
1790936116658758000,8.5587578125,0.11892052739858627,0.08256944268941879,0.08327198773622513
1790936116668731000,8.56873095703125,0.1720268875360489,0.09885440766811371,0.04066140949726105
1790936116678705000,8.578704833984375,0.17952315509319305,0.10697678476572037,0.0664631798863411
1790936116688678100,8.58867822265625,0.1395951807498932,0.10265660285949707,0.07355944067239761
1790936116698652000,8.59865185546875,0.11362376809120178,0.10140997916460037,0.017416274175047874
1790936116708625200,8.608625244140624,0.11217314004898071,0.11086685955524445,0.08285094052553177
1790936116718599200,8.61859912109375,0.10898134112358093,0.07664044946432114,-0.004969724919646978
1790936116728573200,8.6285732421875,0.0711764395236969,0.0568651482462883,0.03470711410045624
1790936116738546000,8.6385458984375,0.05660708621144295,0.07646974176168442,-0.006225138902664185
1790936116748520000,8.64852001953125,0.03912636265158653,0.07657360285520554,-0.005382781382650137
1790936116758493000,8.658492919921875,0.0031047132797539234,0.04706285148859024,0.032955020666122437
1790936116768467000,8.668467041015624,-0.04141588136553764,0.03177683800458908,0.038056038320064545
1790936116778441000,8.67844091796875,0.008352472446858883,0.006626743823289871,0.10735734552145004
1790936116788414000,8.6884140625,-0.01648017391562462,0.004613127559423447,0.05403846874833107
1790936116798388000,8.698387939453125,-0.12312299758195877,-0.04055967554450035,0.06130090728402138
1790936116808361000,8.70836083984375,-0.15090163052082062,-0.06372837722301483,0.04394695162773132
1790936116818335000,8.7183349609375,-0.08456148952245712,-0.04962854087352753,0.03390097618103027
1790936116828309000,8.72830908203125,-0.05265362560749054,-0.0375356562435627,0.0914367064833641
1790936116838282000,8.738281982421874,-0.10206538438796997,-0.07104647904634476,-0.03880012780427933
1790936116848256000,8.748256103515626,-0.1316179484128952,-0.07290270179510117,-0.01907515712082386
1790936116858229200,8.758229248046876,-0.07015911489725113,-0.021025922149419785,-0.002938798163086176
1790936116868203300,8.768203369140625,-0.09626954793930054,0.008736499585211277,0.005417136009782553
1790936116878177300,8.77817724609375,-0.10854991525411606,-0.05918928608298302,-0.06111901253461838
1790936116888150300,8.788150390625,-0.11668027937412262,-0.04086301103234291,-0.11523471027612686
1790936116898124300,8.798124267578125,-0.11140535026788712,-0.05391170084476471,-0.06649806350469589
1790936116908097000,8.808096923828124,-0.13336338102817535,-0.07517970353364944,-0.053105030208826065
1790936116918071000,8.818071044921876,-0.12771162390708923,-0.12106410413980484,-0.03918761759996414
1790936116928045000,8.828045166015626,-0.16298066079616547,-0.16987745463848114,-0.13182274997234344
1790936116938018000,8.83801806640625,-0.16132578253746033,-0.16912804543972015,-0.10973475128412247
1790936116947992000,8.847991943359375,-0.22813516855239868,-0.16816982626914978,-0.05995254963636398
1790936116957965000,8.857965087890625,-0.24993553757667542,-0.2130667269229889,-0.01077008992433548
1790936116967939000,8.86793896484375,-0.21261478960514069,-0.25101330876350403,-0.12130272388458252
1790936116977912000,8.877912109375,-0.2258286029100418,-0.26785701513290405,-0.12921231985092163
1790936116987886000,8.887885986328126,-0.22087831795215607,-0.25865206122398376,-0.09533317387104034
1790936116997860000,8.897860107421875,-0.19934959709644318,-0.2506668269634247,-0.09060420095920563
1790936117007833300,8.907833251953125,-0.1707208752632141,-0.22472871840000153,-0.011567439883947372
1790936117017807000,8.91780712890625,-0.12608842551708221,-0.20607274770736694,-0.16018514335155487
1790936117027780000,8.927780029296875,-0.10657224804162979,-0.1938301920890808,-0.1506880521774292
1790936117037754000,8.937754150390624,-0.031323302537202835,-0.13583213090896606,-0.014999722130596638
1790936117047728000,8.94772802734375,-0.021326061338186264,-0.106724314391613,-0.06184632331132889
1790936117057701000,8.957701171875,-0.01655767112970352,-0.08892161399126053,-0.051058657467365265
1790936117067675100,8.967675048828125,0.08213242143392563,-0.006551908794790506,-0.03627358376979828
1790936117077648100,8.977648193359375,0.17123033106327057,0.021682925522327423,0.01158421766012907
1790936117087622100,8.9876220703125,0.17709381878376007,0.015359781682491302,0.007439274340867996
1790936117097596200,8.99759619140625,0.14450711011886597,0.056948769837617874,0.047985635697841644
1790936117107569200,9.007569091796874,0.19123254716396332,0.046551790088415146,0.04111441224813461
1790936117117543200,9.017543212890626,0.23009978234767914,0.05036943033337593,0.019587283954024315
1790936117127516000,9.027515869140625,0.2164098024368286,0.02827664464712143,-0.010113620199263096
1790936117137490000,9.037489990234375,0.17446501553058624,-0.01961897499859333,0.04361006245017052
1790936117147463200,9.047463134765625,0.10491763055324554,-0.042923763394355774,0.022107433527708054
1790936117157437200,9.057437255859375,-0.0028597023338079453,-0.08281099051237106,0.04020547494292259
1790936117167411200,9.0674111328125,0.047139815986156464,-0.09770791977643967,-0.021827267482876778
1790936117177384200,9.07738427734375,0.04856966808438301,-0.06770048290491104,0.03015151061117649
1790936117187358200,9.087358154296876,0.01107395626604557,-0.11794314533472061,0.003421629313379526
1790936117197331200,9.097331298828125,0.007158310618251562,-0.13111621141433716,-0.014429805800318718
1790936117207305200,9.10730517578125,0.07729079574346542,-0.09052244573831558,0.0073774890042841434
1790936117217279200,9.117279296875,0.09636835008859634,-0.0862019956111908,0.057737600058317184
1790936117227252000,9.127251953125,0.09819287806749344,-0.09171873331069946,-0.0018093516118824482
1790936117237226000,9.13722607421875,0.09969623386859894,-0.0441187247633934,-0.06665439158678055
1790936117247199000,9.147198974609376,0.15086887776851654,0.03981798514723778,-0.018518555909395218
1790936117257173000,9.157173095703126,0.2217148095369339,0.08994933217763901,-0.021149760112166405
1790936117267147000,9.16714697265625,0.297929972410202,0.13203074038028717,-0.0570979081094265
1790936117277120000,9.1771201171875,0.32247018814086914,0.18886658549308777,-0.04922587051987648
1790936117287094000,9.187093994140625,0.39944007992744446,0.25794553756713867,0.003777693957090378
1790936117297067300,9.1970673828125,0.434297651052475,0.2892259359359741,-0.0054142065346241
1790936117307041300,9.207041259765624,0.43176472187042236,0.29310324788093567,0.003724430687725544
1790936117317014300,9.21701416015625,0.4102266728878021,0.3048349916934967,-0.03609222546219826
1790936117326988300,9.22698828125,0.45325136184692383,0.34881123900413513,0.08213215321302414
1790936117336962300,9.23696240234375,0.5221348404884338,0.3868390619754791,0.005877329967916012
1790936117346935000,9.24693505859375,0.48050856590270996,0.3856739401817322,-0.015736619010567665
1790936117356909000,9.256908935546875,0.448417991399765,0.3909238278865814,-0.0072943982668221
1790936117366882000,9.266882080078124,0.4824875593185425,0.4459071755409241,-0.014524614438414574
1790936117376856000,9.27685595703125,0.47431644797325134,0.45176878571510315,0.03568928688764572
1790936117386830000,9.286830078125,0.4538191556930542,0.4280368387699127,0.03621206805109978
1790936117396803000,9.296802978515625,0.4390825629234314,0.3981146216392517,0.06601736694574356
1790936117406777000,9.306777099609375,0.4552532732486725,0.3886822462081909,0.043361589312553406
1790936117416750000,9.31675,0.44013211131095886,0.37088751792907715,0.06061780825257301
1790936117426724000,9.32672412109375,0.38988250494003296,0.33973732590675354,0.052567604929208755
1790936117436698000,9.336697998046875,0.3011673092842102,0.3094814121723175,0.019647205248475075
1790936117446671000,9.346671142578124,0.3080052435398102,0.3180384337902069,0.0072957295924425125
1790936117456645000,9.35664501953125,0.35579031705856323,0.34831058979034424,0.0002902845444623381
1790936117466618000,9.3666181640625,0.31971275806427,0.33258193731307983,0.01679735630750656
1790936117476592000,9.376592041015625,0.2582930624485016,0.3134050667285919,0.008833439089357853
1790936117486565000,9.386565185546875,0.24138039350509644,0.3107874393463135,0.056960221379995346
1790936117496539100,9.3965390625,0.223910853266716,0.3015531897544861,0.02388509176671505
1790936117506513200,9.40651318359375,0.20242154598236084,0.2583372890949249,0.08287304639816284
1790936117516486100,9.416486083984376,0.17541415989398956,0.26414936780929565,0.05952857434749603
1790936117526460200,9.426460205078126,0.14722779393196106,0.2430802881717682,0.09847038239240646
1790936117536433200,9.43643310546875,0.11735565215349197,0.1867821365594864,0.04868125170469284
1790936117546407200,9.4464072265625,0.03452016040682793,0.16975654661655426,-0.0005717806634493172
1790936117556381200,9.456381103515625,-0.05248930677771568,0.1847248375415802,-0.006746585946530104
1790936117566354000,9.46635400390625,-0.06443757563829422,0.20039860904216766,0.06992795318365097
1790936117576328000,9.476327880859374,-0.08090630173683167,0.21196019649505615,0.027100592851638794
1790936117586301200,9.48630126953125,-0.10844658315181732,0.19394071400165558,-0.05560014396905899
1790936117596275200,9.496275146484376,-0.002561428351327777,0.22943079471588135,0.07500234246253967
1790936117606248200,9.506248291015625,0.08834744244813919,0.25143197178840637,0.0847252756357193
1790936117616222200,9.51622216796875,-0.016871124505996704,0.2278187870979309,0.06470628827810287
1790936117626196200,9.5261962890625,-0.2133578211069107,0.2098749428987503,-0.030173081904649734
1790936117636169200,9.536169189453124,-0.23293951153755188,0.22723394632339478,-0.017316672950983047
1790936117646143200,9.546143310546874,-0.11712582409381866,0.20831458270549774,0.004014449194073677
1790936117656116000,9.556115966796876,-0.09666235744953156,0.1778714656829834,-0.03814738616347313
1790936117666090000,9.566090087890625,-0.04999152943491936,0.1877794861793518,0.03140879049897194
1790936117676064000,9.57606396484375,-0.11801771819591522,0.1720426082611084,-0.047194674611091614
1790936117686037000,9.586037109375,-0.145081028342247,0.1144552081823349,0.02100887894630432
1790936117696011000,9.596010986328125,-0.20977693796157837,0.10927828401327133,-0.0740465298295021
1790936117705984000,9.60598388671875,-0.21835631132125854,0.093097984790802,0.02574903890490532
1790936117715958000,9.6159580078125,-0.17042553424835205,0.10925698280334473,-0.02695997804403305
1790936117725932000,9.62593212890625,-0.13433437049388885,0.07539302110671997,0.02564411051571369
1790936117735905300,9.6359052734375,-0.1987421214580536,0.03121943771839142,-0.03788452968001366
1790936117745879300,9.64587939453125,-0.26182496547698975,-0.02755626104772091,0.00788242369890213
1790936117755852300,9.655852294921875,-0.2688748836517334,-0.02749580703675747,-0.009073389694094658
1790936117765826300,9.665826416015625,-0.34012800455093384,-0.07297753542661667,-0.032339829951524734
1790936117775799000,9.675799072265624,-0.3391975164413452,-0.1479356735944748,-0.044199153780937195
1790936117785773000,9.68577294921875,-0.3784666061401367,-0.13807931542396545,-0.02767743356525898
1790936117795747000,9.6957470703125,-0.38628166913986206,-0.14957964420318604,0.020554542541503906
1790936117805720000,9.705719970703125,-0.3972584009170532,-0.1966821700334549,-0.017005881294608116
1790936117815694000,9.715694091796875,-0.35550668835639954,-0.2018577605485916,0.08582329750061035
1790936117825667300,9.725667236328125,-0.41532742977142334,-0.18896806240081787,-0.0015997608425095677
1790936117835641300,9.735641357421875,-0.42111340165138245,-0.19074438512325287,0.07852836698293686
1790936117845615400,9.745615478515624,-0.4083014726638794,-0.22299553453922272,0.00956927053630352
1790936117855588400,9.75558837890625,-0.3596969246864319,-0.22740252315998077,0.054135408252477646
1790936117865562400,9.765562255859376,-0.29237115383148193,-0.13762471079826355,0.021344969049096107
1790936117875535400,9.775535400390625,-0.2962638735771179,-0.08779989182949066,0.006140716839581728
1790936117885509400,9.78550927734375,-0.26278555393218994,-0.05518921837210655,0.019475696608424187
1790936117895482400,9.795482421875,-0.15537866950035095,0.007900533266365528,0.032461270689964294
1790936117905456400,9.805456298828124,-0.12602104246616364,0.04595763608813286,0.053226202726364136
1790936117915430400,9.815430419921874,-0.13095508515834808,0.0473502054810524,0.024516794830560684
1790936117925403400,9.8254033203125,-0.1276671439409256,0.04904743656516075,0.050398457795381546
1790936117935377400,9.83537744140625,-0.12194854021072388,0.06916362792253494,-0.005795304663479328
1790936117945350400,9.845350341796875,-0.12606659531593323,0.08712877333164215,0.018493790179491043
1790936117955324400,9.855324462890625,-0.1352694034576416,0.07165607810020447,0.015331552363932133
1790936117965298400,9.86529833984375,-0.1664648801088333,0.04001905396580696,-0.023754864931106567
1790936117975271200,9.875271240234374,-0.2079521268606186,0.010395116172730923,0.031674571335315704
1790936117985245200,9.8852451171875,-0.22508850693702698,-0.03652339056134224,0.03436410054564476
1790936117995218200,9.89521826171875,-0.25947630405426025,-0.09661948680877686,0.07832329720258713
1790936118005192200,9.905192138671875,-0.3168269395828247,-0.17003484070301056,0.024174844846129417
1790936118015165400,9.91516552734375,-0.367649108171463,-0.19617296755313873,0.016394685953855515
1790936118025139500,9.925139404296875,-0.41926464438438416,-0.2345656305551529,0.05111032351851463
1790936118035113200,9.93511328125,-0.4395368993282318,-0.28497955203056335,-0.022291190922260284
1790936118045086500,9.94508642578125,-0.41341739892959595,-0.3087029755115509,0.04132400453090668
1790936118055060500,9.955060546875,-0.35937121510505676,-0.29345452785491943,0.010119745507836342
1790936118065033500,9.965033447265625,-0.40954065322875977,-0.34517285227775574,0.029772808775305748
1790936118075007500,9.975007568359375,-0.486148864030838,-0.3770732581615448,-0.08309967815876007
1790936118084981500,9.9849814453125,-0.4301537871360779,-0.33689573407173157,0.02129783108830452
1790936118094954200,9.994954345703125,-0.3329761028289795,-0.3009190857410431,0.05002135410904884
1790936118104928300,10.00492822265625,-0.3672829270362854,-0.33813169598579407,0.010539992712438107
1790936118114901200,10.0149013671875,-0.32851797342300415,-0.29670941829681396,0.008548480458557606
1790936118124875300,10.024875244140626,-0.30198249220848083,-0.22455854713916779,-0.025015603750944138
1790936118134848300,10.03484814453125,-0.25830745697021484,-0.23825597763061523,0.037463750690221786
1790936118144822300,10.044822265625,-0.20375259220600128,-0.22834502160549164,-0.005654157139360905
1790936118154796300,10.05479638671875,-0.17229481041431427,-0.1865357905626297,0.09048835188150406
1790936118164769500,10.06476953125,-0.20346763730049133,-0.17221331596374512,0.08065223693847656
1790936118174743300,10.074743408203124,-0.21346381306648254,-0.24503637850284576,-0.0005241101025603712
1790936118184716300,10.08471630859375,-0.19654634594917297,-0.20702402293682098,0.045218344777822495
1790936118194690300,10.094690185546876,-0.16485393047332764,-0.20885787904262543,0.011691010557115078
1790936118204664300,10.104664306640625,-0.14654655754566193,-0.23394964635372162,-0.03633377328515053
1790936118214637300,10.11463720703125,-0.14463095366954803,-0.22157765924930573,-0.0779065191745758
1790936118224611300,10.124611328125,-0.17112115025520325,-0.23428866267204285,-0.0743916779756546
1790936118234584300,10.134584228515624,-0.1339719146490097,-0.21177802979946136,-0.06949545443058014
1790936118244558300,10.144558349609374,-0.08458518981933594,-0.16445524990558624,-0.13049381971359253
1790936118254531300,10.15453125,-0.04941735044121742,-0.12790550291538239,-0.019752666354179382
1790936118264505300,10.16450537109375,-0.02262994460761547,-0.1057479977607727,-0.05539960786700249
1790936118274479400,10.174479248046875,-0.018395785242319107,-0.11655697226524353,0.009813481941819191
1790936118284452400,10.184452392578125,0.018495652824640274,-0.0995313823223114,-0.04815634340047836
1790936118294426400,10.19442626953125,0.06428498029708862,-0.08321419358253479,0.0022711437195539474
1790936118304399400,10.2043994140625,0.13852138817310333,-0.02606062963604927,0.016378706321120262
1790936118314373400,10.214373291015624,0.13457831740379333,-0.003067961661145091,-0.031740088015794754
1790936118324347100,10.22434716796875,0.12892095744609833,0.013887852430343628,-0.03747573494911194
1790936118334320400,10.2343203125,0.21020463109016418,0.04739974066615105,0.04241510108113289
1790936118344294400,10.24429443359375,0.2534479796886444,0.06340453773736954,0.017473798245191574
1790936118354267400,10.254267333984375,0.17589299380779266,0.05131378769874573,-0.05320250242948532
1790936118364241400,10.264241455078125,0.21960319578647614,0.06637609750032425,0.04477226361632347
1790936118374214400,10.27421435546875,0.22769974172115326,0.10122621804475784,-0.009367136284708977
1790936118384188400,10.2841884765625,0.16749365627765656,0.021089039742946625,-0.002287655370309949
1790936118394162400,10.294162353515626,0.14395876228809357,0.024946095421910286,-0.03267405554652214
1790936118404135200,10.30413525390625,0.15917234122753143,0.033369675278663635,-0.016875386238098145
1790936118414109200,10.314109130859375,0.12710948288440704,0.02161341719329357,-0.04063264653086662
1790936118424082200,10.324082275390625,0.14953330159187317,0.025774871930480003,-0.013909157365560532
1790936118434056200,10.33405615234375,0.1497838944196701,0.044503819197416306,-0.0244869664311409
1790936118444030200,10.3440302734375,0.13879676163196564,0.017247961834073067,0.07481085509061813
1790936118454003500,10.35400341796875,0.11543019115924835,0.02575303427875042,0.03148495405912399
1790936118463977200,10.363977294921876,0.0593075305223465,0.004768123384565115,0.03063434176146984
1790936118473950500,10.373950439453125,0.08419770002365112,0.02725878544151783,0.016629843041300774
1790936118483924500,10.383924560546875,0.17593348026275635,0.04876168072223663,0.06447965651750565
1790936118493897500,10.3938974609375,0.148016095161438,0.04559411481022835,-0.06939798593521118
1790936118503871500,10.40387158203125,0.09650736302137375,0.022764967754483223,0.004773450084030628
1790936118513845500,10.413845458984374,0.13254553079605103,0.08042586594820023,0.006936735473573208
1790936118523818200,10.423818359375,0.10432533919811249,0.038843534886837006,0.016043148934841156
1790936118533792300,10.433792236328125,0.06663814932107925,0.011267301626503468,-0.014825818128883839
1790936118543765200,10.44376513671875,0.055034488439559937,0.033905237913131714,-0.01967117376625538
1790936118553739300,10.4537392578125,0.0518842376768589,0.0395498052239418,0.0036658411845564842
1790936118563712300,10.463712158203125,0.04873771220445633,0.019087407737970352,-0.031747542321681976
1790936118573686300,10.473686279296874,0.03557157516479492,0.021158814430236816,0.025010278448462486
1790936118583660300,10.483660400390624,0.020891433581709862,0.005258145276457071,-0.036073315888643265
1790936118593633500,10.493633544921876,0.0441213883459568,0.016743559390306473,-0.10109598934650421
1790936118603607300,10.503607177734375,0.11250843852758408,0.07230561971664429,-0.07031358033418655
1790936118613580300,10.513580322265625,0.09770418703556061,0.08890856802463531,-0.04514670372009277
1790936118623554300,10.52355419921875,0.11739267408847809,0.08752745389938354,-0.02328614704310894
1790936118633528300,10.5335283203125,0.15086834132671356,0.092817023396492,-0.058828163892030716
1790936118643501300,10.543501220703124,0.09791724383831024,0.10236445814371109,0.027155721560120583
1790936118653475300,10.553475341796876,0.09515953809022903,0.05798979848623276,0.04024089500308037
1790936118663448300,10.5634482421875,0.1314144879579544,0.09262074530124664,0.005695702508091927
1790936118673422300,10.57342236328125,0.10160891711711884,0.1014118418097496,0.06976044178009033
1790936118683395300,10.583395263671875,0.041972748935222626,0.04749374836683273,-0.054608650505542755
1790936118693369300,10.593369384765625,0.08759376406669617,0.06369588524103165,-0.034692998975515366
1790936118703343400,10.60334326171875,0.12283351272344589,0.13640178740024567,-0.05678312107920647
1790936118713316400,10.61331640625,0.12013306468725204,0.11976847797632217,-0.05606220290064812
1790936118723290400,10.623290283203126,0.15627562999725342,0.1811239868402481,0.005082643125206232
1790936118733263400,10.633263427734375,0.16607418656349182,0.20695744454860687,0.019530026242136955
1790936118743237400,10.6432373046875,0.12420157343149185,0.18725937604904175,-0.02592427469789982
1790936118753211100,10.653211181640625,0.1461271196603775,0.18362575769424438,0.14799825847148895
1790936118763184400,10.663184326171875,0.15657229721546173,0.15093810856342316,0.09330624341964722
1790936118773158400,10.673158447265624,0.06705520302057266,0.10431921482086182,0.07741889357566833
1790936118783131400,10.68313134765625,0.06363170593976974,0.14014805853366852,0.06427618861198425
1790936118793105400,10.69310546875,0.07005711644887924,0.09772629290819168,-0.00917379092425108
1790936118803078400,10.703078369140625,0.052191298454999924,0.12665940821170807,0.010026535019278526
1790936118813052400,10.713052490234375,0.08068579435348511,0.12017514556646347,0.013967746868729591
1790936118823026400,10.7230263671875,0.0494232103228569,0.11447784304618835,-0.08453059941530228
1790936118832999200,10.732999267578125,0.0815473198890686,0.1597989797592163,0.004868524614721537
1790936118842973200,10.74297314453125,0.0989750474691391,0.1745949685573578,0.06400401890277863
1790936118852946200,10.7529462890625,0.017600564286112785,0.08206398040056229,-0.005599296186119318
1790936118862920200,10.762920166015626,-0.11061998456716537,0.0642106756567955,-0.010407899506390095
1790936118872893400,10.7728935546875,-0.0479547418653965,0.052614208310842514,0.06608634442090988
1790936118882867500,10.782867431640625,-0.07291601598262787,0.0072962623089551926,0.09445007145404816
1790936118892841200,10.79284130859375,-0.15384948253631592,-0.0803435742855072,-0.009579390287399292
1790936118902814500,10.802814453125,-0.17797265946865082,-0.0357995443046093,0.04959551617503166
1790936118912788500,10.81278857421875,-0.18616853654384613,-0.0551237054169178,0.020539630204439163
1790936118922761500,10.822761474609376,-0.24543878436088562,-0.10857494920492172,-0.0060174125246703625
1790936118932735500,10.832735595703125,-0.2461056411266327,-0.09179650247097015,-0.03982038423418999
1790936118942709500,10.84270947265625,-0.2440992146730423,-0.06828238815069199,0.012623383663594723
1790936118952682200,10.85268212890625,-0.20446419715881348,-0.10983461886644363,0.017103619873523712
1790936118962656300,10.86265625,-0.2657480537891388,-0.10752006620168686,0.03984435275197029
1790936118972629200,10.872629150390624,-0.37434136867523193,-0.11334732919931412,0.03620913624763489
1790936118982603300,10.882603271484374,-0.3931606113910675,-0.14502190053462982,0.009620669297873974
1790936118992576300,10.892576171875,-0.31538084149360657,-0.16154681146144867,0.06644506752490997
1790936119002550300,10.90255029296875,-0.3410971462726593,-0.1789979785680771,-0.023663783445954323
1790936119012524300,10.912524169921875,-0.36640995740890503,-0.17165644466876984,0.02605690062046051
1790936119022497500,10.92249755859375,-0.2443503588438034,-0.12252138555049896,0.061231933534145355
1790936119032471300,10.93247119140625,-0.2516098618507385,-0.13791579008102417,0.0517585352063179
1790936119042444300,10.9424443359375,-0.2961118221282959,-0.1782403141260147,-0.011958392336964607
1790936119052418300,10.952418212890626,-0.33155557513237,-0.19236944615840912,-0.06726425886154175
1790936119062391300,10.962391357421875,-0.3010522425174713,-0.20162072777748108,0.0016335829859599471
1790936119072365300,10.972365234375,-0.3287144899368286,-0.2013312429189682,0.043422307819128036
1790936119082339300,10.98233935546875,-0.343513160943985,-0.22980256378650665,-0.10950864851474762
1790936119092312300,10.992312255859375,-0.30384910106658936,-0.2023448497056961,-0.11769946664571762
1790936119102286300,11.002286376953125,-0.272154301404953,-0.17148813605308533,-0.004564391914755106
1790936119112259300,11.01225927734375,-0.25067615509033203,-0.19399531185626984,0.0029587720055133104
1790936119122233300,11.0222333984375,-0.25993117690086365,-0.17421361804008484,-0.0570925809442997
1790936119132206300,11.032206298828125,-0.24455328285694122,-0.1632072925567627,-0.008863000199198723
1790936119142180400,11.042180419921875,-0.18947379291057587,-0.18438927829265594,0.06424583494663239
1790936119152154400,11.052154296875,-0.16612586379051208,-0.20338481664657593,-0.011235610581934452
1790936119162127400,11.06212744140625,-0.21209761500358582,-0.24077533185482025,0.009592972695827484
1790936119172101400,11.072101318359374,-0.1902591586112976,-0.2216932475566864,-0.04644792526960373
1790936119182074400,11.082074462890626,-0.14211054146289825,-0.169290229678154,0.09284977614879608
1790936119192048400,11.09204833984375,-0.09388947486877441,-0.17198960483074188,-0.04729001596570015
1790936119202022400,11.1020224609375,-0.09749060124158859,-0.16834667325019836,-0.042339734733104706
1790936119211995400,11.111995361328125,-0.05523955449461937,-0.12740616500377655,-0.06240718439221382
1790936119221969400,11.121969482421875,-0.06503093242645264,-0.12407294660806656,0.07526732236146927
1790936119231942400,11.1319423828125,-0.01353578269481659,-0.13877706229686737,-0.002796319080516696
1790936119241916400,11.14191650390625,-0.05144641175866127,-0.13051992654800415,-0.05269436910748482
1790936119251889200,11.15188916015625,-0.06012352555990219,-0.11546028405427933,0.01372433453798294
1790936119261863200,11.16186328125,-0.023133015260100365,-0.09327349066734314,0.015178154222667217
1790936119271837200,11.171837158203125,-0.05688751861453056,-0.08122428506612778,-0.042691271752119064
1790936119281810200,11.18181005859375,0.01061908807605505,-0.05522250756621361,-0.008299475535750389
1790936119291784200,11.1917841796875,0.1302000731229782,-0.01540612056851387,0.0610247366130352
1790936119301757400,11.20175732421875,0.08024903386831284,-0.026090189814567566,0.006857106927782297
1790936119311731500,11.2117314453125,0.004463724326342344,-0.0591442808508873,-0.006804110016673803
1790936119321704400,11.221704345703126,0.01570253074169159,-0.04259433224797249,0.009307747706770897
1790936119331678500,11.231678466796875,0.05303312465548515,-0.048760347068309784,0.03977697342634201
1790936119341652500,11.241652587890625,0.040117859840393066,-0.05336069315671921,-0.023904001340270042
1790936119351625500,11.25162548828125,0.0002769687562249601,-0.050271425396203995,-0.017194965854287148
1790936119361599500,11.261599609375,-0.02466673031449318,-0.026918167248368263,-0.09455979615449905
1790936119371572200,11.271572265625,0.015985891222953796,-0.03202318027615547,0.007556986063718796
1790936119381546200,11.281546142578126,0.044262535870075226,0.022249644622206688,-0.02382863312959671
1790936119391519200,11.291519287109375,0.05801456794142723,0.011943744495511055,-0.03545786067843437
1790936119401493200,11.3014931640625,0.039626505225896835,0.02635304443538189,0.035826973617076874
1790936119411467300,11.31146728515625,0.03441097214818001,0.01471636164933443,0.07829054445028305
1790936119421440300,11.321440185546875,-0.006195844151079655,-0.015193333849310875,0.015662582591176033
1790936119431414300,11.331414306640625,-0.015460182912647724,0.01810949482023716,0.03729544207453728
1790936119441387500,11.341387451171874,-0.0022921827621757984,0.017115337774157524,-0.004686630796641111
1790936119451361500,11.351361572265626,-0.031985364854335785,-0.009036371484398842,-0.062070026993751526
1790936119461335300,11.361335205078126,-0.06295552849769592,-0.00033875409280881286,-0.02081366814672947
1790936119471308300,11.371308349609375,-0.023367108777165413,0.025479527190327644,-0.03621339797973633
1790936119481282300,11.3812822265625,0.014913436025381088,0.006876015570014715,-0.059481702744960785
1790936119491255300,11.39125537109375,-0.027042802423238754,0.03449432924389839,-0.017968880012631416
1790936119501229300,11.401229248046874,-0.05938369780778885,0.04008829593658447,0.036315131932497025
1790936119511202300,11.411202392578126,-0.047447942197322845,0.006439789664000273,0.07911212742328644
1790936119521176300,11.42117626953125,-0.08380355685949326,-0.03964594751596451,0.03256193920969963
1790936119531150300,11.431150390625,-0.1408519297838211,-0.0812290757894516,0.11693806946277618
1790936119541123300,11.441123291015625,-0.2009645253419876,-0.11975756287574768,0.0315169133245945
1790936119551097300,11.451097412109375,-0.16757355630397797,-0.12804797291755676,0.03566798195242882
1790936119561070300,11.4610703125,-0.17009051144123077,-0.11708827316761017,-0.1382148563861847
1790936119571044400,11.47104443359375,-0.17274966835975647,-0.11010280251502991,-0.05083761364221573
1790936119581017300,11.481017333984376,-0.08714661747217178,-0.05837276205420494,-0.04039003327488899
1790936119590991400,11.490991455078126,0.005771868862211704,-0.05699963495135307,-0.07364518940448761
1790936119600965400,11.50096533203125,-0.10510031878948212,-0.06512653827667236,-0.12985999882221222
1790936119610938400,11.5109384765625,-0.044124849140644073,-0.034690868109464645,0.0667039304971695
1790936119620912400,11.520912353515625,-0.04839629307389259,-0.05013320967555046,0.0026501116808503866
1790936119630885400,11.530885498046874,-0.09867437928915024,-0.1479942500591278,0.12924987077713013
1790936119640859400,11.540859375,-0.15396159887313843,-0.1444418728351593,-0.003172091208398342
1790936119650832400,11.550832275390626,-0.21360015869140625,-0.20822776854038239,0.10171783715486526
1790936119660806400,11.560806396484375,-0.21074658632278442,-0.21970652043819427,0.045284390449523926
1790936119670780400,11.570780517578125,-0.20685863494873047,-0.25882357358932495,-0.09714972227811813
1790936119680753200,11.580753173828125,-0.1875579059123993,-0.1799362152814865,0.03682539239525795
1790936119690727200,11.59072705078125,-0.08917088806629181,-0.13908438384532928,-0.04411846026778221
1790936119700700200,11.6007001953125,-0.08616897463798523,-0.16237398982048035,-0.10504625737667084
1790936119710674200,11.610674072265626,-0.01022813655436039,-0.16351808607578278,0.10499459505081177
1790936119720647400,11.6206474609375,-0.05490053445100784,-0.14991040527820587,-0.08901376277208328
1790936119730621400,11.630621337890625,-0.11503417789936066,-0.17954738438129425,0.06923313438892365
1790936119740595500,11.640595458984375,-0.07866125553846359,-0.12561704218387604,0.0463443286716938
1790936119750568400,11.650568359375,-0.10747745633125305,-0.147569477558136,-0.0946362242102623
1790936119760542500,11.66054248046875,-0.06971383094787598,-0.1141585260629654,-0.02864868938922882
1790936119770515500,11.670515380859374,0.080544114112854,-0.05705795809626579,-0.02996908500790596
1790936119780489500,11.680489501953126,0.08129379153251648,-0.03677745535969734,0.024479510262608528
1790936119790462200,11.690462158203125,0.04388463497161865,-0.03952344134449959,-0.01589054986834526
1790936119800436200,11.700436279296875,0.061468686908483505,-0.005185973364859819,0.009687514975667
1790936119810410200,11.71041015625,0.04559971019625664,0.009814281016588211,0.01635793410241604
1790936119820383200,11.72038330078125,0.04504843428730965,-0.03754391148686409,0.05362940579652786
1790936119830357500,11.730357421875,0.07261401414871216,0.0046903593465685844,-0.006083192303776741
1790936119840330500,11.74033056640625,0.014802115969359875,-0.016155000776052475,-0.04169098660349846
1790936119850304500,11.750304443359376,0.07208245247602463,0.025255555287003517,-0.04032665118575096
1790936119860277800,11.76027783203125,0.17159785330295563,0.10417833179235458,0.025792980566620827
1790936119870251800,11.770251708984375,0.11114383488893509,0.08667737245559692,-0.005104480776935816
1790936119880225500,11.7802255859375,0.11728827655315399,0.042027343064546585,-0.01878327503800392
1790936119890198500,11.790198486328125,0.11445147544145584,0.05477190390229225,0.04583646357059479
1790936119900172500,11.800172607421874,0.05308585613965988,0.0027324033435434103,0.0804908499121666
1790936119910145500,11.8101455078125,-0.014820490963757038,-0.019598735496401787,0.1015404760837555
1790936119920119600,11.82011962890625,-0.06192701682448387,-0.015985891222953796,-0.06082073971629143
1790936119930092500,11.830092529296875,-0.050455715507268906,-0.016563531011343002,-0.017115337774157524
1790936119940066600,11.840066650390625,0.04242601990699768,-0.007333280518651009,0.057135723531246185
1790936119950040600,11.85004052734375,0.024880848824977875,-0.020956680178642273,-0.03026442788541317
1790936119960013600,11.860013671875,-0.047091346234083176,-0.036253344267606735,-0.10588409006595612
1790936119969987600,11.869987548828124,0.031157121062278748,-0.00030173614504747093,0.04800161346793175
1790936119979960600,11.879960693359376,0.05494154617190361,0.034212034195661545,0.030358171090483665
1790936119989934600,11.8899345703125,-0.02002856880426407,-0.02888171561062336,0.04752091318368912
1790936119999907600,11.899907470703125,-0.05916665121912956,-0.025194035843014717,0.024177774786949158
1790936120009881600,11.909881591796875,-0.11034142225980759,-0.02745000086724758,0.044310737401247025
1790936120019855600,11.919855712890625,-0.08702518045902252,-0.0417754091322422,-0.01913214847445488
1790936120029828600,11.92982861328125,-0.0006042712484486401,-0.0007981493836268783,-0.00592473428696394
1790936120039802600,11.939802734375,0.04367903620004654,0.03533828258514404,-0.001776594785042107
1790936120049775600,11.949775634765626,0.021399298682808876,0.02286962978541851,-0.02713974192738533
1790936120059749600,11.95974951171875,0.02623213641345501,0.012573049403727055,-0.06860196590423584
1790936120069722600,11.96972265625,0.035538818687200546,0.02949690632522106,0.0884755402803421
1790936120079696600,11.979696533203125,0.04217568412423134,0.00726403808221221,0.03767600655555725
1790936120089670700,11.989670654296875,-0.029276927933096886,-0.03335342928767204,0.004882107023149729
1790936120099643400,11.999643310546874,-0.04060468450188637,-0.02219984494149685,0.030761906877160072
1790936120109617400,12.009617431640624,-0.0699753537774086,-0.02737862803041935,0.012118981219828129
1790936120119590400,12.01959033203125,-0.0350772924721241,-0.06461947411298752,0.035716719925403595
1790936120129564400,12.029564453125,-0.020604610443115234,-0.03720302879810333,-0.023486416786909103
1790936120139537700,12.03953759765625,-0.08508213609457016,-0.04585430771112442,0.03461256995797157
1790936120149511700,12.04951171875,-0.12272857874631882,-0.07087656855583191,0.008919991552829742
1790936120159485700,12.059485595703125,-0.08995385468006134,-0.08322218805551529,0.02647102251648903
1790936120169458700,12.069458740234374,-0.13825666904449463,-0.09420106559991837,0.008928780443966389
1790936120179432700,12.0794326171875,-0.217183455824852,-0.16115586459636688,0.007130081299692392
1790936120189405700,12.08940576171875,-0.1494976133108139,-0.17774176597595215,0.011203119531273842
1790936120199379700,12.099379638671875,-0.1075562834739685,-0.1570628583431244,0.004009655211120844
1790936120209352400,12.1093525390625,-0.18747322261333466,-0.179976686835289,-0.022427810356020927
1790936120219326500,12.119326416015625,-0.17929226160049438,-0.1468064934015274,0.05220993980765343
1790936120229300500,12.129300537109375,-0.0937856137752533,-0.11344986408948898,-0.002171807922422886
1790936120239273500,12.1392734375,-0.16913096606731415,-0.13101394474506378,-0.026153573766350746
1790936120249247500,12.14924755859375,-0.1452474743127823,-0.11842305213212967,0.019295133650302887
1790936120259220500,12.159220458984375,-0.10882341861724854,-0.07875926047563553,0.016832776367664337
1790936120269194500,12.169194580078125,-0.14598144590854645,-0.14164714515209198,0.04987754300236702
