time,seconds_elapsed,z,y,x,vertical,horizontal
1790173701922521000,1.59352099609375,-0.8634259248286485,0.0909802476078271,-1.0733611262280494,0.32814914019537106,1.3409712831405354
1790173701932593200,1.60359326171875,0.5990823299586773,-0.4640630341380834,-1.4227800555109975,0.22386914741413455,1.5963833590081384
1790173701942664200,1.613664306640625,-0.2934907788991928,-0.4120142824709415,-2.0885048951566216,0.5828872813472631,2.068329693398919
1790173701952736300,1.623736328125,-0.0247252759337425,0.4470651375859975,-2.157558703768998,-0.30542305104466516,2.182259126825848
1790173701962807300,1.633807373046875,-0.4631231229394674,0.6406301458775997,-2.0905901769980786,-0.29720703697851025,2.2152032132830777
1790173701972879000,1.643879150390625,-0.7462474061250686,0.0132195470571517,-2.325708115775138,0.40011428478452826,2.4095407750163713
1790173701982951200,1.653951171875,-0.332377558915317,-0.5091898775875568,-1.868274436648935,0.6782594968904643,1.8439529816733196
1790173701993022000,1.66402197265625,0.0920551833629608,0.2855687537282705,-1.6430775879055262,-0.22999960258734933,1.6543360639776334
1790173702003094000,1.674093994140625,0.076019409841299,0.8012649444699287,-1.405026664416492,-0.6994293947012526,1.4603776605584564
1790173702013165800,1.684165771484375,0.3673495035752654,0.5702116247832775,-1.0685462002269923,-0.627865848870722,1.0989369466244958
1790173702023236900,1.69423681640625,-0.9972177246809004,0.128696522539854,-0.4423493611104786,0.3249363175299371,1.049330897361045
1790173702033309000,1.704308837890625,0.1721750142604112,-0.1483048938512802,0.3171814145555719,0.04807302718432338,0.38721003457118874
1790173702043381000,1.714381103515625,0.4585466088041663,-0.0346089565664529,0.5741844374043866,-0.18684301408707135,0.7115056068399391
1790173702053452000,1.7244521484375,0.0293611190408468,-0.637882308474183,0.7773569762684405,0.5326584946512103,0.8534135641087519
1790173702063524000,1.734524169921875,-0.7838894467771053,-0.7940028445124626,1.4986701398842035,0.9894331709414214,1.5849155719733907
1790173702073596000,1.744595947265625,0.1582300755381584,0.1877683047115802,1.164835075636953,-0.2847645070361603,1.155873532020554
1790173702083667000,1.7546669921875,2.158698375323415,0.0552799886733293,0.5119231384763494,-0.9871259855249273,1.987632295265045
1790173702093739000,1.764739013671875,2.5559879668712613,-0.1702139433205127,-0.1578243442814797,-0.9242960940439338,2.3942916546390935
1790173702103810000,1.77481005859375,-0.9324982920110224,0.0463619382023811,-0.1286402623079717,0.3590813123321317,0.8713847727254898
1790173702113882000,1.784882080078125,-1.9864982266217468,-0.0641787499219179,0.0614321180948987,0.8985833225719763,1.7738703542936891
1790173702123954200,1.7949541015625,-0.7651470446452499,-0.9438894545972348,0.0586783258747309,1.176110036118716,0.3107822892275536
1790173702134025200,1.805025146484375,2.242279160329699,-0.6536246520072221,0.2956425866382196,-0.3724875588862945,2.324585678367113
1790173702144097000,1.815096923828125,1.0396247877776623,0.6368447821199894,0.0130899293281137,-1.0178012335326574,0.6712994645792754
1790173702154169000,1.825169189453125,-0.2219131508976221,0.5470633889079094,-0.1071692754624411,-0.3962740163849828,0.45052852913658675
1790173702164240100,1.835240234375,-0.7293035778477788,0.7464379602611064,-0.5999478972794487,-0.34107928265239906,1.1544070943890155
1790173702174312200,1.845312255859375,-1.297049981561303,-0.396086060976982,-1.2725883249998091,0.9609207292161167,1.5922736006908564
1790173702184384000,1.855384033203125,-1.00842710095942,-0.603016162276268,-0.8086155994936823,1.006584338039096,1.0105448372411492
1790173702194455000,1.865455078125,0.7213643092811107,-0.8300327737927436,-0.8157327380225062,0.4781183489561364,1.283021284526427
1790173702204527000,1.875527099609375,0.1329091717988252,-0.2252215447932481,-0.2918126896191388,0.1592855734035289,0.35801165360302384
1790173702214599200,1.88559912109375,0.7756321983024478,0.4972638774722814,0.3880922126788645,-0.7948855185854472,0.606340868462103
1790173702224670200,1.895670166015625,-1.7303706714332103,1.5130892719894646,0.7337177410282194,-0.664402190093013,2.3195976502111284
1790173702234742300,1.9057421875,-2.144930546733737,1.028142439776659,1.1154286551721393,-0.06546142955430367,2.626347237667027
1790173702244814000,1.91581396484375,-0.0589420183122158,-0.1296820264458656,1.440689221689105,0.08323879956887026,1.4453194543917676
1790173702254884900,1.925884765625,-0.7701686721995472,0.1748006865888834,1.195461611503735,0.1197123961259354,1.427764851249131
1790173702264957000,1.93595703125,-3.0662422588199374,1.65881057908833,1.3187798750713466,-0.2532763178226989,3.7186725578883557
1790173702275028500,1.946028564453125,-3.3325627067208288,1.492683612820506,1.9623168483063576,-0.01637245416902755,4.1454189074327354
1790173702285100500,1.9561005859375,1.3725760549277066,-0.373418886616826,2.584832953083515,-0.3507294247814494,2.9294635955037864
1790173702295172400,1.96617236328125,1.3833265815228224,0.2632031926631927,1.8811752731457352,-0.902293200130329,2.1696902408107053
1790173702305243400,1.976243408203125,-0.057128831410408,0.6567687952518463,0.5284594453986734,-0.5915066384869984,0.6033226631345496
1790173702315315500,1.9863154296875,-1.4652712897598743,0.3996978217333555,0.3007039434147067,0.24796810967135735,1.5283039551948177
1790173702325387500,1.996387451171875,-3.47375133882612,0.5822983684182167,-0.0295083911575842,0.9487164403545874,3.392171519072762
1790173702335458600,2.00645849609375,-2.949930878339708,-0.2962871316194534,-0.1539505715880542,1.5262404541589898,2.5464031703416903
1790173702345530600,2.016530517578125,1.393714996807277,-0.9925310281693934,-0.3170769678004085,0.31931866118700103,1.7105942623345092
1790173702355602400,2.0266025390625,2.7517519465118645,-0.3195633777886629,0.0615001463963882,-0.8812762435640579,2.6270504331078106
1790173702365673500,2.036673583984375,0.9080772597208618,0.2454191141694784,-0.4173208644464611,-0.5902592983996902,0.842962345408695
1790173702375745500,2.04674560546875,-0.8878963492184877,0.1236041678369045,-1.2175660374145951,0.31493768507253045,1.478823595716814
1790173702385817600,2.056817626953125,-0.9219695914730428,0.1649526617914438,-1.710619238389283,0.31221526122100773,1.9250914569550406
1790173702395888600,2.066888671875,-0.0760202866241335,0.0483738625466823,-1.110497190119326,0.03404471083604384,1.113626544889762
1790173702405960400,2.07696044921875,0.4291980569839477,0.9731137955158948,-1.0100948880411684,-1.020956075438398,1.0531390250173391
1790173702416031500,2.087031494140625,0.258417127430439,0.0700093557715415,-1.4252499527558684,-0.1145501879705374,1.4456473995796715
1790173702426103600,2.097103515625,4.968337278136611,-2.9207880782246587,-0.1152807770571671,0.5382161027549146,5.739250072223323
1790173702436175600,2.107175537109375,1.4528741650015116,-0.728159960770607,0.7238179129783063,0.012390286575862164,1.778993850395535
1790173702446246700,2.11724658203125,-0.8516729431927204,0.1476063901931047,0.372617945497483,0.2126436252693648,0.9169303520614076
1790173702456318700,2.127318603515625,5.620892839607596,-3.3208582404017446,-0.3398662341702729,0.6323716108362856,6.506777310630318
1790173702466390500,2.137390625,-5.068085354089737,2.4337942503541705,1.761720041681826,-0.12289041373372767,5.890449818211821
1790173702476461300,2.14746142578125,-5.660936096182465,2.086950066930056,2.569563487759232,0.40931958005943314,6.544973037830354
1790173702486533400,2.157533447265625,5.313547138357162,-3.615684651818871,0.3319489582397043,1.001941695964227,6.35714256893039
1790173702496605700,2.167605712890625,5.81329932551384,-2.497169867199659,-0.0283366530976258,-0.2071266416288413,6.323623005359029
1790173702506676500,2.177676513671875,-1.6235411127865311,2.497825700759888,1.363624978969991,-1.6263145464221624,2.844220992759061
1790173702516748500,2.18774853515625,-1.2717919139251113,0.7948428024679421,0.8866674650106579,-0.21560025634858737,1.7288509120023159
1790173702526820400,2.1978203125,1.072385486128926,-1.4045856426507233,-0.8479933048319072,0.8501835737603521,1.7661121126214876
1790173702536891400,2.207891357421875,1.3334154264062643,-1.3117267416894436,-0.4031852619903162,0.637168948234639,1.8042166807601485
1790173702546963500,2.21796337890625,2.7111586548388003,-1.4208458725780249,0.2357270836513489,0.12497212459164442,3.067431086653971
1790173702557035500,2.228035400390625,1.4797773694962262,0.083550389868021,-0.0784638803839683,-0.7003603474028334,1.3085769733687662
1790173702567106600,2.2381064453125,-0.674662179338932,0.6985521734923124,0.6882344122912735,-0.37377898147270155,1.130088525113115
1790173702577178400,2.248178466796875,-0.035035949806869,-0.8334650863289833,0.1866504065975546,0.7611260523358662,0.3891234696685637
1790173702587249400,2.25824951171875,2.3898323590308426,-1.9387989023357628,-1.4015220172964036,0.7969944445102672,3.286229405923395
1790173702597321500,2.268321533203125,2.243941248323023,-0.5331108514010906,-1.4034003783889113,-0.4125296903048561,2.6681138248744563
1790173702607393500,2.2783935546875,1.8883499870806928,0.7880541652411222,-0.5290206229453907,-1.4925373067565668,1.4963589972005102
1790173702617464600,2.288464599609375,-0.2402712298870086,0.4092617688924074,-0.4877321520823985,-0.24822844990449244,0.6336329759579269
1790173702627536600,2.29853662109375,0.2443544075474142,-0.8994342267990112,-1.5239683934003114,0.7723768162217001,1.6107776763637305
1790173702637608400,2.3086083984375,1.338932144001126,-1.585282986062765,-1.620567796064168,0.9321953683089614,2.462338971198548
1790173702647679500,2.318679443359375,1.627864821204543,-1.2077262689888475,-1.813138532621413,0.47595306693675266,2.677589705961511
1790173702657751600,2.32875146484375,-1.134934589022398,0.4394628458887338,-1.698137650217861,0.1537752617625534,2.0835615571020116
1790173702667823600,2.33882373046875,-1.162204288741946,0.3209159614413976,-0.9439423538282512,0.24165197907984143,1.5120639376149556
1790173702677894700,2.348894775390625,1.052471409869194,-0.1574041461080312,-1.4027797622725366,-0.24675318295523366,1.7433806417265572
1790173702687966500,2.358966552734375,1.468923382526636,0.2941121256679296,-1.7096327115699648,-0.8193270619910069,2.1203266305354127
1790173702698038500,2.36903857421875,0.1916986298978328,0.4257470397472381,-0.8926809531465172,-0.4298577444518856,0.9111040062493163
1790173702708109600,2.379109619140625,-1.5695084938257933,0.8243979827761649,0.0095254052469506,-0.0800168368399995,1.771066623637846
1790173702718181600,2.389181640625,-1.849998336854577,-0.0886760623186826,0.3056950479665771,0.8527965250502627,1.6722873077334923
1790173702728252400,2.39925244140625,-1.834334026993811,-0.7383359023481607,0.2237582307750359,1.437158951110383,1.3764312995447618
1790173702738324500,2.409324462890625,0.9524018468767405,-1.0134300238132476,0.1718804882932454,0.505460577350036,1.3069667930369304
1790173702748396500,2.419396484375,0.1622626920551061,0.360045025780797,-0.1760056419318541,-0.38732393989045993,0.19214513629556276
1790173702758467300,2.42946728515625,-0.4467351749792694,1.3692156385838985,0.8304821249954402,-1.0829911372355265,1.261409742356826
1790173702768539400,2.439539306640625,0.0160679222255945,0.5608493376761674,1.217083587659895,-0.5640455800502774,1.2157118082314045
1790173702778611500,2.449611572265625,1.3605875109702348,-0.4429927735805511,0.1124517459100112,-0.18132152747858749,1.4238008538007727
1790173702788682500,2.4596826171875,1.3815858753353356,-0.2973141365796327,0.6929176747366785,-0.3458103541635765,1.535488628955599
1790173702798754600,2.469754638671875,-0.1598483243897557,0.5583586899042129,0.9641350278336556,-0.4767627301319636,1.0195928424889427
1790173702808826400,2.479826416015625,-1.1624009803578257,0.4759007714480161,1.1302963347624986,0.01648383666733877,1.6896614071783476
1790173702818897400,2.4898974609375,-0.1618061804592609,-0.3307815218955278,1.1212735818080604,0.32189649729896946,1.1354447346963517
1790173702828969500,2.499969482421875,-1.106840128916502,-0.1036772320955991,0.3825695402672514,0.5478246167462323,1.0402363586522263
1790173702839041500,2.51004150390625,-1.4798025039374827,-0.258810510662198,-0.0255562103325501,0.8631682863323926,1.2297934625153253
1790173702849112600,2.520112548828125,0.1831575960457324,-0.7264695234656333,0.5689762012368068,0.556065692380052,0.7588343276667158
1790173702859184400,2.530184326171875,1.6176386107444762,-0.2806540936797857,0.5345455238467082,-0.45456408138787124,1.6657226084336771
1790173702869255400,2.54025537109375,1.7706541665047406,0.4575356781959533,0.1042780110003426,-1.1695879316980589,1.409784752289254
1790173702879327500,2.550327392578125,1.924240215629339,0.1977940241634845,0.7479438347794115,-1.0262141742103497,1.8022561782594426
1790173702889399600,2.560399658203125,1.2423469159930944,-0.3304711407721042,0.4161686256714165,-0.24537769595285686,1.328767528908978
1790173702899470600,2.570470703125,-1.4537760822772978,0.0196025260925292,0.3263367443811148,0.5858539139932882,1.3700802964143184
1790173702909542700,2.580542724609375,-1.7814450251102447,-0.4382622379273176,0.0758447108615189,1.1493472198459884,1.4319125514782898
1790173702919614500,2.590614501953125,1.1912193708240986,-1.8089467800199983,-0.6679179657757282,1.158132264266495,1.9483675499869701
1790173702929685500,2.600685546875,0.1000385833323001,-0.371199457001686,-0.6559041412465274,0.3202105129832867,0.6895449404591445
1790173702939757600,2.610757568359375,0.1598188060343265,0.5400672464102506,-0.0614586042430251,-0.5538232988435519,0.1194637815445946
1790173702949829600,2.62082958984375,0.1380026955455541,0.1986982795268297,-0.1524760420560836,-0.23204685864784352,0.1671195651547638
1790173702959900700,2.630900634765625,-0.2335930672973394,-0.0562836127579212,-0.5903183010056614,0.17425355997819203,0.6130619540402097
1790173702969972700,2.64097265625,-1.8143612062841648,-0.2453273442327976,-0.4671949754882603,1.0110660310387147,1.5962796492777647
1790173702980044500,2.65104443359375,-1.3793196839690207,0.2516886959582567,0.0029123437827453,0.3575846434999108,1.3557328994816484
1790173702990115300,2.661115234375,-0.7589940749734639,1.2950310429543257,0.3047295274026692,-0.8618079556096209,1.26622452218365
1790173703000187600,2.671187744140625,-2.1503402968227863,0.868466257083416,1.80552601179108,0.05297019357872712,2.9385907114940015
1790173703010258400,2.681258544921875,-2.700540814712644,-0.3589320961028337,0.8115569867078214,1.4374740199109244,2.4523552202519543
1790173703020330500,2.69133056640625,-1.3524597340941429,-0.8877227462172508,-1.2171015617080032,1.4268708927845426,1.4361666593170168
1790173703030402300,2.70140234375,-0.0031292379364371,0.1756301231503486,-1.3842685385480522,-0.10077245578247711,1.3917255588863051
1790173703040473300,2.711473388671875,2.6930472440868614,1.101450252571702,-1.5948915030159054,-2.073816164368296,2.5901084032470933
1790173703050545400,2.72154541015625,0.2837152348160743,2.34382814822495,-1.5274597426474092,-2.1778790247678828,1.7787638802727368
1790173703060617500,2.731617431640625,-2.518339496478438,1.408066470503807,-0.948968511427194,-0.16599451266086085,3.0327664041807028
1790173703070688500,2.7416884765625,-1.7470511725991964,-1.0119137740314006,-0.7100044186159968,1.6858735834752956,1.3183678624530804
1790173703080760600,2.751760498046875,0.0527656677648425,-1.3756161532759663,-0.5504514604436234,1.2444939196015712,0.8058136951105213
1790173703090832400,2.761832275390625,0.3673433660954237,-0.775691527274251,-0.1917928109873086,0.5536204038426854,0.6833208798908839
1790173703100903400,2.7719033203125,1.5867627032265066,0.3890881649136543,-0.3704727501623332,-1.0101635371577444,1.3364225242176828
1790173703110975500,2.7819755859375,-0.2674620191514492,1.0055091676861048,-0.4660691132634877,-0.7769132071153274,0.8343925364822983
1790173703121046500,2.792046630859375,-1.7479314625650644,0.5921586681753397,0.4473260535445064,0.18782299193977448,1.8896400207443034
1790173703131118600,2.80211865234375,0.5724266704842448,-0.835530202165246,-0.139484239340201,0.5185671836770356,0.8810941725204843
1790173703141190700,2.812190673828125,1.6760738485783335,-0.7866752781033516,-0.8291562832191586,0.034280777082765335,2.0283999875250402
1790173703151261700,2.82226171875,1.212087971329689,0.1554734703063964,-0.189240094297193,-0.6472710634923625,1.0536513815614306
1790173703161333500,2.83233349609375,0.2138081703752279,-0.0379600205600261,-0.0635887116068974,-0.05379361662443151,0.21978322942028342
1790173703171405600,2.842405517578125,-1.5145572987154126,-0.0585579874306917,-0.3923425635997206,0.711820454238288,1.3944737993680836
1790173703181476600,2.8524765625,-0.4363432525634765,-0.3133352970540523,-0.4405796845568344,0.48667445199988807,0.4958153675033009
1790173703191548700,2.862548583984375,0.9481494501292704,-0.8686796075731515,-0.2914540854398161,0.39533153130193105,1.257875234143638
1790173703201620500,2.872620361328125,0.499056898368895,-0.1112532203078269,-0.236479180660285,-0.10146300418348059,0.5541324106260761
1790173703211691500,2.88269140625,-2.470221069997549,0.890870396593213,0.0110278822317719,0.2420471292531572,2.614799609834912
1790173703221763600,2.892763671875,-1.050074870121479,-0.0763724610626697,0.2960411940343678,0.5025838142179411,0.9713598117694855
1790173703231835600,2.902835693359375,2.2112018850207327,-0.8624129483938217,-1.0118358864896,-0.11682226364951842,2.5774666418366237
1790173703241906400,2.912906494140625,0.0990361282914876,0.4279167850017547,-1.902482703460008,-0.35108559009104867,1.9207030678863735
1790173703251978800,2.922978759765625,-0.6681964904561638,1.0270371088832615,-1.5773106920093296,-0.5807490882161014,1.9110026919249328
1790173703262049500,2.933049560546875,0.556618568238616,-0.9618933133214712,-1.10105306994766,0.6790096496022329,1.4093710424543227
1790173703272121300,2.943121337890625,1.1008218915402888,-0.7801520138144493,-1.238242987805605,0.2892869794293631,1.8083154431501895
1790173703282193400,2.953193359375,0.8155348773628472,0.1879728873729705,-1.1238903401777147,-0.4700473599231589,1.3200817848741848
1790173703292264400,2.963264404296875,1.7688515009969472,-0.1824257746398448,-0.3901026757184416,-0.5696719529121074,1.7290947803692236
1790173703302336500,2.97333642578125,0.339470147524774,-0.0155015205144882,-0.2466032824527472,-0.11993309658972105,0.4023798074675505
1790173703312408300,2.983408203125,-2.715136910820007,0.4526519978076219,-0.0841694716144353,0.7462814345185915,2.650850956968567
1790173703322479400,2.993479248046875,0.6117658704429865,-0.9695037883251904,-0.1405503707343712,0.6231016254630215,0.9724679156016768
1790173703332551400,3.003551513671875,2.163743968275189,-1.9665338814795017,0.1425906443903222,0.8547110350213905,2.799793671993422
1790173703342623500,3.01362353515625,2.1663713941693303,-0.5122159474104643,0.8394756518553942,-0.4904858077685549,2.328019165877385
1790173703352694500,3.023694580078125,1.4118752151370049,0.90178634288311,1.076634448810294,-1.459047199697158,1.3553351012755424
1790173703362766600,3.0337666015625,-1.50953596342206,0.6884323460161685,0.640168958106637,-0.008342102417976283,1.7783094849200118
1790173703372838400,3.04383837890625,-2.45665168658942,-0.5062871418833732,-0.0256131098852492,1.5015905718813098,2.0093147998992666
1790173703382909400,3.053909423828125,-1.4706743178471922,-0.8686924670547247,-1.0247088120661676,1.4519364991943084,1.363604819339665
1790173703392981500,3.0639814453125,1.5511469077050686,-0.4176490734875202,-2.058902953097224,-0.1960751082093975,2.6040590239242123
1790173703403052500,3.074052490234375,0.67490826305449,1.0103063388347626,-1.1104579540874808,-1.1547598454038273,1.1729734136236902
1790173703413124600,3.08412451171875,1.5022759092912077,0.7241255906879901,-0.2120377814355306,-1.2838635560355143,1.0852857545208547
1790173703423196700,3.09419677734375,1.5617849138364197,0.28409634308815,0.2804630828860215,-0.9312862758085996,1.3157690764703254
1790173703433267700,3.104267822265625,0.5366691284045577,0.1550467693269252,-0.2900836556031368,-0.356108843162645,0.5190262740273043
1790173703443339500,3.114339599609375,-2.0994360390156506,0.1345481711775064,-0.003320175664965,0.7694097893832796,1.9579975719731009
1790173703453411600,3.12441162109375,-1.2497829112127423,-0.8375304360717535,0.5893418206563219,1.2638160941644374,1.0067309562198794
1790173703463482600,3.134482666015625,0.8347317452639341,-1.3532248732477423,0.3651378188751638,0.8548351144847219,1.3894521215013298
1790173703473554700,3.1445546875,0.0472290764257311,0.0486363128751516,-0.0744077003283426,-0.060986242653365955,0.08008283627154066
1790173703483626500,3.15462646484375,-0.167048465026915,0.2746528074383735,-0.0635264052267186,-0.17493859505064152,0.2770766075011848
1790173703493697300,3.164697265625,0.7870224841058254,0.1729249558448791,0.5968457665456458,-0.5148990283909057,0.8604715512134137
1790173703503769600,3.17476953125,0.034312311707437,0.1473100375950336,0.5956670050898566,-0.17223817762121266,0.5899413301620776
1790173703513840400,3.18484033203125,0.6926607773661613,-0.6400128907620907,-0.0909358056779019,0.288694902012064,0.9023968235480867
1790173703523912400,3.194912353515625,1.313428869432211,-0.481706827378273,-0.4163485853482037,-0.10460410955740057,1.4558643437442826
1790173703533984500,3.204984619140625,0.5868661147251725,0.9579764321386812,-0.1025145632580853,-1.1113941807115297,0.19350165866555227
1790173703544055600,3.2150556640625,0.3782107970684766,1.3141431551814078,0.1565776686886325,-1.3556385965410005,0.2382775718141155
1790173703554127400,3.22512744140625,1.112273259881139,-0.3260837194681167,-1.1127305751945822,-0.13144756954928621,1.6013660625170085
1790173703564199400,3.235199462890625,0.1160524372830986,-0.6289157426863908,-1.5965452615723013,0.5851054479118901,1.6172852459201241
1790173703574270500,3.2452705078125,-2.8123025690644976,0.2279886714190244,-0.3596133928978815,1.0020322361810157,2.6620063418909776
1790173703584342500,3.255342529296875,0.4647080540433526,-0.6512117456465959,-0.2202990119655616,0.4008705484937248,0.7265430277582939
1790173703594414600,3.26541455078125,0.4265820292666554,-1.0384522368669509,-0.7477779766932129,0.7889602010479312,1.0941064754113443
1790173703604485600,3.275485595703125,-1.0180343027383087,-0.3292980053395032,-0.8542620829030871,0.7649414975295414,1.1355435832743863
1790173703614557400,3.285557373046875,-1.614328755544126,0.3034726592093706,-0.0795073980875313,0.41385874156762753,1.59160150610728
1790173703624629500,3.29562939453125,-0.4728074816077947,-0.0693541067332029,0.7905013391975313,0.2309722256388903,0.894371905328859
1790173703634700500,3.305700439453125,-2.096288680900633,0.0473947883814573,0.3367510978244245,0.832963136126923,1.9535214908921261
1790173703644772600,3.315772705078125,-1.798878682731092,0.1286287180006504,-0.4084948396405204,0.6638260888046347,1.7258947882516233
1790173703654843600,3.32584375,0.1179085865437984,0.312132935526967,-0.7925833331033587,-0.2998770908203384,0.8059723782709916
1790173703664915500,3.33591552734375,-0.4018430170685053,1.1404881314963102,-0.8170257735077291,-0.8275866030979661,1.2020077027204679
1790173703674987500,3.345987548828125,-2.300312539364397,1.1033756676763296,-0.9756986974425612,0.018181441296262646,2.731397632378114
1790173703685058600,3.35605859375,-0.4772466330990195,0.3390297102808952,-1.87800511867702,-0.02711798297168999,1.9669451781974332
1790173703695130600,3.366130615234375,-0.8209887588545679,0.3019616701245308,-2.2352551069118083,0.16694263288381775,2.3945143438056697
1790173703705202700,3.37620263671875,0.2488034959107637,0.3056459115952253,-1.475150878739357,-0.321569102080963,1.492643973117714
1790173703715273700,3.386273681640625,0.7574985757187008,-0.1507528715252876,-0.2218936607458628,-0.17601170800203278,0.7840836663356707
1790173703725345500,3.396345458984375,0.215514389771223,-0.7029623911499977,-0.812288442787528,0.5777130743089678,0.9309472023849973
1790173703735417600,3.40641748046875,-2.339064294824004,0.1734907730340957,-0.5356307983327656,0.8577089306004593,2.247789261950349
1790173703745488400,3.41648828125,-0.8021224380820989,-0.1110959839195013,-0.0190199586979113,0.44168448413490813,0.6789840194151575
1790173703755560700,3.426560791015625,1.0296662883430718,0.4125204784274101,-0.4361953319927677,-0.7922380683712098,0.8905116625558096
1790173703765631500,3.436631591796875,2.361322888383269,0.3045651306211948,-0.949406318322569,-1.2386828208044973,2.2440238253431355
1790173703775703600,3.44670361328125,2.5798785455465314,-0.196957573339343,-1.2742037973724305,-0.8644637499534038,2.7515201866825962
1790173703785775400,3.456775390625,-0.5147101023137569,0.0807838477641344,-0.3630457419667393,0.16025236673003362,0.6144704298833427
1790173703795846400,3.466846435546875,-3.474591881303489,0.1173895311057567,0.2973681683218106,1.3562021922410317,3.21492029215734
1790173703805918500,3.47691845703125,-0.8619827402830124,-0.341704482448101,-0.1895366295583546,0.6826781427936877,0.6554776008125968
1790173703815990500,3.486990478515625,1.3351432731121775,-0.9559557399660348,-0.4540991644086316,0.3167106903853385,1.6740248881731024
1790173703826061600,3.4970615234375,1.5047262250527738,-0.0281236862003803,-0.8691121537715196,-0.5775107742730877,1.6391550248585203
1790173703836133400,3.50713330078125,0.1534101080358028,0.8905325429409742,-0.6734562376152724,-0.8430203860003678,0.7479590925011765
1790173703846205400,3.517205322265625,-1.4587980020925402,0.3053022127240896,-0.5366398292448371,0.3649441601058426,1.541460060572437
1790173703856276500,3.5272763671875,-0.417770654040575,0.1075543657898902,-1.006689025120437,0.12129138055057129,1.0884904479507516
1790173703866348500,3.5373486328125,1.597340211342275,-1.123318970030546,-2.041905933327973,0.42193798817213857,2.7936874259477738
1790173703876419600,3.547419677734375,-0.0842599994421005,-0.117594113767147,-2.608282802253961,0.2490889169926601,2.6003888192083626
1790173703886491600,3.55749169921875,-2.048077023178339,0.1061702179551124,-1.5784689221337436,0.8378762693397843,2.448554492648875
1790173703896563500,3.5675634765625,0.2710787483438849,-0.7470493701577187,-1.2215567875511943,0.6107942331242678,1.3231393876879571
1790173703906634500,3.577634521484375,2.919335541328788,-0.6272749897420405,-1.4272140924356878,-0.6130073744353385,3.2522539784211566
1790173703916706600,3.58770654296875,3.408843982368708,-0.6076034900665283,-1.3320491064891218,-0.8424461419275684,3.6130373119194603
1790173703926778600,3.597778564453125,2.2111650601416826,0.1728355239957571,-0.2374527384001761,-1.0849969550397869,1.9489198167380801
1790173703936849700,3.607849609375,0.5693316270783543,0.6865840878009796,-0.0380303093172609,-0.8611089949472708,0.23552879751923558
1790173703946921500,3.61792138671875,0.0964846902430057,-0.3185293585658073,-0.2055035025622695,0.25560603152677563,0.29608697021673724
1790173703956993500,3.62799365234375,1.8381454019755123,-1.5784095931619404,-0.9739039229802788,0.6875987376067558,2.519097495101635
1790173703967064600,3.638064697265625,1.0351011728733777,-0.7695961330085992,-1.3735845013178885,0.31317991664469375,1.858054188686855
1790173703977136600,3.64813671875,2.3907237549126146,0.7477893748700618,0.0521701860897243,-1.6931514490532797,1.846810472235157
1790173703987207400,3.65820751953125,3.824006499737501,0.9779226571023464,0.4571467519436031,-2.5261964268386357,3.0670300290589037
1790173703997279500,3.668279541015625,3.0701234841674565,0.601826075708866,0.1360133483592421,-1.8528888162189978,2.5245109425593917
1790173704007351600,3.6783515625,-0.5433718409135937,-0.6680331165879965,-0.4211034517250955,0.8521397143109205,0.43898431259555504
1790173704017422300,3.68842236328125,-2.7009306908130646,-2.178876655477285,-0.5493574911944568,3.1396794316878633,1.5769390589770613
1790173704027494400,3.698494384765625,-5.984856500136852,-1.868542293804884,0.10916099726893,4.225626548414774,4.633136521582861
1790173704037566500,3.70856640625,-4.417729348489642,-1.6223580404818057,-0.5094662833761423,3.363236225793685,3.331152381898617
1790173704047637500,3.718637451171875,3.93314842697978,-1.7753578141510489,-2.179845208248496,0.026103459024062303,4.834521243957008
1790173704057709600,3.72870947265625,5.335584782642126,0.9861737680971622,-2.596707515272498,-3.0499264556546626,5.18477021753285
1790173704067781400,3.738781494140625,1.792759323067963,3.439391096323728,-1.822976182155311,-3.7971755045968707,1.986981995870393
1790173704077852400,3.748852294921875,-1.1846104740783572,2.255160269212723,-0.7717529457163065,-1.505521879566677,2.1950071285760253
1790173704087924500,3.758924560546875,-5.465948946133255,-0.4295551998585462,-1.1634056273557245,2.755956136877356,4.880505504231275
1790173704097995500,3.76899560546875,-6.63729398818612,-3.4875247203737496,-2.7344524366647005,6.083576182875226,5.165639468290873
1790173704108067600,3.779067626953125,-2.8462939782544967,-3.140691058343649,-3.1107211597546933,4.176415814066175,3.1936604103083828
1790173704118139400,3.789139404296875,-1.2318959568664432,-1.9073890340715645,-2.8612413720175622,2.3654671333815886,2.783337565886821
1790173704128210400,3.79921044921875,1.6644988538578152,-0.1226794542074203,-1.9173928339526056,-0.516798465078006,2.488959885005066
1790173704138282500,3.809282470703125,4.377256468325853,2.2824778997272253,-1.23245154492259,-3.871739444084459,3.301310351958198
1790173704148354600,3.8193544921875,4.878274145373702,2.119929960989952,-1.4394839375525712,-3.9288434671808483,3.8636724361398183
1790173704158425600,3.829425537109375,-1.6722525367245078,0.7649269721537828,-1.256738867830485,0.06930797014741863,2.2262369160760493
1790173704168497700,3.83949755859375,-5.503668143674731,-0.8208440896868705,-0.0184068135019391,3.078950434568814,4.63514304930557
1790173704178569500,3.849569580078125,-4.380244836486876,-1.3565414504498243,-0.0622136603940278,3.0885427862259713,3.389914974088522
1790173704188640500,3.859640625,1.8147510823845865,-3.0347996573299167,-0.7490271730367094,2.0056837363154054,3.0069261558896065
1790173704198712600,3.869712646484375,3.0308254930019376,-1.0554109704524277,-1.1240589747428893,-0.28548368112403155,3.3884809475772
1790173704208783600,3.87978369140625,0.099184596851468,2.042101455900073,-0.2449330111529677,-1.879232702217977,0.841720007668088
1790173704218855700,3.889855712890625,-2.975950577998161,2.700909648025036,1.5902818172633646,-1.2453601505286707,4.138752121506673
1790173704228927500,3.899927490234375,-4.672836912980675,0.7551765625119209,1.2197035608999431,1.2499916044376103,4.725557556647637
1790173704238998500,3.90999853515625,-1.100357196637988,-1.831627398383617,0.9065119101002812,2.0866058151159246,1.0166045948059732
1790173704249070300,3.9200703125,2.278480646784604,-1.264671560525894,0.5686739668872207,0.15367527623713273,2.6628259807699934
1790173704259142700,3.930142578125,3.626285540810227,1.135762272018194,0.8722769744779915,-2.6020831627624696,2.9034347067398962
1790173704269213400,3.94021337890625,1.3249801910161971,3.5417087305039163,1.493297068543732,-3.8271994448296236,1.371770309756739
1790173704279285000,3.950284912109375,-1.004559319615364,2.987657966926694,0.5309614182822406,-2.2979364180441872,2.2218568361389006
1790173704289357000,3.960357177734375,-1.0569693058103322,0.7421434779375791,0.4345188136152922,-0.24055794534927077,1.341230602687487
1790173704299428000,3.970427978515625,-0.243638660493493,-1.2142489487558603,0.5809734034247696,1.177922828587798,0.6955488565301907
1790173704309500000,3.9805,-0.4023518433734774,-0.0941512788593769,0.0458089804947376,0.25404008281821366,0.32911026752833744
1790173704319571000,3.990571044921875,1.4887787143364548,0.2325198851078748,-0.2782658833689987,-0.8307374149761211,1.2875693404387227
1790173704329643000,4.00064306640625,0.6189677646458148,0.837027747246623,-0.1467226661611348,-1.0138007191394918,0.27833825818430763
1790173704339715000,4.010715087890625,-2.55809809089303,2.074711347603798,-0.8188116340111941,-0.757472794112291,3.3083198872960176
1790173704349786000,4.0207861328125,-1.145794421210885,0.7569716292351484,-1.1720722603488714,-0.15039147191006813,1.7991627752376762
1790173704359858000,4.03085791015625,3.605511632850766,-0.875189427858591,-0.6607074498750269,-0.7113951517499245,3.700827196944584
1790173704369930000,4.040929931640625,2.2435303294345736,-1.0897253279864787,-0.7406836345180868,0.06395404091352153,2.6010482034444884
1790173704380000800,4.051000732421875,0.5489043405994772,-0.3076180884510278,-0.8552460524391382,0.08037847977029586,1.0587303592859498
1790173704390072800,4.06107275390625,-5.069870483940839,1.758991201239824,-1.028856433264911,0.6026961113020199,5.430740255956424
1790173704400145200,4.071145263671875,-2.7889649480968712,0.5543903707951306,0.1824172990724444,0.6746536577431554,2.7683555909669577
1790173704410216000,4.0812158203125,2.174540087577701,-1.2533610619604587,0.6811817173007876,0.18294197409139135,2.594239640091385
1790173704420287700,4.091287841796875,1.3866755996897815,-0.3895733180820941,0.5886167212521657,-0.26024013469991936,1.5340734355843348
1790173704430358800,4.10135888671875,-0.2604080089867115,-0.4298328477561474,-0.2578790750309824,0.5098950931340999,0.2430580578610493
1790173704440430800,4.111430908203125,-0.1922907505720853,-1.039382795715332,0.4248561187895014,1.0043580596115045,0.5376429470855989
1790173704450503000,4.1215029296875,-1.8613748863935469,-0.3437643375873565,0.953781756927818,1.0617882208052658,1.8344470015514123
1790173704460574000,4.131573974609375,1.1876362516403198,-2.5782617579996585,0.8044799609936774,1.7951573274528707,2.3414764009714926
1790173704470646000,4.14164599609375,2.2695395076990126,-2.3366309301972388,0.3825971589265391,1.1347418196335037,3.0772382536544995
1790173704480717800,4.1517177734375,-1.6038348340585826,-0.7957587482690811,0.2668316122934222,1.3895129626528968,1.1601599011882682
1790173704490788900,4.161788818359375,-0.3217518277436494,-0.8851771533876657,-0.1474851384336128,0.9432836989706446,0.13795129883734442
1790173704500861000,4.17186083984375,0.9315934521257876,0.8406628888785839,0.2489846976965665,-1.1659911433801229,0.5263444556822959
1790173704510933000,4.18193310546875,0.1752437541812658,1.2524749267756938,-0.2045955026055686,-1.1989084965162016,0.45153244872213716
1790173704521004000,4.192004150390625,2.5657228866830466,-0.6069692838162183,-1.2210006149731576,-0.4897616721982032,2.863969561457665
1790173704531075800,4.202075927734375,0.949856838569045,-0.3654892626613378,-1.1217601962812245,-0.02650510600716427,1.5144153433630914
1790173704541147000,4.21214697265625,-1.842282647910714,0.2591670690149069,-0.6589634557519107,0.5744389295876763,1.8882334804375633
1790173704551219000,4.222218994140625,-0.2022463273972272,-0.8762900825768709,-1.0373891376800837,0.9210210091707439,1.0181770029866997
1790173704561291000,4.232291015625,-0.1222413550511002,-0.3985258553445339,-0.5798665746940299,0.4361438254896088,0.5654994378401257
1790173704571362000,4.242362060546875,-0.2105062062203884,1.268026716172695,-0.1463691856815014,-1.0516552594527864,0.7534253576615053
1790173704581434000,4.25243408203125,0.523361610803008,1.462206056970358,0.4301620797105133,-1.5623886004043182,0.39488631889523734
1790173704591506000,4.262505859375,0.4596797044873237,0.9071955084502696,0.5529612147748469,-1.0383632920987527,0.5117390936180378
1790173704601577000,4.272576904296875,-1.2025962126240133,0.6189853003025054,1.009030400614813,-0.09091204930386754,1.6850097332847858
1790173704611649000,4.28264892578125,-1.7238982605487108,0.2085369519740343,0.8728511211041361,0.5071789110953823,1.8761533798744547
1790173704621721000,4.29272119140625,0.7435135972470045,-0.2461409987032413,1.096617644783482,-0.13786253134175935,1.3405081282246383
1790173704631791900,4.3027919921875,2.800522699421644,-0.1098959604799747,1.810736001524329,-1.1633611907750534,3.1273567303907743
1790173704641864000,4.312864013671875,2.018647515076399,1.3309621880352496,1.7715918857462702,-2.1332651099734603,2.1057340564077993
1790173704651935000,4.32293505859375,0.8294067508488893,1.0661521446973086,1.1926308450572192,-1.3652874531772794,1.1759908404298804
1790173704662006800,4.3330068359375,1.2769371678590773,-0.0513823967128992,1.3995299666963517,-0.5528328294866658,1.812806848970618
1790173704672078800,4.343078857421875,-1.735496343883872,0.3550508707553148,1.4007795283660291,0.3579225796749332,2.2298168970806977
1790173704682150000,4.35314990234375,-1.4289929386764764,-0.4610311190962791,0.616071166421473,0.9982122363137882,1.2797212684533061
1790173704692222000,4.363221923828125,0.1987526400625705,-1.7848118711948393,1.0188888006757943,1.4883215006305917,1.4311147844925394
1790173704702293800,4.373293701171875,-1.4746195483416318,0.2013373958587646,1.4380024668231606,0.38472429915112105,2.0334399099935654
1790173704712364800,4.38336474609375,-0.4561845558479428,0.4565232862830162,0.465230507014878,-0.23842639521910244,0.7590191951676679
1790173704722436900,4.393436767578125,2.091193988110125,-0.3998509664684533,0.6239904151134192,-0.5513845035709938,2.1490258859932028
1790173704732508000,4.4035078125,1.6980030640527606,0.5534568893373012,1.099908722218126,-1.2663497800085313,1.6720306114935037
1790173704742580000,4.413580078125,1.6506427624627946,0.3943810106247663,1.250502311528474,-1.1085338975210055,1.7930606626651433
1790173704752652000,4.423652099609375,0.5219043977320194,0.1122170969039201,1.283969989105314,-0.3756497619151775,1.3388215215276964
1790173704762723000,4.43372314453125,-0.7309852473244071,-0.6156383279621601,1.7113747329317033,0.7969188975459555,1.7908304581710592
1790173704772795000,4.443794921875,-0.0591828413307666,-1.1011311036199332,1.807544219745696,0.947021846893039,1.8937682128261124
1790173704782867000,4.453866943359375,0.4007397320017218,-1.3205009997755288,1.0407523305028676,0.98171101993211,1.422576574390282
1790173704792938000,4.46393798828125,1.6878800217062233,-1.840952860611677,-0.0650523178860545,0.9515834522286315,2.3101443981223997
1790173704803010000,4.474010009765625,-0.688797087675333,-0.674533584523201,0.7467965644404292,0.8718436643006657,0.8526609632899556
1790173704813081900,4.484081787109375,-0.167615451259911,0.0525993712872266,0.8860187918435781,-0.012778206907646583,0.9031764225715009
1790173704823153000,4.49415283203125,0.3179980281680822,-0.295689165726304,0.4655675204169004,0.11341875475610982,0.6264536142312698
1790173704833225000,4.504224853515625,1.176583527228236,-0.5355144054114819,0.9171099495474248,-0.05253890780374798,1.5841258781024061
1790173704843296000,4.5142958984375,-0.593200578443706,0.8458499361276626,0.5545875738676637,-0.5361081561778567,1.042834820420338
1790173704853368000,4.5243681640625,-0.296026727117598,0.1196428629904985,-0.0302224120453,0.01864706664477124,0.32017482556862803
1790173704863440100,4.534440185546875,0.6269809752315283,-0.1863502546072006,0.0331883491788059,-0.09888209666793102,0.6474220865665729
1790173704873511000,4.544510986328125,-0.2242991692513227,1.0700433069169522,-0.0470431253995746,-0.8707888161021026,0.6627538678902288
1790173704883582700,4.554582763671875,-1.0331848178580405,1.4449422029584644,0.0141503251012414,-0.869130395296119,1.549238982667198
1790173704893654800,4.56465478515625,-0.6688762894138693,0.1352875913679599,-0.0850355138592422,0.1649769393902802,0.667616559864217
1790173704903725800,4.574725830078125,-0.5938809619233012,-0.0978770213842391,-0.4005716088932007,0.3569983096205624,0.6287164138380233
1790173704913798000,4.5847978515625,-1.167769229392707,0.3983914153099059,-0.6734372406538576,0.16284039339570505,1.3962096605765484
1790173704923870000,4.594869873046875,-1.2255524330586194,-0.4682067098140716,0.1954289024673402,0.935614469786126,0.9402203513736742
1790173704933941000,4.60494091796875,-2.4005361238747835,0.0800976190656423,0.6615523032013326,0.9191818947721512,2.3155442999005267
1790173704944012800,4.6150126953125,-2.54069804328084,0.6247627146601676,0.578215190757811,0.4894055612614583,2.634443015172293
1790173704954083800,4.625083740234375,-1.049377243246138,0.5749444985240697,-0.0851077023126185,-0.07123125966023502,1.1974653246195097
1790173704964156000,4.635156005859375,0.8570312553554773,-0.3357645710051059,-0.04891439916417,-0.05799343699213816,0.9199292361425735
1790173704974228000,4.64522802734375,1.281954703760147,0.2389139700591564,0.14019713684991,-0.7659074459283761,1.0646730808255545
1790173704984299000,4.655299072265625,-0.3707043669611215,0.9291671017616988,0.1412470842942595,-0.6889476700969942,0.7389689285550739
1790173704994370800,4.665370849609375,-0.1440355459690094,0.6847492735892534,-0.1702184733651578,-0.5512828064620482,0.4633458774583989
1790173705004443000,4.67544287109375,-1.9083947039827704,-0.2140145066022872,-0.649672991771996,1.0301318725515558,1.7460457830816198
1790173705014514000,4.685513916015625,-0.883766702067852,-1.0534797101289033,-0.2746880248822271,1.3392515629194621,0.4155981780141033
1790173705024586000,4.6955859375,-2.313116199097037,-0.3627408407360315,0.1960031952239573,1.3017426886817856,1.9560088683501726
1790173705034657000,4.705656982421875,-0.689089933142066,-0.1225076047718524,-0.2106824395701289,0.4118966910501871,0.6038056437545124
1790173705044729000,4.71572900390625,0.3426970006167888,0.2946253358870744,-0.0480282639794051,-0.4099710809003417,0.19615236359676033
1790173705054801000,4.72580078125,2.926761307415366,-0.7378741300553083,-0.5026752349965274,-0.55402961487392,3.009339389319531
1790173705064872000,4.735871826171875,2.2968229436829684,-0.4987888950824737,-0.4131311576716601,-0.5066268771263331,2.3319932584161633
1790173705074944000,4.745944091796875,0.1774348344847559,-0.6108049164563417,-0.0206045427419245,0.4780473194933159,0.42007270080633724
1790173705085016000,4.75601611328125,-0.0857300719946622,-0.5865946043074131,0.1192361818857491,0.5620978082541028,0.22294886425681953
1790173705095087000,4.766087158203125,-0.339554026415944,-0.634603725194931,-0.0860790315628051,0.7216643138075377,0.06803706885256816
1790173705105159200,4.7761591796875,-0.5474854137122631,-1.3070008822113277,-0.3327833632372319,1.4282422846074507,0.28082081054588715
1790173705115231000,4.78623095703125,-0.0622656097769737,-1.714655215907097,-0.850894798427075,1.6123105119027878,1.0336325685640588
1790173705125301800,4.7963017578125,-0.3700111239999532,-0.9183516932368276,-1.0659102987654507,1.0314351216244655,1.0259553690333871
1790173705135373800,4.806373779296875,1.7240256863206624,-0.5054138661801815,-0.8180594274044036,-0.2409397094813568,1.9593052407373615
1790173705145444900,4.81644482421875,1.4206640862703324,-0.3191016054958105,-0.3849848943132907,-0.29848443799165036,1.4762224391244518
1790173705155517000,4.826516845703125,0.2251893960893154,0.4617506655424833,0.4115737721618264,-0.5301226374513133,0.39023954237516106
1790173705165588700,4.836588623046875,-0.7977344322562218,0.1125479362934827,1.0438816415045409,0.19393774706668254,1.3042715568868288
1790173705175659800,4.84665966796875,0.1986222916811704,-0.8549187932461499,0.1155400307815521,0.6842859203372117,0.5616397740005512
1790173705185731800,4.85673193359375,0.3537619999885559,-0.7050251688987016,-0.0910855346132069,0.49133311894468323,0.6237759070855567
1790173705195804000,4.866803955078125,0.5791425347357988,0.8047270676225423,0.3474113888528198,-0.987945065635073,0.357282730196322
1790173705205875000,4.876875,3.52784445580244,0.2293663895130157,0.6292184519600122,-1.7304575972285352,3.146383290296217
1790173705215947000,4.886947021484375,3.270972219726444,0.4349906689107418,0.7119242807626723,-1.8108327746890336,2.84889399380058
1790173705226018800,4.897018798828125,1.8704209471583368,-0.1989899559497833,1.2300247561670838,-0.664231760213075,2.147051138572559
1790173705236089900,4.90708984375,-1.0862941844940186,0.0594043751269578,1.1456728406578305,0.3602963645586832,1.5382836937823037
1790173705246162000,4.917161865234375,-0.8556967918813229,-0.3154775697797536,1.669685901106894,0.5800442033209777,1.8119444878966353
1790173705256233000,4.92723291015625,-0.5376873655363917,-0.3796574887454509,1.4092752617716788,0.513817098585382,1.4680927301982327
1790173705266305000,4.937304931640625,-0.6250257495105266,0.0865484026402235,1.836542789084464,0.11165452162403833,1.93870330311005
1790173705276377000,4.947377197265625,0.2097054112315177,-0.757166275024414,1.752193503923714,0.5240446602009937,1.8473863691284003
1790173705286448000,4.9574482421875,-0.1600508612245321,-0.4104717292040586,1.1950989887364207,0.3902079568043013,1.2124779016460105
1790173705296520000,4.96752001953125,-1.3547282635480165,0.3976847283452749,1.542477279037237,0.15195329231672766,2.085566629123871
1790173705306592000,4.977592041015625,1.3375427354693412,-0.4118745817393064,0.7584190515644847,-0.2261792531395258,1.575659748649738
1790173705316663000,4.9876630859375,1.984147279581428,0.456635514485836,0.0110159725982695,-1.2555535154289674,1.6028297294804499
1790173705326735000,4.997735107421875,0.3906222426131367,1.2408587232619523,0.3647806760005653,-1.303154369550678,0.3566086625753819
1790173705336806100,5.00780615234375,2.105663535228372,-0.5403881489276886,-0.3327248379830271,-0.39116943446461816,2.1641466138973584
1790173705346878000,5.0178779296875,0.7193821955531835,-0.7409083831846713,-0.954253831418976,0.4040224729202055,1.3467821619346907
1790173705356950000,5.027949951171875,-2.1941990200325847,-0.0116623807430267,-1.0843083444390444,0.9862100417784151,2.24003564479499
1790173705367021000,5.03802099609375,-0.0478296726673841,-2.031735544708371,-1.9063097144022585,1.936279499119811,2.0037653130373436
1790173705377093000,5.048093017578125,0.2665957577109337,-1.589666315713525,-1.896022713665664,1.402544751326565,2.055695173075544
1790173705387165200,5.058165283203125,-0.5778203462213277,0.4093120377749204,-0.5945039161272346,-0.10064303816482986,0.9190857315475872
1790173705397236200,5.068236328125,-0.576546088501811,0.5626911661505699,0.3278022868890315,-0.277744766028738,0.8242201919778154
1790173705407308000,5.07830810546875,0.735869804495573,0.036098902863264,-0.6086779143650084,-0.319988365836031,0.9005019428749763
1790173705417380000,5.088380126953125,-0.6622638855367898,1.0441156694561242,0.2706859496340155,-0.6744975763013881,1.0710251575863747
1790173705427451100,5.098451171875,-1.0964885385110974,0.0150958623230457,-0.7211387568969279,0.48125592356348634,1.2210441609046663
1790173705437523200,5.108523193359375,-1.6310197781041265,-0.1787654985666275,-0.8557876119699329,0.8889845857645002,1.623040807595092
1790173705447594200,5.11859423828125,0.265910698056221,0.1058615903973579,-0.4961524821642786,-0.18826081068766987,0.5409624093956998
1790173705457666000,5.128666015625,2.1188205384433267,0.2897434090644121,-0.5804962143670768,-1.1374885018093053,1.9016959484553952
1790173705467738000,5.138738037109375,0.4448123902231454,-0.0570177722513675,0.0572607872270047,-0.13954652914497004,0.4300170378089511
1790173705477809000,5.148808837890625,-0.7107868011653423,-0.5523170716524124,0.4085642881475388,0.7844950351599457,0.6014684877102512
1790173705487881000,5.158880859375,-0.0673778382241725,-0.5259779307812452,0.3878124458894133,0.48846473404336505,0.4393099743180854
1790173705497953300,5.168953369140625,-0.5131505979120731,-0.214712425738573,0.3132914579123258,0.39914671771815124,0.49825535344812644
1790173705508024000,5.179024169921875,0.0979872037604451,0.5601344674050808,0.5241682510107756,-0.5697496982526369,0.5229624751210062
1790173705518096000,5.189095947265625,-0.5857938093185424,1.0904776076585054,1.2101545921143144,-0.7874129820137553,1.5416714087029422
1790173705528167000,5.1991669921875,-0.5364899724453688,1.114488597843051,1.3202686523243783,-0.8345717201045214,1.6051497386751221
1790173705538239000,5.209239013671875,-0.4622442942783236,-0.2239776822119951,0.179591574127227,0.3914062359121394,0.3780080445023741
1790173705548311000,5.21931103515625,0.3645256783261895,-0.6390156964182854,-0.0546183829594403,0.4255607819588231,0.6025788073304718
1790173705558382000,5.229382080078125,-2.035139800193906,0.2272784773230552,0.6278823810506612,0.6323596275718235,2.046413227683659
1790173705568454100,5.2394541015625,-0.5088257204502821,0.1004091702103614,0.3392750633440911,0.11120234792279517,0.6096943674314833
1790173705578526000,5.24952587890625,1.5823255975618955,-0.0598760842919349,0.6902168182801455,-0.6456662043660369,1.6021403967649237
1790173705588597000,5.259596923828125,0.197582427239418,0.3919266032099723,0.9106767746947704,-0.4757142596675972,0.8920052740734812
1790173705598669000,5.2696689453125,-2.478650460168719,1.0065256512522698,1.0537539970256389,0.09824852122760108,2.8735947356312286
1790173705608740000,5.279739990234375,-1.0069701801493762,-0.0966582932442426,-0.0613188304461538,0.5172947420394689,0.8714917774646876
1790173705618812200,5.289812255859375,-0.6188122818231582,-0.1415413910657167,-0.3146905841205269,0.4035537417454265,0.5823548289293958
1790173705628884000,5.299884033203125,-1.2267629778921605,0.2745797422021627,-0.1878976301796734,0.27995972738959835,1.2398667304278015
1790173705638955000,5.309955078125,-0.3287225435391068,0.2867716997772455,-0.227833261661604,-0.11055004706695654,0.4795656374645802
1790173705649027000,5.320027099609375,0.0544651651591062,0.213761408624053,-0.6956262030430138,-0.18794633470563699,0.7051470652732698
1790173705659099100,5.33009912109375,0.3051502370327711,0.3011807488799095,-1.0810834641084075,-0.3576029685054284,1.106656262776188
1790173705669170200,5.340170166015625,0.2886298948645591,-0.2193640509366989,-0.8942815202109515,0.11260682543180196,0.958377244778833
1790173705679242200,5.3502421875,0.74536828520298,-0.1822527561604976,-2.083879281182587,-0.06601451144234066,2.2196812587701897
1790173705689314000,5.36031396484375,-0.0255178876161575,-0.2683680280804634,-2.443993865068257,0.3538048540271259,2.4332284518397174
1790173705699385000,5.370385009765625,0.0812690009325742,-0.3248024474859237,-1.3828727002754806,0.3160190954728523,1.3872887647743508
1790173705709457200,5.38045703125,-1.3723100974678992,-0.4289981504976749,-0.951145709335804,1.009449339283409,1.39748510136995
1790173705719528000,5.39052783203125,-0.2978808305516839,-1.106726147148013,-0.4549563292272389,1.1461640754014062,0.45482845970146746
1790173705729600000,5.40060009765625,0.5651864900976419,-0.3459276531010866,-0.4788274725496769,0.09268532953210423,0.8122726684597693
1790173705739672000,5.410672119140625,1.6972475695103406,0.0175642982631921,-0.3510371416019275,-0.7217870921809323,1.575819877120251
1790173705749743000,5.4207431640625,-0.3290180193543434,0.3202724028408527,0.2120951559122651,-0.15876823792640143,0.48021273501282963
1790173705759815000,5.43081494140625,0.1489130888774991,-0.8977490501910448,0.2646079083619639,0.7380111806369135,0.5945463039836033
1790173705769887000,5.440886962890625,0.528909892579913,-1.0548217723876236,1.1052879310384391,0.6843501611220959,1.4648279467033858
1790173705779958000,5.4509580078125,0.6691799485355615,-0.7386632346063852,0.9992278954595328,0.3431889000595624,1.3689787958991984
1790173705790030000,5.461030029296875,1.336746908916533,-0.5332639961361885,1.3527696768261492,-0.14041168285806882,1.9701606903829778
1790173705800101000,5.47110107421875,2.160966612516344,0.3034223903268575,0.9528710718236864,-1.2306282590442668,2.0384698219306863
1790173705810173000,5.4811728515625,3.309656170646846,1.0499456907838582,0.1411638995228335,-2.360102092153769,2.5506970189805434
1790173705820245000,5.491244873046875,0.6671370445311069,1.138214925867319,0.4280324838032945,-1.3302517515279082,0.39274309465679513
1790173705830316000,5.50131591796875,-3.3557594579130408,0.7748550764501094,0.6153695209581405,0.6980195746344006,3.428260528259892
1790173705840388000,5.51138818359375,-4.056755517426133,-0.7637146737545728,-0.2056084242414683,2.420895753254803,3.3499349257959237
1790173705850460200,5.521460205078125,0.9946259546220302,-2.3439953214854,0.1253839273931458,1.6930113562399731,1.9060505065827207
1790173705860531200,5.53153125,3.742597505812346,-1.2438140659362078,0.17116192822773,-0.4702465466083019,3.919473703472337
1790173705870603000,5.54160302734375,1.0864362233132123,0.9508160389900208,1.2325047364145516,-1.3716759482242007,1.3122377169077606
1790173705880675000,5.551675048828125,-1.188355798086524,2.323749236792326,0.1863879745353944,-1.6052658677137916,2.0663644376883936
1790173705890746000,5.56174609375,-3.5549484435662624,1.397018422266841,-1.342917998766899,0.3000802890686822,4.037660149157142
1790173705900818200,5.571818115234375,-0.5808633671790361,-0.9425339483350514,-0.4482432049220428,1.1174635493612886,0.4218645300357499
1790173705910889200,5.58188916015625,2.152703518822789,-1.274770929735899,1.3745875408805903,0.1831404310100797,2.8487056452580948
1790173705920961000,5.5919609375,1.4691954774662852,0.0591156213134527,1.4832602431759236,-0.7378099332719457,1.9539005755263517
1790173705931033000,5.602033203125,-0.4374257871031761,0.516806197810173,-1.398691031654179,-0.22448098907966937,1.5376523836321023
1790173705941104000,5.612104248046875,-1.3879641781955956,0.0492687655597925,-1.4884958057418465,0.6055117430211305,1.943668506713154
1790173705951176200,5.62217626953125,-0.7465285611540079,-0.4139069643497466,-0.3074623133674263,0.703827235106204,0.5725243794109569
1790173705961248300,5.632248291015625,-0.0079494976997375,-0.1252934360980987,-0.0990432886846363,0.12076947926672248,0.10481386145953867
1790173705971319000,5.642319091796875,-1.9251701899558304,0.0881967543691396,0.5099136618174612,0.7163337323226351,1.8603593347040874
1790173705981390800,5.652390869140625,-3.405695162948966,0.4440881676018238,-0.5604899297792464,1.0666266026463596,3.3124659236660774
1790173705991462000,5.6624619140625,-0.8940887741178274,-0.6207715991973877,-1.311806967318803,0.9947557928959989,1.3842147761021804
1790173706001534000,5.672533935546875,3.736774206486344,-1.7013783857047555,-0.8632849089227617,-0.011464733746297195,4.195628591219541
1790173706011606000,5.68260595703125,2.3602511674985287,1.0594096846997738,0.3398131888087838,-1.9738911230603327,1.706564177318232
1790173706021677000,5.692677001953125,-0.1808288608372211,1.5252461582511665,-0.3620149010816589,-1.288074840754122,0.9115881270579579
1790173706031749000,5.7027490234375,-1.665582849702239,-0.2924742953330278,-0.5921800032243132,0.9956981769822975,1.4896206695751972
1790173706041821000,5.712821044921875,-2.5980887404978272,-0.8421990124046802,-0.0111976219086442,1.864873126383248,1.9954292493664074
1790173706051892000,5.72289208984375,0.9770610718369483,-1.2480799066871404,0.2630924805640243,0.7035077222956279,1.4445228726382622
1790173706061964000,5.732964111328125,3.949497504234314,-0.7794862433820963,0.2054599374151788,-0.9794672588997643,3.9101134272807276
1790173706072035000,5.74303515625,-0.7888058603912591,1.8666905284583568,0.3995632355682552,-1.370139949217362,1.545676393427858
1790173706082107100,5.753107177734375,-3.0854519862025973,1.745969807103276,-0.5520099784646183,-0.24724680042171698,3.5793866181908225
1790173706092179000,5.763178955078125,-1.2196700970217584,-0.1249836394965648,0.2511292902435176,0.6203713063644102,1.0869321130451528
1790173706102250000,5.77325,2.5661089633911844,-1.167588904389739,0.7479922770310193,-0.06356087149645728,2.916098682103071
1790173706112322000,5.783322021484375,2.0932593962073325,0.4229086014509201,0.0450962519483873,-1.2727494469353184,1.7154384577294204
1790173706122394000,5.79339404296875,-0.7895429424941539,1.549156026148796,-1.6887617729768156,-0.9969634640611647,2.2093534413014178
1790173706132465200,5.803465087890625,-1.4438047233611344,-0.2943085250228643,-0.2998641498560085,0.8912497157242885,1.2111077737721352
1790173706142537200,5.813537109375,-0.5847323175668716,-0.3531324699133634,0.0765975293896626,0.5644394974623557,0.3922877256903162
1790173706152608300,5.823608154296875,-2.269139110204577,0.6850549785375595,0.4628847110737115,0.3243507718469636,2.393188554549597
1790173706162680000,5.83368017578125,1.3154916471809148,-1.0391466488718986,-0.2048310283944941,0.39007907525682195,1.6432096935279996
1790173706172752100,5.843752197265625,0.8641077696129679,-0.388689520984888,0.2636083028653636,-0.02593922378790625,0.9831471279710875
1790173706182823000,5.853822998046875,-2.341475155358016,0.683493136048317,-0.9610953678768128,0.41485654897154156,2.5886805751412627
1790173706192895200,5.863895263671875,-0.3954261357635259,-0.6265601194709539,-2.58782570515871,0.840691219311537,2.5571506733489495
1790173706202967000,5.873967041015625,1.6935194888979197,-0.7474263867765665,-0.988846494437754,-0.0020770311832837285,2.09868233385385
1790173706213038000,5.8840380859375,0.0827767751470208,0.5675257467001676,0.5373162306690589,-0.5705195030502466,0.54051243838697
1790173706223110000,5.89410986328125,-1.0666092408150434,0.5962684415817261,0.1125247380809858,-0.09131123670592012,1.2237301180202165
1790173706233181000,5.904180908203125,0.4195154518812894,-0.10811433776021,-0.9153335144594312,-0.04270736055188096,1.0117773709882212
1790173706243253000,5.9142529296875,0.2285357839077711,-0.6133744746834039,-0.2830507247590459,0.46944724081487943,0.536836894780341
1790173706253325000,5.924324951171875,-1.2799474555909631,0.0298205532461404,-1.176578193465993,0.5644713735414407,1.6446467913389868
1790173706263396000,5.93439599609375,-2.372659398172796,0.8077478767484426,-1.1044177971404046,0.3215734746424711,2.7199813277256415
1790173706273468200,5.94446826171875,0.4680965274378657,0.2180693349510431,-0.7745837121628224,-0.36414612959914616,0.8567649136672665
1790173706283540200,5.954540283203125,2.169350994502008,-0.1116430964082479,-0.1268113481140695,-0.814463369944855,2.017740928699978
1790173706293611300,5.964611328125,0.769120916712284,0.4998410344839096,-0.2407971899898722,-0.7686639767416727,0.5554520878032458
1790173706303683300,5.974683349609375,-3.863181741306185,0.382947177940607,0.5579018860474229,1.2702215371977523,3.7106082342856426
1790173706313754400,5.98475439453125,-6.711856184956431,0.1851204205513,0.235942352103535,2.6713170923195606,6.164658693183305
1790173706323826400,5.994826416015625,-1.2323650356829166,-1.4082225378483533,-1.4860161177553235,1.8577498881375307,1.5029383063291077
1790173706333898200,6.004898193359375,2.6033587898552417,-0.7302145552128553,-0.1529062136342749,-0.43805262356686303,2.6724858268128227
1790173706343969300,6.01496923828125,3.575135783809423,0.9650690207481384,0.398048995080404,-2.4065279976013714,2.842537613951246
1790173706354041300,6.025041259765625,1.3842144702732562,2.237158164054155,0.9800218213386832,-2.651257667580836,0.9231478219125274
1790173706364113400,6.035113525390625,0.7240589551925659,1.2277063962221144,-0.1407733658352866,-1.4120328935988489,0.23980119649972273
1790173706374184400,6.045184326171875,-2.511521633157134,0.1868172875970602,0.2448383734057657,0.8868382150920731,2.36983236160402
1790173706384256300,6.05525634765625,-3.165838359081745,-0.6167196934580803,-0.2901215764607303,1.9133009070744753,2.612723840027582
1790173706394328300,6.065328369140625,-1.0006959221854803,-1.5109750563144684,-0.5919856131633743,1.8157144722389043,0.5814343221532182
1790173706404399000,6.075399169921875,0.9251774476036428,-0.529014521998167,-0.2416871610995382,0.09579555046227939,1.0885979838265931
1790173706414471200,6.08547119140625,2.116919673258066,0.1796902121961116,0.6703334294196218,-1.088426925177632,1.9437878512152391
1790173706424542200,6.095542236328125,0.8030223095312714,0.0596282470107078,0.2333240410976111,-0.4042993571790885,0.7344266439782822
1790173706434614300,6.1056142578125,-1.4973133184477685,0.2971481323629617,-0.3386005250833928,0.38054428352770114,1.5166016451359279
1790173706444686000,6.11568603515625,-4.007632297816873,1.4749299294650553,0.5172531378600747,0.3454382281294739,4.287745114918749
1790173706454757000,6.125757080078125,2.0634841434076425,-0.7051783136337995,0.1951908741940744,-0.2458565779461077,2.1755223015550675
1790173706464829200,6.1358291015625,6.614772359776497,-1.8178519710093728,0.5948230650790035,-1.1872954136128802,6.7826206763853145
1790173706474901200,6.1459013671875,0.1308724052742123,1.6334423290759323,-0.2567395496070385,-1.5225436974259274,0.6580557078547946
1790173706484972300,6.15597216796875,-2.641620131449401,1.141432134348154,-1.1802057363133878,0.13699129714922365,3.1072726305771323
1790173706495044400,6.16604443359375,-0.8454661975070834,-1.7339900309741496,-0.5228166902713477,1.9487284041412898,0.4442177587220554
1790173706505115400,6.176115478515625,-3.1330706464678046,-0.3213701349496841,0.2137806795801036,1.6115720885259726,2.7143964378552976
1790173706515187200,6.186187255859375,0.7710615293860436,-0.8988175562053918,-1.418305248184502,0.5439568566792925,1.765816977079296
1790173706525259300,6.19625927734375,3.70881623224169,-0.6758318076401949,-0.1142340627495199,-0.9579752976575412,3.647930814438216
1790173706535330300,6.206330322265625,-0.7896443570420145,1.7078163097977637,0.7829789808686822,-1.2417973893843244,1.6159115343421444
1790173706545402400,6.21640234375,-3.082751495072245,0.941003670027852,-0.6357029916737228,0.48317174827393483,3.249539666271036
1790173706555474200,6.22647412109375,0.4207914631664752,-1.8910913947433232,-1.2368525563605128,1.582728741735255,1.6667531595910363
1790173706565545200,6.236545166015625,-0.4877408468455076,-0.7595078697144985,-0.2643231366038322,0.9048448029930499,0.2566436067397454
1790173706575617300,6.2466171875,1.5952970150768755,0.9868471373140812,-0.0730524497944861,-1.566685164428729,1.0342504990175674
1790173706585688300,6.256688232421875,3.749242058393359,0.2538847446978092,-0.0137793089649174,-1.8202266318555584,3.2875885317440896
1790173706595760400,6.266760498046875,1.956463153842092,0.0362707522988319,0.8198324284262954,-0.89673129572892,1.9227745145423987
1790173706605832400,6.27683251953125,-2.8327473912000656,-0.2456961775451898,-0.7211712709270417,1.4540073920926226,2.5476999234135937
1790173706615903500,6.286903564453125,-2.983978109370172,-0.7187526654779911,-2.117532690589875,2.003353411446473,3.1450358592382814
1790173706625975300,6.296975341796875,0.9122413936629892,-0.9760878428906202,-2.293759756720066,0.5898369283584564,2.5881186326836363
1790173706636047400,6.30704736328125,1.4570800922587512,0.0126870476156473,-0.9022603170704095,-0.5928462776197674,1.6080579365515268
1790173706646118100,6.3171181640625,-1.1526681063726545,0.6600882950633764,0.003756868315488,-0.10805667907566696,1.3238950822837414
1790173706656190200,6.327190185546875,-0.5938491054803132,0.2597866622179746,-0.5928679854884743,0.04134557467950545,0.877455902947668
1790173706666261200,6.33726123046875,2.452339960870147,-1.808032003262639,-0.5612642386199906,0.6177244411740257,3.035849974691177
1790173706676333300,6.347333251953125,1.5278452348336578,-0.2758826414942741,-0.2899406304032542,-0.38696232035246975,1.5312570082346864
1790173706686405000,6.357405029296875,0.5878709078535437,0.5862374614328145,-0.8149182067692279,-0.7463497973152265,0.8923677656993413
1790173706696476200,6.36747607421875,-0.2336690551429986,-0.5047668004482985,-1.0887861474402247,0.6004025949002764,1.0650646689572307
1790173706706548200,6.37754833984375,1.3052554998487234,-0.6502665737509727,-0.033138116828911,0.03562076270134984,1.4582070610426734
1790173706716620300,6.387620361328125,-1.846670945997536,1.173787759029865,0.7528824602253734,-0.30891608133801474,2.2933325401357654
1790173706726691300,6.39769140625,-1.6098919421404598,0.5240338109761477,-0.0938656851173378,0.21305590002830582,1.6821954258410772
1790173706736763100,6.40776318359375,0.5096902283251286,-0.6792518452167511,-0.1826210597499273,0.40559916797483664,0.768119108265632
1790173706746834200,6.417834228515625,0.4800204817265271,0.5380424625843763,0.0814458736031316,-0.6937423092213043,0.21275430229280073
1790173706756906200,6.42790625,-0.7165954874441027,0.8458516896933317,-0.9220647224105896,-0.423187896045708,1.37843735096552
1790173706766978300,6.437978271484375,0.4392959648892283,-0.0455722491294145,-0.2287290414575487,-0.1358306464305541,0.47846084955304163
1790173706777049300,6.44804931640625,0.3329541897594928,-0.5858288806319236,0.0908240706654265,0.38488495856247734,0.5605056202621446
1790173706787121400,6.458121337890625,-3.470448497888446,1.1686790377140044,0.0175219934914261,0.4149751928715737,3.63839608608593
1790173706797193200,6.468193115234375,-3.151585377323628,0.5620575444221496,-1.4102603272862733,0.8869229773296544,3.383873652606471
1790173706807264300,6.47826416015625,1.2174258252263068,-1.4310960484355688,-1.6590391271471976,0.8458691620407496,2.359465559377731
1790173706817336300,6.48833642578125,0.2229138523727655,0.4368938721835613,-0.1025991728016175,-0.4855875782824132,0.12368563056640981
1790173706827407400,6.498407470703125,-3.868091432918608,2.4831559548944235,0.3544478633608668,-0.6190965810065934,4.5684294392026015
1790173706837479400,6.5084794921875,0.3875622705206274,-0.0142594114989042,-0.0756842596028,-0.14847547178248316,0.36618436036782365
1790173706847551200,6.51855126953125,2.2188637979507444,-1.2514175266772507,1.185636602255702,0.1416868177347249,2.8062539760720275
1790173706857622300,6.528622314453125,-1.48793904864192,1.0402683463782072,-0.0692226258406415,-0.3066704425755835,1.790772418965805
1790173706867694300,6.5386943359375,-2.329184121322632,0.6268646553754806,-0.6588621142692863,0.4484697517033418,2.459884577496887
1790173706877766400,6.548766357421875,-2.0356530104130504,0.064191609403491,0.013797730537597,0.8052800188286784,1.8707533803697365
1790173706887837200,6.558837158203125,-3.924382644461095,0.6676467476189136,0.0233469185189343,1.0605903704716126,3.8369551032584144
1790173706897909200,6.5689091796875,-0.662265639102459,-0.6487976702421904,0.3248266320791095,0.8546086240221425,0.4844487943037114
1790173706907980300,6.578980224609375,3.980093718028068,-1.162709900176525,0.93002978300564,-0.6755198569851035,4.19543426075911
1790173706918052000,6.589052001953125,1.9840140085905789,1.6301912183254956,1.1633293472491204,-2.3642912527830573,1.5353491579356806
1790173706928124200,6.599124267578125,0.2764119260653853,2.323636424067616,-0.1571917089337483,-2.2127068574152453,0.7773849629559184
1790173706938195200,6.6091953125,0.5876432365775108,0.8733926075696945,-0.7123005667291581,-1.0102076403889582,0.7713571423893965
1790173706948267300,6.619267333984375,-1.200830664256215,0.1746381895035505,-0.3238003577712923,0.36492957745052057,1.2017345200358114
1790173706958339300,6.62933935546875,-3.452821071261168,-1.200892039054632,-1.6473481048315763,2.6191637592444317,3.03609156982504
1790173706968410400,6.639410400390625,-3.218484784381092,-1.4963853899478912,-1.9555932391397648,2.7996429567674888,2.929873337558034
1790173706978482200,6.649482177734375,-2.71913182567507,-0.1633697765141725,-0.3325281828997656,1.315384305766326,2.408465629782495
1790173706988553200,6.65955322265625,1.7958318623811005,-0.1256535015821457,0.3685231139319017,-0.6635851291851316,1.7135533088379375
1790173706998625300,6.669625244140625,3.093948011869192,-0.1561234586477279,0.6696555301580578,-1.1992795619942047,2.933778433308097
1790173707008697300,6.679697265625,1.6027382709935307,0.6765864253997802,0.3035295222294517,-1.304639477231421,1.1902038319786856
1790173707018768400,6.689768310546875,-1.2208783037677406,0.8392021686762571,1.2455382593803106,-0.29204927359713795,1.9133418120903665
1790173707028840200,6.699840087890625,-0.980249054223299,0.279674434992671,0.9461172136493028,0.12422983722504682,1.385211437795942
1790173707038912300,6.709912353515625,1.6761135960668323,-1.822925036489964,0.2597416174998507,0.9269508314461107,2.310982548511526
1790173707048983300,6.7199833984375,2.044853677217662,-1.2155974407553671,0.5167316712692379,0.21056420073840476,2.425237727865392
1790173707059055400,6.730055419921875,-0.6506921056866646,1.000278865817189,0.1389506621864624,-0.6343537398976358,1.0202257813853788
1790173707069126400,6.74012646484375,0.1294429569929838,-0.1487368555277586,-0.5610355809632689,0.10261258017527516,0.5857556767150773
1790173707079198500,6.750198486328125,1.3424620716929434,-0.4108136745095253,0.4304888639794662,-0.21577890844980724,1.4524917947364344
1790173707089270300,6.760270263671875,0.6728162592113017,0.2108312003910541,0.4253418199472129,-0.49368617953231186,0.6590304497155041
1790173707099341000,6.770341064453125,-0.4652057744324207,-0.1592307770133018,1.149891627396643,0.29430631231536836,1.2154856651568364
1790173707109413400,6.780413330078125,-2.715902049973607,0.408369203966856,1.063971585787833,0.7395794040800769,2.8509554875907477
1790173707119485400,6.7904853515625,-2.473547584071756,0.4263818305194378,0.354856151900813,0.649512592744823,2.450366380048518
1790173707129556200,6.80055615234375,1.8377157783865927,-1.625887968173623,0.578634183354862,0.667061437406935,2.431163820900215
1790173707139628300,6.810628173828125,1.598338282468915,0.3930728506356477,0.3790951421549544,-1.0494185964419995,1.323489806292328
1790173707149699300,6.82069921875,2.887622890725732,0.8343921380460262,0.2724144904596731,-1.9913986928130512,2.2678441524829536
1790173707159771100,6.830771240234375,1.3361843065977097,0.5989192483514547,1.2069058925166725,-1.1583083097611055,1.5030091350932335
1790173707169843200,6.84084326171875,-2.0861030947119,0.5704249752730131,0.6470388438761234,0.34280902091350285,2.2312220899871575
1790173707179914200,6.850914306640625,-0.1851923167437315,-1.9340309572815888,0.1112319765903987,1.823461064873798,0.6798045567734671
1790173707189986300,6.860986328125,1.3505188291594383,-0.8954676612555981,0.4823101270336657,0.21707082583176507,1.6766832603329398
1790173707200057300,6.871057373046875,1.1412950639650226,0.3251478999227285,1.4329521976962685,-0.8372289533621344,1.6615279896498272
1790173707210129200,6.881129150390625,-1.035018463025987,1.195019347628951,1.200484481167048,-0.6909333534199869,1.860942919776673
1790173707220201200,6.891201171875,-0.7603297074913978,-0.4644879815518856,0.5878307950388639,0.7187233599115288,0.7891971392583765
1790173707230272300,6.901272216796875,1.3105521449521182,-2.1326555870503188,1.4279913604184984,1.314350931160063,2.5646457324168743
1790173707240344300,6.91134423828125,1.0665057804405689,-0.8129144657313824,1.307405517489463,0.2290941618374921,1.8587871208081772
1790173707250416400,6.92141650390625,0.3907897081345319,0.1861380731612444,0.5206456663751975,-0.35556900868424646,0.5762001112830759
1790173707260487400,6.9314873046875,0.8021306213885545,0.2144417921036481,0.7997861771542578,-0.5671869894708021,1.0036710935918614
1790173707270559200,6.941559326171875,1.7309943562895058,0.882134716951847,1.1004474322047084,-1.577678740563553,1.580005526249061
1790173707280630300,6.95163037109375,-0.1165092411398887,1.817352204793692,-0.3759781791782006,-1.5790235053790855,0.9820324842987558
1790173707290702300,6.961702392578125,-1.0369102681219575,0.5572060127377509,-0.8848745902445166,-0.0276800565026728,1.4723784498899264
1790173707300774400,6.9717744140625,-2.208414300128817,-0.0800076026946306,-0.311318477338925,1.0223659318340412,1.9837293245955034
1790173707310845400,6.981845458984375,-2.920843023282289,0.4535878173530101,-0.9677449619591236,0.8689680283178742,2.986384227099136
1790173707320917200,6.991917236328125,-0.5149348509803414,-0.4405804517418146,-3.1197944007873533,0.7449963752887887,3.104410819978866
1790173707330989300,7.0019892578125,0.7604296607345342,-0.7203478257149457,-1.604266503474116,0.3946598925274624,1.8748516854237738
1790173707341060400,7.012060302734375,-1.3875190647765994,1.470872178506851,-0.4841087008882314,-0.7217770047877391,1.949890589304782
1790173707351132400,7.02213232421875,-3.5158901063755152,1.7168004112422466,-1.1592790489450095,-0.013285271332175164,4.080764426800358
1790173707361203200,7.032203125,-1.0741527880623936,-0.3314554756343364,-1.6817396192550658,0.824642208800044,1.847127585974438
1790173707371275500,7.042275634765625,-0.2678320215076208,-0.7256073536783456,-1.1033118817251175,0.8152581164946198,1.0727960362074493
1790173707381347300,7.052347412109375,-1.232427579525113,0.0278928000539541,-0.5171488007027656,0.5190064049590618,1.2319622481020909
1790173707391418000,7.062418212890625,-0.4885647304490208,-0.0412497097551822,-0.8426724020700901,0.27921050379934764,0.9340959833830254
1790173707401490200,7.072490234375,0.8642600375652313,0.2540402275204658,-0.7348739253260195,-0.566439786960304,1.0152179586686507
1790173707411562200,7.082562255859375,0.16775719781816,0.0778559776186943,-1.1422047261558472,-0.09477977409142858,1.1531922916611501
1790173707421633300,7.09263330078125,-0.3574561783313751,-0.3999550113648176,-0.6044948565267027,0.5382692950812853,0.6028425400409614
1790173707431705300,7.102705322265625,-1.509991598235071,-0.3777741592168808,-0.2189910163732245,0.9915212022593102,1.2196846776257193
1790173707441776400,7.1127763671875,-1.837079234048724,-0.3448386888206005,-0.9072910777792336,1.1287677549805282,1.7443721760606534
1790173707451848200,7.12284814453125,0.7158379470750689,-1.1850912433326244,-1.988221104891598,0.8497132076606093,2.268893088746096
1790173707461920300,7.132920166015625,2.4233286781802774,-0.8822638962894678,-1.5560089607834815,-0.16657517075889816,3.0073789358363165
1790173707471991300,7.1429912109375,1.8347642351046205,0.4536462695419788,-0.2017513834871351,-1.1807278236344905,1.4895436091376208
1790173707482063400,7.1530634765625,1.019926984617114,0.842546218407154,-0.3646421808453277,-1.1800190548209417,0.7004670830335159
1790173707492135200,7.16313525390625,-0.7758008328676224,1.2428905213505028,-1.5280097777456043,-0.732354942877642,1.9862310789205464
1790173707502206200,7.173206298828125,-1.703220214179158,0.123140641978383,-2.2168138796836137,0.7023490896834453,2.708706748445482
1790173707512278300,7.1832783203125,1.0049737456351515,-0.723497229656577,-1.7137456998467444,0.29821617473360706,2.093182244241325
1790173707522349300,7.193349365234375,0.4524509222775697,0.3609820143699646,-0.6759483466919511,-0.49082285545015736,0.7423065025525216
1790173707532421400,7.20342138671875,-0.2863707177609205,0.4564543127000331,-1.710341152100265,-0.2212157966639614,1.7795193607958737
1790173707542493400,7.213493408203125,-2.46787918304652,-0.101579383033514,-2.0076316155433656,1.221555067518286,2.939240370218381
1790173707552564500,7.223564453125,-2.603115044227242,0.1364852767199277,-1.2801884247399866,1.0337754099452832,2.7138583177598314
1790173707562636300,7.23363623046875,-1.7628250803142784,0.4676648580223321,-0.3839257041165605,0.34084246253250305,1.8323449580333573
1790173707572708400,7.243708251953125,1.1821049209982155,0.098321258020401,0.4002975411921739,-0.6070251574999088,1.0948962022372817
1790173707582779400,7.253779296875,2.2894810564875603,0.6640986997485161,0.5920238993471488,-1.5966208645387359,1.866559590085687
1790173707592851500,7.2638515625,0.4041770129740238,1.1361661766439677,0.0209306374577106,-1.2001066345021258,0.12006163489950591
1790173707602922200,7.273922119140625,0.9009364480555055,0.0284656315058469,-0.4236124023387208,-0.3907254220495761,0.9161211096745124
1790173707612994300,7.283994384765625,-0.8730249433010816,-0.8009984024882316,0.3411137134807184,1.0810580786124089,0.5928262718588037
1790173707623066400,7.29406640625,-2.0424431089445947,-0.283100317788124,-0.2956907000962644,1.1349962106590932,1.7466929424257478
1790173707633137200,7.30413720703125,0.0690302816063165,-0.8106932825505733,-1.217670155376196,0.7539512948144108,1.255494655700626
1790173707643209200,7.314209228515625,-0.5264391185522079,-0.3195809134453535,-0.6186297648631036,0.5378611419653864,0.6875160243360597
1790173707653280300,7.3242802734375,-1.1796131041824818,0.0196130474865436,-0.5785651732392609,0.5066004865931758,1.2124212773865664
1790173707663352300,7.334352294921875,-0.5412696079373359,0.0647498278081417,0.1612659909016452,0.16452664549621307,0.5441534998702795
1790173707673424100,7.344424072265625,1.7851941485106944,-0.4825725042968988,0.0465513050283305,-0.3230159561782322,1.8214340739742152
1790173707683495200,7.3544951171875,1.070526414258778,0.5092874927431345,-0.1098010122055187,-0.9104940652122104,0.7671097531546868
1790173707693567200,7.364567138671875,-1.459038825111091,0.9871563493937252,-1.2758135706566274,-0.22141324313077093,2.1637810411794964
1790173707703639300,7.374639404296875,-1.7591840934634209,0.8993570699095725,-1.451784762329608,-0.007399569938391748,2.451774063079266
1790173707713710300,7.38471044921875,0.9384218368411064,-0.2096311769515275,0.2507467389330268,-0.21891725046938368,0.9692935255859245
1790173707723782400,7.394782470703125,2.483110362187028,-1.0730676231741905,0.9027790802475064,-0.12018385633822071,2.8491888500261804
1790173707733853400,7.404853515625,0.1113175177156925,0.4351742087841033,0.0420192328229546,-0.44260219579063365,0.08739046829942644
1790173707743925200,7.41492529296875,-1.6774501053676008,0.3464654132395982,-0.6475982313245534,0.42505385254743294,1.7811765297741646
1790173707753997300,7.424997314453125,-1.9721862081527708,0.2253179909050464,-0.1717320562658831,0.640206575872421,1.8867734564627807
1790173707764068400,7.435068359375,-0.0971317559748888,-0.3373784359425306,0.0706873646309599,0.343498832702918,0.10131161092390427
1790173707774140400,7.445140380859375,0.8430407239258288,0.1628331854194402,0.962463368294388,-0.5445372662011536,1.1692079410857508
1790173707784212200,7.455212158203125,0.2020703863084316,0.4404951115459203,0.3331169425731524,-0.4978670986142113,0.31299142778268485
1790173707794283300,7.465283203125,-1.033126073408127,0.1564396849900484,0.434106323824264,0.2791388178028479,1.096518435492685
1790173707804355300,7.475355224609375,-1.3545569986343382,-0.4261532824605703,0.7166138268183916,0.9309505804937379,1.2896889842775494
1790173707814426400,7.48542626953125,-0.3426280270338058,-0.8593792797863483,0.4405253240210935,0.9046948326312999,0.48116164887623214
1790173707824498400,7.49549853515625,3.372914590853453,-0.8561381059080362,-0.8224259520508348,-0.6232844966227555,3.520997894980393
1790173707834570500,7.505570556640625,1.5654554190427064,0.9002923049330711,-0.9842603356912732,-1.438360819204334,1.4700555994671807
1790173707844641300,7.515641357421875,0.280038007608056,1.7184002476543188,-1.05099636888057,-1.630126040554329,1.2159782712492528
1790173707854713000,7.525713134765625,-0.6558955195486545,0.4227887744635343,-0.1023954121241346,-0.09987942101436531,0.7806780399487891
1790173707864785200,7.53578515625,-0.7607759899541735,-0.8710381533980369,-0.725511492088437,1.140515244306122,0.7503862167068046
1790173707874856200,7.545856201171875,-0.0850327373802661,-1.383466866776347,-1.217321195808053,1.3374224051578147,1.2705838586412854
1790173707884928300,7.55592822265625,0.2233218486517667,-0.1951607530504465,-1.3488906434357166,0.1370723219150006,1.3742916408571042
1790173707894999300,7.565999267578125,0.9014876521974802,0.1983703627467155,-1.0565963808447123,-0.5186894623908263,1.3036057461900237
1790173707905071400,7.5760712890625,0.7730477347671986,-0.2791284915477037,0.1014208497372455,-0.07974680441893306,0.8242828100650813
1790173707915143200,7.58614306640625,-2.326758940002322,0.2351718609213829,0.9246522546857596,0.7368099654870843,2.4044138237633588
1790173707925214200,7.596214111328125,-0.2054804870128631,-0.1613543450385332,-0.0603301847349852,0.23563099137178095,0.1279657075202827
1790173707935286300,7.606286376953125,3.320207083016634,-0.5892793133467435,0.3788769328270107,-0.891566051298626,3.274092681897141
1790173707945357300,7.616357421875,2.363135783024132,0.4055786964654922,0.5451596011132002,-1.3921129722239087,2.026851072794334
1790173707955429400,7.626429443359375,-2.4450819525659084,1.0562509284079074,0.6870658799685537,0.05406044685200306,2.750132500449607
1790173707965501200,7.636501220703125,-2.299063416086137,-0.6245084476381539,0.4977224348947405,1.520188005760141,1.9006471113012084
1790173707975572200,7.646572265625,-2.299259815441072,-0.4073006979525089,0.9201590349197388,1.3064727640964264,2.1429678307602713
1790173707985644300,7.656644287109375,-0.6579401771187782,-0.7012281147032976,0.8896000843964517,0.8770387949312982,0.973035152428246
1790173707995716400,7.66671630859375,2.607957515822351,-0.9542033433407544,0.3590987579066306,-0.2583913126692181,2.788213096634496
1790173708005787400,7.676787353515625,-1.3748024988055227,1.007287867796421,0.4523295609202236,-0.3462396547709462,1.7289970770588792
1790173708015859500,7.686859375,-4.277063571214676,1.9038976848244664,-0.863272560897842,0.12837146809749744,4.758871659024775
1790173708025930500,7.696930419921875,0.1581470734298229,-1.5220318723797797,-1.5652173725031315,1.3738248875194308,1.7041426345796722
1790173708036002300,7.707002197265625,2.484350717636943,-1.0385562817633152,-0.0756893741693347,-0.11180263551444514,2.691435804671441
1790173708046074400,7.717074462890625,2.687174260400236,0.9034539838343858,-0.1328261696904897,-1.9521822264379791,2.060039308556534
1790173708056145200,7.727145263671875,2.074291660887003,1.583196242916584,-1.1550640615984795,-2.2650225583058274,1.7358116357406548
1790173708066217500,7.737217529296875,-4.085014228183031,1.9745032529234885,-0.5326842965520918,-0.03055532606372746,4.568240719588404
1790173708076289500,7.74728955078125,-3.9610090783298015,-0.4104664685070514,-0.2250308262604288,2.061527561962494,3.414501226301754
1790173708086360300,7.7573603515625,0.0701437958061695,-2.117545111680031,-0.5795367216851562,1.9094237704761792,1.0857629246811666
1790173708096432000,7.76743212890625,0.6218295838177204,-0.4842863224774599,-1.3694997162222862,0.23032351976448984,1.5632292929784424
1790173708106503200,7.777503173828125,0.6537672753483057,0.538759086421132,-1.6765984569743275,-0.6960333187198888,1.7447615907848708
1790173708116575200,7.7875751953125,-1.324726508516073,0.962783540159464,-0.561314617100358,-0.2856676347075129,1.7074309852577678
1790173708126647300,7.797647216796875,-2.3753584279984232,0.4265215312510728,-0.0940266478327103,0.6261234584590883,2.3326077045559517
1790173708136718300,7.80771826171875,-0.486632301081717,-0.3103992436021566,0.0601949957816861,0.4848251204774334,0.3189462759714826
1790173708146790100,7.8177900390625,1.5729323307946323,0.3149228585064411,-0.2273517982875928,-0.9430768808333836,1.3174169275863585
1790173708156862200,7.8278623046875,2.180316332891583,0.6220166308224201,-0.651162572742626,-1.4612467329433168,1.8518786898975739
1790173708166933200,7.837933349609375,-0.5208703785091638,1.6469652429938315,-1.3065870407134297,-1.2151308959255778,1.792882333998913
1790173708177005300,7.84800537109375,-2.958658666935563,0.4293658147662877,-1.4867622599475083,0.9282103997055173,3.2073203116941076
1790173708187076400,7.858076416015625,-0.6251850317254662,-2.3501696262061595,-1.8600632192730904,2.467446475194409,1.8126490745808552
1790173708197148400,7.8681484375,-1.7073434315890073,-1.124367017778754,-1.0798462504636497,1.7859080740295903,1.4682721341138154
1790173708207220200,7.87822021484375,0.0879717134416103,0.6032587388604879,-1.1205295585077255,-0.5370618221868017,1.1570701011677338
1790173708217291300,7.888291259765625,1.4339777413517236,0.5785650271087884,-0.8253376747790724,-1.0980615286280364,1.3661891560257566
1790173708227363300,7.89836328125,0.6810317143708468,0.570313331592083,-1.0234564008522775,-0.7629304154177233,1.1200275344144863
1790173708237434400,7.908434326171875,-3.055839522749185,0.4057558065980672,-0.6100647656135261,0.954857948717163,2.993863436998881
1790173708247506400,7.91850634765625,-2.456574821960926,-1.1218331153869627,-0.4921638509195297,2.07748261696865,1.7943134138205068
1790173708257578500,7.92857861328125,-0.7198252631455659,-0.3699298754572868,-0.6301381240881979,0.6659473632788585,0.7801183801127596
1790173708267649500,7.9386494140625,2.039345727451145,-0.1001250925719738,-0.1304163138034753,-0.7695612443699833,1.8957162066895972
1790173708277721300,7.948721435546875,3.825096048539877,-0.0105424368023872,1.170143118917197,-1.6617806349474848,3.638569906376942
1790173708287793400,7.95879345703125,3.583178220489621,-0.193180977410078,0.9286188202291726,-1.3840029999802659,3.438510383749586
1790173708297864200,7.9688642578125,-0.5648872148901224,0.8395090426683426,0.7667211620941757,-0.5510875384592222,1.1436943925831913
1790173708307936300,7.978936279296875,-3.753783793476224,-0.4129664686292409,0.3386425010615959,1.9527296204170064,3.250070744683593
1790173708318007300,7.98900732421875,-2.774918302565813,-1.2835592163473366,0.9185003079272808,2.3010255000144153,2.21283083667298
1790173708328079000,7.9990791015625,1.971248050519824,-0.9469377362519502,0.4408798000145703,0.0018959225873924623,2.230892502240887
1790173708338151200,8.009151123046875,3.888718333622813,0.4837894788712263,0.0706213684563525,-2.0908404775802962,3.315049926187406
1790173708348222200,8.01922216796875,0.978468016025424,2.108582053023577,0.1145464349006302,-2.3272681531274344,0.021488645958185892
1790173708358294300,8.029294189453125,-2.462428808686137,0.8902741842657327,7.09280780516e-05,0.23972879805548075,2.607426675753531
1790173708368365300,8.039365234375,-2.3983137716501948,-1.136053363919258,-0.404302904376015,2.0620171676785004,1.7187414673665324
1790173708378437400,8.049437255859376,-2.3105448873043057,-0.9608686464488506,-0.6871271817017346,1.8779035294614632,1.7909517943948297
1790173708388509200,8.05950927734375,2.894864532417059,-0.7640607107132673,-0.512803318844363,-0.5163905327190947,2.993382283009937
1790173708398580200,8.069580322265624,5.684863499736785,0.0991688147604465,-0.2866475436746142,-2.4905465319602498,5.119262862062859
1790173708408652300,8.07965234375,-0.3571741465196013,3.40689927804172,-0.4382274954074993,-2.912160700905498,1.8563134033605222
1790173708418724400,8.089724365234375,-4.790531564512849,1.782421761187911,-1.159660376412794,0.46831738171870096,5.220317138254355
1790173708428795400,8.09979541015625,-2.7955606931000947,-1.4022446324825286,-1.2841188960567116,2.5074675069493546,2.26782222383842
1790173708438867500,8.109867431640625,-0.6178165487840771,-2.061079712614417,-0.0414299251602962,2.1282447304243006,0.3194333667952966
1790173708448938500,8.1199384765625,0.9983680637598036,-0.9814993465453384,-0.3851148043032735,0.47991124027220644,1.3704299952782582
1790173708459010300,8.13001025390625,2.0761369964927434,0.4356961868315935,-0.8337624618403613,-1.2410098043045596,1.9118657128102798
1790173708469082400,8.140082275390625,3.400931017287076,0.3078764471262693,-0.9268759220845996,-1.6838010894411857,3.1120784947004876
1790173708479153400,8.1501533203125,-0.3997241252183914,0.5308668718665838,-0.9714011463791132,-0.27072201067565116,1.1453946010215903
1790173708489225500,8.1602255859375,-4.02217491017133,-0.1195738894075155,-0.8692815920542926,1.8507780079415133,3.6772897866015772
1790173708499297300,8.17029736328125,0.3304828312098979,-1.8275947818666696,-0.455268646579422,1.531567850913043,1.1449415037628123
1790173708509368300,8.180368408203124,3.307292071864009,-1.6939596338808536,-0.3633258740823715,0.14359023595590537,3.7308266677437762
1790173708519440400,8.1904404296875,1.1028905145078898,0.7386947987884283,-0.9644901979468762,-1.0966906103759673,1.2204706222590311
1790173708529511200,8.20051123046875,0.6369587638884783,0.6371037253171206,-1.7907444761142133,-0.7731767719798117,1.8494813007196742
1790173708539583200,8.210583251953125,0.9607806759044528,0.3404062593311071,-1.5688418466106056,-0.6513253874768027,1.7538574365916924
1790173708549655300,8.2206552734375,-2.8610043483912944,0.6883651259988546,-1.6716525250047445,0.6600708880793813,3.3193253855670957
1790173708559726300,8.230726318359375,-2.547129829894006,-0.3615782266974449,-2.1153363495893776,1.4947870617189793,2.97638517271693
1790173708569798100,8.240798095703125,-0.0190875623077154,-0.7566074720978736,-2.28456668870002,0.7861753719067122,2.2746411676557474
1790173708579869200,8.250869140625,1.382213359583914,-0.0419131420999765,-2.252073409113288,-0.4563320648586294,2.6030493982077925
1790173708589941200,8.260941162109376,-0.3152759097278118,1.2963672599941491,-2.6307506546497343,-0.9309484287383263,2.7989553411959047
1790173708600013300,8.271013427734376,-1.818224019192159,0.6848591637045145,-3.05982128586173,0.27762265276828885,3.6139179047343846
1790173708610084400,8.28108447265625,-2.2684905831679703,0.6242617794007063,-2.4583564446806907,0.498859821239852,3.3660670793966547
1790173708620156400,8.291156494140624,-0.7076259990468621,-0.4567442355573177,-2.4236371596075594,0.8128455964488147,2.4336493110155124
1790173708630228200,8.301228271484375,1.9184560792699448,-0.5681389101624489,-1.837544367342442,-0.22490915098911257,2.7072570482098066
1790173708640299300,8.31129931640625,1.5321367945477369,0.9800006324201822,-1.1923156416282057,-1.4877890475727136,1.5861729842438146
1790173708650371300,8.321371337890625,-0.7179957096308469,1.5538064823031426,-2.253230177932977,-1.0083863291598365,2.6438675589762424
1790173708660442400,8.3314423828125,-3.1603409307092427,0.1046779335707426,-2.637666717648506,1.3546949827236885,3.8885472203982188
1790173708670514400,8.341514404296875,-4.230342152050137,-0.3128168261379003,-1.614196361336112,2.1444674005284323,4.000067318327124
1790173708680586200,8.351586181640625,-0.0599812982320785,-1.5206342805415392,-0.8064120981000363,1.4340151957128342,0.9538486576614101
1790173708690657300,8.3616572265625,0.3601619301587343,-0.0793289727807045,-0.4769871053799986,-0.06153178245455741,0.5997834945252009
1790173708700729300,8.371729248046876,-0.3532370993316173,1.04563425732553,-1.131690419469401,-0.74951062361106,1.3917918231725304
1790173708710801400,8.381801513671874,2.7416008471146225,0.0334627091407775,-1.7015099031299352,-1.1240009377674367,3.0247731816038406
1790173708720872400,8.39187255859375,0.7201058336526155,1.3763210866749285,-0.7933005414620041,-1.5180260024063426,0.8589149843777972
1790173708730944500,8.401944580078125,-1.8380057012438773,1.0106424389213322,-1.5559250818923114,-0.07034115345419067,2.610673874643515
1790173708741015300,8.412015380859375,-0.0303004457175731,-1.2638333561360835,-1.68089264703691,1.2249900825393834,1.7096760680420677
1790173708751087400,8.42208740234375,0.3801081551223993,-1.2503309004843235,-1.2343820745937526,1.020292773244171,1.4800376121033507
1790173708761159400,8.432159423828125,-0.9397808502346277,0.5112865576058626,-2.03353616438955,0.019739793113200177,2.2977122672136705
1790173708771230200,8.442230224609375,-1.949742321154475,0.0512976410388946,-3.924619960348308,0.9419896027252078,4.280119623141268
1790173708781302300,8.45230224609375,-1.6387328366994858,-0.0264911165624856,-2.8967358792468905,0.8382129145995401,3.220966462608493
1790173708791373300,8.462373291015625,-0.1692301929801702,-0.6122556997865438,-0.8408956747211516,0.6601190887305293,0.8214890288954153
1790173708801445000,8.472445068359375,-0.643151188787818,-0.2777081033557653,-0.4388282012470066,0.5421432108439695,0.624032187834982
1790173708811517200,8.48251708984375,-1.6047496108159425,0.4394441411882638,-0.9423162139311432,0.32218229126622505,1.8848052644426105
1790173708821588200,8.492588134765626,-1.6581091528207064,0.2098445274412632,-1.5001815673604606,0.5753888348101832,2.170906057891201
1790173708831660300,8.502660400390624,-0.412518724861741,0.1142079784601926,-1.053982106693089,0.11498337311409362,1.1317562749293806
1790173708841732400,8.512732421875,-1.2329033803433178,0.3341951297312974,-0.9510742515347896,0.2599367379124321,1.571213624627155
1790173708851803400,8.522803466796875,1.0981909585148095,-0.7903904992341995,-1.337145845106244,0.30372053938737253,1.8778853446583201
1790173708861875200,8.532875244140625,0.8278174358308314,-0.9896452436000108,-1.5950849797613915,0.6092778136972472,1.959019156017204
1790173708871946200,8.5429462890625,-2.7551351592093702,0.9023965837359428,-1.3238036945827305,0.4072742908340705,3.1609608054619143
1790173708882018300,8.553018310546875,-2.257438735538721,0.0056418052792549,-1.0547209423616528,0.996182506770304,2.283882254876235
1790173708892090400,8.56309033203125,0.70252926042974,-0.8009177384674548,-0.4588979064598679,0.44514270952342155,1.071191785938996
1790173708902161400,8.573161376953125,-0.4847568625986576,0.2662853765875101,-0.8333924594841897,-0.0009670902014113081,1.0002195628373276
1790173708912233500,8.5832333984375,-0.0621779314935207,-0.6296060630381107,-1.9084300675570964,0.6741587480757482,1.8941713742235906
1790173708922304500,8.593304443359376,-1.4885314615771177,-0.1684977870523929,-0.5585428142994642,0.8070369690125307,1.3801372476674545
1790173708932376300,8.603376220703124,-0.9071107527762652,-0.0209819977521896,-0.1217787059754133,0.408941714468658,0.8190768519671864
1790173708942448400,8.613448486328124,2.6818776152968407,-1.3953735776692628,-1.2406189231567084,0.174899466075082,3.263139662035468
1790173708952519400,8.62351953125,4.164026390099525,-1.327238783597946,-1.708556314510107,-0.4965516332110975,4.666184707182045
1790173708962591500,8.633591552734375,0.0007528641939163,1.360061441269517,-1.99131381020993,-1.1489043407793738,2.1201691435599455
1790173708972663300,8.643663330078125,-0.911930135756731,0.580635988163948,-2.0697437883242964,-0.05332503390249377,2.3344700711978987
1790173708982734000,8.653734130859375,-1.0832874038934708,-0.1085620815277099,-1.4843455541945991,0.6188058082338075,1.7336834834920878
1790173708992806100,8.66380615234375,-0.4369295280188321,-0.6063847619265318,-1.2657153704904018,0.7858383312842969,1.242217134051621
1790173709002877200,8.673877197265625,1.6385042886406185,-0.5797317328006029,-2.0100662953443824,-0.0885394211677184,2.6558073101203075
1790173709012949200,8.68394921875,1.5095552526444196,0.0158341134697198,-1.710068034247309,-0.5848364401974961,2.204837136821517
1790173709023021300,8.694021240234376,0.0237011935830116,1.2141682847350834,-1.025171607272327,-1.06629504087712,1.178455803325683
1790173709033092400,8.70409228515625,0.2166822645068168,-0.5903916585028172,-1.130583408075571,0.4884441104901592,1.1979794270874435
1790173709043164200,8.7141640625,-1.3013231288358569,-1.0217553690880536,-1.2072972299218176,1.526006263608649,1.3661249594043263
1790173709053235200,8.724235107421874,-2.2648735617145896,-0.4893833533555269,-1.432354231803119,1.4625989590197306,2.2981712833324535
1790173709063307300,8.734307373046875,-0.2404913023784756,-0.4342746295958757,-0.8393713877633213,0.5293061992319003,0.8190297885185459
1790173709073379300,8.74437939453125,3.3812048648148774,-0.6413216352730989,-0.4752329551890492,-0.8353527864119514,3.372220612837876
1790173709083450400,8.754450439453125,0.504021535038948,0.5898170734852552,-0.8171953579209744,-0.7139095371219025,0.871816100890382
1790173709093522400,8.7645224609375,-2.2853192606329915,0.3762409583002328,-1.2068633685491978,0.6790280900703615,2.521840880183386
1790173709103594200,8.77459423828125,-0.9097001847475766,-0.0287818578481674,-1.1413751434639097,0.45890744681015516,1.385829713511156
1790173709113665300,8.784665283203125,2.38399999961555,-0.7626958521008491,-0.8848676490470766,-0.28556186554033003,2.639432919825395
1790173709123737300,8.7947373046875,3.04431421238929,-0.7551058353632688,-1.2444415501847863,-0.5579126952889364,3.327972662540489
1790173709133808400,8.804808349609376,-0.6118614397719502,0.1693354069203138,-2.0443449970431624,0.19032947706294137,2.1321749596627915
1790173709143880400,8.81488037109375,-4.345909728425741,0.2482669048160314,-2.112525383821875,1.7064199105684041,4.527633201768879
1790173709153952300,8.8249521484375,-0.8210691306143999,-1.6638234388142823,-1.9449553791388867,1.933224130003876,1.8676077861284783
1790173709164023300,8.835023193359374,0.6213344937771559,-2.0308295357793567,-1.687810171340406,1.642513325105292,2.1589762175352463
1790173709174095400,8.845095458984375,0.1685650070697069,-0.4137772004902362,-1.2428050350241362,0.3537098488690795,1.2724305211477382
1790173709184166100,8.855166259765625,0.0277478386253118,-0.4339379449874162,-1.987445298213512,0.4622437122830742,1.9812474975363468
1790173709194238500,8.865238525390625,1.1011322726637125,-0.1513946765601634,-1.179960456315428,-0.2819775619177125,1.596310735112486
1790173709204310500,8.875310546875,-0.7975853791743517,0.6736375124663114,-1.0564341760203242,-0.22752998778403194,1.4677238187742385
1790173709214381300,8.88538134765625,1.968767339619994,-1.0170371083945036,-1.5237524125620725,0.1469224364466658,2.6852643314696514
1790173709224453000,8.895453125,-0.0137421096265316,-0.7536784329086542,-1.969454883492738,0.7683353013461126,1.963831313689494
1790173709234525200,8.905525146484376,-3.84430840627104,0.8493389472872018,-1.159634730514884,0.9107694147173176,4.001916484802865
1790173709244596200,8.91559619140625,-3.097137455560267,-0.8157634254217148,-1.008541374988854,2.0936508920772754,2.6251689530501707
1790173709254668300,8.925668212890624,-0.4215954730257392,-0.8293132273465394,-0.4046525215312838,0.9456704567911137,0.3673611605244112
1790173709264739300,8.9357392578125,0.8320046583876013,0.6468547194808721,-0.5156229793749749,-0.9170624925183084,0.7317897384966396
1790173709274811400,8.945811279296874,3.068011022058129,0.6531979510277509,-0.652061932735145,-1.8661435092538317,2.6042373858174113
1790173709284883200,8.95588330078125,0.8525728146418928,1.1735714859306812,-0.403427802041918,-1.406834215937667,0.5363971636608161
1790173709294954000,8.9659541015625,-3.0784692877084017,1.7157827586323022,-0.2191303883112967,-0.23655514526650556,3.5232007351999046
1790173709305026000,8.976026123046875,-0.6321428880393505,-0.5648579887956381,-0.8583312320381402,0.8144158879832802,0.8900159794618864
1790173709315097000,8.98609716796875,-0.3902367504268884,-1.3080904310137034,-2.4390239677011967,1.4488654610898437,2.3901908057255925
1790173709325169200,8.996169189453125,-1.695715537637472,-0.2645914321511983,-2.3464682874701914,1.055204277931037,2.7088590156175156
1790173709335241000,9.006240966796875,-0.0037888708889484,0.2101683525681495,-2.8500375486969944,-0.07162608298778116,2.856880960975172
1790173709345312000,9.01631201171875,1.2623533467113972,0.4072276327162981,-2.3811662374943494,-0.8064414036043679,2.603646525536214
1790173709355384000,9.026384033203126,0.8619605284512043,0.2214128001600503,-3.2762796784847974,-0.4317332098917615,3.3674344162598913
1790173709365456100,9.0364560546875,-0.7926993606984615,0.1495440802574157,-3.730018887007237,0.3541033287655737,3.799787814915411
1790173709375527200,9.046527099609374,-1.8954086734205484,-0.2595850021660327,-3.132453099091351,1.1676549710574122,3.4797704951906394
1790173709385599200,9.05659912109375,-1.2166577634632587,-0.2691664849817752,-3.747248254227638,0.9134783533872937,3.841891915025432
1790173709395670300,9.066670166015625,0.0463023169696331,-0.323921572998166,-4.200391834944487,0.4456021468889563,4.189486768539391
1790173709405742000,9.0767421875,1.0398708714932203,-0.2941127101898193,-4.157895924520492,-0.004764507448434763,4.296034163538294
1790173709415814100,9.086814208984377,-0.1532563787788152,-0.1389665721416473,-3.34117797485292,0.3277571853531831,3.331492865503513
1790173709425885200,9.09688525390625,-0.956147463145852,-0.2903542344391346,-3.451286409039795,0.8099490745324077,3.500554802688266
1790173709435957200,9.106957275390624,-2.5346599321603773,-0.6878554229110478,-3.338433060058952,1.8347857135820427,3.8309715133706224
1790173709446028300,9.1170283203125,-1.186969312164187,-0.7370821028947829,-3.607699790544808,1.3184096149752478,3.637235219265478
1790173709456100400,9.127100341796876,-0.508051813468337,-0.7130138295650482,-3.639063189318776,1.0097991245496427,3.604107655194722
1790173709466172200,9.137172119140626,-1.732650306802988,-0.671090750592947,-2.467984689247608,1.4435613126669629,2.731212010102427
1790173709476243200,9.1472431640625,-0.993201474776864,-0.3598766834765672,-2.6311469604909417,0.8549288488579563,2.703329685388033
1790173709486315300,9.157315185546874,0.8196107484996318,-1.0169704728990792,-1.7120426953211425,0.6422738806102208,2.0553747042067716
1790173709496387300,9.16738720703125,1.2895698549389838,-1.1963964812010526,-1.5238728240713475,0.5974114781309734,2.249364990555815
1790173709506458000,9.1774580078125,-1.4420555416062473,-0.3802396725475788,-1.369442433077097,1.0120975285632847,1.753607015224502
1790173709516530000,9.187530029296877,-1.8969886360883712,-0.4557920493990182,-0.4185439765006303,1.2345131574371748,1.5676315262596732
1790173709526601000,9.19760107421875,0.5173550638645887,-0.6491033751904964,-0.1335660282723605,0.3730638352126552,0.753428637997591
1790173709536673000,9.207673095703123,0.9711790280610324,-0.9127811996281148,0.6994169736281037,0.38481666049310104,1.4551489489898086
1790173709546745000,9.2177451171875,-0.1080073702543973,-0.3476543307632208,0.2705168766774237,0.349214824144048,0.2894089025808354
1790173709556816100,9.227816162109375,-1.67780607919842,0.2336538575738668,0.9130093092955648,0.4632515489347775,1.8677824728335515
1790173709566888200,9.23788818359375,-1.425669931733608,0.0239098678976297,1.2057424016952514,0.5339672251660489,1.789357476226172
1790173709576959200,9.247959228515626,0.7838909080818295,-0.7690490205198526,1.085579021961987,0.3184511444434286,1.5109573234418352
1790173709587031000,9.258031005859374,2.421110125347972,-1.2282272052258252,1.2343962492495777,0.03287919325904198,2.982108208219711
1790173709597103000,9.26810302734375,1.431211199247837,-0.3098509620696306,0.2546701959870756,-0.3375590660945755,1.4475095513223257
1790173709607174100,9.278174072265625,-2.2528128293037413,-0.1553781932383775,1.241110944457352,1.0457229620621125,2.3550218448832725
1790173709617246200,9.28824609375,-2.487161683404445,0.1584896032571792,1.5712224581368266,0.8477317908031787,2.821556842870797
1790173709627318000,9.298318115234377,1.9416957928210496,-1.003641620248556,-0.1724728281632065,0.0908813871274089,2.1906543551374154
1790173709637389000,9.30838916015625,2.1587544894248247,-1.4546090259701012,-1.3356551681570707,0.45438627422848943,2.89026230748404
1790173709647461000,9.318461181640624,0.5695195508658886,0.4714999061405658,-2.0476997142985462,-0.584222059590993,2.0972418518937324
1790173709657532200,9.3285322265625,1.496935717307031,0.6424100150316954,-1.5742743930533527,-1.1518190003245046,1.9506819382660772
1790173709667604200,9.338604248046876,1.4157102632552383,0.1499386325329542,-1.208965747655928,-0.6868630130712077,1.7368173546150634
1790173709677676300,9.34867626953125,-0.2869774514824151,0.3936667248755693,-1.0072273697808385,-0.19299692930453172,1.1020838024616124
1790173709687747300,9.358747314453124,-0.5485749625146389,0.1475982068866491,-1.8413595417164264,0.17480974405877395,1.919053473831911
1790173709697819100,9.368819091796874,-0.8053381852582097,-0.8475795363992452,-1.305861502917856,1.1620063754247614,1.3122408740139273
1790173709707890000,9.378889892578124,0.9107841805920004,-1.108496079429984,-0.8120173707611859,0.6494622561706637,1.5152103385193447
1790173709717962000,9.3889619140625,2.319237312325835,-0.4362666801959275,-1.639994819459319,-0.5223827937731556,2.8259316254567617
1790173709728034300,9.399034423828123,5.955210718935728,-1.228915772011876,-1.397441323854029,-1.358408286314121,6.089526899761144
1790173709738105000,9.40910498046875,1.2760811355516313,0.8729764279842376,-2.336202621782571,-1.2354045141816057,2.5143765200721884
1790173709748177200,9.41917724609375,-3.8633556365683672,1.5311439841181038,-1.8289394744738936,0.3295724964221265,4.528390469647749
1790173709758249000,9.4292490234375,-4.0946430572718375,-0.4815396541178226,-1.5330458722166715,2.236168604950894,3.7878439542178763
1790173709768320000,9.439320068359375,0.952583633184433,-3.214082457768917,-2.2739064707368613,2.596281153853225,3.1092951663285793
1790173709778392000,9.44939208984375,0.5716854967281222,-1.4462848497390746,-3.4678771860957145,1.207830335097744,3.6035929616446496
1790173709788463000,9.459463134765626,0.5939639640316366,0.0840618465214967,-2.890108570061624,-0.20959336141256696,2.9442584387591055
1790173709798535200,9.46953515625,0.1193786590963602,1.3370271871626376,-2.871709866800904,-1.1423091414707913,2.956981627919526
1790173709808607000,9.47960693359375,0.2141431014180183,0.9586907178878784,-2.578838681104779,-0.8523117649022295,2.6246749815969186
1790173709818678000,9.489677978515624,-1.0015542925804852,0.5342693737864495,-3.0096997028648853,0.06519704134198423,3.215990735679721
1790173709828750000,9.49975,-0.2736220030859113,-1.4288415475070475,-3.66406494410634,1.5588371074375131,3.621029681673422
1790173709838821000,9.509821044921877,0.8531900697574019,-0.8842167839229106,-4.2388329170197245,0.6115589211878563,4.370751971964219
1790173709848893200,9.51989306640625,-2.5686098402962085,1.282338734641671,-4.342441175532341,0.10822574459759171,5.204539527488855
1790173709858965200,9.52996533203125,-1.4244815987318753,0.2162158160388469,-4.240247459992766,0.5828406831879243,4.440258141620507
1790173709869036300,9.540036376953124,0.2563546419426799,-1.2181804429858922,-6.742534816336631,1.2696081749039378,6.737918975904029
1790173709879108000,9.550108154296876,-1.6602566862434147,-0.5663561183989048,-6.165190855455398,1.4697148295644324,6.239128795033253
1790173709889180200,9.56018017578125,-1.6209803223878143,0.6612871494591236,-3.478126485170424,0.23239030427671592,3.88693150093109
1790173709899251200,9.570251220703126,-2.1361337845548984,1.0507038156747817,-3.25845497571975,0.0897608815004004,4.034416669945662
1790173709909323300,9.5803232421875,-0.2948565142944455,-0.126259066259861,-4.032331270265579,0.4046989544945595,4.024772781813566
1790173709919394300,9.590394287109374,0.0211328043997287,0.0901186623424291,-3.733644676288962,0.0626232321323052,3.7342668448173866
1790173709929466400,9.60046630859375,-2.076716842207313,0.5492068306773901,-2.6558199217155574,0.49346154202959724,3.3799787201533116
1790173709939538200,9.6105380859375,-4.1856355798393485,0.8866413807213306,-1.9013063531570136,1.0522975952639082,4.562161084922531
1790173709949609000,9.62060888671875,-1.3590554790973663,-0.5723369463741779,-1.585405297268182,1.1594910058995502,1.8285764789293204
1790173709959681000,9.630680908203123,2.3438474374473093,-2.133346491923928,-1.8795989637397228,1.0120929981665616,3.5430704328570872
1790173709969752000,9.640751953125,0.0629822336137294,0.0025473463952541,-2.3857933127731084,0.0688029825340663,2.3856339056091427
1790173709979824000,9.65082421875,-1.9334850138366224,1.2145482239633798,-2.0317296994894742,-0.19475207671911443,3.050162108391058
1790173709989896000,9.66089599609375,1.5286226489469408,0.3388590298891067,-1.4967675211332738,-0.8938677970886186,1.973024586430269
1790173709999967000,9.670967041015626,0.3057923343285918,0.7669581857204437,-1.8022712477788327,-0.7496203472158478,1.8352070172021429
1790173710010039000,9.6810390625,-0.4513689722597598,-0.1177472585022449,-1.3525048884101212,0.3535280243251734,1.3863209495616953
1790173710020110000,9.691110107421874,1.2032444473996755,-1.652685958728194,-2.048919319221377,1.06831500384857,2.6899705402859158
1790173710030182100,9.70118212890625,-0.1106967554688453,-1.895959293040633,-2.282486083033681,1.855569344858994,2.3180855329776904
1790173710040254200,9.711254150390625,-3.080941815301776,-1.3070792081445457,-2.733943610359728,2.6019525756740878,3.4503549069926907
1790173710050325200,9.7213251953125,1.282557345828414,-1.7081407194465397,-2.652406898401677,1.109564766460533,3.2197556501212876
1790173710060397000,9.73139697265625,1.8451146564662453,-0.1464981366902589,-3.94505601465553,-0.4887547041141401,4.330184245218249
1790173710070469000,9.74146923828125,2.416855098251998,0.8230436455577611,-3.283389802750945,-1.6355285413975722,3.8241710729937934
1790173710080540200,9.7515400390625,-0.0454214424818754,0.3825999719381332,-3.110129039080441,-0.19926496823473633,3.1275616633617362
1790173710090612200,9.7616123046875,-4.40309292037189,0.2089069543302059,-3.449678681582212,1.821124691842589,5.292887420295335
1790173710100683300,9.771683349609376,-4.029339687234163,-1.033044240343571,-4.024293217499554,2.809478927569357,5.060091182338907
1790173710110755300,9.78175537109375,2.928266743542254,-2.256231697836518,-4.155499092511833,0.9685570022649221,5.476805422587885
1790173710120827100,9.7918271484375,0.4836205520451068,-1.450529063180089,-4.7041138025149705,1.2997386851114285,4.772555858125412
1790173710130898200,9.801898193359374,-2.623992412561178,-0.6879869403362274,-4.646668744762241,1.9264643769735752,5.02383594866054
1790173710140970200,9.81197021484375,-0.4288537735909223,-0.4899269587129354,-4.011557070045173,0.7896701031887281,3.9865969495744356
1790173710151041000,9.822041015625,0.523967760002613,-0.5322258852601051,-3.6651951171800494,0.40936032113043297,3.718048679206275
1790173710161113300,9.83211328125,-3.01509951608181,-1.6453782660633325,-4.455614257986843,2.9506203404030504,4.790034734016631
1790173710171185200,9.84218505859375,-4.424024064719677,-1.9833043990165,-4.382669433285296,3.85123350896467,5.280272444226523
1790173710181256000,9.852255859375,-2.0834160475850103,-1.757684210294485,-3.439019048140943,2.615121411476795,3.5239279543096704
1790173710191328000,9.862327880859375,1.0648767179340124,-0.8422714931190013,-1.5109496296122669,0.3719150595573523,1.9970056745584686
1790173710201399000,9.87239892578125,4.217779023075104,-0.1064718312501907,-2.9134198875442148,-1.5742002494995406,4.879641908373592
1790173710211471000,9.88247119140625,1.614673331198096,-0.1386316410988569,-3.5060368208810684,-0.41607662131227063,3.8399951996021184
1790173710221543200,9.892543212890626,-3.0865210767388342,-0.7102472874611616,-2.6419164840474725,2.060681898301706,3.572726744265845
1790173710231614200,9.9026142578125,-7.547491601061821,-1.6487486192792653,-2.2998875919505952,4.7887683259266325,6.48384009163429
1790173710241686000,9.91268603515625,-1.0894564479172228,-4.385704563197494,-3.2700624114051458,4.563543730664263,3.2075998285882648
1790173710251758000,9.922758056640625,4.130453206321597,-3.4872055714219807,-4.484828369772434,1.5853444622949535,6.84263215649908
1790173710261829000,9.9328291015625,0.9917962841540574,-0.456430347302556,-3.227598649685085,0.12431288954657138,3.4049857386106757
1790173710271901200,9.942901123046877,-3.988766561566293,0.7645996398955583,-2.656937527568638,1.1101281051432257,4.724595634292046
1790173710281973000,9.952972900390623,-5.560527510493993,-0.3460007183372974,-2.431994507455826,2.7725371412747792,5.409881493766534
1790173710292044800,9.963044921875,-7.209830256524682,-3.50574660576284,-1.6426315977036952,6.298264152952893,5.2251333779263085
1790173710302116900,9.973116943359376,-4.319029320284724,-4.497541136351227,-3.5120272934675216,6.045225823161237,3.830335624941494
1790173710312187600,9.983187744140626,0.9771519649907946,-3.663772098639608,-3.752998196056485,3.0532759448341564,4.374991819164439
1790173710322259700,9.993259765625,5.631738058748841,-1.3867799368470906,-2.517897013407945,-1.0323862183689918,6.2380779268819815
1790173710332330800,10.003330810546874,2.654102888664603,1.88604404822588,-2.674696179360151,-2.7227128602011605,3.2159382189720405
1790173710342402800,10.01340283203125,3.296961231985688,0.4639999057739973,-1.8378633701637384,-1.7435413112112395,3.379800991369798
1790173710352474600,10.023474609375,2.5113673193782566,-0.6934399450451135,-0.9808023041918872,-0.39832665283086444,2.7552012281824307
1790173710362545700,10.033545654296876,-2.644818635229766,-0.1947995185226202,-0.8036509628236294,1.3315960571851333,2.430168569505342
1790173710372617700,10.04361767578125,-2.6725410471528765,-2.266860059356689,-1.7013842309236529,3.254458705806414,2.1411064921811143
1790173710382689800,10.053689697265623,0.4600374318838119,-3.718201607963443,-2.61174463314563,3.275167991911802,3.1829455367187163
1790173710392760800,10.0637607421875,-1.1822972286999225,-1.6065373710155486,-2.710587869213521,2.066104436283339,2.6565556867039075
1790173710402832600,10.07383251953125,-1.722041819027066,-1.0579197384029626,-2.111550255179405,1.7743489397960182,2.3227037089077016
1790173710412903700,10.083903564453124,-2.06417007984519,-0.7488146262645721,-2.440665597428381,1.6534398008807205,2.836283985494014
1790173710422975700,10.093975830078126,-2.48347919549942,0.0629354718625545,-1.7551742733001707,1.0690108281392954,2.8477152889768895
1790173710433047800,10.1040478515625,-2.087683934162557,0.120382283180952,-1.2213818693757057,0.8271861428277478,2.276060820588447
1790173710443118800,10.114118896484374,-0.0463625227242708,-0.4740361466199159,-1.8391145392686128,0.5238835211139503,1.8261292661446693
1790173710453191000,10.12419091796875,2.082913651020825,-0.3668997139811515,-2.209487482318282,-0.4614817087485629,3.023576399686312
1790173710463262000,10.134261962890625,2.7442528229281304,-0.100533088850975,-1.6218591510489582,-1.0071867444403635,3.0260588933078947
1790173710473333800,10.144333740234377,0.692543872988224,-0.4921826286852359,-1.871304159733653,0.22803361493360258,2.042459469534175
1790173710483405800,10.15440576171875,0.1965945852458477,-1.0741039804846049,-1.920095370909572,0.9668875224695818,1.986011969783128
1790173710493476900,10.164476806640623,-2.852948467707634,-1.2021896776497365,-2.7514988485336302,2.4110365454136677,3.367821799116535
1790173710503549000,10.174548828125,-5.236610029149055,-0.9676280575811862,-3.065453154268861,3.2233399630254818,5.231201695498139
1790173710513619700,10.18461962890625,-1.859571636363864,-1.5934861662626263,-1.539955943866074,2.2937222434564895,1.762812358636256
1790173710523691800,10.19469189453125,-0.5979711538463831,-0.9472522090286016,-1.2134013920158149,1.1603693008511715,1.175049901974389
1790173710533763800,10.204763916015626,-3.985459044453501,-0.2032896989703178,-1.299660748581588,1.9285702629856338,3.727592426601228
1790173710543834600,10.214834716796876,-2.799121015930176,-0.7330214293271303,-0.5263265980884433,1.8725568558833723,2.2678071758891454
1790173710553906700,10.22490673828125,0.765236184233427,-1.0476438435822724,-1.540574952547252,0.6860639850854566,1.8936291699909469
1790173710563977700,10.234977783203124,1.393729902115464,-0.2989356003016233,-1.1603951934933665,-0.27349712245267155,1.817570318384158
1790173710574049800,10.2450498046875,1.9711589109316467,-0.375912456998229,-0.890208425553143,-0.46000242463645935,2.146542903770168
1790173710584121600,10.25512158203125,0.5203647670745849,-0.1966898623138666,-1.1324182222872972,0.0035164277416497303,1.2616754961771648
1790173710594192600,10.265192626953125,0.955550666296482,-0.3367202642947435,-1.0891311614856125,-0.05628256687101618,1.4864375438718511
1790173710604264700,10.2752646484375,1.4823188706725834,-1.6433394537121055,-2.3808804062902924,0.9550372807450801,3.107141627915103
1790173710614336800,10.285336669921875,-1.7114444371670483,-1.9449983414977787,-1.957507694458961,2.5659419829563337,1.9899343516576864
1790173710624407800,10.29540771484375,-2.2154098581045867,-2.1237667626738546,-2.3959026188552377,2.95950246360818,2.5298459693348265
1790173710634479900,10.30547998046875,-1.0839838617250324,-1.876542644909024,-1.2295789120957257,2.207881695430419,1.1547969651398788
1790173710644551000,10.315551025390626,0.6091892979532479,-1.5719401048868893,-2.080020852188766,1.248662655888073,2.368424710946751
1790173710654622700,10.325622802734374,1.2981623267173763,-0.9770371064394712,-3.2091534769341346,0.4644529840685073,3.566900110456724
1790173710664694800,10.33569482421875,1.6303072459205985,0.2898796026647091,-2.950812337349355,-0.833090115941149,3.2795100562609325
1790173710674765800,10.345765869140624,2.49856687451601,0.9510942714095116,-2.330965451781452,-1.825091301848723,3.041357988933814
1790173710684838000,10.355837890625,2.78854789172858,0.6549579464375972,-1.8906448200196029,-1.6983426150069827,2.982472037351543
1790173710694909000,10.365908935546877,2.108359057922661,1.1055804842442274,-2.0157927101671693,-1.8121562165601282,2.5390935826416112
1790173710704980700,10.375980712890623,-1.8443582851409912,1.6368547678679226,-2.2900851598605514,-0.603979560810917,3.3106872012614463
1790173710715052800,10.386052734375,-2.8487416636675595,1.2165151401221752,-1.600407489958405,0.17420675361325166,3.4822685556074484
1790173710725123800,10.396123779296875,-3.6666011845856894,0.1475748260110616,-1.965367468048632,1.5031747349027114,3.881865218795139
1790173710735196000,10.40619580078125,-2.8407921659678217,-0.7323287708878516,-2.586838739947974,1.9741122520362437,3.3765398030750755
1790173710745268000,10.41626806640625,1.293476799249649,-1.88251879670918,-3.009152005854249,1.277293785173199,3.555344657112031
1790173710755338800,10.4263388671875,1.9382438988015047,-0.7002917106360197,-2.7186381969392297,-0.07763626999770701,3.410595863872559
1790173710765410600,10.43641064453125,-0.3342679027065635,0.0076619129300117,-2.653424551011622,0.24374048331252235,2.663277334487604
1790173710775481600,10.446481689453124,-2.174967957600951,0.1983177557766437,-1.6910794022694229,0.8129932961892867,2.6398119239783586
1790173710785553700,10.4565537109375,0.1094137299209833,-1.0967413442283869,-2.3030001710131764,1.0400649225768346,2.331713465447046
1790173710795625700,10.466625732421877,3.691311262950301,-1.879392773643136,-1.911942751853168,0.2118554653234277,4.557251187479382
1790173710805696800,10.47669677734375,3.38017435272336,-0.1647708754837513,-1.8763883311301468,-1.208521346969754,3.676008354089563
1790173710815768800,10.486768798828123,-0.1377308928668499,1.1142121189892291,-1.006206210039556,-0.9081472365995193,1.2033943571129089
1790173710825839900,10.49683984375,-1.9449790522754191,1.273441142436862,-0.9423404715895652,-0.28781923129556575,2.491939307353444
1790173710835911700,10.50691162109375,-1.6414780437543988,0.2335889756441116,-1.260846303149313,0.5370380890224163,2.01254502279444
1790173710845983700,10.516983642578126,-3.133730279420316,-0.768617643365264,-2.0216709545508027,2.108081016144883,3.170833711138447
1790173710856054800,10.5270546875,-3.000361381155252,-2.1190490865021943,-1.5705122640408575,3.2545130458737717,2.316719891198286
1790173710866126800,10.537126953125,-1.5125824915111064,-1.494332549071312,-1.5271069836869835,2.0562472230111943,1.6201353827147342
1790173710876198000,10.547197998046874,0.4367594321489333,-1.31287065102756,-1.6786283553667365,1.071038488318448,1.893424902097349
1790173710886269700,10.557269775390624,4.377227826753258,-2.1273966436088085,-1.7517399149373172,0.13852192728706347,5.170623205357972
1790173710896341800,10.567341796875,5.559267865821719,-1.0780261223644017,-1.7555924987122415,-1.3121744848977568,5.781686835792475
1790173710906412800,10.577412841796876,2.017148216429353,1.0338713388174772,-2.0969234716728327,-1.7052557237288113,2.574289772930572
1790173710916484900,10.58748486328125,0.8408645489305258,0.7639034743249415,-1.0835308572605251,-1.0034103831470504,1.207397378397962
1790173710926557000,10.597556884765623,-0.3675815587654709,0.599815904930234,-0.9147558607019484,-0.34905377239019425,1.0999250296363228
1790173710936628000,10.6076279296875,-3.974645681755245,0.0618196195751428,-1.7816158516325056,1.7039403415683618,4.009036332589684
1790173710946699800,10.61769970703125,-2.8861703538298604,-1.403126091492176,-2.312955601707846,2.5889090071742284,2.990995805412697
1790173710956770600,10.6277705078125,-0.7808399960786103,-0.4236281478971243,-2.2686066107630727,0.8076042298414163,2.2985915838850013
1790173710966842600,10.637842529296876,-3.231251326973736,0.99035543769598,-2.360632129640132,0.5722879949326029,4.08250652582318
1790173710976915000,10.6479150390625,-5.461072280007601,-0.2663572727799415,-1.1045566941544414,2.6038524920953474,4.932976214643694
