time,seconds_elapsed,z,y,x,vertical,horizontal
1790173701922521000,1.59352099609375,-3.963583897253871,-8.96927855388224,0.1114904996624216,9.790698233824315,0.5591183357809508
1790173701932593200,1.60359326171875,-3.964730729201436,-8.968492371940613,0.1320060398134868,9.789632498565254,0.5774654259896214
1790173701942664200,1.613664306640625,-3.966242887330055,-8.967420358794927,0.157132361695636,9.78827417709985,0.600074783371421
1790173701952736300,1.623736328125,-3.969700626568496,-8.965334784692525,0.1860834020982496,9.786667879928741,0.6257073650705778
1790173701962807300,1.633807373046875,-3.974080741348863,-8.962725478976964,0.2159302953620441,9.784942550849808,0.6521433272577125
1790173701972879000,1.643879150390625,-3.9766146437406538,-8.960800063872338,0.246942524344474,9.783004533774541,0.6805914427786025
1790173701982951200,1.653951171875,-3.980028543837368,-8.958380727770924,0.2777764558842405,9.781000513849936,0.7088026389402133
1790173701993022000,1.66402197265625,-3.984578169965744,-8.95542187796533,0.306514328460209,9.779076421900168,0.7348874560742362
1790173702003094000,1.674093994140625,-3.990389486593008,-8.951876168182492,0.3333220732238143,9.777236084388775,0.7589817783121596
1790173702013165800,1.684165771484375,-3.996659652903676,-8.948121199563145,0.3580669306408613,9.77548578734709,0.781185593449546
1790173702023236900,1.69423681640625,-3.999779830750823,-8.945791879832743,0.380698631828837,9.773774894708293,0.8023009457857646
1790173702033309000,1.704308837890625,-4.004543976412713,-8.94277808496952,0.4009293362896889,9.77224100257588,0.8207937964597872
1790173702043381000,1.714381103515625,-4.009596291366219,-8.93975669132173,0.4174638896463438,9.770974104201024,0.8357351697523813
1790173702053452000,1.7244521484375,-4.015258554911613,-8.93653071501255,0.431864317051135,9.769868522309629,0.848562506995853
1790173702063524000,1.734524169921875,-4.019776616857945,-8.9339377759099,0.4433265721121802,9.768970455128203,0.8588381277288587
1790173702073596000,1.744595947265625,-4.021274161939322,-8.932889143639802,0.4508021321572363,9.768350900639437,0.8658507852816273
1790173702083667000,1.7546669921875,-4.02542748222649,-8.930735180476308,0.456381831985712,9.767936347549984,0.870517756992913
1790173702093739000,1.764739013671875,-4.033958579206466,-8.926555848965048,0.4627858538091182,9.767513826610237,0.8752516991752831
1790173702103810000,1.77481005859375,-4.040558123601973,-8.923313506042957,0.4677189628297463,9.76717944690202,0.8789769948865702
1790173702113882000,1.784882080078125,-4.043597929689288,-8.921859215581417,0.4691828248372301,9.767094000618648,0.8799223748967904
1790173702123954200,1.7949541015625,-4.044355177797377,-8.921567539158463,0.46819575002864,9.767192010730655,0.8788308402682556
1790173702134025200,1.805025146484375,-4.04840503771007,-8.920039598938823,0.4622719129376113,9.767771554568508,0.872366881103498
1790173702144097000,1.815096923828125,-4.052129611191154,-8.918838406455516,0.4527318581108003,9.76865690323476,0.8624043996817423
1790173702154169000,1.825169189453125,-4.055478044836223,-8.917940580832958,0.4402626910295337,9.769777149175665,0.8496187780254678
1790173702164240100,1.835240234375,-4.057603074166178,-8.917698004248738,0.4253208136918023,9.771072301135625,0.834580303508496
1790173702174312200,1.845312255859375,-4.059377682623267,-8.91750803463459,0.412172139913775,9.772192788326606,0.8213590558646375
1790173702184384000,1.855384033203125,-4.059200280229747,-8.9181252897501,0.4004042164370417,9.773158415989728,0.8097923877187616
1790173702194455000,1.865455078125,-4.06067707478404,-8.917958701011537,0.3889662920996546,9.774103509058927,0.7982988595856596
1790173702204527000,1.875527099609375,-4.061644458511472,-8.91808495773971,0.3757593122631311,9.775169852011304,0.7851397620181993
1790173702214599200,1.88559912109375,-4.066911000737548,-8.916323793286084,0.3602455167889595,9.776448043690724,0.7690484744292397
1790173702224670200,1.895670166015625,-4.069582850295305,-8.91581116758883,0.3423264137387276,9.777853077077543,0.7509793127295665
1790173702234742300,1.9057421875,-4.068920294733346,-8.916887272387742,0.3215413633307442,9.779397636201198,0.7305899771817139
1790173702244814000,1.91581396484375,-4.07120519080013,-8.916658139806986,0.2980999531950801,9.781121342141935,0.70713008716537
1790173702254884900,1.925884765625,-4.075246282884478,-8.915581450486183,0.2741292767546139,9.782845405940208,0.6828671102532493
1790173702264957000,1.93595703125,-4.07596027637273,-8.915935086229442,0.2510683173038996,9.784413978775287,0.6600219907898404
1790173702275028500,1.946028564453125,-4.07090766915828,-8.918899781253934,0.2265819281599484,9.78595555386973,0.636769838103255
1790173702285100500,1.9561005859375,-4.07069168832004,-8.919674857279658,0.1981273295047692,9.787731850542047,0.6088431994579327
1790173702295172400,1.96617236328125,-4.0726133040323855,-8.919439879480004,0.1667650267093442,9.789620915318617,0.5776848590100897
1790173702305243400,1.976243408203125,-4.07496395881176,-8.918859449243545,0.1378767036788631,9.791278128180366,0.5488786232035316
1790173702315315500,1.9863154296875,-4.078053741520643,-8.917818415758013,0.1112485258664004,9.792739696842698,0.522142776979516
1790173702325387500,1.996387451171875,-4.0769621468916535,-8.918608689352869,0.0847246304123196,9.794078964970128,0.4963837143944859
1790173702335458600,2.00645849609375,-4.0716634559616445,-8.92123903785646,0.0584818854206008,9.795285695663626,0.47196137600172433
1790173702345530600,2.016530517578125,-4.068636217094958,-8.922755287638306,0.0318677886491292,9.796463877207392,0.44684857464043565
1790173702355602400,2.0266025390625,-4.069311339877546,-8.92250394322574,0.0041906620456822,9.797658017587292,0.4198646565152585
1790173702365673500,2.036673583984375,-4.070668015183508,-8.921855708450078,-0.0230625029538292,9.798765008780174,0.39317115101317757
1790173702375745500,2.04674560546875,-4.07079427191168,-8.921696718496083,-0.0483681543251033,9.79971250622457,0.36879888116867765
1790173702385817600,2.056817626953125,-4.0673967384278775,-8.923091387724876,-0.0714150898170424,9.800477281214931,0.34788118216874975
1790173702395888600,2.066888671875,-4.062356698434055,-8.925175208261608,-0.0942350116200745,9.801159056022891,0.32810949305856635
1790173702405960400,2.07696044921875,-4.055216179029643,-8.928146917548775,-0.1174242370929568,9.801767693355592,0.3093932399825403
1790173702416031500,2.087031494140625,-4.045146328175068,-8.93244607604742,-0.1363682170783635,9.802159808858987,0.2967508888981578
1790173702426103600,2.097103515625,-4.046868621923029,-8.931408549693227,-0.1522713954626116,9.802604392581257,0.28167006419073864
1790173702436175600,2.107175537109375,-4.047890073925257,-8.930649255758523,-0.1688121136985719,9.803029365616412,0.2665013443802916
1790173702446246700,2.11724658203125,-4.041028371462225,-8.933429826387762,-0.1852718299870379,9.80330747288253,0.2560605496154902
1790173702456318700,2.127318603515625,-4.052839805287123,-8.92787628391385,-0.1946392681933008,9.803680803551236,0.24127282274411466
1790173702466390500,2.137390625,-4.056515571190417,-8.925970742553472,-0.2051894499107263,9.803949742744091,0.23009656306349383
1790173702476461300,2.14746142578125,-4.045755692245066,-8.930476237279176,-0.2210014976791106,9.80410722516109,0.223311722625282
1790173702486533400,2.157533447265625,-4.042524747499823,-8.931577476519346,-0.2351333738082088,9.804311689235005,0.21410875046209984
1790173702496605700,2.167605712890625,-4.048473426771164,-8.928558420959115,-0.2471461936904117,9.804597979455913,0.200579824650509
1790173702506676500,2.177676513671875,-4.047724069708585,-8.928502306857705,-0.2610950231364928,9.804801213128641,0.19043993856157518
1790173702516748500,2.18774853515625,-4.04528106047064,-8.929142358326912,-0.2765948448842391,9.80497899784039,0.18103500654776128
1790173702526820400,2.1978203125,-4.043141125832498,-8.92968654820621,-0.2900005804295651,9.805112818742899,0.1736518384186176
1790173702536891400,2.207891357421875,-4.039461852797865,-8.930967235666513,-0.3016078699844889,9.805185809027892,0.16948859086237514
1790173702546963500,2.21796337890625,-4.0387434753954405,-8.9309339179188,-0.3120422615688294,9.805278691139705,0.16404166656146532
1790173702557035500,2.228035400390625,-4.041273870655894,-8.929526973730326,-0.319422361882776,9.805382554883888,0.15763904932788037
1790173702567106600,2.2381064453125,-4.041166610889136,-8.929217761650682,-0.3292535816758871,9.805460493962956,0.15267558521696847
1790173702577178400,2.248178466796875,-4.038248969876766,-8.930088699266314,-0.3412260512813925,9.805501048919156,0.15007770385070102
1790173702587249400,2.25824951171875,-4.037043101218343,-8.930277499836683,-0.3504351205881685,9.805537714145657,0.14767577794861628
1790173702597321500,2.268321533203125,-4.037946187537909,-8.929671350637078,-0.3554399066055193,9.805577917607133,0.14497955988218955
1790173702607393500,2.2783935546875,-4.040886917164921,-8.928190172168613,-0.3592282295051962,9.805641483423289,0.14066572846492573
1790173702617464600,2.288464599609375,-4.042506335060298,-8.927232725313305,-0.3647533861348405,9.805689263494402,0.13727600443951318
1790173702627536600,2.29853662109375,-4.043054324331879,-8.926817714771628,-0.3687975104264915,9.805712267309737,0.13557771456761128
1790173702637608400,2.3086083984375,-4.04333255675137,-8.92660904045701,-0.3708092886403202,9.805724088508722,0.13476555285427674
1790173702647679500,2.318679443359375,-4.047205891053379,-8.924835016521811,-0.371271170531027,9.805782138598586,0.13051639406404952
1790173702657751600,2.32875146484375,-4.050008673514426,-8.923615703859925,-0.3700036348132416,9.805816702110896,0.12786313032123847
1790173702667823600,2.33882373046875,-4.050272000625729,-8.923581801590323,-0.3679306644640863,9.805812781123624,0.1281566390489106
1790173702677894700,2.348894775390625,-4.050760076403618,-8.923503475657105,-0.3644403381302952,9.805805935039608,0.1286786736345547
1790173702687966500,2.358966552734375,-4.05181806102395,-8.923263821682333,-0.3585085734611377,9.805794905009067,0.12954346424278226
1790173702698038500,2.36903857421875,-4.055491196578741,-8.92187090601921,-0.3515558317137882,9.805808666860736,0.12844142996137053
1790173702708109600,2.379109619140625,-4.059559176670015,-8.920242428034543,-0.3459109211619943,9.805830550005549,0.12683561704155005
1790173702718181600,2.389181640625,-4.061434907414019,-8.919507684019207,-0.3428052467642352,9.805834620965298,0.12646602676703322
1790173702728252400,2.39925244140625,-4.059891185103357,-8.920321338489652,-0.3398768651621416,9.805795385957788,0.12939222926863367
1790173702738324500,2.409324462890625,-4.060524222309887,-8.920112079653144,-0.3378287004606798,9.805790764517717,0.1298159731822485
1790173702748396500,2.419396484375,-4.063165384468436,-8.919016101109982,-0.3350067018425092,9.805804554814085,0.12879315381016512
1790173702758467300,2.42946728515625,-4.064688648512959,-8.918432163742184,-0.3320391572738066,9.805801119135756,0.1289979943264099
1790173702768539400,2.439539306640625,-4.064064379134774,-8.918708058074117,-0.3322764366284013,9.805795476248596,0.12944269477000062
1790173702778611500,2.449611572265625,-4.065587058657408,-8.918037611466646,-0.3316709815485403,9.805810404688732,0.12837802910105453
1790173702788682500,2.4596826171875,-4.069077238860726,-8.916471677324175,-0.3309442016439512,9.805845331376137,0.12561110647208518
1790173702798754600,2.469754638671875,-4.0726510056942695,-8.914870087346435,-0.3301204641709104,9.805879502853548,0.12288850567817408
1790173702808826400,2.479826416015625,-4.073718050403893,-8.914413575750588,-0.3292862418364733,9.805885198301802,0.1224461534768206
1790173702818897400,2.4898974609375,-4.075630898287892,-8.913529194131494,-0.3295409472499042,9.805907468504971,0.12060625500432812
1790173702828969500,2.499969482421875,-4.076306897853315,-8.913185495260358,-0.3304955445609986,9.80592260879925,0.11942651975384852
1790173702839041500,2.51004150390625,-4.074295850291848,-8.914123068371415,-0.3299826266027987,9.805896189309989,0.12151218915122515
1790173702849112600,2.520112548828125,-4.073137035645544,-8.914681286776066,-0.3292566504158079,9.805879566229164,0.12297817040088455
1790173702859184400,2.530184326171875,-4.073341326045989,-8.914576657357811,-0.3295420432284474,9.805883325737287,0.1226242172877997
1790173702869255400,2.54025537109375,-4.074025801178813,-8.914304854679107,-0.3284351414324715,9.805882559111797,0.12269535386882363
1790173702879327500,2.550327392578125,-4.076029249955713,-8.913436255151034,-0.3271628930069506,9.805894938047302,0.12173883387969998
1790173702889399600,2.560399658203125,-4.080523054243624,-8.91144654263854,-0.325338709787093,9.805927461492084,0.11907885857449108
1790173702899470600,2.570470703125,-4.084012357664108,-8.909871840667725,-0.3246908403376117,9.805957321084517,0.11661180705621584
1790173702909542700,2.580542724609375,-4.083301579046249,-8.91019741936028,-0.3246920459140092,9.805950225699162,0.11719613136350766
1790173702919614500,2.590614501953125,-4.084762299248576,-8.909595946335791,-0.3228326817829162,9.805949829238083,0.117268304406846
1790173702929685500,2.600685546875,-4.086235294410586,-8.909026622015237,-0.3198828190013766,9.805939003289655,0.11815039025703825
1790173702939757600,2.610757568359375,-4.088105179935694,-8.908250961467623,-0.3175736287435516,9.805936244612733,0.11834919082757545
1790173702949829600,2.62082958984375,-4.091278549274802,-8.90685863032639,-0.3157400201082229,9.805948364041152,0.11729991659164252
1790173702959900700,2.630900634765625,-4.094973604400455,-8.905213201206921,-0.3142409406568854,9.805966660006497,0.1157420032330986
1790173702969972700,2.64097265625,-4.096773055037856,-8.90441299073994,-0.3134644033264369,9.805974653607807,0.11507040929999145
1790173702980044500,2.65104443359375,-4.098763352072239,-8.903435670140386,-0.3152059132315218,9.80600669506172,0.11231746417827955
1790173702990115300,2.661115234375,-4.100936019936204,-8.90230754289329,-0.318795425623469,9.806055503174571,0.1079899065796921
1790173703000187600,2.671187744140625,-4.100770307980477,-8.902060290133953,-0.3277048909291625,9.806126881925765,0.10129461538436871
1790173703010258400,2.681258544921875,-4.098094366769493,-8.9027377510041,-0.3424431354535743,9.806208420747215,0.09306240909752672
1790173703020330500,2.69133056640625,-4.094947593176364,-8.903664218199253,-0.3557391087478027,9.806256237494821,0.08787046938062357
1790173703030402300,2.70140234375,-4.0906560334622855,-8.905188066765666,-0.366790700648725,9.806266543105794,0.08667867219401393
1790173703040473300,2.711473388671875,-4.090811808545888,-8.90475201343596,-0.3755362440969795,9.806296855945197,0.08318123249903601
1790173703050545400,2.72154541015625,-4.091094717140495,-8.904389609864353,-0.3810183287698775,9.806313915518885,0.08119523406179496
1790173703060617500,2.731617431640625,-4.087711504442989,-8.905808244490624,-0.3841527908707037,9.806289878715672,0.08401197846149686
1790173703070688500,2.7416884765625,-4.083278490431606,-8.907712616807222,-0.3871384190853685,9.806253587863353,0.08817040374754784
1790173703080760600,2.751760498046875,-4.079363362814486,-8.909275043818354,-0.3924151173792779,9.80622172772253,0.09160951570645301
1790173703090832400,2.761832275390625,-4.0758115155518055,-8.910649254781008,-0.3980786960989236,9.80618965426222,0.09497770771317732
1790173703100903400,2.7719033203125,-4.075385106833279,-8.910649839302897,-0.4024054732568561,9.8061866512156,0.09527777335358484
1790173703110975500,2.7819755859375,-4.075170879560709,-8.910714136710762,-0.4031757269769906,9.806185482031529,0.09550435913657196
1790173703121046500,2.792046630859375,-4.070877274020016,-8.912608572155237,-0.4046793364729732,9.806138591940194,0.10022285975274528
1790173703131118600,2.80211865234375,-4.067212321771681,-8.914257508406042,-0.405196711410582,9.806095986135876,0.10425393120955777
1790173703141190700,2.812190673828125,-4.065037900342047,-8.91537803686857,-0.4023612322563305,9.806070481609082,0.10665337516280686
1790173703151261700,2.82226171875,-4.064480266459286,-8.915857344818114,-0.3973394585715606,9.806061453693978,0.1074683269580688
1790173703161333500,2.83233349609375,-4.0650314706012605,-8.915905275613069,-0.3905613062061369,9.80606077762637,0.10750767454805048
1790173703171405600,2.842405517578125,-4.062585538753867,-8.917453674098848,-0.3805355867542326,9.806012220755449,0.11186129166180353
1790173703181476600,2.8524765625,-4.0593686225339765,-8.919454492527246,-0.3677626874860376,9.805933046791782,0.11861085119674353
1790173703191548700,2.862548583984375,-4.057169651184976,-8.921061343201995,-0.3527356891481205,9.805837078808267,0.12626447614871716
1790173703201620500,2.872620361328125,-4.058785561949015,-8.921021595713496,-0.3346875163581222,9.80574678487157,0.13308746619859868
1790173703211691500,2.88269140625,-4.055475122226775,-8.923267328813672,-0.314343341585435,9.805538976610858,0.14763266250447954
1790173703221763600,2.892763671875,-4.048976115596294,-8.926873828873038,-0.2951434962759726,9.805255781988535,0.1653864397767999
1790173703231835600,2.902835693359375,-4.046357457530498,-8.928674740815163,-0.2759452218690887,9.80498618648601,0.18064592349202793
1790173703241906400,2.912906494140625,-4.04258553777635,-8.931073618650435,-0.2525979745565913,9.804597908469127,0.20059761211238344
1790173703251978800,2.922978759765625,-4.0382054229959845,-8.933737869423627,-0.2271691169307567,9.804106199592963,0.22334456043947135
1790173703262049500,2.933049560546875,-4.035393580445647,-8.935586712160706,-0.2031881930909119,9.803601848320335,0.24451478701001658
1790173703272121300,2.943121337890625,-4.034018492700159,-8.93671659297347,-0.1794236154154874,9.80306577564304,0.26514693051040045
1790173703282193400,2.953193359375,-4.029451038654148,-8.939228868055343,-0.1552118967607617,9.802407004427657,0.2884373083161127
1790173703292264400,2.963264404296875,-4.028379025508463,-8.940081100970506,-0.1322821807405911,9.801782642833958,0.3089389309668467
1790173703302336500,2.97333642578125,-4.030879610152542,-8.939261016759275,-0.1095340957644861,9.8011692082882,0.32780760505783013
1790173703312408300,2.983408203125,-4.027234239387512,-8.941144346287846,-0.0877641077060718,9.800432976859193,0.3491329900517912
1790173703322479400,2.993479248046875,-4.022305843074619,-8.943538547948002,-0.067595645693317,9.799680027226117,0.3696844453940432
1790173703332551400,3.003551513671875,-4.019250254896283,-8.945040184682608,-0.0475707203370984,9.798920394331176,0.38927958598468543
1790173703342623500,3.01362353515625,-4.02112920051068,-8.944281475269793,-0.0270931535592651,9.79819176814562,0.4072140342218674
1790173703352694500,3.023694580078125,-4.027690750983357,-8.941367049127816,-0.008221944836658,9.797566310291,0.4220183510384762
1790173703362766600,3.0337666015625,-4.030945953387022,-8.939898730140923,0.0085099103447631,9.796933479246757,0.43644175566800747
1790173703372838400,3.04383837890625,-4.030586764685809,-8.940034923741221,0.0227699954138137,9.796319462086878,0.44999730532761983
1790173703382909400,3.053909423828125,-4.027459572575986,-8.94139861330986,0.0365021864345297,9.795662712405129,0.4640734912098916
1790173703392981500,3.0639814453125,-4.028846350759268,-8.940686665648222,0.0539087094532791,9.794893450582173,0.48005146809850546
1790173703403052500,3.074052490234375,-4.027987980364263,-8.94094970049858,0.0715241168492007,9.794044725634954,0.4970637065385006
1790173703413124600,3.08412451171875,-4.0292061239823695,-8.940276915803551,0.0855939331932924,9.793376152999892,0.5100619256908193
1790173703423196700,3.09419677734375,-4.031852546837926,-8.938985122427344,0.0952770954183768,9.792933690049303,0.5184760800938822
1790173703433267700,3.104267822265625,-4.037740143571794,-8.936229686239361,0.1040841597955208,9.792578736253377,0.5251491967387698
1790173703443339500,3.114339599609375,-4.040194843247533,-8.935034923496842,0.1112089062420651,9.792247592126618,0.5312983821076169
1790173703453411600,3.12441162109375,-4.0405046398490665,-8.93485138362348,0.1145536226932425,9.792075885997901,0.5344336885066006
1790173703463482600,3.134482666015625,-4.041913922125101,-8.934209578588604,0.1148997875161003,9.792079230482456,0.5343737017653478
1790173703473554700,3.1445546875,-4.04180461653173,-8.934266277211904,0.1143609770648181,9.792106224519012,0.5338844361416406
1790173703483626500,3.15462646484375,-4.041658778320253,-8.93432999009788,0.1145528920408803,9.792094093776495,0.5341101721910146
1790173703493697300,3.164697265625,-4.042986812053621,-8.933757743167877,0.1122868011392652,9.792232998963756,0.5315552612540493
1790173703503769600,3.17476953125,-4.0422053062871095,-8.934179183450341,0.1067319800237193,9.792510341064705,0.5264165231768826
1790173703513840400,3.18484033203125,-4.041849624717235,-8.934399548202753,0.1017097222817596,9.792764676370457,0.5216785759354583
1790173703523912400,3.194912353515625,-4.044614120994508,-8.93319192597866,0.0977701817425899,9.793007097100567,0.5170999697296453
1790173703533984500,3.204984619140625,-4.047983305166661,-8.931714839163423,0.0930873211559839,9.793292878813832,0.5116430847518185
1790173703544055600,3.2150556640625,-4.047772877286374,-8.931893118339776,0.084787831841642,9.793705181926617,0.5036940832219378
1790173703554127400,3.22512744140625,-4.049360146477818,-8.931246637129783,0.0767894443657249,9.794122024380213,0.4955345391002661
1790173703564199400,3.235199462890625,-4.053317067410052,-8.929484888154267,0.0727855013874126,9.794371903340227,0.49056739089011503
1790173703574270500,3.2452705078125,-4.053220329037308,-8.929564967653155,0.0682689007458044,9.79458850049997,0.48623275901833984
1790173703584342500,3.255342529296875,-4.054813151186704,-8.928886337739229,0.0621320145591394,9.794902283318942,0.47986515894515186
1790173703594414600,3.26541455078125,-4.05649102127105,-8.928159777030348,0.0567516595279332,9.795177780088723,0.4742039826388877
1790173703604485600,3.275485595703125,-4.05812154508233,-8.927432631799578,0.0544491273397579,9.795306440020658,0.4715297695153288
1790173703614557400,3.285557373046875,-4.0588814235389234,-8.927087179362774,0.0545178269281052,9.795313628288424,0.4713884122595424
1790173703624629500,3.29562939453125,-4.061361549916863,-8.925960221159457,0.054352704060846,9.795353549339993,0.470559846071886
1790173703634700500,3.305700439453125,-4.061298713813722,-8.9259917853415,0.0538031895524589,9.795377968132666,0.47004450793095975
1790173703644772600,3.315772705078125,-4.058685024183989,-8.92716959694922,0.0556494750062702,9.795258422844332,0.4725361700393669
1790173703654843600,3.32584375,-4.058165676485002,-8.927368334391712,0.0614538413029396,9.794979760572339,0.4782908114212046
1790173703664915500,3.33591552734375,-4.058105470730364,-8.927329755946994,0.0703340485481079,9.79455515569193,0.48690118451499415
1790173703674987500,3.345987548828125,-4.053300116275251,-8.929421759790182,0.0810154097639955,9.793970115981903,0.4985254864939033
1790173703685058600,3.35605859375,-4.048692037957906,-8.931369971248508,0.095372463817941,9.793187998593776,0.5136550521476505
1790173703695130600,3.366130615234375,-4.042831621491909,-8.93380625848472,0.1139925638775341,9.792141072599975,0.5332441305777711
1790173703705202700,3.37620263671875,-4.0376273308470845,-8.935844486314057,0.136492829838721,9.790853417692214,0.556390862842602
1790173703715273700,3.386273681640625,-4.034561513535678,-8.936887857887148,0.1572502524542622,9.78964488154334,0.5772624412892249
1790173703725345500,3.396345458984375,-4.034116400116682,-8.936691458532213,0.1784234984622336,9.788410057956197,0.5978401431807947
1790173703735417600,3.40641748046875,-4.030709222021699,-8.937765225243568,0.200292964839749,9.787038543208244,0.6198853761660313
1790173703745488400,3.41648828125,-4.027281585660576,-8.938836653867364,0.2204321733585558,9.785727185380606,0.6402589250279931
1790173703755560700,3.426560791015625,-4.024064669440686,-8.939768966281413,0.2404692184108309,9.784383606894561,0.6604759741770512
1790173703765631500,3.436631591796875,-4.021851669566333,-8.940151828119157,0.2622704235914163,9.782896730089135,0.6821458094263483
1790173703775703600,3.44670361328125,-4.022983303944766,-8.938867049005626,0.2874934199142269,9.781180496246368,0.706328075302495
1790173703785775400,3.456775390625,-4.024846175207197,-8.937085426285863,0.3154609839711338,9.779212622975193,0.7330748651139447
1790173703795846400,3.466846435546875,-4.022401704664528,-8.937178949788212,0.342781610160321,9.777139451762327,0.7602147244577521
1790173703805918500,3.47691845703125,-4.018447706341743,-8.937921877110004,0.3688024423299357,9.775066372642309,0.7864236147464321
1790173703815990500,3.486990478515625,-4.0147038436383005,-8.938530948919057,0.3939447380993515,9.77299742073343,0.8117243053659571
1790173703826061600,3.4970615234375,-4.013849564896524,-8.937712033751607,0.420348797432892,9.770811350251856,0.8376296300758761
1790173703836133400,3.50713330078125,-4.014059992776811,-8.936246052852272,0.4485511018274352,9.768418084635424,0.8650880634058981
1790173703846205400,3.517205322265625,-4.013149892194569,-8.935201512235402,0.4766350040066987,9.765935347607309,0.8926846222903351
1790173703856276500,3.5272763671875,-4.010155678814649,-8.935124939867853,0.5025598284559324,9.763532249628742,0.9185916671813715
1790173703866348500,3.5373486328125,-4.010096642103791,-8.933674156537652,0.5281717875637114,9.761144597392022,0.9436263032491314
1790173703876419600,3.547419677734375,-4.0101238223716615,-8.93188844216466,0.5573498781878501,9.758344333400968,0.9721517224819077
1790173703886491600,3.55749169921875,-4.006858975356817,-8.931496812498569,0.5863715726738795,9.755414400105341,1.0011371851684283
1790173703896563500,3.5675634765625,-4.003638552005588,-8.931061343690752,0.6143272453635931,9.752507380280568,1.0290656644945988
1790173703906634500,3.577634521484375,-4.000167953285574,-8.930826365891098,0.6398210945170373,9.74977649686421,1.0546243532043529
1790173703916706600,3.58770654296875,-3.9993139668047424,-8.929249910354613,0.6666107556346803,9.746889504185692,1.0809861513312689
1790173703926778600,3.597778564453125,-4.00352398571521,-8.925438243111968,0.6919020679533481,9.744191205888438,1.1050422392502408
1790173703936849700,3.607849609375,-4.009200570046901,-8.921140838178992,0.714093003103882,9.741803068461218,1.1258973567296842
1790173703946921500,3.61792138671875,-4.012501072897017,-8.918151008713245,0.7326766344774513,9.739737242042976,1.143641456437754
1790173703956993500,3.62799365234375,-4.0168692049786445,-8.914777732887863,0.7495970088139176,9.737845866542589,1.1596351977157278
1790173703967064600,3.638064697265625,-4.022017089261114,-8.910759729418158,0.7694974949397146,9.735580013285318,1.178502703164795
1790173703977136600,3.64813671875,-4.029105586217344,-8.905881894248724,0.7886435094363987,9.73339091429487,1.19644641906494
1790173703987207400,3.65820751953125,-4.038885806475579,-8.900036675351858,0.8044478853549808,9.73160614112225,1.2108797193288237
1790173703997279500,3.668279541015625,-4.0512975442811845,-8.893096062433719,0.8186744174975902,9.730012021885067,1.2236270770990325
1790173704007351600,3.6783515625,-4.064119324192404,-8.885878386139868,0.8333549770180135,9.728322683839224,1.236979729567824
1790173704017422300,3.68842236328125,-4.076904279224574,-8.878443267703055,0.8499793640825897,9.726341318138411,1.2524587187692502
1790173704027494400,3.698494384765625,-4.082911118423938,-8.874539830523728,0.8618374865934252,9.7248734274615,1.2638121211844715
1790173704037566500,3.70856640625,-4.080040531423688,-8.875318413680791,0.8673994315695017,9.724131364113623,1.269511193188227
1790173704047637500,3.718637451171875,-4.081888497377932,-8.873752479538322,0.8747058090601116,9.723199536801069,1.2766353406880686
1790173704057709600,3.72870947265625,-4.090749556964636,-8.868333961620927,0.8881454286087304,9.721507627327773,1.2894459844491362
1790173704067781400,3.738781494140625,-4.101517911477386,-8.861658721640705,0.9049493369586764,9.719350423599913,1.3056052706429626
1790173704077852400,3.748852294921875,-4.113308302514255,-8.854776560911535,0.9186970726083964,9.717565118490432,1.3188273633490721
1790173704087924500,3.758924560546875,-4.118339282418788,-8.851417898133397,0.9284747355833648,9.71626117417457,1.3284018150974997
1790173704097995500,3.76899560546875,-4.115964369980991,-8.851593254700303,0.9373049616403876,9.71504979601902,1.3372411501279096
1790173704108067600,3.779067626953125,-4.112153871782124,-8.852463023272156,0.945764527754113,9.713872500602017,1.3457572692054718
1790173704118139400,3.789139404296875,-4.1071734530210495,-8.85379865579009,0.9548581539876758,9.712594098871179,1.35495179813923
1790173704128210400,3.79921044921875,-4.105387446387112,-8.85363089800775,0.9640516603991388,9.711307384733008,1.3641446573801854
1790173704138282500,3.809282470703125,-4.105215012429654,-8.852915443214773,0.9713340724922715,9.710288404602245,1.3713829234827164
1790173704148354600,3.8193544921875,-4.108238744165004,-8.850629378104209,0.9793482329260558,9.709175140816168,1.37924146323712
1790173704158425600,3.829425537109375,-4.109893525634706,-8.848649017941952,0.9902344416648148,9.707639657596948,1.3900038713936607
1790173704168497700,3.83949755859375,-4.107555438075959,-8.848887502872943,0.9977851493053138,9.706553480611813,1.397575202829966
1790173704178569500,3.849569580078125,-4.099119325903057,-8.852633119142055,0.9992441159419716,9.70630155070052,1.3993181912045842
1790173704188640500,3.859640625,-4.094330338060856,-8.85510506221354,0.9969765363361686,9.70659813899198,1.3972620950013794
1790173704198712600,3.869712646484375,-4.095796611221134,-8.8544895606637,0.9964182448662816,9.706686552446966,1.3966462514325473
1790173704208783600,3.87978369140625,-4.097950282123684,-8.853156266233324,0.9994057362444698,9.70627200571456,1.3995241926541049
1790173704218855700,3.889855712890625,-4.097568881590664,-8.853559001815318,0.9974013376194985,9.70655663393355,1.397549812540133
1790173704228927500,3.899927490234375,-4.0887437701001765,-8.858352081310748,0.9910425431773066,9.707407689495778,1.3916279985330307
1790173704238998500,3.90999853515625,-4.080096353264152,-8.863271417534351,0.9826628373667596,9.708531235635311,1.3837680338250316
1790173704249070300,3.9200703125,-4.0754786303356285,-8.866242542299627,0.974987407368049,9.709573806276644,1.3764301036372428
1790173704259142700,3.930142578125,-4.076395745180547,-8.866639432662724,0.9675175098787993,9.710628352132503,1.3689719642337768
1790173704269213400,3.94021337890625,-4.076217173743248,-8.867909598729014,0.9565697802111506,9.712150440240402,1.3581335241061214
1790173704279285000,3.950284912109375,-4.071597112727165,-8.871408546760678,0.9437170206397772,9.713881772478597,1.3456951279022575
1790173704289357000,3.960357177734375,-4.064676958075165,-8.875994705507159,0.930325478016585,9.715642499767782,1.3329205143034923
1790173704299428000,3.970427978515625,-4.059789186033607,-8.879705250462889,0.9161508221916854,9.717505826379494,1.3192673775306836
1790173704309500000,3.9805,-4.053855704331398,-8.88395472460091,0.9010974838361144,9.71944888600736,1.304870739945177
1790173704319571000,3.990571044921875,-4.049227752269804,-8.887707939654588,0.884746799146384,9.721550309049011,1.289121521649528
1790173704329643000,4.00064306640625,-4.046267148898542,-8.890972494408487,0.8652825124807655,9.724045002006218,1.2701702098328136
1790173704339715000,4.010715087890625,-4.038825892981887,-8.896391596847772,0.8441003159813583,9.726657496685231,1.2500149294714082
1790173704349786000,4.0207861328125,-4.027925728783012,-8.903392415520548,0.8220699782200157,9.729267588625865,1.2295256887702097
1790173704359858000,4.03085791015625,-4.024646268720924,-8.907218695810437,0.7962791919466108,9.732394507194975,1.2045248819233443
1790173704369930000,4.040929931640625,-4.025564260348677,-8.90935804592669,0.7671693442530929,9.735912975406492,1.1757447609019618
1790173704380000800,4.051000732421875,-4.031270655296742,-8.909309530609846,0.7371820561379194,9.739520540281218,1.1454765112406537
1790173704390072800,4.06107275390625,-4.028993358014524,-8.91271612418294,0.7078837732002139,9.742836973502488,1.1169258405591478
1790173704400145200,4.071145263671875,-4.023286963066458,-8.917785682532191,0.6757542854245752,9.746318469850776,1.0861213584457121
1790173704410216000,4.0812158203125,-4.023312682029605,-8.920499033144116,0.6387716585293411,9.750300324670153,1.0497717600425303
1790173704420287700,4.091287841796875,-4.025684087336063,-8.922224541762471,0.5984584259066731,9.754520692780732,1.0098027957529714
1790173704430358800,4.10135888671875,-4.027607456614077,-8.92386412566304,0.5598476498203352,9.758403381672931,0.9715789156999776
1790173704440430800,4.111430908203125,-4.031230615547299,-8.924536325836181,0.5217512529969215,9.762111302934363,0.9335824473609171
1790173704450503000,4.1215029296875,-4.031054674458503,-8.926883765745162,0.4813924641994759,9.765815039634981,0.8940083175370998
1790173704460574000,4.131573974609375,-4.034192095701396,-8.92767228577435,0.4385597230365499,9.769616263156951,0.851452293749969
1790173704470646000,4.14164599609375,-4.043643230135738,-8.925394403970241,0.3958176192991435,9.773319529971968,0.8078445344631731
1790173704480717800,4.1517177734375,-4.048874993309378,-8.924849045047164,0.3522190813954919,9.776834413618133,0.7641245437208137
1790173704490788900,4.161788818359375,-4.056794095870853,-8.922819585046172,0.309991466518864,9.780091113723604,0.7212490555662793
1790173704500861000,4.17186083984375,-4.066202852468193,-8.919897560119628,0.2680132415597326,9.783162410807584,0.6783380144599103
1790173704510933000,4.18193310546875,-4.0724057987615465,-8.918260898828507,0.2247964695152826,9.786086661152696,0.634750157523329
1790173704521004000,4.192004150390625,-4.083047896546125,-8.914321221292019,0.1843113691907376,9.788699627663972,0.5930710261436782
1790173704531075800,4.202075927734375,-4.097034628583491,-8.908600505557656,0.1467215153836645,9.791002256050998,0.5537668647680891
1790173704541147000,4.21214697265625,-4.107458407442271,-8.904329988631606,0.1099430510247126,9.793071308198927,0.5158962515001333
1790173704551219000,4.222218994140625,-4.117940930750966,-8.899833846256136,0.0768653408798389,9.794809441378497,0.48176372614759977
1790173704561291000,4.232291015625,-4.129112605367601,-8.89486657923758,0.0464086451546289,9.796306405194933,0.4502854074085113
1790173704571362000,4.242362060546875,-4.138261541984975,-8.890715889298916,0.0187281840935465,9.797569727491855,0.42191917936813106
1790173704581434000,4.25243408203125,-4.145789014880359,-8.887224540051818,-0.0081839183769654,9.798709815363356,0.3945624310849978
1790173704591506000,4.262505859375,-4.153035332746804,-8.883777029946446,-0.0344670045122271,9.799744444030802,0.3679586918865892
1790173704601577000,4.272576904296875,-4.157572099393606,-8.881524282583594,-0.0591307823499664,9.800643485726553,0.34316622631776855
1790173704611649000,4.28264892578125,-4.156859567210078,-8.881682103493809,-0.0814179535497445,9.801397799821471,0.3209182167518448
1790173704621721000,4.29272119140625,-4.154652412554621,-8.88250101866126,-0.102126121062925,9.802051053017909,0.30030969730947377
1790173704631791900,4.3027919921875,-4.1554912014663214,-8.881827649444341,-0.1241705512817017,9.802701924227247,0.27824958302762703
1790173704641864000,4.312864013671875,-4.156968872803449,-8.880777848130464,-0.1475751182720065,9.803339205031243,0.2548023624927786
1790173704651935000,4.32293505859375,-4.157945316620171,-8.87992853782475,-0.1695586029506288,9.80388684873083,0.2327936210364047
1790173704662006800,4.3330068359375,-4.163146976916492,-8.877044506821036,-0.1915056828753091,9.804385630682837,0.21073385803868852
1790173704672078800,4.343078857421875,-4.16546285264343,-8.87541602883637,-0.2152007937774062,9.80486710917527,0.18703693414215392
1790173704682150000,4.35314990234375,-4.1650589480176565,-8.875008617079258,-0.2385356565323658,9.805284083710603,0.16369878088073625
1790173704692222000,4.363221923828125,-4.1672912371143696,-8.873276094198227,-0.2627699888776987,9.805658087324385,0.13950785047646086
1790173704702293800,4.373293701171875,-4.167017096348107,-8.872537258529663,-0.2905813029269687,9.806013912195153,0.11170287686684544
1790173704712364800,4.38336474609375,-4.16387646023482,-8.873039362832904,-0.318884820939973,9.806295902776826,0.08332410628458269
1790173704722436900,4.393436767578125,-4.164123712994158,-8.871844015568493,-0.3476097975017502,9.806497531258074,0.054601048041536926
1790173704732508000,4.4035078125,-4.164329756960273,-8.870463959386944,-0.3789545281078666,9.806622023025458,0.023328338411114223
1790173704742580000,4.413580078125,-4.166350156871975,-8.868058651810884,-0.4116337952533737,9.80664384372225,0.010806729577823311
1790173704752652000,4.423652099609375,-4.168273526149988,-8.865568004038929,-0.444503105078265,9.806555084325959,0.043134806671120136
1790173704762723000,4.43372314453125,-4.168598812581599,-8.863604010489583,-0.4792587401064112,9.806341854313382,0.07772059787234839
1790173704772795000,4.443794921875,-4.168079464882612,-8.861740554705262,-0.5167703227791934,9.80597412710287,0.11513066306793934
1790173704782867000,4.453866943359375,-4.167417201581597,-8.859643874686956,-0.5565248986057937,9.805426765144157,0.1548600480404412
1790173704792938000,4.46393798828125,-4.169021129646897,-8.856489794570207,-0.5935027031954377,9.80477081052884,0.19199862622011798
1790173704803010000,4.474010009765625,-4.169636631196737,-8.853640834879874,-0.6305282924495637,9.803973334162487,0.2291254239064009
1790173704813081900,4.484081787109375,-4.169480271591246,-8.850840975028277,-0.6696426706764846,9.802978357775267,0.2683063991197009
1790173704823153000,4.49415283203125,-4.169520019079744,-8.847766974410414,-0.7088782641302794,9.801823603839363,0.30763623900352643
1790173704833225000,4.504224853515625,-4.172477992102504,-8.843022410231828,-0.7495158333364874,9.800453697912111,0.348567413773853
1790173704843296000,4.5142958984375,-4.1738042722702025,-8.838592318829894,-0.7931096950650215,9.798797005822207,0.39237292056874346
1790173704853368000,4.5243681640625,-4.174695668151975,-8.834087408626079,-0.8373763414885849,9.796915665327491,0.4368373251890077
1790173704863440100,4.534440185546875,-4.1787788458123805,-8.82781899588108,-0.8819329838346689,9.79480559944104,0.4818401429746633
1790173704873511000,4.544510986328125,-4.182827536681295,-8.821271181672811,-0.927097821206972,9.792453105729479,0.5274883926745159
1790173704883582700,4.554582763671875,-4.18587523381412,-8.814892294290662,-0.9728784523900598,9.789853855695966,0.5736999217735324
1790173704893654800,4.56465478515625,-4.190754238027334,-8.807534332743286,-1.017494423707947,9.787098411499029,0.6189359352192167
1790173704903725800,4.574725830078125,-4.197515110464394,-8.799275038442016,-1.0601905328791588,9.784247582600942,0.6624783114184506
1790173704913798000,4.5847978515625,-4.203172990095615,-8.79171366327703,-1.0997682908341289,9.781432081106168,0.7028293234865515
1790173704923870000,4.594869873046875,-4.210183453379571,-8.783587639966607,-1.1372481997270136,9.778593821315313,0.7412778734061661
1790173704933941000,4.60494091796875,-4.216588644246757,-8.775688411149382,-1.17391145847477,9.775670348108626,0.7788865397606949
1790173704944012800,4.6150126953125,-4.2208267202079295,-8.76878929928541,-1.209685878624022,9.77269538039839,0.8153581447228279
1790173704954083800,4.625083740234375,-4.222954087625443,-8.763263229340314,-1.241878567828983,9.769919756274167,0.8479705101577284
1790173704964156000,4.635156005859375,-4.225972266402841,-8.75771260947585,-1.2704403531856834,9.767351081284572,0.8770651586455512
1790173704974228000,4.64522802734375,-4.231162236261367,-8.751348335140943,-1.296746030178666,9.764875582609069,0.904204996385095
1790173704984299000,4.655299072265625,-4.236338469855487,-8.745487334153056,-1.3191944472216068,9.76269131271645,0.9274937548038297
1790173704994370800,4.665370849609375,-4.241992550094426,-8.739891121581197,-1.33797893492952,9.760799100782132,0.9471991113996477
1790173705004443000,4.67544287109375,-4.244852907961607,-8.736408540162444,-1.3515801747806369,9.759420593975406,0.9612954954654325
1790173705014514000,4.685513916015625,-4.247456076197326,-8.733867038986086,-1.359803667116165,9.758563663386694,0.9699576354896012
1790173705024586000,4.6955859375,-4.245649319036304,-8.73372909182012,-1.3663190403595566,9.757939295194362,0.9762225263173004
1790173705034657000,4.705656982421875,-4.243115708905458,-8.734393693208695,-1.36993986120522,9.7576137044164,0.9794764549637259
1790173705044729000,4.71572900390625,-4.237165276068449,-8.737328577616811,-1.3696383940406145,9.757730790089004,0.9783043537359731
1790173705054801000,4.72580078125,-4.233545916527509,-8.739721610233188,-1.3655499556832014,9.75819173171849,0.9736866334766118
1790173705064872000,4.735871826171875,-4.232085488586128,-8.741631827768684,-1.3578297366946934,9.758983239839266,0.9657237251659659
1790173705074944000,4.745944091796875,-4.230967590472102,-8.743789298063517,-1.3473822846993804,9.760031928835657,0.9550674372972807
1790173705085016000,4.75601611328125,-4.229967765779793,-8.746302742189169,-1.3341437406808137,9.761338266679578,0.941622919122381
1790173705095087000,4.766087158203125,-4.228582156640291,-8.74946851274371,-1.3176708909161388,9.762938311892668,0.9248775085903733
1790173705105159200,4.7761591796875,-4.225804216359555,-8.753733768972754,-1.2981170262709258,9.764815660573333,0.9048530830871767
1790173705115231000,4.78623095703125,-4.223803982453048,-8.758181396031379,-1.2744080877728758,9.767017632983572,0.880763293481995
1790173705125301800,4.7963017578125,-4.219074908104539,-8.764548008453845,-1.2459905331924557,9.76960424241903,0.8515986308131747
1790173705135373800,4.806373779296875,-4.214892946244776,-8.770920466095209,-1.214917057275772,9.772319414545898,0.8198567478655513
1790173705145444900,4.81644482421875,-4.212003946805,-8.776620139041542,-1.183366903758049,9.774955191482595,0.7878112377643621
1790173705155517000,4.826516845703125,-4.208991320985556,-8.78219998500049,-1.1522800569031386,9.777449112280092,0.7562292661516667
1790173705165588700,4.836588623046875,-4.204051818756759,-8.788236927077174,-1.123937905646488,9.779651306910779,0.7271978494344903
1790173705175659800,4.84665966796875,-4.19888464525193,-8.794014341434837,-1.0977614810563625,9.7816109359871,0.7003486758483949
1790173705185731800,4.85673193359375,-4.193312982599437,-8.79980636883974,-1.0723467615537343,9.783443358103657,0.6742622152409121
1790173705195804000,4.866803955078125,-4.184810234931111,-8.806747566279768,-1.0483138517983257,9.785128004991556,0.6493621919706996
1790173705205875000,4.876875,-4.180713028745353,-8.811382240343093,-1.025458972846344,9.786644260335244,0.6260819760966485
1790173705215947000,4.886947021484375,-4.1800203703060745,-8.814247566646337,-1.003418332886696,9.78803829676948,0.6038916409851391
1790173705226018800,4.897018798828125,-4.18277054579705,-8.815029072412848,-0.9849183612085878,9.789153710991439,0.5855260772155387
1790173705236089900,4.90708984375,-4.1843908404752606,-8.816046140500903,-0.9688010468833148,9.79010040094002,0.5694785906865898
1790173705246162000,4.917161865234375,-4.185444441181421,-8.816905387678743,-0.9563634439840912,9.790814731732954,0.5570850126909884
1790173705256233000,4.92723291015625,-4.186371785159409,-8.817517966619134,-0.9465956448160112,9.79136183942871,0.5473650147696866
1790173705266305000,4.937304931640625,-4.186122194312513,-8.818351494833827,-0.9399141942907124,9.791735892220473,0.5406376067055085
1790173705276377000,4.947377197265625,-4.186624006354808,-8.818443849292397,-0.9368182010367512,9.791905435448305,0.5375767654399968
1790173705286448000,4.9574482421875,-4.187519786150753,-8.818128207471966,-0.9357770944859832,9.791957387769514,0.5366156254596316
1790173705296520000,4.96752001953125,-4.185603723396361,-8.818840155133605,-0.9376420846402644,9.7918647020948,0.5383108264421205
1790173705306592000,4.977592041015625,-4.185594955568015,-8.818519837138057,-0.9406775068134068,9.791695713380374,0.541356147528512
1790173705316663000,4.9876630859375,-4.187112082132697,-8.81763662456274,-0.9422109269257636,9.791603538262079,0.5430329745822284
1790173705326735000,4.997735107421875,-4.184982668888568,-8.818357340052723,-0.9449255927119404,9.791463083110923,0.5455650131719725
1790173705336806100,5.00780615234375,-4.186823328319192,-8.817199402189255,-0.9475744997855275,9.791305452838282,0.5483884046799459
1790173705346878000,5.0178779296875,-4.1917224985376,-8.814799355310202,-0.9482385897174476,9.791240879965526,0.54953037463334
1790173705356950000,5.027949951171875,-4.191136515343189,-8.815160589838028,-0.947471039411053,9.791287473980557,0.5487007265082219
1790173705367021000,5.03802099609375,-4.191253711982071,-8.815494351837039,-0.94383787054047,9.791490127263003,0.5450682150444268
1790173705377093000,5.048093017578125,-4.193834668385982,-8.815084601992368,-0.9361681396301836,9.79190030040291,0.5376477086970075
1790173705387165200,5.058165283203125,-4.195319938507676,-8.815204428979754,-0.9283579773359,9.792318745667842,0.5299817246563334
1790173705397236200,5.068236328125,-4.195097820189595,-8.815803563916683,-0.9236592250604182,9.792573743109273,0.5252466547552971
1790173705407308000,5.07830810546875,-4.196838234116137,-8.815636390656232,-0.9173263687770812,9.792901443691914,0.5191002953110467
1790173705417380000,5.088380126953125,-4.19616983333528,-8.81644244634211,-0.9126313428286462,9.793154366485618,0.5143172191875192
1790173705427451100,5.098451171875,-4.19424792536199,-8.817976231780648,-0.9066190237365662,9.793479562601156,0.5080714465173871
1790173705437523200,5.108523193359375,-4.189134820131957,-8.821337232646346,-0.8975161182180047,9.793976517561685,0.4983977018667733
1790173705447594200,5.11859423828125,-4.184320697848499,-8.824646211063861,-0.8873968752637506,9.7945116231127,0.4877865638013975
1790173705457666000,5.128666015625,-4.181574906271696,-8.82716666945219,-0.875178321942687,9.795125162766912,0.4752896464027697
1790173705467738000,5.138738037109375,-4.18021618513912,-8.829062858462333,-0.8624608061235397,9.795742216417189,0.4624190575435116
1790173705477809000,5.148808837890625,-4.1801185699835415,-8.83025995929241,-0.8505937696538866,9.796296986321622,0.4505078518338744
1790173705487881000,5.158880859375,-4.180684094911814,-8.831160707524418,-0.8383711977448314,9.796850540483836,0.438297497370723
1790173705497953300,5.168953369140625,-4.179933276544511,-8.832826010388136,-0.8244535854209214,9.79746752033438,0.42427753730267265
1790173705508024000,5.179024169921875,-4.180101034326851,-8.834195545175671,-0.8087789002966135,9.798134743630564,0.4085761162949738
1790173705518096000,5.189095947265625,-4.179565320014953,-8.835869615867733,-0.7931144443053751,9.798779308127077,0.3928265842235413
1790173705528167000,5.1991669921875,-4.177693680924177,-8.838034684947132,-0.7787303835134953,9.799353558840522,0.3782491546705878
1790173705538239000,5.209239013671875,-4.175174683840573,-8.840618856221436,-0.7627291698485612,9.799965860602015,0.362008727980542
1790173705548311000,5.21931103515625,-4.175795153826475,-8.842022293278575,-0.742800188280642,9.800681417197787,0.34208080896146376
1790173705558382000,5.229382080078125,-4.172276916572451,-8.845356990659237,-0.722603057295829,9.801376474939396,0.32157321978893577
1790173705568454100,5.2394541015625,-4.168546205611527,-8.848822036421298,-0.7013979913774877,9.802057934478933,0.30008047587332337
1790173705578526000,5.24952587890625,-4.167614185458421,-8.850892997476459,-0.6804903009705245,9.802678304541974,0.2790698102430473
1790173705588597000,5.259596923828125,-4.168365880608558,-8.85198780697584,-0.6613804537657648,9.803203973462667,0.25995809042932844
1790173705598669000,5.2696689453125,-4.165707767315209,-8.854418248993158,-0.6453929763652384,9.803618743137262,0.24379369131026424
1790173705608740000,5.279739990234375,-4.163906855373084,-8.856458230388164,-0.628809725028649,9.804019677571617,0.22709583640472672
1790173705618812200,5.289812255859375,-4.1624084335088725,-8.858412287065386,-0.6109676327373832,9.804419640128707,0.20916305478728678
1790173705628884000,5.299884033203125,-4.158095831006765,-8.861683271560072,-0.5926120379660278,9.804795463233802,0.19069949390472005
1790173705638955000,5.309955078125,-4.1550180309966205,-8.86429842249453,-0.5748226987753063,9.80512531025146,0.1729165875198731
1790173705649027000,5.320027099609375,-4.152290651859343,-8.86670548363626,-0.5571399252315983,9.805420014610474,0.1553287623950033
1790173705659099100,5.33009912109375,-4.150836945919692,-8.86853211454153,-0.5385940685851499,9.805694831253126,0.13690020203487197
1790173705669170200,5.340170166015625,-4.148681229190528,-8.870521827054024,-0.5221880369789899,9.805906986804859,0.12075569458738787
1790173705679242200,5.3502421875,-4.147230153599382,-8.87216959426105,-0.5054498142763972,9.806095255632206,0.1043389115998355
1790173705689314000,5.36031396484375,-4.146078937737643,-8.873740789100527,-0.4869579893721267,9.806269606877924,0.08631703617343152
1790173705699385000,5.370385009765625,-4.146773349742591,-8.874318881249428,-0.4702393481528386,9.806401626631684,0.06983553523894355
1790173705709457200,5.38045703125,-4.144379440343379,-8.87621623930335,-0.4552980553369969,9.806489222126064,0.05622390890351804
1790173705719528000,5.39052783203125,-4.142016510604321,-8.877992016804217,-0.4419714677087962,9.806546204873579,0.04509251053625864
1790173705729600000,5.40060009765625,-4.139579931107163,-8.879828584581613,-0.4276772771574557,9.806587239995824,0.03510349449509531
1790173705739672000,5.410672119140625,-4.139632538077235,-8.88044993135035,-0.4140598168238997,9.80661318291909,0.027054501177278544
1790173705749743000,5.4207431640625,-4.136767211773991,-8.882387036892771,-0.4009377753244713,9.806611271042943,0.027729332929633838
1790173705759815000,5.43081494140625,-4.133463201792538,-8.884509435874223,-0.3877597293214872,9.806588496939588,0.03472198275959253
1790173705769887000,5.440886962890625,-4.131434618574381,-8.885902351537347,-0.3773009522145614,9.80655865774989,0.04214153846802445
1790173705779958000,5.4509580078125,-4.129250260272622,-8.887374177655577,-0.3664103595616296,9.806516379878024,0.051191096869895966
1790173705790030000,5.461030029296875,-4.128236114794015,-8.888218227264284,-0.3572305528819561,9.806473028448094,0.05879698287340653
1790173705800101000,5.47110107421875,-4.1284015344887965,-8.88843040871024,-0.3499812758734449,9.806437882607113,0.06447719352181594
1790173705810173000,5.4811728515625,-4.131315960630774,-8.887364240783452,-0.3425761507160961,9.806406664492227,0.06900336630078369
1790173705820245000,5.491244873046875,-4.136334665575624,-8.885251778674125,-0.3367535820424556,9.806386952106644,0.07170464870063765
1790173705830316000,5.50131591796875,-4.13599651966244,-8.885511306393147,-0.3340508624223992,9.806367369698254,0.07434632407008376
1790173705840388000,5.51138818359375,-4.129618509063125,-8.888658956769108,-0.3291964811937883,9.806308748173567,0.08176881357438025
1790173705850460200,5.521460205078125,-4.125343315961957,-8.890944437357783,-0.3209602389745414,9.806223982051037,0.09130800394823456
1790173705860531200,5.53153125,-4.125669479176402,-8.891140252190828,-0.3112227253468707,9.806140212511437,0.09998676349469855
1790173705870603000,5.54160302734375,-4.129167550425231,-8.889689468860626,-0.3062479508752934,9.806108446771217,0.10309437343372901
1790173705880675000,5.551675048828125,-4.1308121027618645,-8.889099101752043,-0.3011599800865165,9.80606371450668,0.10725311060293936
1790173705890746000,5.56174609375,-4.124902001935244,-8.892215772467852,-0.2899275151933543,9.805914095088454,0.1201024292309188
1790173705900818200,5.571818115234375,-4.117907028481364,-8.895988861265778,-0.2731596097385511,9.805670833705994,0.1386065957344348
1790173705910889200,5.58188916015625,-4.116996635638177,-8.896845185834168,-0.2585901824424043,9.805461600518003,0.15266709461830733
1790173705920961000,5.5919609375,-4.120025335809588,-8.895664451617002,-0.2508449386104941,9.80536130061001,0.15895833165130757
1790173705931033000,5.602033203125,-4.121732724249362,-8.89516526992321,-0.2402894961960613,9.80520150802081,0.16854749622794254
1790173705941104000,5.612104248046875,-4.121842029842735,-8.895544624629617,-0.2238073488800786,9.804915144621477,0.18445764809317308
1790173705951176200,5.62217626953125,-4.120584430997074,-8.89654591062665,-0.2065428920799866,9.804579168372559,0.20157502386668313
1790173705961248300,5.632248291015625,-4.120551990032196,-8.89695624499321,-0.1887098416117019,9.804205274241223,0.2189736804815223
1790173705971319000,5.642319091796875,-4.120937189957499,-8.897063212499022,-0.1747255755260586,9.803892042285312,0.23256607821407618
1790173705981390800,5.652390869140625,-4.114940872152149,-8.90010915606618,-0.1603144257978536,9.803511506016894,0.2480811111603714
1790173705991462000,5.6624619140625,-4.105004000027478,-8.905008618545532,-0.1419223806067835,9.802971992285006,0.2685487240793
1790173706001534000,5.672533935546875,-4.102189819389581,-8.906581566950678,-0.1234254685354419,9.802441975805802,0.2872658703931248
1790173706011606000,5.68260595703125,-4.102930700884759,-8.906405041339992,-0.1108676733226515,9.802081754109116,0.2992925381934177
1790173706021677000,5.692677001953125,-4.103145804940164,-8.906420238909124,-0.1012630927591118,9.801792926050165,0.3086043056021352
1790173706031749000,5.7027490234375,-4.101899019749462,-8.907095946213602,-0.0919631028990261,9.80149364212703,0.31798326829349155
1790173706041821000,5.712821044921875,-4.095799826091528,-8.909982899826765,-0.083822293011425,9.801182764972706,0.32743560439333075
1790173706051892000,5.72289208984375,-4.091468811149895,-8.912014113393425,-0.0791878290106542,9.80099201236715,0.33307488004152314
1790173706061964000,5.732964111328125,-4.096890251676738,-8.909548600062728,-0.0763226214384194,9.800945139148293,0.3344630220401421
1790173706072035000,5.74303515625,-4.0995559637546535,-8.908338055229187,-0.0745503784683533,9.800908765382262,0.33554602930709265
1790173706082107100,5.753107177734375,-4.095656325967609,-8.910169362309574,-0.0697341738256625,9.800712806537984,0.34118930850803575
1790173706092179000,5.763178955078125,-4.089621429717541,-8.91297798998952,-0.0648304735626094,9.800491113621918,0.34750109433308607
1790173706102250000,5.77325,-4.090167957684398,-8.912748272886871,-0.0619039688237709,9.800395254189004,0.35020088655205156
1790173706112322000,5.783322021484375,-4.093464953403175,-8.911251312327384,-0.0594616263061063,9.800340233942821,0.3517417520867878
1790173706122394000,5.79339404296875,-4.093730618602037,-8.911176493525504,-0.0519724898268468,9.800078188931327,0.3589784213188602
1790173706132465200,5.803465087890625,-4.093983424319327,-8.911097583070397,-0.0450505131105193,9.799830243370389,0.36567357500783776
1790173706142537200,5.813537109375,-4.094435552000999,-8.910931578853726,-0.0357463676651241,9.799490419744075,0.37465905654025455
1790173706152608300,5.823608154296875,-4.0889629658088085,-8.913477171683311,-0.0263918483059387,9.799086918745132,0.38507858212385865
1790173706162680000,5.83368017578125,-4.089173978210986,-8.913400014793872,-0.018428344913735,9.798780111968277,0.39279965503608405
1790173706172752100,5.843752197265625,-4.091191747774183,-8.912484068992734,-0.0125164711134915,9.798565480439809,0.3981122764840972
1790173706182823000,5.853822998046875,-4.087554852576553,-8.914159308728575,-0.0058627619742444,9.798264504004008,0.40544782126368895
1790173706192895200,5.863895263671875,-4.082928069558739,-8.916278785100578,0.0073252483003278,9.797677306246321,0.4194067914969629
1790173706202967000,5.873967041015625,-4.082783108130097,-8.916319701632856,0.022636539476586,9.797024914355275,0.43438481808203955
1790173706213038000,5.8840380859375,-4.083487749268114,-8.915956713539362,0.0348979683915735,9.79649280122238,0.4462095695144922
1790173706223110000,5.89410986328125,-4.082720272026956,-8.916268848228453,0.0439962685169652,9.796076331765814,0.4552792191282305
1790173706233181000,5.904180908203125,-4.082345008973777,-8.916379907387494,0.0550667523480253,9.795563556064689,0.4661956579247992
1790173706243253000,5.9142529296875,-4.08499610800445,-8.91509921992719,0.0648791076104622,9.795127825571232,0.4752551765971595
1790173706253325000,5.924324951171875,-4.086954548595846,-8.914104363670944,0.0770410627729259,9.794560334671175,0.48680310654812314
1790173706263396000,5.93439599609375,-4.085100737422705,-8.914813388723134,0.0918202512290794,9.793808882656167,0.501681491775122
1790173706273468200,5.94446826171875,-4.083640309481322,-8.91530555615425,0.1076490400697104,9.792985177967159,0.5175142092339166
1790173706283540200,5.954540283203125,-4.087256161890924,-8.913449699154496,0.1230702710227575,9.792208601250893,0.5320201814502187
1790173706293611300,5.964611328125,-4.093769197046757,-8.910222553801535,0.1391931931049097,9.79139238493264,0.5468291380789944
1790173706303683300,5.974683349609375,-4.096641245351732,-8.908699289757013,0.1516796035819221,9.790721343083964,0.5587260622675504
1790173706313754400,5.98475439453125,-4.090781413407624,-8.911237283802032,0.160447660256084,9.790170675012094,0.5682817138704768
1790173706323826400,5.994826416015625,-4.083660475486517,-8.914228282311559,0.175041089482326,9.789255685962956,0.583833234805188
1790173706333898200,6.004898193359375,-4.081029834721982,-8.915126107934118,0.1900163028340786,9.788337296487192,0.5990302144298929
1790173706343969300,6.01496923828125,-4.083005810970068,-8.913968170070648,0.2015490110491402,9.78765553603904,0.6100705706286819
1790173706354041300,6.025041259765625,-4.085921406155824,-8.9124916677773,0.2076518214362673,9.787307050989558,0.6156309235882155
1790173706364113400,6.035113525390625,-4.090605764579773,-8.910250610852241,0.2115519524136558,9.787107959836817,0.6187838721838431
1790173706374184400,6.045184326171875,-4.092584078915417,-8.909341679313778,0.2115564459256827,9.787125177507136,0.6185066623474555
1790173706384256300,6.05525634765625,-4.089939117364585,-8.910556900322437,0.2115616883563809,9.787101696604783,0.6188901242779559
1790173706394328300,6.065328369140625,-4.088329051819444,-8.911283461031317,0.2120556276194751,9.787055356692129,0.619614713390631
1790173706404399000,6.075399169921875,-4.0868700851827855,-8.911920589891075,0.2134055991900153,9.786957141963676,0.6211662779145638
1790173706414471200,6.08547119140625,-4.088244880667329,-8.911342497742176,0.2111816943291574,9.787108875107727,0.6187640028117987
1790173706424542200,6.095542236328125,-4.090859739340842,-8.910243012067674,0.2069098622288555,9.787399232692144,0.614159500492672
1790173706434614300,6.1056142578125,-4.093147558017074,-8.909240557026862,0.204824397724308,9.787548908757518,0.6117708944172656
1790173706444686000,6.11568603515625,-4.085218226322532,-8.912966299551725,0.201007250588946,9.78771043648064,0.609183502747603
1790173706454757000,6.125757080078125,-4.079701216466725,-8.915621197974682,0.195213615748845,9.788008147879221,0.6043742335997186
1790173706464829200,6.1358291015625,-4.087243594670295,-8.91236073487401,0.186135534144286,9.788632075119668,0.5941907149282463
1790173706474901200,6.1459013671875,-4.0914805015876885,-8.910617690598965,0.1762345735832117,9.789259520512582,0.5837610708734416
1790173706484972300,6.15597216796875,-4.090874352388084,-8.911065434366463,0.1674583062031306,9.789767179501517,0.5751877937323564
1790173706495044400,6.16604443359375,-4.093471967665851,-8.910031415143608,0.158748400323838,9.79029143264792,0.5661866188265707
1790173706505115400,6.176115478515625,-4.087542285355926,-8.912916030669212,0.1493898304106201,9.790767991036521,0.5579010409182937
1790173706515187200,6.186187255859375,-4.083139958743751,-8.915015048775077,0.1444403182444628,9.791001325171331,0.553788135123693
1790173706525259300,6.19625927734375,-4.086800234816968,-8.913394169574975,0.1408695288192946,9.791234972219273,0.549630534498546
1790173706535330300,6.206330322265625,-4.089140075941383,-8.912417433497309,0.1345988510519731,9.791601616692422,0.5430522076812677
1790173706545402400,6.21640234375,-4.083842261794209,-8.914892299178241,0.1315739868054632,9.79171596253354,0.5410014308979932
1790173706555474200,6.22647412109375,-4.080328992976248,-8.916484536805749,0.132676723882975,9.791620005585187,0.5427356311343432
1790173706565545200,6.236545166015625,-4.07590650035888,-8.918453791052103,0.1362333660517819,9.791378584584164,0.5470802191377344
1790173706575617300,6.2466171875,-4.071649719697237,-8.920333613449335,0.1403893440869171,9.791102016959378,0.5520087649410919
1790173706585688300,6.256688232421875,-4.07425493375957,-8.919099103218317,0.1432159001491963,9.790975055448456,0.554256561472769
1790173706595760400,6.266760498046875,-4.079970388796926,-8.916514347422122,0.1414395655259024,9.791135437724556,0.5514149726610605
1790173706605832400,6.27683251953125,-4.080809177708626,-8.91616538785398,0.1392305842395406,9.791266345155263,0.5490876817538409
1790173706615903500,6.286903564453125,-4.078168307811022,-8.917309881713987,0.1432143383797723,9.79101747430195,0.5534974597769396
1790173706625975300,6.296975341796875,-4.077375696128606,-8.917501020371914,0.1534931101441383,9.790432482442352,0.5637454721004433
1790173706636047400,6.30704736328125,-4.079628443491458,-8.916273524403572,0.1645470401326194,9.789824895669522,0.5742003478492748
1790173706646118100,6.3171181640625,-4.077165852770209,-8.917240323609112,0.1729652513226494,9.789309103432618,0.5829242108646002
1790173706656190200,6.327190185546875,-4.07125282933414,-8.91976370460689,0.1819629794336855,9.78871322486723,0.5928642960892702
1790173706666261200,6.33726123046875,-4.071418541289866,-8.919487810274958,0.1915097379959188,9.788142499127835,0.6022077154248722
1790173706676333300,6.347333251953125,-4.072582032111287,-8.918748974606395,0.2009061648346483,9.787582631517546,0.6112259799803601
1790173706686405000,6.357405029296875,-4.07293040715754,-8.918357929462195,0.2109809475926682,9.786963613278415,0.6210687982511364
1790173706696476200,6.36747607421875,-4.072003647701442,-8.918511658719181,0.2220852195288986,9.786253999808036,0.6321537863354303
1790173706706548200,6.37754833984375,-4.077441747102141,-8.915766159403324,0.2323057491668499,9.785659309187036,0.6412918647464032
1790173706716620300,6.387620361328125,-4.076733598832786,-8.915887155434488,0.2399629859217442,9.785154218648382,0.6489528150598065
1790173706726691300,6.39769140625,-4.073792869205772,-8.917057368257641,0.2463463850822299,9.784702950251582,0.6557249169970303
1790173706736763100,6.40776318359375,-4.074507154954969,-8.91655877108574,0.2525017841731198,9.784302659956863,0.6616702225254892
1790173706746834200,6.417834228515625,-4.076560288092494,-8.915503709074855,0.2565854184912517,9.784052170860393,0.6653640836749475
1790173706756906200,6.42790625,-4.076147031116485,-8.915507800728083,0.2629109682509675,9.783621092856922,0.671665432157121
1790173706766978300,6.437978271484375,-4.077883645650744,-8.914577241879702,0.267485180831328,9.783328778342973,0.6759058852501991
1790173706777049300,6.44804931640625,-4.084518261359632,-8.91152019239664,0.2681564676890149,9.783351657894105,0.6755884812646248
1790173706787121400,6.458121337890625,-4.08550230396092,-8.911078293848037,0.2678370264763012,9.78338265557055,0.6751340031376124
1790173706797193200,6.468193115234375,-4.081746458558738,-8.91273365983963,0.2700218049031682,9.783196482220756,0.6778302210596081
1790173706807264300,6.47826416015625,-4.083584487640858,-8.911705485835672,0.2760883566668257,9.782797711577162,0.6835573487442302
1790173706817336300,6.48833642578125,-4.087305261729657,-8.90982332535088,0.2817153114368207,9.782443511722972,0.6886061633303673
1790173706827407400,6.498407470703125,-4.083950106082856,-8.911288137206435,0.2840558649472892,9.782248633179512,0.691378439321622
1790173706837479400,6.5084794921875,-4.083760428729653,-8.911323793041706,0.2856257446125149,9.782136011191977,0.6929560651412147
1790173706847551200,6.51855126953125,-4.090679706598818,-8.908226411548256,0.2832062075817026,9.782369964098413,0.6896389656213691
1790173706857622300,6.528622314453125,-4.093094658786058,-8.907166088840365,0.2817078587827272,9.782497173760984,0.6878517158726876
1790173706867694300,6.5386943359375,-4.094010312326252,-8.90676218421459,0.281176838912256,9.782542191621198,0.6872130146326972
1790173706877766400,6.548766357421875,-4.095149253228307,-8.906277615568042,0.2799409769743681,9.782637909722443,0.6858504571955871
1790173706887837200,6.558837158203125,-4.09095501640886,-8.908189002147317,0.280417471912317,9.78256732407751,0.6868440526814658
1790173706897909200,6.5689091796875,-4.085137854562699,-8.910801230472325,0.282252943711169,9.782386203671622,0.6894321911667195
1790173706907980300,6.578980224609375,-4.0872342423200605,-8.909846121704577,0.282034935312625,9.782420885181917,0.6889317774214946
1790173706918052000,6.589052001953125,-4.090612486581504,-8.908414627596736,0.2782794187040068,9.782713724448882,0.6847724533812172
1790173706928124200,6.599124267578125,-4.093667197977006,-8.907241492164134,0.2707666501874104,9.783257034883817,0.6769479269288564
1790173706938195200,6.6091953125,-4.100385984838009,-8.904442801356316,0.2609935720560141,9.78397763502154,0.666457882641613
1790173706948267300,6.619267333984375,-4.105618040272593,-8.90240106639564,0.2480835841383785,9.784880624164291,0.6530703447157431
1790173706958339300,6.62933935546875,-4.106421757870912,-8.902339691597223,0.2367143228567205,9.785632425836031,0.641703463583388
1790173706968410400,6.639410400390625,-4.107023523156345,-8.90223038600385,0.2302716129907406,9.786053138001447,0.6352456699665129
1790173706978482200,6.649482177734375,-4.10239732466042,-8.904518789201974,0.2241904847124591,9.786409176695079,0.6297423888907977
1790173706988553200,6.65955322265625,-4.099502480001747,-8.906023348546027,0.2173081047875806,9.786823815530882,0.6232775341301381
1790173706998625300,6.669625244140625,-4.100560172361135,-8.905780187439918,0.2070712268030271,9.787472530022054,0.6130044381447384
1790173707008697300,6.679697265625,-4.104079870919883,-8.904410068130492,0.1959607625880278,9.7881825280901,0.6015593616420606
1790173707018768400,6.689768310546875,-4.105471909800172,-8.904069876390695,0.1817053514108061,9.78905015804781,0.5872595710262138
1790173707028840200,6.699840087890625,-4.1023417950809,-8.905833378931879,0.1652411598766222,9.789992107163823,0.5713453942688148
1790173707038912300,6.709912353515625,-4.101140602597594,-8.90668970350027,0.1480208710118196,9.790963088814411,0.5544616203499511
1790173707048983300,6.7199833984375,-4.105812393800914,-8.904842029806971,0.128356184669584,9.792080841266744,0.5343548419782609
1790173707059055400,6.730055419921875,-4.107335073323547,-8.904436371615528,0.1058564758308231,9.79328277681634,0.51186575143387
1790173707069126400,6.74012646484375,-4.10935488871336,-8.903740790566802,0.083691442306526,9.794419717580121,0.48963692710886014
1790173707079198500,6.750198486328125,-4.111206946320832,-8.903079696309566,0.0595742015687981,9.795596714475792,0.4654940678031197
1790173707089270300,6.760270263671875,-4.112686078962684,-8.90253258382082,0.0335968158152652,9.796794828594319,0.43956003292540263
1790173707099341000,6.770341064453125,-4.116398669745028,-8.900877217829226,0.0053107284276746,9.798033003136736,0.41101183490226084
1790173707109413400,6.780413330078125,-4.115952387282252,-8.901051405352353,-0.0247384847584762,9.799233419817298,0.38133522216477966
1790173707119485400,6.7904853515625,-4.10811307195872,-8.904549184340238,-0.0528875223125331,9.80022474303349,0.35493839519419534
1790173707129556200,6.80055615234375,-4.105024750554561,-8.905756222042442,-0.0816878108665347,9.801186954801011,0.3273060717369239
1790173707139628300,6.810628173828125,-4.100727930143475,-8.907452504566312,-0.1082512346134055,9.801987109598846,0.3024015727750617
1790173707149699300,6.82069921875,-4.103129438327253,-8.905994122451544,-0.1341494450503494,9.802749134270092,0.27660076099572795
1790173707159771100,6.830771240234375,-4.107771711175143,-8.903357344207167,-0.1637820653758011,9.803549337829793,0.24658746005068855
1790173707169843200,6.84084326171875,-4.105601965920627,-8.90374312865436,-0.1943851290354505,9.804232446783162,0.21776343004608809
1790173707179914200,6.850914306640625,-4.105964954014122,-8.902873944604396,-0.2242083491627126,9.80482325985118,0.189269395369493
1790173707189986300,6.860986328125,-4.108788487002253,-8.900856759563087,-0.2509704098873772,9.805294346692564,0.16304234584925
1790173707200057300,6.871057373046875,-4.114145045599341,-8.89758694411218,-0.277749914937187,9.805708071643553,0.13593054556370132
1790173707210129200,6.881129150390625,-4.114459810636937,-8.896566368892788,-0.3044545281198806,9.806013591076567,0.11163646704850068
1790173707220201200,6.891201171875,-4.11261827442348,-8.896540649929642,-0.3291072685403749,9.806219753138734,0.09181696101654159
1790173707230272300,6.901272216796875,-4.114461564202607,-8.89473739989996,-0.3538925675656646,9.806387287075298,0.0718032154281396
1790173707240344300,6.91134423828125,-4.116868040822446,-8.892580514127015,-0.3792035344328731,9.806495506866527,0.0550623293159035
1790173707250416400,6.92141650390625,-4.118561692997813,-8.89070770599246,-0.403928262377344,9.806534133420644,0.04775210598209935
1790173707260487400,6.9314873046875,-4.1218408607989545,-8.888035856434703,-0.4285354283567518,9.806518042346031,0.0509898570253764
1790173707270559200,6.941559326171875,-4.12893695653975,-8.883407027590275,-0.4553597223963588,9.806442549551706,0.06385771717434852
1790173707280630300,6.95163037109375,-4.133198705637454,-8.880097464650868,-0.480547574340552,9.80629042466103,0.08400357366124078
1790173707290702300,6.961702392578125,-4.138156620305776,-8.876457646843791,-0.5045105241322889,9.80608478255093,0.10522678734739302
1790173707300774400,6.9717744140625,-4.143253651183843,-8.872661761692166,-0.5288968869678676,9.80581437239362,0.12811700373320725
1790173707310845400,6.981845458984375,-4.1442964382350445,-8.870703028839825,-0.553022224247083,9.805474475465143,0.1518851057493144
1790173707320917200,6.991917236328125,-4.144480562630296,-8.869571394461392,-0.5695205737791955,9.805205557007064,0.16826623031285817
1790173707330989300,7.0019892578125,-4.15017117548734,-8.866036790594459,-0.5829864968128502,9.804975575586901,0.18126327711605178
1790173707341060400,7.012060302734375,-4.155805674242973,-8.862370669302344,-0.5983696151120588,9.804681435773718,0.19647600734987014
1790173707351132400,7.02213232421875,-4.155580633315444,-8.861546493437885,-0.6119812302267178,9.804398604772079,0.21010873432765192
1790173707361203200,7.032203125,-4.155980446287989,-8.860781938806175,-0.6202852039199322,9.804217230962282,0.2184222042423395
1790173707371275500,7.042275634765625,-4.156952213929594,-8.85987826796472,-0.6266483092110604,9.804073160444199,0.2247936835021231
1790173707381347300,7.052347412109375,-4.156770719882846,-8.859653811559081,-0.631020532945916,9.803972399464415,0.22917369370851762
1790173707391418000,7.062418212890625,-4.157233953480422,-8.859344014957546,-0.6323054581899196,9.803941456397794,0.23046177842751456
1790173707401490200,7.072490234375,-4.158382246732711,-8.858950631725788,-0.6302700068395585,9.80398947590019,0.22842907708162483
1790173707411562200,7.082562255859375,-4.158891365298628,-8.859189116656779,-0.6235189251441509,9.80414441509604,0.22166941827737516
1790173707421633300,7.09263330078125,-4.158905978345871,-8.859919184496999,-0.6129565415322781,9.804377859551415,0.21108624181642982
1790173707431705300,7.102705322265625,-4.157981556977331,-8.861150187596678,-0.60132214477472,9.804621947692143,0.19942432133082413
1790173707441776400,7.1127763671875,-4.152614769247174,-8.864607634574174,-0.5872894181711599,9.804896321506753,0.18545867981739245
1790173707451848200,7.12284814453125,-4.146728926078975,-8.868760078078507,-0.5657935160800814,9.805273024333058,0.1643451551578876
1790173707461920300,7.132920166015625,-4.144310174499452,-8.871563445061446,-0.5389174187880009,9.805680187490415,0.13788700860212735
1790173707471991300,7.1429912109375,-4.143672168856859,-8.873454373374582,-0.5120198403164744,9.80601685329869,0.11139725768228172
1790173707482063400,7.1530634765625,-4.144359274338186,-8.874642706376314,-0.4851496978411451,9.806281474894545,0.08491657721938066
1790173707492135200,7.16313525390625,-4.14203872243613,-8.877401065173744,-0.4534914808390662,9.806493496469344,0.055446163134315656
1790173707502206200,7.173206298828125,-4.135938359734416,-8.882028140452503,-0.4171072216957807,9.80659794861353,0.032017369542162596
1790173707512278300,7.1832783203125,-4.134793573613464,-8.884284394946693,-0.3786370231239125,9.80657542991572,0.0383593449107315
1790173707522349300,7.193349365234375,-4.134733660119772,-8.88583746960759,-0.3409889545898884,9.806410972184034,0.06860968000629064
1790173707532421400,7.20342138671875,-4.134821630664169,-8.887186546128987,-0.3025837292793206,9.806093698951221,0.10448877316761393
1790173707542493400,7.213493408203125,-4.132335951328277,-8.889694729557633,-0.2598270490272902,9.805554221983241,0.14659227304931824
1790173707552564500,7.223564453125,-4.127284805418551,-8.893276679697632,-0.2133444070546887,9.80474446979204,0.19326583970402225
1790173707562636300,7.23363623046875,-4.119728690950573,-8.897798541036249,-0.1655435220903716,9.803667773362328,0.24183922583219825
1790173707572708400,7.243708251953125,-4.113954491463304,-8.901202211999893,-0.1198766717463731,9.802423355924287,0.2879047488353036
1790173707582779400,7.253779296875,-4.112366345489025,-8.902396974742413,-0.0784676523767877,9.80113199224365,0.3289341856681131
1790173707592851500,7.2638515625,-4.110101907688379,-8.90370455020964,-0.0387376812684815,9.79972451613857,0.3685002371101342
1790173707602922200,7.273922119140625,-4.111111961513758,-8.903322272893785,0.00133503500984,9.798164088446693,0.40788642205899717
1790173707612994300,7.283994384765625,-4.1126007387667896,-8.90255128852129,0.0385169694561976,9.796573765612926,0.44444380195685007
1790173707623066400,7.29406640625,-4.110804795260727,-8.903151007980108,0.074526394804567,9.794877393691893,0.4803592007049073
1790173707633137200,7.30413720703125,-4.110891596761346,-8.902732490307093,0.110950328371115,9.793041994547481,0.516443591002642
1790173707643209200,7.314209228515625,-4.1100820339441295,-8.902584606269002,0.146971909948159,9.79108748890119,0.5522621882081712
1790173707653280300,7.3242802734375,-4.10842988282293,-8.902699757081269,0.182025523275882,9.789053019955405,0.5872251105267388
1790173707663352300,7.334352294921875,-4.105127626407146,-8.903543806689978,0.212678380894009,9.787158054367806,0.6180084621279027
1790173707673424100,7.344424072265625,-4.104576714526116,-8.90314691632688,0.2383587473291903,9.785512149521988,0.6435385638147236
1790173707683495200,7.3544951171875,-4.106074259607493,-8.901861552691459,0.2595884362321347,9.78411443258964,0.6644364942672787
1790173707693567200,7.364567138671875,-4.104936195488274,-8.901787902933359,0.2793766576224938,9.782753357853402,0.6841908316199148
1790173707703639300,7.374639404296875,-4.10077469189465,-8.903024751251936,0.3003233465992845,9.781247071703843,0.7054095476287559
1790173707713710300,7.38471044921875,-4.098319407697022,-8.903599336269497,0.3163798523817211,9.78006637285409,0.7215961903214203
1790173707723782400,7.394782470703125,-4.101291701506078,-8.901925850099325,0.3248477113997564,9.779466782743818,0.7296800273552349
1790173707733853400,7.404853515625,-4.103948645755648,-8.900473313203454,0.3310273864153772,9.779027054734811,0.7355465174739345
1790173707743925200,7.41492529296875,-4.105295091928541,-8.89960062202215,0.3376987904706969,9.77853549970473,0.7420397411253095
1790173707753997300,7.424997314453125,-4.103699054908752,-8.90010915606618,0.3436656629858538,9.778073464110896,0.7481138559857287
1790173707764068400,7.435068359375,-4.1033462959483264,-8.9000512883991,0.3493452429922297,9.777638505330069,0.7537845305492873
1790173707774140400,7.445140380859375,-4.103494472247362,-8.899873009222745,0.3521029442025348,9.77742703997921,0.7565073861209985
1790173707784212200,7.455212158203125,-4.104469454759359,-8.899359214481711,0.3537196221515536,9.777309762864249,0.7580206498028854
1790173707794283300,7.465283203125,-4.104082209007442,-8.899465012943745,0.3555314573464915,9.777166820340964,0.7598551699421868
1790173707804355300,7.475355224609375,-4.102576772880554,-8.900160009470582,0.3555394945224747,9.777156258479165,0.7600053953791129
1790173707814426400,7.48542626953125,-4.098316777348519,-8.902229801481962,0.3528531415153295,9.777330752750894,0.7577628498935407
1790173707824498400,7.49549853515625,-4.0992558117643,-8.90187967287004,0.350768005804345,9.777498067254376,0.75559887458431
1790173707834570500,7.505570556640625,-4.102111785717308,-8.90066678994894,0.3481508455758914,9.777720323665832,0.7527182020305323
1790173707844641300,7.515641357421875,-4.104475592239201,-8.89965848968923,0.3460534349052235,9.777897450788863,0.7504102491645778
1790173707854713000,7.525713134765625,-4.105422809961438,-8.899458583202957,0.3398703258235007,9.77837217069751,0.7441834803328109
1790173707864785200,7.53578515625,-4.104241491222381,-8.900296787592769,0.3321141222061589,9.778947094356873,0.7365966613035204
1790173707874856200,7.545856201171875,-4.103024516648054,-8.901125639632344,0.324882271256484,9.779476923805403,0.7295391858355957
1790173707884928300,7.55592822265625,-4.101479333032668,-8.902057367524504,0.3187854522187263,9.779913975894296,0.7236469323123943
1790173707894999300,7.565999267578125,-4.101038895788789,-8.902490498244761,0.3122988301457837,9.780384849725527,0.7172585633372213
1790173707905071400,7.5760712890625,-4.103680934730172,-8.901586242881416,0.3031993404270149,9.781061309776458,0.7079578715947561
1790173707915143200,7.58614306640625,-4.101672225256264,-8.902930058705806,0.2907043630510568,9.781936775153246,0.6957734022276613
1790173707925214200,7.596214111328125,-4.097797137388587,-8.905037844640017,0.2805968470672145,9.782613313518777,0.6861863758558897
1790173707935286300,7.606286376953125,-4.099669068740308,-8.904478457191585,0.2708494696326554,9.783301466680197,0.6763097774159917
1790173707945357300,7.616357421875,-4.105066836130619,-8.902300528630613,0.2604893853935413,9.784047022281541,0.6654374627587062
1790173707955429400,7.626429443359375,-4.106950457920134,-8.901750493532418,0.2493663904905319,9.784805007504701,0.6542006379790671
1790173707965501200,7.636501220703125,-4.107670004366338,-8.901720098394154,0.2383448466680012,9.7855348513272,0.643186997940193
1790173707975572200,7.646572265625,-4.105079695612192,-8.903150423458218,0.229357146760635,9.786097918041493,0.6345541815525696
1790173707985644300,7.656644287109375,-4.101433448064327,-8.905057133862377,0.2204116237608716,9.786642040120624,0.6261132075643906
1790173707995716400,7.66671630859375,-4.10538072438538,-8.903472495019436,0.210721310275793,9.787281216778037,0.616038323508234
1790173708005787400,7.676787353515625,-4.107769373087585,-8.902616754972934,0.2000904645375907,9.787956822735243,0.6052204050349387
1790173708015859500,7.686859375,-4.1003976752758025,-8.906189352762699,0.192147853236366,9.788385653772496,0.5982449107138277
1790173708025930500,7.696930419921875,-4.095710978764295,-8.908457297694683,0.1869053494730032,9.788663122019003,0.5936899356624088
1790173708036002300,7.707002197265625,-4.096246985337138,-8.908304152959584,0.1823808760521933,9.788937609426519,0.5891396347430425
1790173708046074400,7.717074462890625,-4.100351790307462,-8.90652136119604,0.1771189004033803,9.789282803788472,0.5833702546842221
1790173708056145200,7.727145263671875,-4.108464954136312,-8.90286926842928,0.1726931746493093,9.7896039347978,0.5779647242441786
1790173708066217500,7.737217529296875,-4.110637329739332,-8.901976118981837,0.1669698285664431,9.789952672056751,0.5720346861072612
1790173708076289500,7.74728955078125,-4.108049359072744,-8.90327784923017,0.1611356973191723,9.790271089519566,0.5665533548029467
1790173708086360300,7.7573603515625,-4.108563738335669,-8.903115936666726,0.1569600738686509,9.790514161993583,0.5623506755465909
1790173708096432000,7.76743212890625,-4.10838575142026,-8.903228749391436,0.1551906165107153,9.790613232574774,0.5606177878447144
1790173708106503200,7.777503173828125,-4.11099447261393,-8.902004176032543,0.1562803845087997,9.790567969765329,0.5613878266853827
1790173708116575200,7.7875751953125,-4.113253649717569,-8.90090878201127,0.1592383209989406,9.790414603710644,0.5640668957881911
1790173708126647300,7.797647216796875,-4.111730970194936,-8.901546495392918,0.16285979943173,9.790196729047617,0.5678317547640053
1790173708136718300,7.80771826171875,-4.107989737839997,-8.903236348176002,0.1648600150719285,9.790055520890602,0.5702533473203001
1790173708146790100,7.8177900390625,-4.106296670186519,-8.903971092191338,0.1673471374462358,9.789899621831346,0.5729258355509779
1790173708156862200,7.8278623046875,-4.11004287097752,-8.90221343486905,0.1688806123575195,9.789836696932957,0.5739987368027947
1790173708166933200,7.837933349609375,-4.11430432781428,-8.90019917243719,0.1712865227217785,9.789724552478216,0.5759146381142767
1790173708177005300,7.84800537109375,-4.113514054219425,-8.900500201210379,0.1745900577791966,9.789525993353985,0.5792790516915851
1790173708187076400,7.858076416015625,-4.114286499896646,-8.90003375274241,0.1800819149274378,9.789206676081324,0.5846506240779102
1790173708197148400,7.8681484375,-4.113110441854596,-8.900455193024873,0.1860608797391876,9.78884359869823,0.590711267143896
1790173708207220200,7.87822021484375,-4.113073616975545,-8.900364592131972,0.1911303650232031,9.788538128924579,0.5957487444891378
1790173708217291300,7.888291259765625,-4.11458548284322,-8.899612896981834,0.1935677117053419,9.788399852850539,0.5980135378734676
1790173708227363300,7.89836328125,-4.117459576974809,-8.89824453123808,0.1953618833794258,9.788308258068472,0.5995138165514265
1790173708237434400,7.908434326171875,-4.114046261399984,-8.899784746417403,0.1970648696387186,9.788183048409158,0.6015416421033483
1790173708247506400,7.91850634765625,-4.108924388341605,-8.902090100750327,0.1997720279718749,9.787983672475042,0.6047745708174054
1790173708257578500,7.92857861328125,-4.101498037733137,-8.905357578113675,0.206663632382825,9.787504993600923,0.6124831465290048
1790173708267649500,7.9386494140625,-4.09521647324562,-8.908058653765917,0.2146621385897509,9.786954419683575,0.6212165181771743
1790173708277721300,7.948721435546875,-4.09384547715336,-8.908606935298442,0.2180449311621487,9.786729810285223,0.624749174418494
1790173708287793400,7.95879345703125,-4.099876574011147,-8.90583279440999,0.2180542104471474,9.786779615198455,0.6239696197280038
1790173708297864200,7.9688642578125,-4.103806022414565,-8.90407805969715,0.2157991432630457,9.786952462252886,0.6212573819452175
1790173708307936300,7.978936279296875,-4.103387212480604,-8.904369151598214,0.2117244046374224,9.787205127101934,0.6172678729950845
1790173708318007300,7.98900732421875,-4.098086475723981,-8.90691123729646,0.2073730958264321,9.787433431131028,0.6136212053385415
1790173708328079000,7.9990791015625,-4.095802456440032,-8.908045209762454,0.2037589969824999,9.78763805836353,0.6103492350098395
1790173708338151200,8.009151123046875,-4.099108804509044,-8.906590919300914,0.2008210986333899,9.787846236415898,0.6070007915254223
1790173708348222200,8.01922216796875,-4.102751252664626,-8.90497237818837,0.1981961204246617,9.788035646731096,0.6039377269319695
1790173708358294300,8.029294189453125,-4.103519606688619,-8.90471460403502,0.1938593150630593,9.788306401573765,0.5995452983213244
1790173708368365300,8.039365234375,-4.102541993828118,-8.905227814254165,0.1909196996808983,9.78847628445798,0.5967542167585613
1790173708378437400,8.049437255859376,-4.09544092965126,-8.90847950952649,0.1916771304520778,9.78837292727418,0.5984472732499685
1790173708388509200,8.05950927734375,-4.092414275306463,-8.90986015022993,0.1921300801176577,9.788318730810603,0.5993270302061385
1790173708398580200,8.069580322265624,-4.101398084490001,-8.905790124312043,0.189233536692243,9.788568604735724,0.5952293570912867
1790173708408652300,8.07965234375,-4.107114124049246,-8.90323751721978,0.1853399085208773,9.78884514081552,0.5906660704810459
1790173708418724400,8.089724365234375,-4.106022529420256,-8.903824961718916,0.1813296499662101,9.789077704407923,0.5868203303023366
1790173708428795400,8.09979541015625,-4.10258320262134,-8.905392064905167,0.1821875089045614,9.78900043424758,0.588098249281712
1790173708438867500,8.109867431640625,-4.098910359327495,-8.907056783246993,0.1834359380630776,9.788896343470407,0.58981674607737
1790173708448938500,8.1199384765625,-4.095716823983192,-8.90849879874885,0.1847500163363292,9.788791528003129,0.5915573847050598
1790173708459010300,8.13001025390625,-4.094000083193182,-8.909224774935842,0.1877767802789807,9.788595521833203,0.5947945869586053
1790173708469082400,8.140082275390625,-4.098092320942879,-8.90724967547059,0.1921552693578414,9.788366096234304,0.5985568191698335
1790173708479153400,8.1501533203125,-4.100626515595614,-8.905933916696906,0.1989717627059668,9.78797188273244,0.6049734987349235
1790173708489225500,8.1602255859375,-4.095814146877825,-8.907912523293495,0.2092301949352026,9.787298636101566,0.6157610986824588
1790173708499297300,8.17029736328125,-4.091773639315367,-8.909502422833443,0.2203376817418262,9.786566536420747,0.6273030049952402
1790173708509368300,8.180368408203124,-4.0937873172253365,-8.90831350530982,0.2307470119501463,9.785918820798889,0.6373234059865848
1790173708519440400,8.1904404296875,-4.094744471819698,-8.907561225637792,0.2424886502081528,9.785163053388043,0.6488174181333213
1790173708529511200,8.20051123046875,-4.09613125000298,-8.906526621893049,0.2566596345049329,9.784234615254512,0.662672502357053
1790173708539583200,8.210583251953125,-4.100925498542189,-8.903866462773085,0.2719328809551894,9.783236674463108,0.6772411643376361
1790173708549655300,8.2206552734375,-4.100136978513002,-8.903619210013746,0.2912456485872157,9.781886407316387,0.6964772944435557
1790173708559726300,8.230726318359375,-4.096031589020789,-8.904729801604152,0.3141486227309331,9.780209506822459,0.7196380879696271
1790173708569798100,8.240798095703125,-4.09205567112714,-8.905642240273952,0.3391282022193074,9.778323156350423,0.7448405969581838
1790173708579869200,8.250869140625,-4.092299709016085,-8.904469689363241,0.3658914137214422,9.776268590804072,0.7713276374503045
1790173708589941200,8.260941162109376,-4.09170145086199,-8.903494122329354,0.3951648179462179,9.773931807718004,0.8004002753374054
1790173708600013300,8.271013427734376,-4.090066835397482,-8.902806140065193,0.4263490607609972,9.771336980765316,0.8314752044052904
1790173708610084400,8.28108447265625,-4.084972434867918,-8.903410535699129,0.4611432377012446,9.76829484184096,0.86648019560162
1790173708620156400,8.291156494140624,-4.078831447894871,-8.90413475832045,0.4998960526067763,9.764754596713873,0.9055084229501501
1790173708630228200,8.301228271484375,-4.0774268417939545,-8.902424447271228,0.5401864523431286,9.760959211627515,0.9455407774354603
1790173708640299300,8.31129931640625,-4.080614239658416,-8.89867240126133,0.5767066858910024,9.757420380118777,0.9813873878684205
1790173708650371300,8.321371337890625,-4.084622890777886,-8.894279719260334,0.6148479082368314,9.753584119267689,1.0188182678695472
1790173708660442400,8.3314423828125,-4.086458581772447,-8.890350563117861,0.6579612929720431,9.749041061262565,1.0614086510565428
1790173708670514400,8.341514404296875,-4.082624994958937,-8.888399429050088,0.7063448731951415,9.743665121172642,1.1096775865692472
1790173708680586200,8.351586181640625,-4.081239385819435,-8.885015047308801,0.7552360376141964,9.738010817995216,1.1582461294504447
1790173708690657300,8.3616572265625,-4.079404863868653,-8.8815692907691,0.8040950533293187,9.732111802539066,1.2068081155496224
1790173708700729300,8.371729248046876,-4.074988508731127,-8.87901376106739,0.8532149119377136,9.725911641947484,1.2558005950380968
1790173708710801400,8.381801513671874,-4.078612836708128,-8.872555378708244,0.9016969840992242,9.719619692131399,1.3035996745435445
1790173708720872400,8.39187255859375,-4.082911702945828,-8.865683154851197,0.9486241549689324,9.71330343205993,1.3498629561505726
1790173708730944500,8.401944580078125,-4.082705366718769,-8.860481494554877,0.9968788481153548,9.706531880322352,1.3977201869076898
1790173708741015300,8.412015380859375,-4.085930758506059,-8.85361394687295,1.0435862387545407,9.699773291183064,1.443876871806802
1790173708751087400,8.42208740234375,-4.091270365968346,-8.845867278268933,1.0874378015711903,9.693233855633832,1.487144749000532
1790173708761159400,8.432159423828125,-4.095674153885245,-8.838469569233059,1.1301737312961369,9.68665866905964,1.529387979914179
1790173708771230200,8.442230224609375,-4.097562159588933,-8.831583316850661,1.1762260190274565,9.679342451900142,1.5750291682540176
1790173708781302300,8.45230224609375,-4.098522529053688,-8.82442350822389,1.225583120457828,9.671249586697591,1.6239835561383902
1790173708791373300,8.462373291015625,-4.101577532710135,-8.816410297638177,1.272151248756796,9.66338808743902,1.6701282179485835
1790173708801445000,8.472445068359375,-4.1030546195253725,-8.80948429776728,1.3146573883138597,9.656006946717973,1.7122863945611528
1790173708811517200,8.48251708984375,-4.102727579528093,-8.803287781214713,1.3565126627467572,9.648546698050874,1.7538308271975849
1790173708821588200,8.492588134765626,-4.101292286027968,-8.797395800566672,1.3984281429342924,9.640889117098503,1.7954469053756241
1790173708831660300,8.502660400390624,-4.101448937894404,-8.791243707677722,1.4361566928260028,9.633843553790138,1.8328812687633085
1790173708841732400,8.512732421875,-4.098385166409612,-8.786924090912938,1.470915140865743,9.627210640304444,1.867405309660837
1790173708851803400,8.522803466796875,-4.098125638690591,-8.781777375674247,1.5020466305799782,9.621168400617384,1.8982914196180187
1790173708861875200,8.532875244140625,-4.101139725814759,-8.775255864951014,1.5316384896367787,9.615335014636107,1.9276181066961366
1790173708871946200,8.5429462890625,-4.100212381836772,-8.770491427028178,1.5611287880152462,9.609422451375725,1.9568813687876991
1790173708882018300,8.553018310546875,-4.098268846553564,-8.766624230206013,1.5877297946929931,9.604008710370932,1.98328276459554
1790173708892090400,8.56309033203125,-4.097956127342582,-8.762421517819165,1.6115560759603975,9.599097365769063,2.0069175434021207
1790173708902161400,8.573161376953125,-4.095949463695288,-8.759266853180527,1.633654072130471,9.594486013774297,2.028847350899189
1790173708912233500,8.5832333984375,-4.095053683899343,-8.75506589435935,1.658235847940296,9.589297829201252,2.0532308099340058
1790173708922304500,8.593304443359376,-4.093250141608715,-8.751399188545346,1.6818723057240246,9.584246423755816,2.0766799032439183
1790173708932376300,8.603376220703124,-4.087493185517191,-8.750324837312101,1.7013531051330268,9.580032560012668,2.096035266300021
1790173708942448400,8.613448486328124,-4.084580220679938,-8.748409943601489,1.7181122244931757,9.57637695422006,2.1126727543827046
1790173708952519400,8.62351953125,-4.088908605273068,-8.743372533956169,1.7333960106037556,9.573030530102384,2.127788769854733
1790173708962591500,8.633591552734375,-4.091097055228055,-8.739290233078599,1.7487514006458222,9.569636947351434,2.1430000117652037
1790173708972663300,8.643663330078125,-4.093597347611189,-8.735137205052375,1.7635853971622883,9.566333112285449,2.1576991155707157
1790173708982734000,8.653734130859375,-4.093126515229046,-8.732326239284873,1.7785332293167708,9.562977657121058,2.172520424797318
1790173708992806100,8.66380615234375,-4.090655448940396,-8.730702437475323,1.7921404605172573,9.559902147990057,2.186015874773418
1790173709002877200,8.673877197265625,-4.090914976659417,-8.727577583453058,1.806708791834861,9.55658828492803,2.200457414338744
1790173709012949200,8.68394921875,-4.093347464503347,-8.723695189061761,1.8199020354069768,9.553567759818987,2.213535112402994
1790173709023021300,8.694021240234376,-4.094741549210251,-8.721037952551246,1.829473581350595,9.551363282162686,2.2230259471455076
1790173709033092400,8.70409228515625,-4.097234242808819,-8.718563671392202,1.835676089252532,9.549928692216227,2.2291813768295627
1790173709043164200,8.7141640625,-4.098499440439046,-8.716210386264324,1.8440052339196205,9.547995403759693,2.23744502354984
1790173709053235200,8.724235107421874,-4.096519957059622,-8.714376156574486,1.857025751273334,9.544962234616282,2.25034844801931
1790173709063307300,8.734307373046875,-4.09406087346971,-8.712323315697908,1.872020491309464,9.541446824582767,2.2652075415888233
1790173709073379300,8.74437939453125,-4.098417607374489,-8.707287659618258,1.885867084223777,9.538172953985445,2.2789551621295403
1790173709083450400,8.754450439453125,-4.102656267857552,-8.702419761320948,1.8990750869736075,9.535026906817578,2.292083381260118
1790173709093522400,8.7645224609375,-4.1036078694939615,-8.699084479418396,1.9122548865422608,9.531873350894704,2.3051632263765764
1790173709103594200,8.77459423828125,-4.102860558257997,-8.696586817383766,1.9251770580880343,9.5287670279223,2.3179716705282525
1790173709113665300,8.784665283203125,-4.104233892437815,-8.693652517497538,1.9354734111748635,9.526273403364897,2.3281972228602053
1790173709123737300,8.7947373046875,-4.110332209312916,-8.689570216619968,1.940855104213208,9.524948127941002,2.333611603516667
1790173709133808400,8.804808349609376,-4.115489153684676,-8.686707228404282,1.9427409179598087,9.524469631949083,2.3355628765893695
1790173709143880400,8.81488037109375,-4.113852492393553,-8.687528481659292,1.9425373582117256,9.524526262185244,2.335333877158859
1790173709153952300,8.8249521484375,-4.111435202118754,-8.68930309011638,1.9397179168768224,9.525221231009748,2.332499455627249
1790173709164023300,8.835023193359374,-4.109985587832331,-8.69100463333726,1.9351608380943528,9.526332037201456,2.327958001159465
1790173709174095400,8.845095458984375,-4.107475358577072,-8.693915552347898,1.9273973644860087,9.528218158005913,2.3202242966464453
1790173709184166100,8.855166259765625,-4.10552188642174,-8.696649361225962,1.9192106970295308,9.53019771004617,2.312081611670126
1790173709194238500,8.865238525390625,-4.107651007404924,-8.698023572188616,1.9083961652874943,9.53278781100219,2.3013785727418985
1790173709204310500,8.875310546875,-4.105290708014369,-8.702293504592776,1.8939559903942047,9.536240653813781,2.2870302847767667
1790173709214381300,8.88538134765625,-4.106190871724486,-8.704918007877469,1.8798899095103143,9.539573489375758,2.2730870444355666
1790173709224453000,8.895453125,-4.10967169957757,-8.70551305116117,1.8694969641812145,9.542015156073553,2.2628134307961854
1790173709234525200,8.905525146484376,-4.11042602507621,-8.707108211398124,1.8603876289218664,9.544151741215707,2.253784635477652
1790173709244596200,8.91559619140625,-4.108212148419022,-8.709866570195555,1.8523476764597,9.546036970418779,2.2457855643206934
1790173709254668300,8.925668212890624,-4.106587762087584,-8.712178354269266,1.8450639491923155,9.547737412753664,2.2385455094856948
1790173709264739300,8.9357392578125,-4.103531297126412,-8.714864816874265,1.8391672923691569,9.549112130429835,2.2326736735777417
1790173709274811400,8.945811279296874,-4.106047079339623,-8.713876390358806,1.8382389254778624,9.549323791345603,2.2317710096219305
1790173709284883200,8.95588330078125,-4.111828877611458,-8.710219036895037,1.842642128872872,9.548288700794417,2.2361943767988954
1790173709294954000,8.9659541015625,-4.112964603643119,-8.70849761992991,1.8482351265743373,9.546984226035361,2.2417568775586107
1790173709305026000,8.976026123046875,-4.114960453635454,-8.70638866495192,1.8537205722481007,9.545698641880428,2.247225070740559
1790173709315097000,8.98609716796875,-4.118793748188018,-8.702516791954636,1.8633683982983231,9.543427511867405,2.2568547954784917
1790173709325169200,8.996169189453125,-4.121745583730936,-8.698401173329353,1.8760076612494885,9.540439147067515,2.2694482270700447
1790173709335241000,9.006240966796875,-4.125759787808359,-8.692824249979854,1.892955142788589,9.536403146000342,2.28634675351286
1790173709345312000,9.01631201171875,-4.130606935578585,-8.68607828285098,1.9132497427985071,9.531525920521538,2.3066009184100125
1790173709355384000,9.026384033203126,-4.137826657699049,-8.677134513416886,1.9380704419307409,9.525481962688131,2.331433728306263
1790173709365456100,9.0364560546875,-4.145191925770044,-8.666766848659515,1.9684847232863305,9.517982407149358,2.3618650921464006
1790173709375527200,9.046527099609374,-4.15159653211534,-8.656272927173971,2.000893831720948,9.509879147449293,2.3942826654188387
1790173709385599200,9.05659912109375,-4.156678949946165,-8.64624136250317,2.033448924497515,9.50162700301907,2.4268226996682603
1790173709395670300,9.066670166015625,-4.161635695570707,-8.63592922732532,2.066858734407276,9.493032684292457,2.460227787212146
1790173709405742000,9.0767421875,-4.168942511452734,-8.623689923477173,2.102922712087631,9.483583648340476,2.496404349864554
1790173709415814100,9.086814208984377,-4.177854132182896,-8.610793032503128,2.1377925115473566,9.474269825084944,2.531519287367758
1790173709425885200,9.09688525390625,-4.186597410608828,-8.598119428890943,2.1714358379520475,9.465136828768763,2.565457854461096
1790173709435957200,9.106957275390624,-4.193196662743389,-8.586833480244874,2.2031325603336094,9.456428959580157,2.597374035581405
1790173709446028300,9.1170283203125,-4.198488047149777,-8.5760636644274,2.2347749221794304,9.447635142087078,2.6291783950836813
1790173709456100400,9.127100341796876,-4.203886399061978,-8.56466724114418,2.268083317541331,9.438251601984438,2.6626667911501785
1790173709466172200,9.137172119140626,-4.208262129928172,-8.554217158800363,2.299193618337065,9.429380224211934,2.6939155955495147
1790173709476243200,9.1472431640625,-4.21104445412308,-8.545057116267085,2.327981029143184,9.421094783751606,2.7227495776303607
1790173709486315300,9.157315185546874,-4.214738632465899,-8.536642339143157,2.3520425804711875,9.41406425235017,2.746958812837248
1790173709496387300,9.16738720703125,-4.221868338215351,-8.527503339397907,2.372317891258746,9.407991893313872,2.7676824567125635
1790173709506458000,9.1774580078125,-4.226814854706824,-8.520204414561391,2.389671615511179,9.402777259653384,2.7853468935137475
1790173709516530000,9.187530029296877,-4.229923049855232,-8.51528157120645,2.40169084686786,9.399150502873859,2.7975628666537022
1790173709526601000,9.19760107421875,-4.232557782272994,-8.511410867252945,2.4107513745494185,9.396395856598254,2.8068002115338135
1790173709536673000,9.207673095703123,-4.235374008737504,-8.508851245898008,2.414840543559193,9.395108039623096,2.81111050891564
1790173709546745000,9.2177451171875,-4.239413639517128,-8.506402683702111,2.4163757903024554,9.394544612396654,2.812990954458817
1790173709556816100,9.227816162109375,-4.240210927374661,-8.506966747325658,2.412985855603218,9.395532211144694,2.8096880889905957
1790173709566888200,9.23788818359375,-4.239010903935134,-8.510456927528978,2.402768266841024,9.398598978891657,2.799414784758025
1790173709576959200,9.247959228515626,-4.234982671332359,-8.516711311748624,2.3876592527754603,9.403166432420907,2.7840308090445514
1790173709587031000,9.258031005859374,-4.233520489825308,-8.523055712339282,2.367530364721268,9.409110170368036,2.763877754743135
1790173709597103000,9.26810302734375,-4.233474897117913,-8.529391929623484,2.3446844727933405,9.415759110377982,2.741142470931772
1790173709607174100,9.278174072265625,-4.231583092021942,-8.537818397185205,2.317271126819402,9.423702575026375,2.7137084774588818
1790173709617246200,9.28824609375,-4.223785277752578,-8.551064247727394,2.2823944592274725,9.433805019597866,2.6783780840358293
1790173709627318000,9.298318115234377,-4.216037732365727,-8.565533502584696,2.2421103796340525,9.445257175010843,2.6377100289837263
1790173709637389000,9.30838916015625,-4.210435966835916,-8.578592306122184,2.2023561691336333,9.456322424261602,2.597759782892245
1790173709647461000,9.318461181640624,-4.20421723845154,-8.590836870667339,2.1662126964762805,9.466241251939088,2.5613814110694606
1790173709657532200,9.3285322265625,-4.1989416361361735,-8.602381762510538,2.130327728624642,9.475916842676938,2.525347317433852
1790173709667604200,9.338604248046876,-4.193882014659047,-8.613890413996577,2.0934739157408475,9.48569104247827,2.488383591763445
1790173709677676300,9.34867626953125,-4.186289367572963,-8.626876736819744,2.05484037983343,9.495799862990019,2.449525433623587
1790173709687747300,9.358747314453124,-4.177280131687224,-8.639981717586517,2.017782568810135,9.505350212703393,2.412201734447525
1790173709697819100,9.368819091796874,-4.167269025282562,-8.652761704182625,1.9834204266116024,9.5140708616076,2.377567762958237
1790173709707890000,9.378889892578124,-4.156423806141317,-8.665831613636016,1.9488142465241247,9.5227097789051,2.342727437486536
1790173709717962000,9.3889619140625,-4.144516802987456,-8.679057590433954,1.915028735169768,9.531005602845907,2.308750190765652
1790173709728034300,9.399034423828123,-4.141902236574888,-8.686819456607102,1.885259912110865,9.538137762426068,2.279104949366275
1790173709738105000,9.40910498046875,-4.14343631427437,-8.690942089495062,1.8627492434866728,9.543441052749998,2.2567911977408404
1790173709748177200,9.41917724609375,-4.141358338956534,-8.695791867613792,1.844651422868669,9.54768820287514,2.2387572331705092
1790173709758249000,9.4292490234375,-4.133180585458875,-8.702917189449071,1.8293281815305351,9.55129123410535,2.223336842555883
1790173709768320000,9.439320068359375,-4.127893877227604,-8.70799434658289,1.8170628664582968,9.554143128107032,2.2110495132582395
1790173709778392000,9.44939208984375,-4.123483367308974,-8.711264746555685,1.8113887663446369,9.555462277189745,2.205338635470961
1790173709788463000,9.459463134765626,-4.121969747875631,-8.712015857183932,1.8112213008232407,9.555506197440508,2.205148251129171
1790173709798535200,9.46953515625,-4.122034629805386,-8.711018662840127,1.815866934671998,9.554441212646156,2.209760501092268
1790173709808607000,9.47960693359375,-4.122377744154631,-8.709768955039978,1.821073855665326,9.553242878508172,2.2149343122766134
1790173709818678000,9.489677978515624,-4.119343491025269,-8.709719855201245,1.828161037447304,9.551620129186105,2.2219217897365886
1790173709828750000,9.49975,-4.118839633156359,-8.707309871450066,1.8407308884240683,9.548710882679925,2.234389358124448
1790173709838821000,9.509821044921877,-4.124866346099973,-8.700669702783227,1.8585475540131329,9.544531567402142,2.252174908729399
1790173709848893200,9.51989306640625,-4.126924739934504,-8.69553467798233,1.8779096954785288,9.539966240006347,2.2714356933420166
1790173709858965200,9.52996533203125,-4.127522121305764,-8.691089973533153,1.8970722227185963,9.535413489195259,2.290470780909565
1790173709869036300,9.540036376953124,-4.130471618761122,-8.683787541565298,1.9239042616732416,9.528959483526734,2.3171751400846237
1790173709879108000,9.550108154296876,-4.134309881749749,-8.673765913766623,1.9605235351487995,9.52002165763955,2.353629855159813
1790173709889180200,9.56018017578125,-4.137373945495486,-8.66390619853139,1.9973127583637835,9.510894758309503,2.3902453708561104
1790173709899251200,9.570251220703126,-4.137571806155145,-8.65573516703546,2.032025029174238,9.502164142675236,2.424717315027026
1790173709909323300,9.5803232421875,-4.138007567223906,-8.646993057653308,2.0680382995806634,9.492964569579716,2.460488092786363
1790173709919394300,9.590394287109374,-4.140805965770781,-8.636220903748274,2.1070837772898376,9.482807053672376,2.4993515102604045
1790173709929466400,9.60046630859375,-4.1432703100577,-8.625597802925109,2.145406347551942,9.47267223945038,2.5374939133117778
1790173709939538200,9.6105380859375,-4.140649313904345,-8.61781781657338,2.181427947395295,9.46304535706697,2.5731616972426337
1790173709949609000,9.62060888671875,-4.135338055753707,-8.611820621985197,2.214930550155044,9.453992678739196,2.606226205257353
1790173709959681000,9.630680908203123,-4.136955135561526,-8.602703249549865,2.2471087724432346,9.445112267880909,2.638229155282308
1790173709969752000,9.640751953125,-4.140008093391359,-8.592493990224598,2.280298802122473,9.435812070136421,2.6712980345556363
1790173709979824000,9.65082421875,-4.139257859545946,-8.583452021113038,2.3154425962179896,9.425873589949003,2.706157000110114
1790173709989896000,9.66089599609375,-4.141145280727744,-8.573266142663359,2.3495517865687607,9.416062206731384,2.740099032109033
1790173709999967000,9.670967041015626,-4.1423505648642776,-8.563525669893622,2.382715512762964,9.40640299487837,2.7730769938577042
1790173710010039000,9.6810390625,-4.142655100768804,-8.554350429791212,2.4149315828435123,9.396911657482256,2.805075473295508
1790173710020110000,9.691110107421874,-4.148112197130918,-8.541824125695229,2.449648529829085,9.386473252000476,2.839804923488363
1790173710030182100,9.70118212890625,-4.15382560634166,-8.528843648090959,2.484945468659699,9.375709015987876,2.8751479216237175
1790173710040254200,9.711254150390625,-4.154336478473246,-8.517827748557925,2.521607850624621,9.364457942534331,2.911586290205778
1790173710050325200,9.7213251953125,-4.160238103732467,-8.503727911534906,2.5591829635202883,9.35266764337345,2.9492363192075812
1790173710060397000,9.73139697265625,-4.168088817232847,-8.486993049833178,2.6016096081003544,9.33912205366024,2.991853478373426
1790173710070469000,9.74146923828125,-4.178688244919479,-8.467728961914776,2.646980781699717,9.324334428588285,3.0376247206015
1790173710080540200,9.7515400390625,-4.19052042927146,-8.447319795614481,2.693089037401974,9.309003965492536,3.0842903448509236
1790173710090612200,9.7616123046875,-4.20032140005678,-8.427602703231573,2.739199338930845,9.293437407993252,3.1308818804614575
1790173710100683300,9.771683349609376,-4.205816490341722,-8.40938841662705,2.786341321595013,9.27736053545085,3.178204736611298
1790173710110755300,9.78175537109375,-4.217843320482969,-8.38734083546996,2.8341987590521573,9.260558918881124,3.2268281147635918
1790173710120827100,9.7918271484375,-4.231144408343732,-8.363453763926028,2.884520248535275,9.242533126882087,3.2781062106472527
1790173710130898200,9.801898193359374,-4.243476358911395,-8.338304125100374,2.938705427709221,9.22279554547282,3.3332325464269914
1790173710140970200,9.81197021484375,-4.258095251372456,-8.310859068813919,2.9947698447585105,9.201875134360222,3.3905595506000408
1790173710151041000,9.822041015625,-4.27343719741106,-8.283224627435207,3.048987172636389,9.181166016548028,3.446242745984452
1790173710161113300,9.83211328125,-4.287814390070736,-8.254944873890281,3.104985538712144,9.159390713268186,3.503707189816684
1790173710171185200,9.84218505859375,-4.301195265169442,-8.22557147988975,3.163871150662005,9.136084930239496,3.564034186891834
1790173710181256000,9.852255859375,-4.311645932035148,-8.197705567842721,3.2214459722742435,9.112952942961453,3.6227710432660385
1790173710191328000,9.862327880859375,-4.321739456026256,-8.173394133406877,3.269340819132328,9.093281547221128,3.671869235198419
1790173710201399000,9.87239892578125,-4.337039901010692,-8.147688029742241,3.3129522895827885,9.074734018860582,3.7174710076811808
1790173710211471000,9.88247119140625,-4.35423887309283,-8.120316623213887,3.3572970427438613,9.055455785138733,3.7641867889108003
1790173710221543200,9.892543212890626,-4.37111752717942,-8.093381854537128,3.40012993003726,9.036498571058823,3.8094718001519565
1790173710231614200,9.9026142578125,-4.377577663104236,-8.075000979194044,3.4353377292796967,9.021169961070354,3.8456293188746598
1790173710241686000,9.91268603515625,-4.383988114668429,-8.060103854313493,3.462047457028925,9.009319981312862,3.873312794096355
1790173710251758000,9.922758056640625,-4.394713506822288,-8.042820711079239,3.4885412039399144,8.997151801112274,3.9014934316156564
1790173710261829000,9.9328291015625,-4.406676624077559,-8.02458070551157,3.5153520539760588,8.984630364792798,3.930243203657637
1790173710271901200,9.942901123046877,-4.4141327853024,-8.01005182942152,3.5390509094715115,8.973680742526676,3.955178103112119
1790173710281973000,9.952972900390623,-4.415511672440171,-8.001082925546168,3.557568562936783,8.965393732710057,3.973925088423424
1790173710292044800,9.963044921875,-4.407733731915056,-8.000786572948098,3.56786900767684,8.961402389260224,3.982920901929948
1790173710302116900,9.973116943359376,-4.394967773844302,-8.00468124229908,3.574875379307568,8.9592202558934,3.987827717932844
1790173710312187600,9.983187744140626,-4.38290382656306,-8.00826026982963,3.5816631397515533,8.957059499546055,3.9926776066293588
1790173710322259700,9.993259765625,-4.375679720528424,-8.009863028851152,3.586908054667711,8.955228356520745,3.9967828603524493
1790173710332330800,10.003330810546874,-4.366256350883841,-8.013404646980762,3.590478022108972,8.954286350418071,3.9988919640133433
1790173710342402800,10.01340283203125,-4.360585611771047,-8.015311941906809,3.5931124622657893,8.953496958494778,4.000660168568814
1790173710352474600,10.023474609375,-4.360139913830161,-8.014720405754446,3.5949712418749926,8.95269650997917,4.002450084723931
1790173710362545700,10.033545654296876,-4.356724844689667,-8.017910141706466,3.591998071283102,8.954254390043369,3.9989639752448594
1790173710372617700,10.04361767578125,-4.351746764016151,-8.023866419762372,3.584723111844063,8.957827828075056,3.9909513416563174
1790173710382689800,10.053689697265623,-4.351812522728741,-8.0274524615556,3.576607902188599,8.96143227851357,3.9828533564677904
1790173710392760800,10.0637607421875,-4.351301066075266,-8.031620687150955,3.567861408892273,8.96534426686906,3.9740393857484237
1790173710402832600,10.07383251953125,-4.349503953525423,-8.03765295305252,3.556450664822757,8.970506009742188,3.9623746536571565
1790173710412903700,10.083903564453124,-4.346903707899153,-8.043591695451736,3.5461882140055296,8.975195225377952,3.9517414799543853
1790173710422975700,10.093975830078126,-4.342389737606048,-8.050441122955084,3.5361607409879565,8.979886400530622,3.941068881293791
1790173710433047800,10.1040478515625,-4.33386390132308,-8.060751504567264,3.523107198147476,8.986129681056312,3.9268115333501896
1790173710443118800,10.114118896484374,-4.325748983928561,-8.071617766496539,3.5081723716050384,8.993127320561786,3.9107610545058438
1790173710453191000,10.12419091796875,-4.318648504273593,-8.082088307106494,3.492779572162032,9.000216307651243,3.894418039005707
1790173710463262000,10.134261962890625,-4.3130531684845685,-8.092873320493101,3.474671960802376,9.008339847512527,3.875588296327152
1790173710473333800,10.144333740234377,-4.307488812355697,-8.104796982520819,3.4537218194931745,9.017623066032266,3.853941182978034
1790173710483405800,10.15440576171875,-4.30654101011157,-8.115141266402603,3.430537343260646,9.027528500858297,3.830682559954579
1790173710493476900,10.164476806640623,-4.303021019291878,-8.12726600396037,3.406163364982605,9.038001614273194,3.8059057109894914
1790173710503549000,10.174548828125,-4.294108521778881,-8.141711293420196,3.382834511843324,9.048242400939957,3.781495679036341
1790173710513619700,10.18461962890625,-4.285894820185005,-8.155852631497382,3.3591002927735447,9.058521433266183,3.756803265591625
1790173710523691800,10.19469189453125,-4.279466540703178,-8.170466263261437,3.3316713108390568,9.070136908242747,3.7286730912339388
1790173710533763800,10.204763916015626,-4.268401833592355,-8.188536757481097,3.301362974075973,9.083029713428536,3.697155278482051
1790173710543834600,10.214834716796876,-4.254945262908936,-8.209022496148943,3.267687498967349,9.097230225758612,3.662075005114179
1790173710553906700,10.22490673828125,-4.243412646025419,-8.228241575881839,3.23417335190028,9.111094871754366,3.627442325324012
1790173710563977700,10.234977783203124,-4.232504298520088,-8.24686678137481,3.200853266100585,9.124679304024912,3.593131444372797
1790173710574049800,10.2450498046875,-4.224700639031827,-8.263713286757469,3.1675425326511264,9.137972026607216,3.5591917217629265
1790173710584121600,10.25512158203125,-4.218358576528728,-8.279681255739927,3.1341204477816818,9.15109492177071,3.5253146654972713
1790173710594192600,10.265192626953125,-4.2142087633728975,-8.295424183794855,3.097866354356706,9.165060758844533,3.48884724895213
1790173710604264700,10.2752646484375,-4.213803689703345,-8.308758297142386,3.062479691416025,9.178401359139349,3.453597591870612
1790173710614336800,10.285336669921875,-4.212409312735498,-8.322087149792909,3.0280151117563245,9.191279537998916,3.41917866133902
1790173710624407800,10.29540771484375,-4.2122737036570905,-8.333806813681125,2.995799772328138,9.203144096123575,3.3871139313796466
1790173710634479900,10.30547998046875,-4.213336364452541,-8.345949671417474,2.9602871449202297,9.216035202606745,3.351876245111801
1790173710644551000,10.315551025390626,-4.214707360544801,-8.358310555818676,2.9232284571141003,9.229317780161121,3.3151276608637406
1790173710654622700,10.325622802734374,-4.219237697450817,-8.367531388628482,2.89012639797926,9.240938561689886,3.282595525288243
1790173710664694800,10.33569482421875,-4.226519378891587,-8.373751286056637,2.8613284657791254,9.25083598522208,3.25459841216692
1790173710674765800,10.345765869140624,-4.236757279789448,-8.37805687429607,2.8334482329458,9.26021877592061,3.227805190475347
1790173710684838000,10.355837890625,-4.249310179631411,-8.381345394447445,2.804780649127066,9.269696326656492,3.200486232595493
1790173710694909000,10.365908935546877,-4.265235186254978,-8.3826062081635,2.776699633024633,9.278746748351269,3.1741514877536403
1790173710704980700,10.375980712890623,-4.278513185501098,-8.384912147018312,2.749173328195512,9.28759642808324,3.1481634915040546
1790173710715052800,10.386052734375,-4.290319066368043,-8.388346213120222,2.7201456788927314,9.29690337075022,3.120572080843751
1790173710725123800,10.396123779296875,-4.295765349075198,-8.395449907645583,2.689463540381193,9.306898576105711,3.09063619910571
1790173710735196000,10.40619580078125,-4.294827191442251,-8.405591946953535,2.659113994824886,9.316918987508256,3.060298090174149
1790173710745268000,10.41626806640625,-4.297152127258479,-8.413146307855843,2.631317056360841,9.325878859777234,3.0328798436545483
1790173710755338800,10.4263388671875,-4.301470282718539,-8.418923137691616,2.605661513839662,9.333988953490108,3.0078290397394225
1790173710765410600,10.43641064453125,-4.304946434396505,-8.424328211605548,2.582346104703844,9.341309473577322,2.985015635337609
1790173710775481600,10.446481689453124,-4.304788905747235,-8.432126902657746,2.5570322152271867,9.349334997748484,2.959783856154701
1790173710785553700,10.4565537109375,-4.304204091596604,-8.440260524752736,2.53104787914306,9.357509641918227,2.9338349060126534
1790173710795625700,10.466625732421877,-4.309314858739078,-8.445302026051282,2.5054054883643984,9.365290430811996,2.9089023136989267
1790173710805696800,10.47669677734375,-4.318252198432385,-8.447920684117078,2.48107388792336,9.372449841310244,2.885754241763835
1790173710815768800,10.486768798828123,-4.328652596415579,-8.450346449959278,2.454549161352217,9.380145613412676,2.860641236063079
1790173710825839900,10.49683984375,-4.338154584254324,-8.453503452685474,2.4267456470169124,9.388173990423727,2.834182312819518
1790173710835911700,10.50691162109375,-4.346120740827918,-8.45767109375894,2.397792816516012,9.396511880707923,2.8064106418538945
1790173710845983700,10.516983642578126,-4.347401428288221,-8.464919749712944,2.369727874765545,9.404763049280767,2.7786341491975284
1790173710856054800,10.5270546875,-4.346246120773255,-8.473048695632816,2.342642299441248,9.412736511475572,2.751503925050369
1790173710866126800,10.537126953125,-4.341539842778444,-8.482904319214821,2.3155475178971887,9.42076522270525,2.7238900164458344
1790173710876198000,10.547197998046874,-4.33332263405323,-8.494826812198758,2.287054706123471,9.429230848705107,2.6944373161531168
1790173710886269700,10.557269775390624,-4.329792706361412,-8.50420488139689,2.258712116475403,9.437377988845775,2.665761179400212
1790173710896341800,10.567341796875,-4.333436908082664,-8.509704063335061,2.230841382122785,9.445041757118146,2.638480274771888
1790173710906412800,10.577412841796876,-4.338925568626821,-8.513806237956882,2.204363417302817,9.452167516759623,2.612837357780666
1790173710916484900,10.58748486328125,-4.345975487138331,-8.517076637929678,2.1776810159519315,9.459211859672081,2.587219162006041
1790173710926557000,10.597556884765623,-4.355878456993401,-8.51938549939394,2.148667395174503,9.466692846578862,2.559707901890662
1790173710936628000,10.6076279296875,-4.359719934852421,-8.525172266101837,2.1177017635464668,9.474827386805263,2.5294321154429693
1790173710946699800,10.61769970703125,-4.360029731453955,-8.532361300823093,2.0879004995226857,9.482683791583598,2.49981703964325
1790173710956770600,10.6277705078125,-4.359211693069339,-8.539663732790947,2.0595628783106803,9.490104107414888,2.471498843673585
1790173710966842600,10.637842529296876,-4.352531776914001,-8.54944804470241,2.032925631275773,9.497211959221213,2.44404303604408
1790173710976915000,10.6479150390625,-4.339292648373544,-8.562709677335619,2.005225138923526,9.504725161812901,2.41466046531128
1790173710986985700,10.65798583984375,-4.322773767510056,-8.578568925246596,1.9728556318469344,9.513387611366882,2.380301104961492
1790173710997057800,10.668057861328125,-4.310009855265915,-8.59262258504033,1.939339731214196,9.522057396761404,2.3453804312481688
1790173711007128800,10.67812890625,-4.305087011910975,-8.601736450344324,1.9096422198258336,9.5294299743211,2.315241221462382
1790173711017200600,10.68820068359375,-4.304687491199374,-8.60797096081972,1.8822553234674035,9.536022928679367,2.287935808895585
1790173711027272700,10.698272705078123,-4.299862555260956,-8.616804255616664,1.852629854401946,9.543180312650305,2.257892927358094
1790173711037343700,10.70834375,-4.2940950777754185,-8.627636030754447,1.8152194305486973,9.552064662129144,2.220008623337432
1790173711047415800,10.718415771484375,-4.290262367744743,-8.637340263167022,1.777745439939946,9.56075279456634,2.182288444782696
1790173711057486800,10.72848681640625,-4.289103260837496,-8.644196704933046,1.7469526806607842,9.567725623604426,2.1515142378319
1790173711067558700,10.73855859375,-4.288061058308184,-8.65040140479207,1.7185703435242174,9.574059686006747,2.1231526695527703
1790173711077630700,10.748630615234376,-4.285826138862968,-8.657668180924654,1.687268173418194,9.580968009167934,2.091757614994351
1790173711087701800,10.75870166015625,-4.276786507838964,-8.668524505981802,1.654137326580286,9.588310400519255,2.0578371905767683
1790173711097773800,10.76877392578125,-4.262696607688069,-8.681479264622926,1.6222611559785902,9.595356196780623,2.0247309219681187
1790173711107844900,10.778844970703124,-4.255819707655906,-8.690598975145816,1.5911881184533236,9.601961187240995,1.9931715726204826
1790173711117917000,10.7889169921875,-4.254958706912398,-8.696966756612062,1.5583545009963211,9.608702202729235,1.9604119702722569
1790173711127988700,10.79898876953125,-4.251042117990553,-8.70532366606891,1.5219617297530172,9.616091677676085,1.9238418784584577
1790173711138059800,10.809059814453123,-4.25060927953124,-8.71176042111814,1.485910173162818,9.623208751661421,1.887917171608263
1790173711148131800,10.8191318359375,-4.254744479639828,-8.715401407968997,1.4523466339960691,9.629633512871056,1.8548696563704785
