time,seconds_elapsed,z,y,x,vertical,horizontal
1790173701922521000,1.59352099609375,-0.3995985090732574,-0.3559636771678924,-0.0387036874890327,0.493159818832881,0.21137756841828392
1790173701932593200,1.60359326171875,-0.4263938963413238,-0.3709785640239715,-0.0144896944984793,0.5171202685441518,0.2285463386490954
1790173701942664200,1.613664306640625,-0.4567117094993591,-0.3848221898078918,-0.0564869865775108,0.5442313161324998,0.2523425401228715
1790173701952736300,1.623736328125,-0.4811986982822418,-0.377709150314331,-0.1026776432991027,0.550083419519559,0.28664842483925235
1790173701962807300,1.633807373046875,-0.4902553558349609,-0.3679453730583191,-0.0692188739776611,0.5437230713500305,0.2913598903011781
1790173701972879000,1.643879150390625,-0.5196998119354248,-0.3568508923053741,-0.0360430739820003,0.544823012478969,0.3192137874846114
1790173701982951200,1.653951171875,-0.4989368021488189,-0.3700638711452484,-0.0097218751907348,0.5468838344801066,0.2947843070908901
1790173701993022000,1.66402197265625,-0.4457430839538574,-0.3564311563968658,-0.0631936192512512,0.5141702435624025,0.25564127266964226
1790173702003094000,1.674093994140625,-0.4129454493522644,-0.3724460899829864,-0.0752781704068183,0.5152331395202774,0.22235478174357906
1790173702013165800,1.684165771484375,-0.4161742627620697,-0.3686830401420593,-0.0500122308731079,0.5121634449892228,0.22207663075528652
1790173702023236900,1.69423681640625,-0.4130915999412536,-0.3556868135929107,-0.0041328119114041,0.497218035415897,0.2234929186738442
1790173702033309000,1.704308837890625,-0.3626071214675903,-0.3534846305847168,0.0089773964136838,0.47326333037910107,0.18038215644424388
1790173702043381000,1.714381103515625,-0.282114177942276,-0.3684076070785522,-0.0105991205200552,0.4534043222910684,0.09924432594847225
1790173702053452000,1.7244521484375,-0.2507748901844024,-0.3770522177219391,0.010221472941339,0.4470699277656278,0.07272811445897967
1790173702063524000,1.734524169921875,-0.2539128065109253,-0.4007002115249634,0.0543484538793563,0.4679828809626457,0.0947531022784144
1790173702073596000,1.744595947265625,-0.2404015213251114,-0.397363543510437,0.0581357330083847,0.4590753363591875,0.09121554782886503
1790173702083667000,1.7546669921875,-0.2415869086980819,-0.3703244626522064,0.0066511631011962,0.437231458361784,0.0661614078021845
1790173702093739000,1.764739013671875,-0.2071360051631927,-0.3488503098487854,-0.0544305630028247,0.40569121887826476,0.05458190570538977
1790173702103810000,1.77481005859375,-0.1481726765632629,-0.3305411338806152,-0.0114752622321248,0.362344704912994,0.0071119429001807784
1790173702113882000,1.784882080078125,-0.1300195008516311,-0.2961176633834839,0.0536832325160503,0.32083090551054694,0.06738071454100485
1790173702123954200,1.7949541015625,-0.0968305617570877,-0.2722863852977752,0.0201920848339796,0.28656266224386384,0.042492284080447966
1790173702134025200,1.805025146484375,-0.0426714569330215,-0.2480334937572479,-0.0096808597445487,0.2428651490704602,0.06672110366735698
1790173702144097000,1.815096923828125,0.0519250892102718,-0.2074828743934631,-0.0655047073960304,0.16832846994615203,0.14731514162738063
1790173702154169000,1.825169189453125,0.105519413948059,-0.1899317055940628,-0.0114677296951413,0.12749172676218412,0.1763115649677269
1790173702164240100,1.835240234375,0.1260952055454254,-0.1488001495599746,-0.0083137862384319,0.08142466361825076,0.17742781226991144
1790173702174312200,1.845312255859375,0.111329048871994,-0.1104687303304672,0.0434040017426013,0.05089773045635743,0.15456657434656446
1790173702184384000,1.855384033203125,0.1091862097382545,-0.0890379920601844,0.0006779583054594,0.034174046296543505,0.13668206398171343
1790173702194455000,1.865455078125,0.1316156238317489,-0.0631789714097976,0.0242503955960273,0.00029778643707006197,0.1479940805398046
1790173702204527000,1.875527099609375,0.1695711612701416,-0.0287400837987661,-0.024950249120593,-0.04494425896399491,0.16787763302066624
1790173702214599200,1.88559912109375,0.2198977172374725,-0.0177460238337516,-0.0219022613018751,-0.07637201038722832,0.20812725070905105
1790173702224670200,1.895670166015625,0.2236959487199783,-0.0005009649321436,0.0141305895522236,-0.09506059715567976,0.20298592283479505
1790173702234742300,1.9057421875,0.2236032634973526,0.021809134632349,-0.0010297212284058,-0.11458018330558241,0.19325242487365013
1790173702244814000,1.91581396484375,0.2777208387851715,0.0377458892762661,-0.0468505248427391,-0.1500837187073525,0.24129539056892024
1790173702254884900,1.925884765625,0.3030400276184082,0.0533096678555011,-0.0477450788021087,-0.1748704647119993,0.2576336393933417
1790173702264957000,1.93595703125,0.2879702448844909,0.0281496495008468,0.0320805832743644,-0.1489899718448535,0.25010081331084744
1790173702275028500,1.946028564453125,0.2755058407783508,-0.0067225797101855,0.0505453459918499,-0.11291371243070569,0.25642540226642424
1790173702285100500,1.9561005859375,0.3054328262805938,-0.0049765920266509,-0.0496460422873497,-0.1230851227886311,0.2839520380290588
1790173702295172400,1.96617236328125,0.3178578019142151,0.0190427247434854,-0.0524410307407379,-0.14997022495125897,0.2857537417718486
1790173702305243400,1.976243408203125,0.27904212474823,0.0291631072759628,-0.0774788558483123,-0.14162489769096537,0.2542840059216922
1790173702315315500,1.9863154296875,0.308624267578125,0.0058055869303643,-0.0147190699353814,-0.13562484287295204,0.27767822455711183
1790173702325387500,1.996387451171875,0.3089008033275604,0.0309379994869232,0.0386356152594089,-0.16066369856802704,0.26843388913767996
1790173702335458600,2.00645849609375,0.3133610486984253,0.0748961418867111,0.0445952378213405,-0.20256333314925587,0.2544826324343112
1790173702345530600,2.016530517578125,0.3509266972541809,0.1110363975167274,-0.0091480026021599,-0.24899260502772325,0.27122868029088953
1790173702355602400,2.0266025390625,0.3840394020080566,0.1437911540269851,-0.053499486297369,-0.2908548734980775,0.2939860470628114
1790173702365673500,2.036673583984375,0.3660586774349212,0.1600816696882248,-0.0135982930660247,-0.2995958930492566,0.26467397064672127
1790173702375745500,2.04674560546875,0.3559778034687042,0.1876368671655655,0.0179585684090852,-0.32153681957964786,0.24261981435163174
1790173702385817600,2.056817626953125,0.3627001643180847,0.2148394435644149,0.0542000010609626,-0.3504820081984006,0.2404316904063556
1790173702395888600,2.066888671875,0.343018889427185,0.2209500670433044,0.020661748945713,-0.34628151251373773,0.21678771319194695
1790173702405960400,2.07696044921875,0.3124384880065918,0.2134308516979217,0.1209186911582946,-0.3306133112201233,0.2201969699152247
1790173702416031500,2.087031494140625,0.3025440573692322,0.2170125395059585,0.0619057044386863,-0.3272340388331414,0.1880892049620672
1790173702426103600,2.097103515625,0.2855991721153259,0.2092780023813247,-0.0921479240059852,-0.30672911780893986,0.1994308340764778
1790173702436175600,2.107175537109375,0.2570300996303558,0.1576433032751083,0.0997317656874656,-0.2557670700289314,0.18826979088381018
1790173702446246700,2.11724658203125,0.1858144402503967,0.1347571909427642,-0.0295763872563838,-0.19953957859815852,0.117240035706075
1790173702456318700,2.127318603515625,0.128576174378395,0.132045030593872,-0.1751527637243271,-0.16682518480141953,0.19187384156930354
1790173702466390500,2.137390625,0.2075884640216827,0.1013299077749252,0.0696984976530075,-0.18261463334010064,0.15770382642695513
1790173702476461300,2.14746142578125,0.223200187087059,0.0855245813727378,0.1086586788296699,-0.17654104564510853,0.19435211658796323
1790173702486533400,2.157533447265625,0.1664599329233169,0.0805951356887817,-0.0413940884172916,-0.1418487892627825,0.12568562648970472
1790173702496605700,2.167605712890625,0.1525670140981674,0.0842721685767173,-0.0477635711431503,-0.1390176394938148,0.11547271030580163
1790173702506676500,2.177676513671875,0.2124581187963485,0.0696647316217422,0.0232337992638349,-0.1541330971148131,0.16362892432708973
1790173702516748500,2.18774853515625,0.1960802227258682,0.0627620890736579,0.0069733378477394,-0.14027188981493172,0.1508607236413846
1790173702526820400,2.1978203125,0.1738161891698837,0.0616670623421669,0.0152540104463696,-0.13017232631841005,0.1315398969552767
1790173702536891400,2.207891357421875,0.1401916593313217,0.0553817376494407,0.0403649546205997,-0.11124677015842022,0.10942725392690583
1790173702546963500,2.21796337890625,0.1262464970350265,0.0601957738399505,-0.0367764681577682,-0.10651972211578678,0.09781496108643259
1790173702557035500,2.228035400390625,0.1295637339353561,0.0384598523378372,-0.0423544608056545,-0.08803754309722919,0.11094689156826892
1790173702567106600,2.2381064453125,0.1337870508432388,0.0237931851297616,0.0047029121778905,-0.07849285494049692,0.11102287934562646
1790173702577178400,2.248178466796875,0.1363412886857986,0.0006428589113056,0.0237836614251136,-0.059418667841343566,0.12499777890358146
1790173702587249400,2.25824951171875,0.0735297426581382,0.0157743543386459,-0.0130308838561177,-0.044939605499178,0.06169026748056021
1790173702597321500,2.268321533203125,0.0408287905156612,0.0203922763466835,-0.0486048571765422,-0.033779987097677114,0.05748199441915778
1790173702607393500,2.2783935546875,0.0806762501597404,0.0078861750662326,-0.047403622418642,-0.03942770236259426,0.08522563465195282
1790173702617464600,2.288464599609375,0.0765446275472641,0.0211854688823223,-0.0117713278159499,-0.051165370067443774,0.06187546494795261
1790173702627536600,2.29853662109375,0.0546338856220245,0.0133643317967653,0.0342832133173942,-0.03668065763312513,0.05471137809909289
1790173702637608400,2.3086083984375,0.0142454467713832,0.0094090048223733,0.0093629471957683,-0.014940496778570626,0.012486330992890675
1790173702647679500,2.318679443359375,-0.0071744229644536,0.014661687426269,0.0035158686805516,-0.010361663205388234,0.013093307116824264
1790173702657751600,2.32875146484375,-0.0046505453065037,0.0219430364668369,-0.0384464934468269,-0.016298333877582602,0.04142006267745771
1790173702667823600,2.33882373046875,-0.032312523573637,0.011514252051711,-0.0067165736109018,0.0035733150134654394,0.03477097871634307
1790173702677894700,2.348894775390625,-0.0353495925664901,0.0048001566901803,-0.0490389950573444,0.012671005229793251,0.059303489455241463
1790173702687966500,2.358966552734375,-0.0789263993501663,0.0184027161449193,-0.0252813901752233,0.01788610776491876,0.08298959160103149
1790173702698038500,2.36903857421875,-0.0750762671232223,0.0385106466710567,-0.0687484368681907,-0.00015399898008908175,0.10883859447968874
1790173702708109600,2.379109619140625,-0.0352041982114315,0.0364173837006092,-0.0561473555862903,-0.015698579469636546,0.07397054514653778
1790173702718181600,2.389181640625,-0.0280762463808059,0.0407897606492042,0.016044283285737,-0.025639067804277167,0.04530052331856378
1790173702728252400,2.39925244140625,0.0092352423816919,0.0224004369229078,-0.0192138366401195,-0.023393751953203208,0.020223084932100958
1790173702738324500,2.409324462890625,-0.0092170014977455,0.0302024334669113,-0.0008960821432992,-0.023371279141254798,0.021253855613552437
1790173702748396500,2.419396484375,-0.0079147741198539,0.0474767833948135,-0.0174605641514062,-0.03887017999575426,0.03332670128394625
1790173702758467300,2.42946728515625,0.0022166899871081,0.0250620190054178,0.0273662954568862,-0.024732835413315998,0.027752828514915028
1790173702768539400,2.439539306640625,0.009241783991456,0.0162368528544902,0.0076281242072582,-0.018921985487097493,0.007013751215329018
1790173702778611500,2.449611572265625,0.0009119489695876,0.0263717789202928,-0.0645326226949691,-0.021595285528676816,0.06629031157846592
1790173702788682500,2.4596826171875,-0.0274314004927873,0.0234666801989078,-0.0803387463092804,-0.006290673544832204,0.08785162717589677
1790173702798754600,2.469754638671875,-0.0134197110310196,0.0127559807151556,-0.0408350117504596,-0.004168685289142215,0.04464217664699778
1790173702808826400,2.479826416015625,0.0099170366302132,0.0067148660309612,-0.0731593966484069,-0.007282516822362755,0.07377465220541321
1790173702818897400,2.4898974609375,-0.009940824471414,-0.0119850523769855,-0.0388994254171848,0.016655050962818815,0.03844783539893475
1790173702828969500,2.499969482421875,-0.0156230032444,-0.0162705276161432,-0.0344900749623775,0.02276212069693512,0.03435490403960966
1790173702839041500,2.51004150390625,-0.0294799637049436,-0.0041992170736193,-0.028328051790595,0.017471072004186218,0.0372013688639456
1790173702849112600,2.520112548828125,-0.0543070994317531,-0.0310470387339591,-0.0088999858126044,0.05149596367424625,0.036613592224248426
1790173702859184400,2.530184326171875,-0.017614597454667,-0.067256174981594,-0.0817393064498901,0.07166401540492208,0.07987020866128301
1790173702869255400,2.54025537109375,-0.0353629440069198,-0.0830112621188163,-0.0481435619294643,0.09206981654538504,0.04452368902001131
1790173702879327500,2.550327392578125,-0.0734283030033111,-0.0808200091123581,-0.1234191432595253,0.10932915600013696,0.12330048712831858
1790173702889399600,2.560399658203125,-0.1094198375940322,-0.0872726663947105,-0.11033745855093,0.1299038994452203,0.12201864950552067
1790173702899470600,2.570470703125,-0.0998316556215286,-0.1001956611871719,-0.0156855229288339,0.1336428040751818,0.04889955555364044
1790173702909542700,2.580542724609375,-0.0314887724816799,-0.1199859827756881,-0.0382368676364421,0.12346490854890599,0.0400830794563965
1790173702919614500,2.590614501953125,-0.0333239585161209,-0.1141121163964271,-0.0513904877007007,0.11946993528725912,0.049999781081819315
1790173702929685500,2.600685546875,-0.0692242980003357,-0.0962439551949501,-0.0662702620029449,0.11915320609020019,0.06518560768737287
1790173702939757600,2.610757568359375,-0.0836546346545219,-0.0700829252600669,-0.0825767964124679,0.10228201611989622,0.09092321373766504
1790173702949829600,2.62082958984375,-0.0812075734138488,-0.0485882498323917,-0.0961522981524467,0.08235719021120955,0.10685525565947708
1790173702959900700,2.630900634765625,-0.0493628233671188,-0.0369752719998359,-0.0504646971821785,0.05646452838863757,0.05623434685112768
1790173702969972700,2.64097265625,0.0289267711341381,-0.0133418142795562,-0.0429696142673492,0.0015542088723624406,0.053467132722662666
1790173702980044500,2.65104443359375,0.0581882558763027,0.0065522654913365,-0.0082792788743972,-0.03028184259644487,0.05079726146790998
1790173702990115300,2.661115234375,0.10022484511137,0.028213744983077,0.0149231310933828,-0.06866712565483328,0.07967785564071009
1790173703000187600,2.671187744140625,0.1591081321239471,0.038740687072277,0.0781625509262085,-0.10577205473991805,0.1474377677062136
1790173703010258400,2.681258544921875,0.1751946061849594,0.0619270093739032,0.0586655922234058,-0.1327726623912872,0.14262249597714488
1790173703020330500,2.69133056640625,0.182934820652008,0.0474929399788379,0.0859520807862281,-0.12412014513775536,0.1664412139984585
1790173703030402300,2.70140234375,0.1652458757162094,0.0803102552890777,0.0564784109592437,-0.1450894057546669,0.12607462785212817
1790173703040473300,2.711473388671875,0.1609464734792709,0.1355274319648742,0.007253608200699,-0.19119290705847491,0.08814385550261497
1790173703050545400,2.72154541015625,0.1313086301088333,0.1926523447036743,0.0337805189192295,-0.23137508918752328,0.044312231074499144
1790173703060617500,2.731617431640625,0.112923763692379,0.2016122937202453,0.1100686341524124,-0.23480587583487514,0.10188522112252353
1790173703070688500,2.7416884765625,0.1636282503604889,0.1781631559133529,0.1176416799426078,-0.23542396741647303,0.1301208471638843
1790173703080760600,2.751760498046875,0.1832352429628372,0.1917956173419952,0.0834128707647323,-0.25467257619151507,0.11162570958537242
1790173703090832400,2.761832275390625,0.1530042439699173,0.2027261406183242,0.0644378364086151,-0.25095193396212234,0.07538931200442509
1790173703100903400,2.7719033203125,0.1168169304728508,0.2179232090711593,-0.0151776261627674,-0.24607606593935927,0.02852455792323294
1790173703110975500,2.7819755859375,0.1093432605266571,0.2062078118324279,0.0519563667476177,-0.23506016718353293,0.043861054850298495
1790173703121046500,2.792046630859375,0.1258503347635269,0.2005254179239273,0.0547875724732875,-0.23704169044329326,0.0534945332062927
1790173703131118600,2.80211865234375,0.1006254777312278,0.1803341954946518,0.0463972873985767,-0.20772847004492312,0.040589405564539924
1790173703141190700,2.812190673828125,0.0443861670792102,0.1528152227401733,-0.0005417268257588,-0.15704391158434033,0.025692945167029503
1790173703151261700,2.82226171875,-0.0126553503796458,0.1161926984786987,0.00253102555871,-0.09983515641795608,0.06082966962243407
1790173703161333500,2.83233349609375,-0.0715394392609596,0.0993516594171524,-0.0293691176921129,-0.058303622997506466,0.11158797523968338
1790173703171405600,2.842405517578125,-0.1001215875148773,0.0673953220248222,0.0269811637699604,-0.019578331601924105,0.12211115365680256
1790173703181476600,2.8524765625,-0.1153122559189796,0.0221847034990787,0.0247411783784627,0.02785557882766282,0.11672733214717561
1790173703191548700,2.862548583984375,-0.1857507675886154,-0.0178167559206485,-0.0338897183537483,0.09633663203164913,0.16336630861407989
1790173703201620500,2.872620361328125,-0.268815279006958,-0.0596065483987331,0.0124820414930582,0.16748773745665133,0.21890238464001585
1790173703211691500,2.88269140625,-0.2930610179901123,-0.0828447416424751,0.0801605358719825,0.1960221536874483,0.24647319987825686
1790173703221763600,2.892763671875,-0.2604721784591675,-0.1350277811288833,0.0324068628251552,0.2313522525258195,0.18331556790750717
1790173703231835600,2.902835693359375,-0.3100303113460541,-0.157104954123497,-0.0336535312235355,0.2750631306957242,0.2151129816146802
1790173703241906400,2.912906494140625,-0.3681652545928955,-0.1523229777812957,0.0101221790537238,0.29361432198345605,0.2695200042382822
1790173703251978800,2.922978759765625,-0.3462587594985962,-0.1552020907402038,0.0476471446454525,0.28538291452937464,0.25457741452694005
1790173703262049500,2.933049560546875,-0.3237513303756714,-0.1540420204401016,0.023816380649805,0.27575889672884146,0.23036518583204874
1790173703272121300,2.943121337890625,-0.3109362423419952,-0.1577567756175995,0.0546517521142959,0.27241599609825523,0.2243766612951967
1790173703282193400,2.953193359375,-0.3278782069683075,-0.1586814224720001,0.0233851745724678,0.2817245574510505,0.23208199534062127
1790173703292264400,2.963264404296875,-0.359136700630188,-0.1752954870462417,-0.0418787077069282,0.312694934465677,0.2523556649592489
1790173703302336500,2.97333642578125,-0.3450269997119903,-0.1894283592700958,-0.0212762244045734,0.318645955080347,0.23204345899392526
1790173703312408300,2.983408203125,-0.2947229146957397,-0.1902666240930557,0.0142355784773826,0.2965994051089169,0.18786811670462528
1790173703322479400,2.993479248046875,-0.3020128011703491,-0.1895704716444015,0.0666276812553405,0.2969149671717983,0.20839732716394138
1790173703332551400,3.003551513671875,-0.3262157142162323,-0.1977723985910415,0.0097656175494194,0.316937283857295,0.21254820449333897
1790173703342623500,3.01362353515625,-0.3010983765125274,-0.2403677999973297,0.0251160766929388,0.3441779454092064,0.17495505370345532
1790173703352694500,3.023694580078125,-0.2750445604324341,-0.2479812800884246,-0.0089073646813631,0.34140297630430627,0.14376221483370602
1790173703362766600,3.0337666015625,-0.2422469407320022,-0.2472196221351623,0.0338302478194236,0.325042466015453,0.12366488109719462
1790173703372838400,3.04383837890625,-0.2677831053733825,-0.2507916688919067,0.0623115003108978,0.33794289642771175,0.15582546176425638
1790173703382909400,3.053909423828125,-0.2896170318126678,-0.2272431999444961,0.0271697547286748,0.32734929902233684,0.17058173711917435
1790173703392981500,3.0639814453125,-0.2996487021446228,-0.2056134939193725,-0.0135201094672083,0.3137100787334276,0.18394301682793132
1790173703403052500,3.074052490234375,-0.2591843605041504,-0.1772281974554062,-0.011768814176321,0.2707896730052652,0.15936694978588303
1790173703413124600,3.08412451171875,-0.2009269446134567,-0.162248432636261,-0.0214627888053655,0.23291339427486057,0.11361422901771359
1790173703423196700,3.09419677734375,-0.1813276708126068,-0.1313211321830749,-0.0685384199023246,0.19855082585924633,0.12409693192616944
1790173703433267700,3.104267822265625,-0.1433207839727401,-0.1085380241274833,-0.0618375018239021,0.16153782807309644,0.10025346145299326
1790173703443339500,3.114339599609375,-0.0944933295249939,-0.092260256409645,-0.0327246226370334,0.12489803483329442,0.05396597130609189
1790173703453411600,3.12441162109375,-0.0617433711886405,-0.0887161195278167,0.0227319784462451,0.10551928066177431,0.032637677651976914
1790173703463482600,3.134482666015625,-0.0321660377085208,-0.0558519139885902,-0.0130696948617696,0.06470777638498405,0.011739287761424282
1790173703473554700,3.1445546875,-0.0217033121734857,-0.0467825904488563,0.0069520291872322,0.051242793525336935,0.009063738188242647
1790173703483626500,3.15462646484375,-0.0144768245518207,-0.0331815592944622,-0.0372364707291126,0.03768520043144493,0.0357347834346032
1790173703493697300,3.164697265625,0.0230093691498041,-0.0106761772185564,-0.0227121207863092,0.0008235747305354296,0.03403783165757039
1790173703503769600,3.17476953125,0.0513155795633792,0.045035820454359,-0.0162174683064222,-0.06184994070491451,0.03315275166545196
1790173703513840400,3.18484033203125,0.0531396269798278,0.0518311895430088,-0.0153737887740135,-0.06880539996916055,0.031819215599231405
1790173703523912400,3.194912353515625,0.0696195363998413,0.0637925118207931,-0.0864700749516487,-0.08370342153328446,0.0968874372594295
1790173703533984500,3.204984619140625,0.1100552380084991,0.0809244811534881,-0.0204260721802711,-0.11906897412311526,0.07000522044141558
1790173703544055600,3.2150556640625,0.1514921635389328,0.107102558016777,-0.0678609684109687,-0.1583885739677094,0.11806356007504508
1790173703554127400,3.22512744140625,0.1227809712290763,0.1429924815893173,-0.0792217329144477,-0.17820220548700044,0.10021014725347657
1790173703564199400,3.235199462890625,0.0920835062861442,0.1733168363571167,-0.1018197163939476,-0.19167773101719604,0.11020435551026685
1790173703574270500,3.2452705078125,0.1178360283374786,0.1884195953607559,-0.0010376474820077,-0.2204009012795855,0.028491979883913703
1790173703584342500,3.255342529296875,0.1460205316543579,0.1810223907232284,-0.067490704357624,-0.2229458762796095,0.0945580934261038
1790173703594414600,3.26541455078125,0.1081112921237945,0.1666471660137176,-0.0402410924434661,-0.19497191182551873,0.05535908728678342
1790173703604485600,3.275485595703125,0.078732892870903,0.1572339534759521,-0.011585209518671,-0.1751644078577848,0.019314032332013623
1790173703614557400,3.285557373046875,0.056568507105112,0.1480698138475418,-0.0431647859513759,-0.15617363129825934,0.05096725813981199
1790173703624629500,3.29562939453125,0.0499343089759349,0.1163353323936462,-0.0355358943343162,-0.12496554770064364,0.04091156865804737
1790173703634700500,3.305700439453125,0.0493959784507751,0.1027330979704856,0.0065469201654195,-0.11415890229975569,0.002158540036700761
1790173703644772600,3.315772705078125,0.0049893646501004,0.0991812422871589,-0.0070533109828829,-0.09154263917980618,0.03913447315414959
1790173703654843600,3.32584375,-0.0640487223863601,0.0736288800835609,-0.0018493044190108,-0.03934358116215022,0.0893249873767463
1790173703664915500,3.33591552734375,-0.1065453141927719,0.0711569339036941,0.0368059463798999,-0.02065762847779993,0.13169340641658725
1790173703674987500,3.345987548828125,-0.1100078672170639,0.0607398748397827,0.0708915963768959,-0.011163178541079274,0.14384736746609003
1790173703685058600,3.35605859375,-0.1407774984836578,0.0426628738641738,0.0424711406230926,0.019412161212366635,0.1518729425162964
1790173703695130600,3.366130615234375,-0.2061086744070053,0.0462181381881237,0.0641822218894958,0.04303180582514005,0.21652834285028216
1790173703705202700,3.37620263671875,-0.246737852692604,0.0232784673571586,0.0334386937320232,0.08228523155249051,0.23615406390895016
1790173703715273700,3.386273681640625,-0.2452353537082672,-0.0129421018064022,-0.0452719889581203,0.11763867531353395,0.2202693164339675
1790173703725345500,3.396345458984375,-0.283835232257843,-0.0126217240467667,-0.0418450310826301,0.13358974033933108,0.2542174952499391
1790173703735417600,3.40641748046875,-0.2705777287483215,-0.0315960384905338,-0.0088033089414238,0.14377164776481532,0.23155523852895996
1790173703745488400,3.41648828125,-0.2465451061725616,-0.0704923048615455,-0.0382355004549026,0.16996303610353086,0.1957758265870418
1790173703755560700,3.426560791015625,-0.2866978347301483,-0.1025452464818954,-0.0260971579700708,0.2154991828729214,0.21668488606777844
1790173703765631500,3.436631591796875,-0.3314088582992553,-0.1243376284837722,-0.044785089790821,0.2549527475880956,0.24959262405174784
1790173703775703600,3.44670361328125,-0.3874099850654602,-0.1542289853096008,-0.0277313124388456,0.30505795904062327,0.28562518053140806
1790173703785775400,3.456775390625,-0.4049410223960876,-0.1773881018161773,-0.0099701583385467,0.3327181971808396,0.2912761157512967
1790173703795846400,3.466846435546875,-0.3780075311660766,-0.207175150513649,0.0139122735708951,0.3472524218589223,0.25577439957441
1790173703805918500,3.47691845703125,-0.3802531063556671,-0.2238955348730087,-0.001176131889224,0.3639485962578354,0.2495284312405641
1790173703815990500,3.486990478515625,-0.4064095616340637,-0.241174429655075,-0.0326057337224483,0.39196762231742543,0.2660044252140288
1790173703826061600,3.4970615234375,-0.4370428323745727,-0.2586756646633148,-0.031729556620121,0.42076289133824113,0.2861553613948015
1790173703836133400,3.50713330078125,-0.4654646515846252,-0.2589859664440155,0.0016164958942681,0.4317380561220009,0.31198707768865913
1790173703846205400,3.517205322265625,-0.4195549488067627,-0.2989395260810852,0.0325493812561035,0.4471259690538617,0.2579322107446631
1790173703856276500,3.5272763671875,-0.4109911024570465,-0.3277563154697418,0.1390081048011779,0.46519216076689274,0.2815268999413804
1790173703866348500,3.5373486328125,-0.4134635627269745,-0.3375687301158905,0.0170371904969215,0.4801190348964688,0.23383914010500775
1790173703876419600,3.547419677734375,-0.4750118851661682,-0.3214922845363617,0.043984118849039,0.4905925232667589,0.30041164906042994
1790173703886491600,3.55749169921875,-0.5132895112037659,-0.3117446005344391,0.0551672652363777,0.497561288361363,0.34077413304418996
1790173703896563500,3.5675634765625,-0.4597172439098358,-0.3522050678730011,0.1177664622664451,0.5088572439545359,0.3005355205183386
1790173703906634500,3.577634521484375,-0.4147473871707916,-0.346531480550766,0.0855019986629486,0.48596354436345357,0.2514945078978326
1790173703916706600,3.58770654296875,-0.4132052958011627,-0.3489865660667419,-0.0081067644059658,0.49136853753534365,0.22617011235504608
1790173703926778600,3.597778564453125,-0.407875508069992,-0.3503564894199371,-0.0286913998425006,0.4911899260449223,0.22060768966407907
1790173703936849700,3.607849609375,-0.3936928212642669,-0.3347392082214355,-0.0541004873812198,0.47208628996035895,0.21703864310781365
1790173703946921500,3.61792138671875,-0.3583508133888244,-0.3487341105937958,-0.0486497953534126,0.46952307729149395,0.17873351064289125
1790173703956993500,3.62799365234375,-0.3759402632713318,-0.3487045168876648,-0.0290840398520231,0.47615874237139455,0.19246988097825568
1790173703967064600,3.638064697265625,-0.3660553991794586,-0.3467303216457367,-0.0656521692872047,0.4716775270654373,0.18986571309885894
1790173703977136600,3.64813671875,-0.3550687730312347,-0.3561320006847381,-0.0730158910155296,0.47582117885657516,0.17840785180577537
1790173703987207400,3.65820751953125,-0.3430512547492981,-0.3766106367111206,-0.130622461438179,0.4916073479216066,0.18682659867020115
1790173703997279500,3.668279541015625,-0.3447510898113251,-0.396121084690094,-0.1466597020626068,0.5106345789515605,0.1911193937051077
1790173704007351600,3.6783515625,-0.3795532882213592,-0.3719246685504913,-0.2189208567142486,0.5064806693863745,0.27164743826966137
1790173704017422300,3.68842236328125,-0.3690631985664367,-0.4023437798023224,-0.1447448581457138,0.5265026086186113,0.20453419948538887
1790173704027494400,3.698494384765625,-0.273405909538269,-0.4278243780136108,0.009129392914474,0.5026450697069945,0.07222028459801615
1790173704037566500,3.70856640625,-0.2593291103839874,-0.4179055392742157,0.0804399847984314,0.48477463630622436,0.11558879875300701
1790173704047637500,3.718637451171875,-0.3361972570419311,-0.4505529701709747,0.0045912889763712,0.5500383352681752,0.11621309841099874
1790173704057709600,3.72870947265625,-0.3882566094398498,-0.4619295299053192,-0.0449772179126739,0.5844551636875586,0.1567073614811712
1790173704067781400,3.738781494140625,-0.3773536384105682,-0.4224819839000702,-0.0788523629307746,0.5455349016738711,0.17174446523040976
1790173704077852400,3.748852294921875,-0.3293823599815368,-0.4174092710018158,-0.1068728491663932,0.521736914288841,0.14810684232193747
1790173704087924500,3.758924560546875,-0.2786805629730224,-0.3915784657001495,-0.0199078526347875,0.4732880742921154,0.08597250902720738
1790173704097995500,3.76899560546875,-0.2808693647384643,-0.3780753016471863,0.0702159479260444,0.4583069039401386,0.1292810694114065
1790173704108067600,3.779067626953125,-0.2735869586467743,-0.3985241055488586,0.1177467182278633,0.47176416760726947,0.15803210578980936
1790173704118139400,3.789139404296875,-0.2728478610515594,-0.3806087672710418,0.0715301111340522,0.45714041621737433,0.12429073040033477
1790173704128210400,3.79921044921875,-0.2678238153457641,-0.3709138035774231,0.0593458823859691,0.44673832671303215,0.11512361596320075
1790173704138282500,3.809282470703125,-0.2493812888860702,-0.3663862347602844,0.0234516393393278,0.4362880367062024,0.08144095212511396
1790173704148354600,3.8193544921875,-0.2886187136173248,-0.3513503074645996,0.0211312267929315,0.43943439897672976,0.11870862709728634
1790173704158425600,3.829425537109375,-0.2553386688232422,-0.351146399974823,0.046215996146202,0.424097570641135,0.10382099444609913
1790173704168497700,3.83949755859375,-0.2026645392179489,-0.3780262172222137,0.1270655840635299,0.42274189365534554,0.14632733977578583
1790173704178569500,3.849569580078125,-0.1389347314834594,-0.3906116485595703,0.1697873920202255,0.4053278427817852,0.1908334822763038
1790173704188640500,3.859640625,-0.1562311500310897,-0.3715612590312958,0.1292839050292968,0.39709718674766037,0.1466086417291848
1790173704198712600,3.869712646484375,-0.191416323184967,-0.3534360229969024,0.0372386015951633,0.39940880189208133,0.05845129214494817
1790173704208783600,3.87978369140625,-0.192147359251976,-0.3555788099765777,0.0463378243148326,0.40128416586332327,0.06689626268691114
1790173704218855700,3.889855712890625,-0.0971205085515976,-0.3529194891452789,0.0952444523572921,0.35654469437204056,0.12622181118916895
1790173704228927500,3.899927490234375,-0.0252561680972576,-0.3558247089385986,0.1465382725000381,0.32657067069877566,0.20511986706519322
1790173704238998500,3.90999853515625,-0.0630306303501129,-0.3967304527759552,0.1612566113471985,0.37899951232270346,0.2091195277454531
1790173704249070300,3.9200703125,-0.1135462671518325,-0.417329728603363,0.1173972710967063,0.4208694957215068,0.15397351717860447
1790173704259142700,3.930142578125,-0.0719114020466804,-0.411285251379013,0.0282267071306705,0.40138923955827943,0.11836483053882178
1790173704269213400,3.94021337890625,0.0067794132046401,-0.412899374961853,0.1377364248037338,0.3649629602456266,0.23728719867230919
1790173704279285000,3.950284912109375,0.0425861179828643,-0.4309275448322296,0.1832394897937774,0.3642083683173053,0.29739048641056703
1790173704289357000,3.960357177734375,0.0181545447558164,-0.4476535320281982,0.2283782064914703,0.3878553386631058,0.32007516883288545
1790173704299428000,3.970427978515625,-0.0269799269735813,-0.4484985768795013,0.2307113856077194,0.40767865555095917,0.29816899097597965
1790173704309500000,3.9805,-0.0123794125393033,-0.440488338470459,0.1931320577859878,0.3957777273501379,0.2735748681101645
1790173704319571000,3.990571044921875,0.0396365709602832,-0.4164980053901672,0.0983283594250679,0.3558898996567544,0.24094084718247322
1790173704329643000,4.00064306640625,0.0755974948406219,-0.3944424986839294,0.0654851868748664,0.32202495718039587,0.24877319519433733
1790173704339715000,4.010715087890625,0.0782788917422294,-0.3701606094837188,0.1222161501646041,0.2965963904385781,0.2647901626677499
1790173704349786000,4.0207861328125,0.1084865927696228,-0.3147631287574768,0.0659675300121307,0.23597336362762295,0.24395379626094135
1790173704359858000,4.03085791015625,0.1986101865768432,-0.2707491815090179,0.067397765815258,0.15785433916995173,0.3039335321118711
1790173704369930000,4.040929931640625,0.2571499347686767,-0.2258802503347396,-0.0002638380683492,0.09519910703309896,0.32876310023092037
1790173704380000800,4.051000732421875,0.2755264937877655,-0.2285262942314148,0.0257494188845157,0.0887270159039347,0.3477494286922639
1790173704390072800,4.06107275390625,0.25220388174057,-0.1904806345701217,0.0978739410638809,0.061253003286908456,0.32514158152865913
1790173704400145200,4.071145263671875,0.3302479088306427,-0.1501891762018203,0.08975400775671,-0.007980765219070957,0.37364764047174653
1790173704410216000,4.0812158203125,0.4029191732406616,-0.0818348824977874,-0.0719299614429473,-0.09402131269673973,0.40666290741882366
1790173704420287700,4.091287841796875,0.4305585324764251,-0.0451928973197937,-0.0151894185692071,-0.14122250837787836,0.4095240767285129
1790173704430358800,4.10135888671875,0.4471713304519653,-0.0447377637028694,-0.086369588971138,-0.14576555760172538,0.4337923171235469
1790173704440430800,4.111430908203125,0.4231410622596741,-0.0086020855233073,-0.0596249289810657,-0.1693506437896203,0.39242559301048896
1790173704450503000,4.1215029296875,0.4577906429767608,-0.0004839715547859,0.0268380586057901,-0.19494447629835696,0.4150776307825189
1790173704460574000,4.131573974609375,0.50606369972229,0.0334437713027,-0.0689139291644096,-0.2421938459580358,0.45089935088497507
1790173704470646000,4.14164599609375,0.514351487159729,0.0709032639861106,-0.0481189079582691,-0.2804478608625838,0.4396011281013803
1790173704480717800,4.1517177734375,0.5072957277297974,0.1073856055736541,-0.020471790805459,-0.3115873379200168,0.4149856006225094
1790173704490788900,4.161788818359375,0.5330644845962524,0.1272437274456024,-0.0566300600767135,-0.3390032380851992,0.4343184076045602
1790173704500861000,4.17186083984375,0.5632436275482178,0.1468532532453537,-0.0519683845341205,-0.36973993075496003,0.4525509458158529
1790173704510933000,4.18193310546875,0.5813278555870056,0.1743136346340179,-0.0567514225840568,-0.4020578531571556,0.4581457470943953
1790173704521004000,4.192004150390625,0.5378401279449463,0.1796126514673233,-0.1447071284055709,-0.38478846074198714,0.4409202890389111
1790173704531075800,4.202075927734375,0.495978444814682,0.1717928051948547,-0.0832863673567771,-0.36246807514819424,0.38866553632057327
1790173704541147000,4.21214697265625,0.4761379957199096,0.1744184643030166,-0.0751316994428634,-0.35675743733897247,0.36810065854667684
1790173704551219000,4.222218994140625,0.4459830224514007,0.1537946760654449,-0.0734863951802253,-0.32537218596605955,0.34940928662131165
1790173704561291000,4.232291015625,0.4136161208152771,0.1404317021369934,-0.0857326388359069,-0.29904632590590285,0.32972828008425326
1790173704571362000,4.242362060546875,0.3696918189525604,0.1363445520401001,-0.0775532722473144,-0.2770436842318627,0.2907287136403459
1790173704581434000,4.25243408203125,0.3606093823909759,0.0932372063398361,-0.0630212351679802,-0.23479234589733197,0.29593332645138787
1790173704591506000,4.262505859375,0.3506403863430023,0.0665794983506202,-0.0655067637562751,-0.20634643573811,0.2984858366679877
1790173704601577000,4.272576904296875,0.2980737090110779,0.0508573129773139,0.0130342775955796,-0.17303696027750248,0.24831936101974375
1790173704611649000,4.28264892578125,0.2481271922588348,0.0303717479109764,0.0516991168260574,-0.1348955001886793,0.21671536475031258
1790173704621721000,4.29272119140625,0.2291703075170517,0.0002498659305274,0.0657016709446907,-0.10017784176050593,0.21633354308931088
1790173704631791900,4.3027919921875,0.2544173300266266,-0.0410304628312587,0.0320712700486183,-0.072173168038838,0.24946197480937607
1790173704641864000,4.312864013671875,0.2467680871486663,-0.0550155751407146,0.0188415963202714,-0.05573414647191523,0.24732552034114585
1790173704651935000,4.32293505859375,0.2040280699729919,-0.0879354476928711,0.019668772816658,-0.007851951597812407,0.22290200487673648
1790173704662006800,4.3330068359375,0.2042545229196548,-0.1030844077467918,-0.0264048594981431,0.00764432346147742,0.23018489563300107
1790173704672078800,4.343078857421875,0.218419075012207,-0.0837626382708549,-0.0243235994130373,-0.015929832719225295,0.23465069745736022
1790173704682150000,4.35314990234375,0.2056902348995208,-0.0617454200983047,-0.0496384352445602,-0.0294054224947626,0.21844968532265976
1790173704692222000,4.363221923828125,0.2337538301944732,-0.0823002308607101,-0.0089402757585048,-0.024391404600906066,0.2467775699745538
1790173704702293800,4.373293701171875,0.2923892140388489,-0.0773037001490593,0.0843022838234901,-0.05761895322242236,0.3086328657651353
1790173704712364800,4.38336474609375,0.2830481827259063,-0.0735441148281097,0.0665166303515434,-0.05632609858478692,0.2945790951541351
1790173704722436900,4.393436767578125,0.3105937838554382,-0.0718263760209083,0.0418416410684585,-0.06855808472357115,0.31413060788193325
1790173704732508000,4.4035078125,0.3464522957801819,-0.0333785898983478,-0.0030671791173517,-0.11671242352623526,0.3279191078563909
1790173704742580000,4.413580078125,0.3301242589950561,-0.0128932632505893,-0.0402461886405944,-0.12678835363552488,0.3077218414360139
1790173704752652000,4.423652099609375,0.3592384755611419,-0.022211130708456,-0.0194663405418396,-0.13156778494490257,0.3355807995544799
1790173704762723000,4.43372314453125,0.4089109301567077,-0.0179235115647315,0.0168019961565732,-0.15801392223986904,0.37794617146050447
1790173704772795000,4.443794921875,0.4513175189495086,0.0053794151172041,0.0171623229980468,-0.19710429701759227,0.40639990458369124
1790173704782867000,4.453866943359375,0.4569836854934692,0.029803067445755,0.0689737722277641,-0.22372606289217808,0.40549518082766756
1790173704792938000,4.46393798828125,0.4369740188121795,0.0591859929263591,0.0113464314490556,-0.23944933281529185,0.37046191895589725
1790173704803010000,4.474010009765625,0.4649830460548401,0.0845019146800041,-0.0013174661435186,-0.2737162898079588,0.38526735537004564
1790173704813081900,4.484081787109375,0.4870838224887848,0.1317879408597946,0.0053167343139648,-0.3261402879489399,0.38507076197330087
1790173704823153000,4.49415283203125,0.4971222579479217,0.1513799428939819,-0.0219343304634094,-0.3470049463313264,0.3874469105984671
1790173704833225000,4.504224853515625,0.5561155676841736,0.1902839392423629,-0.0070608416572213,-0.4078416654045645,0.42330548496236314
1790173704843296000,4.5142958984375,0.6334218978881836,0.2420736849308014,0.0599462315440177,-0.49024394011845474,0.47231070230697425
1790173704853368000,4.5243681640625,0.6717581152915955,0.2916992604732513,0.0544087179005146,-0.5511751989466955,0.48529746822995734
1790173704863440100,4.534440185546875,0.6746808886528015,0.3327251374721527,0.0346907190978527,-0.5887169803709931,0.469591398594121
1790173704873511000,4.544510986328125,0.68960040807724,0.3848205506801605,0.0381767973303794,-0.6423145621348203,0.4610043927882215
1790173704883582700,4.554582763671875,0.6937476992607117,0.4383971691131592,0.0092062419280409,-0.6913493689197897,0.44226547807918354
1790173704893654800,4.56465478515625,0.695297122001648,0.4737181663513183,-0.0741794630885124,-0.7205370879606581,0.44065393066703107
1790173704903725800,4.574725830078125,0.6931027173995972,0.5185604095458984,-0.0999843850731849,-0.7591096757543929,0.4278383487365747
1790173704913798000,4.5847978515625,0.6868520379066467,0.5379655361175537,-0.0221527069807052,-0.7772015766343601,0.3970152285875169
1790173704923870000,4.594869873046875,0.6913378238677979,0.546630859375,0.0407985597848892,-0.7895250159395825,0.393786813920218
1790173704933941000,4.60494091796875,0.7118399143218994,0.5734416842460632,0.0390451326966285,-0.8224057355848122,0.4009049230394558
1790173704944012800,4.6150126953125,0.6741095185279846,0.5876705050468445,0.0980884432792663,-0.82168526549094,0.3663808573766888
1790173704954083800,4.625083740234375,0.6326696872711182,0.5607662200927734,0.0923384130001068,-0.7795265422095567,0.33999182239439457
1790173704964156000,4.635156005859375,0.6009682416915894,0.547348141670227,0.0829025655984878,-0.753548498366446,0.31589604572424995
1790173704974228000,4.64522802734375,0.5634117722511292,0.582466185092926,0.0189046747982502,-0.7667515455699799,0.2629622329977055
1790173704984299000,4.655299072265625,0.5186371803283691,0.5706337690353394,-0.0003291670291218,-0.7362579089200839,0.22919821789446085
1790173704994370800,4.665370849609375,0.4520267844200134,0.543026864528656,0.0081689804792404,-0.6833657865232379,0.17967838903014216
1790173705004443000,4.67544287109375,0.3692160844802856,0.5319015979766846,0.0781735554337501,-0.6410291395262726,0.12013564839989886
1790173705014514000,4.685513916015625,0.3168902993202209,0.4843292832374573,0.1050874590873718,-0.5768947282204502,0.11502244569413916
1790173705024586000,4.6955859375,0.2953386604785919,0.4555750489234924,0.0743153989315033,-0.5404768792922,0.09044927331849897
1790173705034657000,4.705656982421875,0.2353006452322006,0.4434536695480346,0.080109104514122,-0.5042705448295114,0.06439127988873636
1790173705044729000,4.71572900390625,0.1611219048500061,0.3931556344032287,0.1127807199954986,-0.42863252152131537,0.09759750705054834
1790173705054801000,4.72580078125,0.0915782451629638,0.3372415006160736,0.0670694261789321,-0.3466672213111087,0.08024057777281413
1790173705064872000,4.735871826171875,0.050727479159832,0.3064242005348205,0.076707936823368,-0.30185002208993716,0.10601763792557026
1790173705074944000,4.745944091796875,-0.0117646604776382,0.2652631998062134,0.0351810045540332,-0.23639386092738565,0.12593100493865653
1790173705085016000,4.75601611328125,-0.0590454153716564,0.2152165472507476,0.0263516716659069,-0.17069659294473527,0.14615610505070192
1790173705095087000,4.766087158203125,-0.1113823875784874,0.170675978064537,0.0585455633699893,-0.10951632184460589,0.18157666147087523
1790173705105159200,4.7761591796875,-0.1854663044214248,0.119413711130619,0.0945758074522018,-0.03318407437717864,0.23769893782828175
1790173705115231000,4.78623095703125,-0.2748339772224426,0.0905501097440719,0.0897996947169303,0.031047098776215323,0.3013853019631239
1790173705125301800,4.7963017578125,-0.3191312849521637,0.0458973012864589,0.0946823507547378,0.09003691879399604,0.32374286107824163
1790173705135373800,4.806373779296875,-0.3237031400203705,-0.0013780682347714,0.0641348287463188,0.13599281529691765,0.3006739968421701
1790173705145444900,4.81644482421875,-0.3411937057971954,-0.0311107747256755,0.0682392418384552,0.17014205528385654,0.30510539216822624
1790173705155517000,4.826516845703125,-0.3713177740573883,-0.0409215949475765,0.0889988467097282,0.19094947903590642,0.33318246867979834
1790173705165588700,4.836588623046875,-0.3470556437969208,-0.0808007046580314,0.082227922976017,0.21700320871789078,0.2943593254639963
1790173705175659800,4.84665966796875,-0.3488791286945343,-0.0918440371751785,0.0543281100690364,0.2289104400872896,0.2840836629692206
1790173705185731800,4.85673193359375,-0.3422985374927521,-0.1064778044819831,0.0520076565444469,0.2394498429007978,0.2717984192209528
1790173705195804000,4.866803955078125,-0.324847400188446,-0.1016372442245483,0.0232479143887758,0.22884460138286508,0.2530347343036095
1790173705205875000,4.876875,-0.3241738677024841,-0.0865525677800178,-0.0469721853733062,0.21779348292143572,0.2595234642304945
1790173705215947000,4.886947021484375,-0.2823435962200165,-0.0733307674527168,-0.0475668683648109,0.1881057423389008,0.22797838592029387
1790173705226018800,4.897018798828125,-0.2351570278406143,-0.0375647693872451,-0.0586027130484581,0.13618064745369746,0.20395844889996595
1790173705236089900,4.90708984375,-0.1732928603887558,-0.035318125039339,-0.0187128204852342,0.10625812417272937,0.14260843634167167
1790173705246162000,4.917161865234375,-0.1349405199289322,-0.0331290401518344,-0.0565871074795722,0.08955478621653748,0.12036826084432442
1790173705256233000,4.92723291015625,-0.1095315665006637,-0.0026696664281189,-0.0576307997107505,0.051262242481001634,0.11268443881054016
1790173705266305000,4.937304931640625,-0.0689184963703155,0.0241284482181072,-0.0678731650114059,0.010206238023805887,0.09916925122953194
1790173705276377000,4.947377197265625,-0.0121508240699768,0.0351241081953048,-0.0468088872730731,-0.024695313741866384,0.05442939379626652
1790173705286448000,4.9574482421875,0.0193536318838596,0.0614220052957534,-0.0328308641910553,-0.06242646868902887,0.036442110973387926
1790173705296520000,4.96752001953125,0.066038578748703,0.0703185647726059,-0.0032370195258408,-0.09150005112002355,0.03072480065470841
1790173705306592000,4.977592041015625,0.0562216825783252,0.0880688428878784,-0.0819725915789604,-0.10016110894757578,0.08720238932569833
1790173705316663000,4.9876630859375,0.0407966561615467,0.0885918885469436,-0.0073348418809473,-0.0971487382626095,0.011349556364855339
1790173705326735000,4.997735107421875,0.0601902939379215,0.1055305898189544,0.0081869410350918,-0.1213376261751399,0.010187411327901708
1790173705336806100,5.00780615234375,0.0736171528697013,0.1113160401582717,-0.0317684672772884,-0.13063059582825834,0.04190022601205489
1790173705346878000,5.0178779296875,0.0746934562921524,0.1426771283149719,-0.0113736698403954,-0.16029140310917378,0.019284755948813834
1790173705356950000,5.027949951171875,0.0649444237351417,0.1644585728645324,0.0244341287761926,-0.17732483021969556,0.020428695492763438
1790173705367021000,5.03802099609375,0.00210089283064,0.1987987607717514,-0.0523799993097782,-0.17856713061532023,0.10189605108429574
1790173705377093000,5.048093017578125,-0.0038094604387879,0.2019479423761367,-0.0198297817260026,-0.18024224455677826,0.09329221263977797
1790173705387165200,5.058165283203125,0.0432207807898521,0.2061369717121124,0.0097598154097795,-0.20520399335996095,0.04844648702107025
1790173705397236200,5.068236328125,0.0455877967178821,0.2069889158010482,-0.0703033208847045,-0.20369594186829101,0.09150507454721783
1790173705407308000,5.07830810546875,0.0361928902566432,0.2084636986255645,-0.0760994404554367,-0.20080516862724226,0.10117039112306991
1790173705417380000,5.088380126953125,0.0191899370402097,0.204858586192131,-0.0205349791795015,-0.19260686017979056,0.07523015885820744
1790173705427451100,5.098451171875,-0.0161416493356227,0.2131183296442031,0.0220179446041584,-0.18682885334899316,0.10611194425936042
1790173705437523200,5.108523193359375,-0.0103348931297659,0.2033210843801498,0.0534293986856937,-0.18171919369383674,0.10620314805456725
1790173705447594200,5.11859423828125,0.0138484947383403,0.1859317421913147,0.1063741222023963,-0.17842398657845468,0.1193429027994422
1790173705457666000,5.128666015625,-0.0256299395114183,0.1803478896617889,0.0709516853094101,-0.15516626753463633,0.11891100105724015
1790173705467738000,5.138738037109375,-0.0658713728189468,0.1571323275566101,0.0963862016797065,-0.11813157886592787,0.15609239593681243
1790173705477809000,5.148808837890625,-0.0706144645810127,0.1461715549230575,0.0641781985759735,-0.10488330616294066,0.1395380211178138
1790173705487881000,5.158880859375,-0.079723335802555,0.1453006267547607,0.0436606667935848,-0.09938841610164134,0.13962907640058592
1790173705497953300,5.168953369140625,-0.0856057256460189,0.1164585873484611,0.0238917544484138,-0.06999222778839452,0.12869672416352093
1790173705508024000,5.179024169921875,-0.1057943403720855,0.0992572084069252,-0.0003767641028389,-0.04486966989977058,0.13795394358181745
1790173705518096000,5.189095947265625,-0.1216247007250785,0.0733017697930336,0.0351231731474399,-0.01612919609150089,0.14539327221932505
1790173705528167000,5.1991669921875,-0.1620102226734161,0.0563840642571449,0.0870259776711463,0.01418450583748744,0.19183012155709245
1790173705538239000,5.209239013671875,-0.2124901711940765,0.027537502348423,0.0535117015242576,0.06307520181849331,0.2116492570392226
1790173705548311000,5.21931103515625,-0.2246600091457367,-0.019681317731738,0.0413419716060161,0.11145081962858747,0.2003680298785433
1790173705558382000,5.229382080078125,-0.240196093916893,-0.0469795167446136,0.0821498557925224,0.14106333312176667,0.21621973402490352
1790173705568454100,5.2394541015625,-0.2580760717391968,-0.0658707469701767,0.0420038290321826,0.167385787045122,0.21139662736049972
1790173705578526000,5.24952587890625,-0.2593378722667694,-0.0730639472603797,0.0161535888910293,0.17548795764180414,0.2050838548932887
1790173705588597000,5.259596923828125,-0.2524158358573913,-0.1042723357677459,0.0512233190238475,0.1993417466218263,0.19357988186695824
1790173705598669000,5.2696689453125,-0.2609472870826721,-0.1326397955417633,0.0668054819107055,0.22798321748291311,0.19538021127183686
1790173705608740000,5.279739990234375,-0.2588531970977783,-0.140297383069992,0.0147195570170879,0.2361571125447301,0.17645060752897487
1790173705618812200,5.289812255859375,-0.2551048099994659,-0.1343404203653335,0.0136335203424096,0.2292224975405483,0.17541018250659887
1790173705628884000,5.299884033203125,-0.2546629011631012,-0.1536971032619476,0.0474613010883331,0.24515684974026997,0.17500481966604614
1790173705638955000,5.309955078125,-0.2687278389930725,-0.1334789246320724,0.0129142422229051,0.23425420179992362,0.18794419746854032
1790173705649027000,5.320027099609375,-0.2791832089424133,-0.1095191538333892,-0.033702827990055,0.2189301958489283,0.2077093141191359
1790173705659099100,5.33009912109375,-0.2581511437892914,-0.0972744673490524,-0.0121799623593688,0.1980458582196809,0.192433169081806
1790173705669170200,5.340170166015625,-0.2357939630746841,-0.0941385775804519,-0.0228133201599121,0.18615717880178856,0.17414596512297897
1790173705679242200,5.3502421875,-0.2296449840068817,-0.0516206808388233,-0.061052318662405,0.1466561273085652,0.19396102522593134
1790173705689314000,5.36031396484375,-0.2051431387662887,-0.0239977538585662,-0.0587148293852806,0.11117560551585944,0.1837036077519049
1790173705699385000,5.370385009765625,-0.1789597421884536,0.0246749743819236,-0.0745318681001663,0.05668531950073426,0.18702197090317121
1790173705709457200,5.38045703125,-0.1799210160970688,0.0463539846241474,-0.0122622828930616,0.034929973784630676,0.18289484529940112
1790173705719528000,5.39052783203125,-0.1006134152412414,0.050103448331356,-0.0039947656914591,-0.002457975907414117,0.11244256920120405
1790173705729600000,5.40060009765625,-0.0668331980705261,0.0605864822864532,-0.0101419165730476,-0.026024308286716327,0.0869654646980828
1790173705739672000,5.410672119140625,-0.0902274698019027,0.0880071893334388,0.0096357828006148,-0.04171047325888303,0.11932873254973271
1790173705749743000,5.4207431640625,-0.1703567951917648,0.0915834903717041,0.063644528388977,-0.013154130717615412,0.2031909648965527
1790173705759815000,5.43081494140625,-0.0948758795857429,0.0417890362441539,0.0386965721845626,0.0008771991722288652,0.11065446804278126
1790173705769887000,5.440886962890625,-0.0321288332343101,0.0724072903394699,0.0215530395507812,-0.05274474642597672,0.06290948146058234
1790173705779958000,5.4509580078125,-0.0452060215175151,0.0811392664909362,0.0044334414415061,-0.05439139706778963,0.07542145766397325
1790173705790030000,5.461030029296875,-0.076633334159851,0.0749987810850143,0.0080796154215931,-0.03564910831795857,0.10144903316537122
1790173705800101000,5.47110107421875,-0.0562356486916542,0.1157613918185234,-0.0074593974277377,-0.08054029781714842,0.10065808987380409
1790173705810173000,5.4811728515625,0.0029531044419854,0.1299760192632675,-0.0791189298033714,-0.11557864817657303,0.09901448150789519
1790173705820245000,5.491244873046875,0.0401611924171447,0.1073668375611305,-0.0391073375940322,-0.11255902282132334,0.044725936764337504
1790173705830316000,5.50131591796875,0.0092829512432217,0.0993767157196998,0.055050354450941,-0.09608834564734835,0.06131456733067609
1790173705840388000,5.51138818359375,-0.0212696325033903,0.0836566090583801,0.1474657654762268,-0.07269226518715653,0.15463767999884617
1790173705850460200,5.521460205078125,-0.0230393484234809,0.0936230644583702,0.0674409493803978,-0.07767473427354121,0.08837990203218621
1790173705860531200,5.53153125,0.0002215000276919,0.1113354787230491,0.0521187111735343,-0.10293984312838936,0.06719662667013622
1790173705870603000,5.54160302734375,0.0029375997837632,0.0575273931026458,0.0115724634379148,-0.05375768256238249,0.02370788740524759
1790173705880675000,5.551675048828125,-0.0773284807801246,-0.0261885412037372,0.1300117522478103,0.051174777981609965,0.1447402205719643
1790173705890746000,5.56174609375,-0.2059129029512405,-0.0348584242165088,0.1673221588134765,0.11205702450834533,0.2430126775067577
1790173705900818200,5.571818115234375,-0.1973777264356613,-0.0260295122861862,0.0875743329524993,0.10371887088561924,0.19117312054014005
1790173705910889200,5.58188916015625,-0.0957186967134475,-0.0404655486345291,-0.0033033394720405,0.07736063518914255,0.06946778895009056
1790173705920961000,5.5919609375,-0.0873901918530464,-0.0682383254170417,-0.027031572535634,0.09992102572558914,0.055136278615170696
1790173705931033000,5.602033203125,-0.2197567373514175,-0.0627410486340522,-0.0209099613130092,0.15087243981151977,0.17292829780712957
1790173705941104000,5.612104248046875,-0.2899688482284546,-0.0952750295400619,0.0094687165692448,0.20885260981893936,0.22277681244259412
1790173705951176200,5.62217626953125,-0.276155561208725,-0.0959934294223785,-0.0238191466778516,0.20500528360084141,0.2098018539550463
1790173705961248300,5.632248291015625,-0.2193732410669326,-0.0619305372238159,-0.0292623825371265,0.15031905403748116,0.17384038472710217
1790173705971319000,5.642319091796875,-0.136518508195877,-0.1204820349812507,-0.0159423649311065,0.16757291292147702,0.0729842564383491
1790173705981390800,5.652390869140625,-0.2001270502805709,-0.1580027788877487,0.1372061669826507,0.22222684955848926,0.18562455113382104
1790173705991462000,5.6624619140625,-0.3282410800457001,-0.1138658598065376,0.114997312426567,0.23758380153225922,0.2783630000087355
1790173706001534000,5.672533935546875,-0.2526169121265411,-0.070449411869049,0.0072090607136487,0.17063746699053448,0.19928183394497054
1790173706011606000,5.68260595703125,-0.1276758760213852,-0.0942011103034019,0.0501689054071903,0.13733668611805092,0.0939709115422926
1790173706021677000,5.692677001953125,-0.1244662404060363,-0.0818648114800453,0.0032663780730217,0.12673911473525543,0.07836809542994047
1790173706031749000,5.7027490234375,-0.136250615119934,-0.073713295161724,0.0514440163969993,0.12239116453822263,0.10800356322914663
1790173706041821000,5.712821044921875,-0.093447208404541,-0.0525534115731716,0.0430987328290939,0.08542787321369405,0.07780630486174955
1790173706051892000,5.72289208984375,-0.0601138025522232,0.0362593904137611,-0.1001295670866966,-0.0031806693822059653,0.12224657949290688
1790173706061964000,5.732964111328125,-0.019111244007945,0.0772760659456253,-0.1730668842792511,-0.05469239158606487,0.18247662522166525
1790173706072035000,5.74303515625,-0.0680124312639236,0.0510583147406578,-0.1071809977293014,-0.012925782758041373,0.1362106189873845
1790173706082107100,5.753107177734375,-0.0709877163171768,0.0035113031044602,-0.0403175428509712,0.028603647047284044,0.07654358728563523
1790173706092179000,5.763178955078125,-0.0494292937219142,-0.0101137524470686,-0.0163436606526374,0.03079590652284899,0.043177198280717186
1790173706102250000,5.77325,-0.039418738335371,0.0525975674390792,-0.1118755117058754,-0.026260474582758025,0.12707029010197748
1790173706112322000,5.783322021484375,-0.0595863088965415,0.0441346652805805,-0.0695143491029739,-0.011783579939059999,0.10095439001040446
1790173706122394000,5.79339404296875,-0.0797933116555213,0.0015081064775586,-0.068284772336483,0.03529951987119396,0.09892421847056108
1790173706132465200,5.803465087890625,-0.0885311439633369,-0.0093397470191121,-0.0827827528119087,0.04941472909995548,0.11106828096686149
1790173706142537200,5.813537109375,-0.1578819900751114,-0.0138636585325002,0.0223335456103086,0.0786280366258521,0.13941069877837473
1790173706152608300,5.823608154296875,-0.2074900716543197,-0.0365417897701263,0.0174954924732446,0.12039311432305047,0.173778659550582
1790173706162680000,5.83368017578125,-0.0761831924319267,-0.0627949684858322,-0.0274757090955972,0.09025931112034388,0.04853100269563241
1790173706172752100,5.843752197265625,-0.0222693998366594,-0.071478895843029,-0.045546893030405,0.07597495815724963,0.04367475149043114
1790173706182823000,5.853822998046875,-0.1482883244752884,-0.0871651768684387,0.0425755120813846,0.14003143043531668,0.10858668405207793
1790173706192895200,5.863895263671875,-0.2717173397541046,-0.0642247125506401,-0.0522653348743915,0.17555185459128558,0.2233121985122001
1790173706202967000,5.873967041015625,-0.2209995836019516,-0.0575902499258518,-0.0610399171710014,0.14838637578700684,0.1840239327038686
1790173706213038000,5.8840380859375,-0.1596802026033401,-0.0472005605697631,-0.0976798310875892,0.11446757990833298,0.15544832766155117
1790173706223110000,5.89410986328125,-0.1099462136626243,-0.1084050610661506,-0.0317495502531528,0.1460198872515044,0.05938058295300488
1790173706233181000,5.904180908203125,-0.1096233502030372,-0.0904735624790191,-0.0747363045811653,0.13142571432009084,0.09227969037272114
1790173706243253000,5.9142529296875,-0.1562257409095764,-0.0905441418290138,-0.054720252752304,0.1504463216652358,0.11386366453340187
1790173706253325000,5.924324951171875,-0.2353402823209762,-0.1200485900044441,-0.0027152292896062,0.2085773775491362,0.16217139849490145
1790173706263396000,5.93439599609375,-0.2811535596847534,-0.1525016129016876,0.0471636466681957,0.25533003992112274,0.1983306490231518
1790173706273468200,5.94446826171875,-0.2170199751853943,-0.1481861919164657,0.0332491211593151,0.22477948855855323,0.14013030609184726
1790173706283540200,5.954540283203125,-0.1831685304641723,-0.1442670822143554,0.0002118090633302,0.20822303618393673,0.10491383907030705
1790173706293611300,5.964611328125,-0.208888977766037,-0.1847091764211654,-0.0248741805553436,0.2567491713080007,0.1115825827684583
1790173706303683300,5.974683349609375,-0.2111590653657913,-0.2409522086381912,0.0483939088881015,0.3055826723141222,0.10773726622022034
1790173706313754400,5.98475439453125,-0.2478331476449966,-0.2162899374961853,0.1405471861362457,0.2950595029011845,0.20222761288274355
1790173706323826400,5.994826416015625,-0.2675234973430633,-0.1615137606859207,0.0587599128484725,0.2572219856960341,0.18693606916302205
1790173706333898200,6.004898193359375,-0.2052021026611328,-0.1674982011318206,0.0167621504515409,0.23790888684499537,0.1176600253564531
1790173706343969300,6.01496923828125,-0.1425922513008117,-0.1668843477964401,-0.0734194070100784,0.21448079264929243,0.08701341609613886
1790173706354041300,6.025041259765625,-0.1466763168573379,-0.1602741032838821,-0.063591256737709,0.20983169720115186,0.0849484366745618
1790173706364113400,6.035113525390625,-0.1072301119565963,-0.1215501427650451,-0.0067000114358961,0.15573036470565982,0.04544972803340339
1790173706374184400,6.045184326171875,-0.0623685307800769,-0.1199389845132827,0.038857378065586,0.13336598326459792,0.04470574879969848
1790173706384256300,6.05525634765625,-0.0145956836640834,-0.1439175605773925,0.0425035133957862,0.1346319873511297,0.06786806949545901
1790173706394328300,6.065328369140625,-0.0449399128556251,-0.1021313965320587,0.0360597521066665,0.10997631700445981,0.04069316091419527
1790173706404399000,6.075399169921875,-0.0600688010454177,-0.0491446107625961,0.0270089972764253,0.06883878992939246,0.04487940018511805
1790173706414471200,6.08547119140625,0.0007145685958676,-0.0327269211411476,-0.0258889626711606,0.030361548180456065,0.02863523626463881
1790173706424542200,6.095542236328125,0.038009475916624,-0.0162134561687707,-0.0401874743402004,0.0001830572014933328,0.05764196391777709
1790173706434614300,6.1056142578125,0.0363759845495224,-0.0537173710763454,0.0617291070520877,0.03062110242329477,0.08415223675655376
1790173706444686000,6.11568603515625,0.0524825155735015,-0.0928903371095657,0.1487987637519836,0.05564904418825057,0.17443418570998157
1790173706454757000,6.125757080078125,0.1102184280753135,0.0225517824292182,-0.0063759814947843,-0.06691333883940259,0.09066390132524066
1790173706464829200,6.1358291015625,0.155228778719902,0.0760496258735656,-0.0200505144894123,-0.1338460122451542,0.11120605862875355
1790173706474901200,6.1459013671875,0.0877030342817306,0.0302698966115713,0.0175392962992191,-0.065320173064157,0.06818350803997993
1790173706484972300,6.15597216796875,0.0939966216683387,0.000822524074465,-0.0283501651138067,-0.03947264396672922,0.08989818502711729
1790173706495044400,6.16604443359375,0.1889168620109558,0.0565713942050933,-0.0668592229485511,-0.12860432323846688,0.16377114254970127
1790173706505115400,6.176115478515625,0.1183377653360366,0.0614441782236099,0.0638798773288726,-0.10842028003255091,0.10052310852493895
1790173706515187200,6.186187255859375,0.0431622005999088,0.0539115779101848,0.0178285147994756,-0.0678144526874906,0.02210180399976235
1790173706525259300,6.19625927734375,0.0567043758928775,0.0702644512057304,-0.0590572096407413,-0.08520069731223912,0.06618968602963676
1790173706535330300,6.206330322265625,0.1219969540834426,-0.0014936607331037,0.0858925655484199,-0.05394543980277831,0.13911473742561445
1790173706545402400,6.21640234375,0.0276304986327886,-0.0173213593661785,0.038561537861824,0.002360617762889287,0.05044693876773148
1790173706555474200,6.22647412109375,-0.0209989547729492,-0.0304718408733606,0.0705097168684005,0.033583611571284734,0.07220284201095445
1790173706565545200,6.236545166015625,-0.0522386319935321,-0.0284377168864011,0.0826249718666076,0.044504623928039416,0.0915631085058183
1790173706575617300,6.2466171875,-0.0692674741148948,-0.0343793258070945,0.0404275059700012,0.05883640286809105,0.06444053033383682
1790173706585688300,6.256688232421875,-0.0346762053668499,-0.0228294618427753,-0.0764770060777664,0.038502785741124534,0.07803775685824432
1790173706595760400,6.266760498046875,0.0327763780951499,-0.0396345369517803,-0.0824189633131027,0.025321303136840015,0.09379181521581231
1790173706605832400,6.27683251953125,-0.0224621091037988,-0.1096751391887664,0.030850600451231,0.10747427858453908,0.043979785042683184
1790173706615903500,6.286903564453125,-0.1498275250196457,-0.0999543368816375,-0.0394584462046623,0.15561712737107009,0.09889102770536269
1790173706625975300,6.296975341796875,-0.1785308122634887,-0.0675420686602592,-0.0275264214724302,0.13799066927543524,0.1347273581659031
1790173706636047400,6.30704736328125,-0.1309566348791122,-0.0565060786902904,-0.0270829461514949,0.1077998768621134,0.09723810810876748
1790173706646118100,6.3171181640625,-0.1254987567663192,-0.1618218421936035,0.0687117576599121,0.19681870522829992,0.08899409797168191
1790173706656190200,6.327190185546875,-0.2064607441425323,-0.1736537516117096,0.0170189067721366,0.24400051885091928,0.11634025231582737
1790173706666261200,6.33726123046875,-0.1836241334676742,-0.1575637310743332,-0.0027670483104884,0.22056603661760332,0.09951096315971249
1790173706676333300,6.347333251953125,-0.1980226635932922,-0.1420783847570419,0.0003059605660382,0.21254333049216814,0.1192672167316617
1790173706686405000,6.357405029296875,-0.182028517127037,-0.2176684886217117,0.0693215131759643,0.27130046782604816,0.10823807247314146
1790173706696476200,6.36747607421875,-0.2254460752010345,-0.2054601013660431,0.0061636655591428,0.2812733000311582,0.11816559372170155
1790173706706548200,6.37754833984375,-0.1795156002044677,-0.2141206860542297,0.0230952445417642,0.2689204837441932,0.07930121472170062
1790173706716620300,6.387620361328125,-0.1940289884805679,-0.1912916302680969,0.0060635032132267,0.2551282181580733,0.09584411589723171
1790173706726691300,6.39769140625,-0.1675947159528732,-0.2372969388961792,0.0471124053001403,0.28384058200604334,0.07779414351001299
1790173706736763100,6.40776318359375,-0.1385461986064911,-0.2186805009841919,-0.0823167711496353,0.2599807882053512,0.07875437280324292
1790173706746834200,6.417834228515625,-0.1347181648015976,-0.1612656861543655,-0.0576830618083477,0.2054114339189983,0.07272608812025702
1790173706756906200,6.42790625,-0.144204556941986,-0.1594359427690506,-0.017116691917181,0.20611872795255523,0.06342574571022931
1790173706766978300,6.437978271484375,-0.1226923540234565,-0.1565754413604736,-0.1042912751436233,0.197976540660905,0.10607187182315701
1790173706777049300,6.44804931640625,-0.0466117560863494,-0.1583165973424911,-0.0427218116819858,0.1647388439359633,0.0438527911493803
1790173706787121400,6.458121337890625,-0.1042673289775848,-0.1686334162950515,0.0242809262126684,0.19579172854716173,0.0395482919191158
1790173706797193200,6.468193115234375,-0.1378077864646911,-0.2067905962467193,0.0368718691170215,0.24402472669345537,0.05970598128109724
1790173706807264300,6.47826416015625,-0.1107005402445793,-0.1776385754346847,-0.0845648124814033,0.21113106667988252,0.07990590269520635
1790173706817336300,6.48833642578125,-0.1099080964922905,-0.1477665156126022,-0.0302502736449241,0.1815466529571563,0.04325071868182871
1790173706827407400,6.498407470703125,-0.1338760256767273,-0.2092106938362121,0.0929821729660034,0.2422442662936587,0.10795973603039129
1790173706837479400,6.5084794921875,-0.122248888015747,-0.1918785572052002,-0.0043012001551687,0.22562141424397722,0.029591368565147144
1790173706847551200,6.51855126953125,-0.080568291246891,-0.1796461194753646,-0.0538024418056011,0.19889767433029104,0.04580824911789788
1790173706857622300,6.528622314453125,-0.0431567355990409,-0.2299533486366272,0.0100875319913029,0.225906032826388,0.06171927584703348
1790173706867694300,6.5386943359375,-0.0560642778873443,-0.2416752427816391,-0.0057375030592083,0.2426358580211365,0.052066165331190455
1790173706877766400,6.548766357421875,-0.1158899217844009,-0.2319629192352295,0.0361941270530223,0.25752043900950866,0.04722825633881053
1790173706887837200,6.558837158203125,-0.1686223894357681,-0.2388232201337814,0.1555900424718856,0.28120888226312846,0.1749281753944217
1790173706897909200,6.5689091796875,-0.1160902455449104,-0.2556002140045166,0.083383709192276,0.27705143942244737,0.0948881308828681
1790173706907980300,6.578980224609375,-0.0621095634996891,-0.2538348138332367,0.0146238217130303,0.2553653882535975,0.05737669592665424
1790173706918052000,6.589052001953125,-0.0590259209275245,-0.2777896225452423,-0.0194006972014904,0.27712032819407284,0.06505262860702737
1790173706928124200,6.599124267578125,-0.0463008061051368,-0.2712848484516144,-0.0411683097481727,0.2667286648921296,0.07930878071048846
1790173706938195200,6.6091953125,0.0283463913947343,-0.2041525393724441,-0.0984366685152053,0.17667304089574487,0.14476944279212953
1790173706948267300,6.619267333984375,0.0631768107414245,-0.1661987602710724,-0.0701581612229347,0.1264006150091932,0.14338197042369094
1790173706958339300,6.62933935546875,0.0071262777782976,-0.1666055768728256,-0.0036835672799497,0.14782989725617934,0.07725342856620561
1790173706968410400,6.639410400390625,0.0056239888072013,-0.177984744310379,0.0243914760649204,0.15760918867267604,0.08639725810406777
1790173706978482200,6.649482177734375,0.0372065193951129,-0.1563216596841812,0.1004592701792717,0.12149115498939134,0.14543985215961777
1790173706988553200,6.65955322265625,0.0400300025939941,-0.1271283477544784,0.0455302409827709,0.0961385921381224,0.10292906225215358
1790173706998625300,6.669625244140625,0.0381707586348056,-0.1541501581668853,0.015299828723073,0.12260991265607213,0.10207924448710458
1790173707008697300,6.679697265625,0.1064419597387313,-0.1378225833177566,-0.0160096231848001,0.08015112707993487,0.1554254166078929
1790173707018768400,6.689768310546875,0.1900370717048645,-0.1407379806041717,0.0949778333306312,0.04275998318061627,0.25122428319984236
1790173707028840200,6.699840087890625,0.1937380731105804,-0.1453947871923446,0.1034853011369705,0.04505275996294819,0.2595256085368806
1790173707038912300,6.709912353515625,0.1649886220693588,-0.0801542326807975,0.0552941188216209,0.00021657194558918902,0.19158115539333467
1790173707048983300,6.7199833984375,0.2237158566713333,-0.033702578395605,0.0302934255450963,-0.06569931185508018,0.21859995510000835
1790173707059055400,6.730055419921875,0.290159672498703,0.0029383096843957,-0.0151850376278162,-0.12517595147764415,0.26222668771080615
1790173707069126400,6.74012646484375,0.3228441178798675,0.0421842485666275,-0.0247306060045957,-0.1741553884701396,0.2762052476274303
1790173707079198500,6.750198486328125,0.3402404487133026,0.0654607266187667,0.0046749240718781,-0.2037988213088567,0.28024375999883555
1790173707089270300,6.760270263671875,0.3597630262374878,0.1216014921665191,0.056858766824007,-0.2650061091835675,0.2778867384471832
1790173707099341000,6.770341064453125,0.4086843729019165,0.0885137021541595,0.0445337332785129,-0.2553328293903736,0.3341346910431422
1790173707109413400,6.780413330078125,0.3940409719944,0.0608511865139007,0.1122496649622917,-0.22687305964175467,0.34655411785661505
1790173707119485400,6.7904853515625,0.3752850890159607,0.0993393808603286,0.1152055040001869,-0.2538489829822514,0.31549994075790994
1790173707129556200,6.80055615234375,0.3934531807899475,0.1221600025892257,0.0657796338200569,-0.2801748936464483,0.3091236983830727
1790173707139628300,6.810628173828125,0.3563930690288543,0.1288737803697586,0.0485579594969749,-0.26981368771089254,0.2705234190841105
1790173707149699300,6.82069921875,0.3853450715541839,0.1510089188814163,-0.0416947044432163,-0.2984219077980057,0.2897884246784867
1790173707159771100,6.830771240234375,0.4187519252300262,0.1598867774009704,0.0068996585905551,-0.3226226568723602,0.31125420966278744
1790173707169843200,6.84084326171875,0.4170570969581604,0.1438076794147491,0.0178234130144119,-0.30780699197837136,0.3165277247296559
1790173707179914200,6.850914306640625,0.4212535619735718,0.1519364118576049,0.0273141618818044,-0.31732997314920586,0.31715451802554434
1790173707189986300,6.860986328125,0.3877512812614441,0.2126383781433105,0.0116712860763072,-0.3573784617294447,0.2607354789626449
1790173707200057300,6.871057373046875,0.3937382996082306,0.1872972249984741,-0.0244018826633691,-0.3355176556086293,0.2795236192576861
1790173707210129200,6.881129150390625,0.3498006761074066,0.139911338686943,0.0314233005046844,-0.27629731734438645,0.25803664844605767
1790173707220201200,6.891201171875,0.324861615896225,0.1281167864799499,-0.0453102886676788,-0.25189798812837205,0.2460678896091125
1790173707230272300,6.901272216796875,0.350937157869339,0.1299556940793991,-0.0488384440541267,-0.2644828851869055,0.2692199254474043
1790173707240344300,6.91134423828125,0.3454302549362182,0.1845542192459106,-0.0453494377434253,-0.31167601282079416,0.24144762455353605
1790173707250416400,6.92141650390625,0.3353390097618103,0.1720208525657653,-0.0124394251033663,-0.2974058960053282,0.23183592798281807
1790173707260487400,6.9314873046875,0.3660550713539123,0.1707136332988739,-0.1104307398200035,-0.3052406225068851,0.2866401411645319
1790173707270559200,6.941559326171875,0.3966521322727203,0.2223081141710281,-0.0958267673850059,-0.3654943951725079,0.2869676429629603
1790173707280630300,6.95163037109375,0.360745757818222,0.2572275698184967,-0.0983695164322853,-0.38173823513126465,0.24547098822582228
1790173707290702300,6.961702392578125,0.3707451224327087,0.261283814907074,-0.1187389716506004,-0.3888156350319752,0.2619971814416372
1790173707300774400,6.9717744140625,0.4183371663093567,0.314696192741394,-0.0532337315380573,-0.4600136353565503,0.2554622553356711
1790173707310845400,6.981845458984375,0.3882156908512115,0.3423855304718017,-0.005973725579679,-0.4742148233911735,0.20759398057968798
1790173707320917200,6.991917236328125,0.3263061344623565,0.3837120532989502,-0.0668165832757949,-0.48282793308517863,0.15827910812235255
1790173707330989300,7.0019892578125,0.3432342410087585,0.3933615088462829,-0.0862491354346275,-0.49794358224531377,0.17898078976976256
1790173707341060400,7.012060302734375,0.380532830953598,0.3776908814907074,-0.0033688805997371,-0.5029965887541199,0.18563786912427427
1790173707351132400,7.02213232421875,0.2716585397720337,0.4030383229255676,0.0327078998088836,-0.4811989212220514,0.07586604578050514
1790173707361203200,7.032203125,0.2430891990661621,0.3633451163768768,0.0354875847697258,-0.433283862315953,0.06809181762086446
1790173707371275500,7.042275634765625,0.2684685885906219,0.3738121390342712,0.051171738654375,-0.45416574045707325,0.09034890913125536
1790173707381347300,7.052347412109375,0.2554288208484649,0.3541731238365173,0.0977720990777015,-0.43277829407089036,0.1137752860128417
1790173707391418000,7.062418212890625,0.1694899499416351,0.3247017860412597,0.1037682071328163,-0.36989428659123413,0.09002305564866686
1790173707401490200,7.072490234375,0.0878093391656875,0.3085067570209503,0.0561013706028461,-0.31862593250981947,0.06716977064174212
1790173707411562200,7.082562255859375,0.0294613502919673,0.2786106169223785,0.0257535837590694,-0.2655765747541963,0.092866447337876
1790173707421633300,7.09263330078125,-0.0171810612082481,0.2384964227676391,-0.0149270072579383,-0.20782847270475668,0.1191883971537865
1790173707431705300,7.102705322265625,-0.0519052185118198,0.1764290481805801,0.0649909973144531,-0.14022608196971587,0.13557963127997874
1790173707441776400,7.1127763671875,-0.1463930606842041,0.152603343129158,0.0943484455347061,-0.0797787361224582,0.2173837413152216
1790173707451848200,7.12284814453125,-0.2215506732463836,0.1420268714427948,0.1102720201015472,-0.03896864967021872,0.28266180461447177
1790173707461920300,7.132920166015625,-0.2307494580745697,0.1067581698298454,0.0600287355482578,-0.0011020886238728017,0.2612371599128147
1790173707471991300,7.1429912109375,-0.249538317322731,0.0473774038255214,0.0280247274786233,0.06189702959494783,0.24792767752528108
1790173707482063400,7.1530634765625,-0.3231275081634521,-0.0051395511254668,-0.0220327768474817,0.1426845207513938,0.2907995397369966
1790173707492135200,7.16313525390625,-0.4315988719463348,-0.041490901261568,0.0189713817089796,0.2199188031485251,0.37415867556227256
1790173707502206200,7.173206298828125,-0.48150634765625,-0.0763375088572502,0.0018186562228947,0.2733229403019414,0.40369995777427414
1790173707512278300,7.1832783203125,-0.4837229251861572,-0.0507013835012912,-0.0375923998653888,0.2526906244411312,0.4172758505914141
1790173707522349300,7.193349365234375,-0.4704460501670837,-0.0979037657380104,-0.0682268962264061,0.29100924777448334,0.3884239443467815
1790173707532421400,7.20342138671875,-0.4812726080417633,-0.1676287800073623,-0.0573401600122451,0.3582272853336077,0.3669929660508785
1790173707542493400,7.213493408203125,-0.5744379758834839,-0.2087528556585312,0.0051800301298499,0.4324007046929188,0.4319875069674109
1790173707552564500,7.223564453125,-0.650772213935852,-0.2462328523397445,0.061450757086277,0.49639118751003686,0.4914336949286127
1790173707562636300,7.23363623046875,-0.684201180934906,-0.2724988460540771,0.0929473862051963,0.5330454103456272,0.5166127023267656
1790173707572708400,7.243708251953125,-0.6296178102493286,-0.3432281613349914,0.0516175180673599,0.5755538715472313,0.4308436686722758
1790173707582779400,7.253779296875,-0.6044668555259705,-0.3712390065193176,0.0616884157061576,0.5898043017653757,0.3989171914599541
1790173707592851500,7.2638515625,-0.6162495017051697,-0.4096258282661438,0.0780056044459343,0.6288584239297013,0.3977168899006201
1790173707602922200,7.273922119140625,-0.614280641078949,-0.4159046709537506,0.0434438623487949,0.6351196919972055,0.38578199457552165
1790173707612994300,7.283994384765625,-0.5824729204177856,-0.4582166969776153,0.089137315750122,0.6580203955507724,0.3524086612264825
1790173707623066400,7.29406640625,-0.5824111104011536,-0.4519102275371551,0.1175027713179588,0.6511264380257248,0.36505728076936145
1790173707633137200,7.30413720703125,-0.604858934879303,-0.4174792766571045,0.0361993871629238,0.6328426065364388,0.37545160610204004
1790173707643209200,7.314209228515625,-0.5979966521263123,-0.4291487634181976,0.0313545130193233,0.6406846418158634,0.36369623633686865
1790173707653280300,7.3242802734375,-0.5713714361190796,-0.4335357844829559,0.0575064867734909,0.6322810180757861,0.3434331152380452
1790173707663352300,7.334352294921875,-0.513911783695221,-0.3806610107421875,0.0018932819366455,0.5623483998003128,0.3045915105162756
1790173707673424100,7.344424072265625,-0.4065506756305694,-0.3319225013256073,0.0064094704575836,0.47251379659360276,0.22853400640203678
1790173707683495200,7.3544951171875,-0.3966173529624939,-0.3217974901199341,-0.0154487816616892,0.4600359709810553,0.2224062039980286
1790173707693567200,7.364567138671875,-0.3989289700984955,-0.347652792930603,0.028088042512536,0.4826190747906838,0.21880254659547593
1790173707703639300,7.374639404296875,-0.3834065794944763,-0.2981061935424804,0.0477018281817436,0.4304098092516109,0.22997993029808805
1790173707713710300,7.38471044921875,-0.2712787091732025,-0.2223664224147796,-0.0410176552832126,0.31795162779690644,0.1537145871232041
1790173707723782400,7.394782470703125,-0.1548521667718887,-0.2007252871990203,-0.0755931138992309,0.25038375426556236,0.08539396315865995
1790173707733853400,7.404853515625,-0.1543536186218261,-0.215268537402153,-0.0275459587574005,0.2613569705817583,0.05115561112042953
1790173707743925200,7.41492529296875,-0.1877646446228027,-0.2084518373012542,-0.0319950990378856,0.26955266938711203,0.08409979211224199
1790173707753997300,7.424997314453125,-0.1787530481815338,-0.200213074684143,-0.0144003937020897,0.25755434200881866,0.0768834166764694
1790173707764068400,7.435068359375,-0.1305051892995834,-0.1776690334081649,-0.0423355437815189,0.21783177801484999,0.05421719856722337
1790173707774140400,7.445140380859375,-0.1234073340892791,-0.1657764166593551,-0.0063671572133898,0.20258706246290115,0.041354724531444564
1790173707784212200,7.455212158203125,-0.1126344576478004,-0.178091213107109,-0.0476638302206993,0.21084800598911535,0.04709522605633684
1790173707794283300,7.465283203125,-0.1031826362013816,-0.2087838798761367,-0.0641658380627632,0.23527652862549273,0.054768373737351196
1790173707804355300,7.475355224609375,-0.0839215517044067,-0.2126275897026062,0.0062180100940167,0.22769286163064564,0.021164667613553404
1790173707814426400,7.48542626953125,-0.081426702439785,-0.1689618676900863,0.0453936420381069,0.18552971370751908,0.05308228209703601
1790173707824498400,7.49549853515625,-0.0265323352068662,-0.1274887323379516,-0.0194195359945297,0.12737640522061355,0.03331233189052158
1790173707834570500,7.505570556640625,0.0004289740754757,-0.1277518421411514,0.0207704938948154,0.1145241906248819,0.060302075980561164
1790173707844641300,7.515641357421875,0.014464970678091,-0.1335034072399139,0.0068866438232362,0.11433938450964319,0.07075539650435443
1790173707854713000,7.525713134765625,0.005809430964291,-0.0998168066143989,0.0588822029531002,0.08540925010601164,0.07854628057243705
1790173707864785200,7.53578515625,0.0096779838204383,-0.0749802738428115,0.0301224924623966,0.062480950269522724,0.05214595134750382
1790173707874856200,7.545856201171875,0.0246832985430955,-0.0543106831610202,0.0224310178309679,0.037731569254429796,0.051365307114001287
1790173707884928300,7.55592822265625,0.073157899081707,-0.0337057150900363,-0.0205426961183547,0.0002834669499793517,0.08312686351643049
1790173707894999300,7.565999267578125,0.1097609177231788,0.0096345674246549,-0.0310392789542675,-0.05402351422983726,0.10092165623469548
1790173707905071400,7.5760712890625,0.1253673583269119,0.0294047035276889,-0.0124993827193975,-0.07929009639994061,0.10222977210516367
1790173707915143200,7.58614306640625,0.0812723413109779,0.0211497023701667,0.0414671823382377,-0.055322606696916396,0.07557406811761341
1790173707925214200,7.596214111328125,0.0838439464569091,-0.0114593906328082,-0.032529130578041,-0.02388296941464964,0.08745783612259385
1790173707935286300,7.606286376953125,0.1227239668369293,0.0237665064632892,-0.1518962681293487,-0.06735187026063001,0.1848302483623272
1790173707945357300,7.616357421875,0.1431687176227569,0.0205860249698162,-0.0951249599456787,-0.0754795759886487,0.15579684766722138
1790173707955429400,7.626429443359375,0.096051275730133,0.0018126042559742,-0.0050126411952078,-0.04219721694183303,0.08645030108501985
1790173707965501200,7.636501220703125,0.1031577065587043,-0.0083081629127264,0.0247111376374959,-0.03727727614250821,0.09965732787994369
1790173707975572200,7.646572265625,0.0984122157096862,-0.0003831284120678,0.0929674208164215,-0.0452309742890392,0.12760176835135087
1790173707985644300,7.656644287109375,0.1260429322719574,-0.0532936230301857,0.0550438240170478,-0.007541788766794684,0.14730911382536233
1790173707995716400,7.66671630859375,0.131331980228424,-0.015846649184823,-0.0576089546084404,-0.0390394407361253,0.1389025523134615
1790173708005787400,7.676787353515625,0.1129790991544723,-0.0578889921307563,0.0558280944824218,0.0021269511427403215,0.13866385422324543
1790173708015859500,7.686859375,0.0465971454977989,-0.0928738713264465,0.1312272399663925,0.05885241116581476,0.15669662457395636
1790173708025930500,7.696930419921875,0.0311418045312166,-0.0300580020993948,0.0538067929446697,0.011766217373244015,0.06804426923249196
1790173708036002300,7.707002197265625,0.0792222470045089,0.0077082854695618,0.0783150568604469,-0.043805178208278124,0.10271288418947111
1790173708046074400,7.717074462890625,0.1089421659708023,-0.0208728834986686,-0.0196352787315845,-0.02654816691309556,0.10947516520371303
1790173708056145200,7.727145263671875,0.0971369072794914,-0.0581861659884452,-0.0420300662517547,0.013131975373233885,0.12006367627298055
1790173708066217500,7.737217529296875,0.0489256978034973,-0.0826792567968368,0.010232338681817,0.053604391603032445,0.08037943372408503
1790173708076289500,7.74728955078125,-0.0295360852032899,-0.0423741787672042,0.054072231054306,0.04864701428583862,0.056791069083040234
1790173708086360300,7.7573603515625,-0.0174009930342435,-0.0400949902832508,0.062336977571249,0.04109644441735631,0.06408887448973738
1790173708096432000,7.76743212890625,0.0289175026118755,-0.0659723952412605,0.055088922381401,0.04514399421453429,0.07864723801049237
1790173708106503200,7.777503173828125,0.0023211189545691,-0.0949257910251617,0.01093658991158,0.08443162895006878,0.04480181276115855
1790173708116575200,7.7875751953125,-0.1299956440925598,-0.1195586919784545,0.0419280603528022,0.1615963249890727,0.08269061800236263
1790173708126647300,7.797647216796875,-0.1454071104526519,-0.1471168845891952,0.054061509668827,0.19256700536343194,0.09288272592066261
1790173708136718300,7.80771826171875,-0.0813077613711357,-0.1150686740875244,0.0866434201598167,0.1350385559902323,0.09551660833860191
1790173708146790100,7.8177900390625,-0.0439452975988388,-0.1134431287646293,0.0462999269366264,0.11936631840504527,0.051922036841027926
1790173708156862200,7.8278623046875,-0.0528751425445079,-0.1376035958528518,-0.0236610490828752,0.14787936446839353,0.02054432035535035
1790173708166933200,7.837933349609375,-0.1042211279273033,-0.1191206574440002,0.0484735108911991,0.14999324397117014,0.07002487099205817
1790173708177005300,7.84800537109375,-0.1047795936465263,-0.1235670670866966,0.0815401226282119,0.1528962633436483,0.09756591396032183
1790173708187076400,7.858076416015625,-0.1328495591878891,-0.0864859223365783,-0.03177460283041,0.13591389256827482,0.08755489324300982
1790173708197148400,7.8681484375,-0.0959535911679267,-0.0860286578536033,0.0128623731434345,0.11801153552869129,0.0533548475319285
1790173708207220200,7.87822021484375,-0.0701597854495048,-0.006443103775382,-0.0253438893705606,0.03664250856225685,0.06529585266518108
1790173708217291300,7.888291259765625,-0.0391715057194232,0.0173234790563583,-0.0755372866988182,0.004051645819865647,0.0867408533213313
1790173708227363300,7.89836328125,0.0044217030517756,-0.0328980684280395,0.0205007586628198,0.027040747717111867,0.028123183191536866
1790173708237434400,7.908434326171875,-0.0662729740142822,-0.0337454862892627,0.0111139146611094,0.05819431441863206,0.04762148462654598
1790173708247506400,7.91850634765625,-0.0664215162396431,-0.0287618152797222,0.0343512780964374,0.05279645817916873,0.060262792404203264
1790173708257578500,7.92857861328125,-0.0859960168600082,-0.0037608593702316,0.0841055139899253,0.03644873576082582,0.11469388006313366
1790173708267649500,7.9386494140625,-0.064717411994934,-0.0180700309574604,0.0650571659207344,0.04114281280563048,0.08399150686947114
1790173708277721300,7.948721435546875,-0.0097766602411866,0.0180014204233884,0.0044414834119379,-0.012316214912440228,0.016960891717721926
1790173708287793400,7.95879345703125,0.0517914518713951,0.0288887396454811,-0.0364867039024829,-0.04661484831454997,0.051722811635973386
1790173708297864200,7.9688642578125,0.0814108625054359,-0.0024111256934702,0.0503179654479026,-0.034432385716078366,0.08933000907704097
1790173708307936300,7.978936279296875,0.0643203034996986,-0.0164780039340257,0.1075992807745933,-0.016804106982358714,0.12531501613006446
1790173708318007300,7.98900732421875,0.0228311885148286,-0.0052706226706504,0.0977168232202529,-0.008928933953819603,0.10008943156518822
1790173708328079000,7.9990791015625,0.0636140555143356,0.0311415363103151,0.0398834720253944,-0.056801784301637986,0.058144578282916935
1790173708338151200,8.009151123046875,0.0763168036937713,0.0912972912192344,-0.0222808308899402,-0.11405739765333296,0.040580726653165165
1790173708348222200,8.01922216796875,0.0901919603347778,0.0245742332190275,0.0318676903843879,-0.06181200893969516,0.07702796822328589
1790173708358294300,8.029294189453125,0.0803784728050232,-0.0046733999624848,0.0721416100859642,-0.03284284896154696,0.1029965957474397
1790173708368365300,8.039365234375,0.0147720035165548,0.0532293990254402,0.1376700401306152,-0.06006331793414493,0.1356356103566083
1790173708378437400,8.049437255859376,-0.0009110858081839,0.0257724747061729,0.1750299334526062,-0.030103447528380914,0.17433964145070383
1790173708388509200,8.05950927734375,0.0675955638289451,0.0798597484827041,-0.0368115678429603,-0.09941448310549185,0.04917918007651706
1790173708398580200,8.069580322265624,0.1301388442516327,0.1370652318000793,-0.1359133869409561,-0.17363851324695204,0.15506486390768956
1790173708408652300,8.07965234375,0.0917103141546249,0.1343894600868225,-0.0885393470525741,-0.1568521726036909,0.09852878072302411
1790173708418724400,8.089724365234375,0.0524579808115959,0.1115382090210914,0.006917399354279,-0.12343824524903178,0.0018606037001198904
1790173708428795400,8.09979541015625,0.02130395360291,0.1478277891874313,0.0733007043600082,-0.14576478762065717,0.08020307752659252
1790173708438867500,8.109867431640625,0.0400693863630294,0.1302341520786285,0.0590293556451797,-0.13722907531660367,0.056737428623300196
1790173708448938500,8.1199384765625,0.0585971288383007,0.105892114341259,0.0520230047404766,-0.12278614214319647,0.04771498409905512
1790173708459010300,8.13001025390625,0.0479625947773456,0.1001335605978965,0.0116268470883369,-0.11140749276204928,0.00712001302512694
1790173708469082400,8.140082275390625,-0.0058608213439583,0.1282922774553299,-0.0684939250349998,-0.11075078675921929,0.09444013278482433
1790173708479153400,8.1501533203125,-0.0938945412635803,0.0959564447402954,0.0419702678918838,-0.04867067568381324,0.13197156088223366
1790173708489225500,8.1602255859375,-0.1266722977161407,0.0255899969488382,0.0941669791936874,0.02674940343511732,0.15764710063574852
1790173708499297300,8.17029736328125,-0.0581534244120121,0.0563311353325843,0.0439269691705703,-0.028075987053057555,0.08772875896882566
1790173708509368300,8.180368408203124,-0.0015184341464191,0.0894467607140541,0.0063434881158173,-0.08052483894692775,0.03948441209567549
1790173708519440400,8.1904404296875,-0.0934928357601165,0.035564087331295,0.0421065427362918,0.005781194780359621,0.10837552018002408
1790173708529511200,8.20051123046875,-0.1587116867303848,0.0127268452197313,-0.0425770506262779,0.0575895399603986,0.1544267535799192
1790173708539583200,8.210583251953125,-0.1952531933784485,0.0785354226827621,-0.0362925231456756,0.013312484870546135,0.21314677366381315
1790173708549655300,8.2206552734375,-0.2756436169147491,0.0507658123970031,0.013638075441122,0.07050083126167993,0.27161038482967204
1790173708559726300,8.230726318359375,-0.2851692140102386,-0.0560991168022155,0.0052568414248526,0.17155182145321596,0.2346618811461628
1790173708569798100,8.240798095703125,-0.2543200254440307,-0.0039638164453208,-0.0335696600377559,0.1128929175684561,0.2303833727086156
1790173708579869200,8.250869140625,-0.2842547595500946,0.0317377224564552,-0.00118402345106,0.09197500323655423,0.27083214736211353
1790173708589941200,8.260941162109376,-0.3878725469112396,-0.0197756942361593,-0.0140175651758909,0.18307209972022476,0.3428079479350242
1790173708600013300,8.271013427734376,-0.4014192521572113,-0.0789569914340972,0.0249138548970222,0.24075716370037642,0.3317051564138835
1790173708610084400,8.28108447265625,-0.418293833732605,-0.0708180144429206,0.0700995698571205,0.2387034801459978,0.357658385570226
1790173708620156400,8.291156494140624,-0.4520632326602936,-0.0917461961507797,0.045805674046278,0.272961706477747,0.37465797389486083
1790173708630228200,8.301228271484375,-0.4625987410545349,-0.1196477636694908,0.0015281930100172,0.30448696972701805,0.36824340213598505
1790173708640299300,8.31129931640625,-0.4782914221286773,-0.117737740278244,0.0452527701854705,0.3076260209764137,0.3873485567229829
1790173708650371300,8.321371337890625,-0.5552552938461304,-0.1484013795852661,0.0184355527162551,0.36912523048064805,0.4409283894619681
1790173708660442400,8.3314423828125,-0.6303806900978088,-0.2941950559616089,0.036471277475357,0.5321458232784215,0.4495347842475144
1790173708670514400,8.341514404296875,-0.6862590909004211,-0.3226007521152496,0.0518337860703468,0.5809244512037757,0.4901390705511811
1790173708680586200,8.351586181640625,-0.6798757910728455,-0.2547228932380676,0.0537067875266075,0.5167396833065032,0.5128151346725468
1790173708690657300,8.3616572265625,-0.7341110706329346,-0.2861382067203522,0.0901145339012146,0.5666803187455889,0.5547866102724571
1790173708700729300,8.371729248046876,-0.7300955653190613,-0.4146048426628113,0.0646224915981292,0.6822261153482736,0.4936398525394485
1790173708710801400,8.381801513671874,-0.6693660020828247,-0.3823097646236419,-0.017428396269679,0.6306053067618244,0.4436803995572566
1790173708720872400,8.39187255859375,-0.6971963047981262,-0.3978226780891418,0.0056100785732269,0.6555036597171988,0.46334867616637815
1790173708730944500,8.401944580078125,-0.7637285590171814,-0.4918599128723144,0.0670615062117576,0.7662807105653651,0.4924617792073308
1790173708741015300,8.412015380859375,-0.7674508690834045,-0.4477148354053497,-0.0178938638418912,0.7314128033551026,0.5047622328882524
1790173708751087400,8.42208740234375,-0.6811795234680176,-0.4146522581577301,-0.0493663549423217,0.6661839706281844,0.4411099553011447
1790173708761159400,8.432159423828125,-0.6282824873924255,-0.4132594466209411,-0.0178600940853357,0.641183135950259,0.3933515263974305
1790173708771230200,8.442230224609375,-0.6657701730728149,-0.411405086517334,0.032910831272602,0.6533331598078906,0.4321376790748891
1790173708781302300,8.45230224609375,-0.7471830248832703,-0.4232178032398224,0.0324003025889396,0.6985900790252253,0.5004172886184478
1790173708791373300,8.462373291015625,-0.74427729845047,-0.4594963490962982,0.0345284007489681,0.7300854273135429,0.4829628050939739
1790173708801445000,8.472445068359375,-0.728665292263031,-0.4841125011444092,0.0760446861386299,0.7440239115222418,0.4664002951179705
1790173708811517200,8.48251708984375,-0.6959081888198853,-0.5411055684089661,0.1575368642807006,0.7783334222632621,0.44282997959162335
1790173708821588200,8.492588134765626,-0.5587660670280457,-0.4978065192699432,0.1398292481899261,0.6816916770159991,0.33893882106675416
1790173708831660300,8.502660400390624,-0.5676485300064087,-0.4622366726398468,0.1827308237552642,0.6515272798952882,0.38051327526660295
1790173708841732400,8.512732421875,-0.6723642945289612,-0.4809078276157379,0.2050507664680481,0.711941293583902,0.467473522821058
1790173708851803400,8.522803466796875,-0.6051002144813538,-0.4988975524902344,0.0971875190734863,0.7040909563028498,0.3588124531873498
1790173708861875200,8.532875244140625,-0.5042495131492615,-0.4630135893821716,0.0555394068360328,0.6305399876938886,0.2723106775257234
1790173708871946200,8.5429462890625,-0.4713993370532989,-0.482195109128952,0.0953430458903312,0.6323171007200782,0.2529720118486862
1790173708882018300,8.553018310546875,-0.4811789989471435,-0.4196193218231201,0.0774926766753196,0.5805965332509231,0.2766340268122953
1790173708892090400,8.56309033203125,-0.4909227788448334,-0.3723058700561523,0.1581705957651138,0.5386258602423243,0.3384035397419904
1790173708902161400,8.573161376953125,-0.4881395101547241,-0.4347873628139496,0.1612302958965301,0.593836864715722,0.3172904326579782
1790173708912233500,8.5832333984375,-0.4541487693786621,-0.5045183300971985,0.1415164321660995,0.6432951465304291,0.25882060419455577
1790173708922304500,8.593304443359376,-0.4383557140827179,-0.4691448509693146,0.1002017557621002,0.606289860957541,0.23389232483748368
1790173708932376300,8.603376220703124,-0.3871845006942749,-0.4328968822956085,0.1069545671343803,0.5515082824166883,0.211162122872048
1790173708942448400,8.613448486328124,-0.3733299374580383,-0.3412306308746338,0.0324441082775592,0.4657673034248169,0.19981747889467474
1790173708952519400,8.62351953125,-0.3702109754085541,-0.3417267203330993,0.0789583027362823,0.46298493957423087,0.21380523146314612
1790173708962591500,8.633591552734375,-0.3644146025180816,-0.4030494689941406,0.1613360047340393,0.5126164117081878,0.2418689683606264
1790173708972663300,8.643663330078125,-0.311351865530014,-0.44118133187294,0.1562338769435882,0.524798550731584,0.2014359878895883
1790173708982734000,8.653734130859375,-0.3026537001132965,-0.4192773401737213,0.1128240823745727,0.5030740122580609,0.16443406559974214
1790173708992806100,8.66380615234375,-0.3341841101646423,-0.3707143366336822,0.0929519608616828,0.4733424191621114,0.18356241478602484
1790173709002877200,8.673877197265625,-0.3442431390285492,-0.3094562888145447,0.0541225373744964,0.4237926795985974,0.19389571224138566
1790173709012949200,8.68394921875,-0.3035671412944793,-0.3262357711791992,0.0992855429649353,0.41985605353418987,0.17933572154795774
1790173709023021300,8.694021240234376,-0.2074251621961593,-0.3809349536895752,0.0988639667630195,0.42854983971334,0.11939746923771784
1790173709033092400,8.70409228515625,-0.208420917391777,-0.3895905017852783,0.1098076924681663,0.4363530301996647,0.1298991926398647
1790173709043164200,8.7141640625,-0.2929363250732422,-0.4098720550537109,0.0986170917749404,0.4910250996019331,0.14975471415760885
1790173709053235200,8.724235107421874,-0.367850124835968,-0.4307041466236114,0.1413222700357437,0.5399101853012487,0.22201070261732317
1790173709063307300,8.734307373046875,-0.3791603147983551,-0.4384888410568237,0.076271615922451,0.5544193501548106,0.18566515994844984
1790173709073379300,8.74437939453125,-0.3429508507251739,-0.437797874212265,0.0441321432590484,0.5397453782695681,0.1410845044049014
1790173709083450400,8.754450439453125,-0.3379622399806976,-0.4730946123600006,0.1172841191291809,0.5665561419840972,0.17551834797773463
1790173709093522400,8.7645224609375,-0.384664237499237,-0.5078390836715698,0.1604987382888794,0.6160319856966244,0.22832334113323832
1790173709103594200,8.77459423828125,-0.3792060911655426,-0.5018576383590698,0.0910459011793136,0.6111531946010536,0.17446913081365664
1790173709113665300,8.784665283203125,-0.3067153692245483,-0.4619901478290558,0.0532294437289238,0.545877482505776,0.11117716574238888
1790173709123737300,8.7947373046875,-0.2093757539987564,-0.4134790897369385,-0.0077441604807972,0.46318723413909707,0.01790871755209127
1790173709133808400,8.804808349609376,-0.1941431611776352,-0.3643122315406799,0.1184548437595367,0.40707362251080015,0.13688529851019787
1790173709143880400,8.81488037109375,-0.1486867368221283,-0.3601084351539612,0.1186953261494636,0.383969971479157,0.1357993822808866
1790173709153952300,8.8249521484375,-0.102936066687107,-0.3065638542175293,0.0887128859758377,0.3173495894725794,0.10833487313633765
1790173709164023300,8.835023193359374,-0.0336920209228992,-0.2409981787204742,0.1052399352192878,0.22797791775769477,0.13533952637821786
1790173709174095400,8.845095458984375,0.0229718200862407,-0.2105347365140915,0.1074641123414039,0.17628342994615778,0.1591391452939109
1790173709184166100,8.855166259765625,0.0306164231151342,-0.1552057117223739,0.0288430731743574,0.12621531811735592,0.09963831922653818
1790173709194238500,8.865238525390625,0.0597375556826591,-0.1076321676373481,0.0419430956244468,0.07028672859968223,0.10941781446624266
1790173709204310500,8.875310546875,0.10100057721138,-0.068778246641159,0.0239877980202436,0.01836609605522637,0.1231651930441967
1790173709214381300,8.88538134765625,0.1289544403553009,-0.029033500701189,-0.1011677235364914,-0.024316013059941036,0.16466885450727933
1790173709224453000,8.895453125,0.121186539530754,-0.0149919837713241,-0.0383544079959392,-0.03629649431974133,0.1227377776141258
1790173709234525200,8.905525146484376,0.1509941220283508,-0.0311274193227291,0.0693004950881004,-0.038765905665568756,0.16452326369905731
1790173709244596200,8.91559619140625,0.0630216598510742,-0.0004973383620381,0.0530552119016647,-0.028471561422407164,0.07730590311180313
1790173709254668300,8.925668212890624,0.0224953647702932,-0.0284875277429819,0.0410213209688663,0.014539409318365719,0.052810368525124704
1790173709264739300,8.9357392578125,-0.0317020937800407,-0.0864451006054878,0.0270280055701732,0.09053964664694232,0.03179408182161483
1790173709274811400,8.945811279296874,-0.0642062574625015,-0.1368737518787384,-0.0975558534264564,0.15505825888413177,0.09127402883783142
1790173709284883200,8.95588330078125,-0.0933766588568687,-0.1931231766939163,0.0445283129811286,0.2124917633802311,0.05334588032947683
1790173709294954000,8.9659541015625,-0.1709921956062317,-0.226036787033081,0.0993737950921058,0.27295393534351453,0.12530866044282224
1790173709305026000,8.976026123046875,-0.2242876440286636,-0.2780480682849884,0.0927300080657005,0.34289125937578013,0.13652880348299562
1790173709315097000,8.98609716796875,-0.2893500626087188,-0.3547904789447784,0.04664171859622,0.441810455064342,0.128758356586991
1790173709325169200,8.996169189453125,-0.3591890633106231,-0.4215463399887085,0.0009123146301135,0.5337087277164123,0.14789836455198305
1790173709335241000,9.006240966796875,-0.4188771545886993,-0.4549595713615417,0.0216679982841014,0.5884125556511682,0.19153706876608365
1790173709345312000,9.01631201171875,-0.5195561051368713,-0.4976263642311096,0.0720475539565086,0.6676679896523622,0.2774542311581459
1790173709355384000,9.026384033203126,-0.5894688367843628,-0.5743752717971802,0.1136821061372757,0.7650541622637539,0.32403119055224716
1790173709365456100,9.0364560546875,-0.6591227650642395,-0.6328431367874146,0.0320586189627647,0.850848919319116,0.33468959760971817
1790173709375527200,9.046527099609374,-0.6878822445869446,-0.6850175261497498,0.0779576823115348,0.9083662995592423,0.35125355458234286
1790173709385599200,9.05659912109375,-0.7241699695587158,-0.6785508394241333,0.1343011111021042,0.9156064735948992,0.40565374452633884
1790173709395670300,9.066670166015625,-0.7552025318145752,-0.6983726024627686,0.1299187839031219,0.9468858725546122,0.4223046183705799
1790173709405742000,9.0767421875,-0.7424694299697876,-0.7599728107452393,0.1102747693657875,0.9980081329715311,0.38073589112800577
1790173709415814100,9.086814208984377,-0.7230892777442932,-0.7511274218559265,0.0553083904087543,0.9840363446261996,0.3489727753808438
1790173709425885200,9.09688525390625,-0.7066149115562439,-0.7296192049980164,0.0803833827376365,0.9565612517254883,0.35085734630086884
1790173709435957200,9.106957275390624,-0.7494391798973083,-0.7045671939849854,0.0692417174577713,0.9525315205136011,0.3944009800565596
1790173709446028300,9.1170283203125,-0.7576600909233093,-0.6956796646118164,0.1226487532258033,0.9457910654207684,0.42254110613101087
1790173709456100400,9.127100341796876,-0.7421982884407043,-0.7214778661727905,0.0727494060993194,0.9646112746751946,0.3823691614119184
1790173709466172200,9.137172119140626,-0.721219003200531,-0.7407700419425964,0.1312116384506225,0.9707612183394667,0.37912564757633405
1790173709476243200,9.1472431640625,-0.6522112488746643,-0.6984679102897644,0.0785051807761192,0.9053719928764442,0.31575552692997544
1790173709486315300,9.157315185546874,-0.6012913584709167,-0.6494180560112,0.0995121970772743,0.8385325869234407,0.30010146164221696
1790173709496387300,9.16738720703125,-0.548528790473938,-0.6688456535339355,0.1227967217564582,0.8327590865960477,0.2642530620369192
1790173709506458000,9.1774580078125,-0.498249888420105,-0.6810879111289978,0.0585349090397357,0.8251302110101586,0.18633347646445575
1790173709516530000,9.187530029296877,-0.463693618774414,-0.6310301423072815,0.1026272028684616,0.763376972169243,0.2024814898275461
1790173709526601000,9.19760107421875,-0.401903748512268,-0.6011385321617126,0.0776124000549316,0.7111413122127637,0.15230192587208458
1790173709536673000,9.207673095703123,-0.3547471165657043,-0.5847251415252686,0.1417992413043975,0.6736496141935957,0.18453246320024277
1790173709546745000,9.2177451171875,-0.2289465814828872,-0.6069294810295105,0.1720809787511825,0.6391043080384929,0.20478642242603656
1790173709556816100,9.227816162109375,-0.1344624459743499,-0.5890762805938721,0.1603645384311676,0.5833375480055853,0.22477789928902706
1790173709566888200,9.23788818359375,-0.0848962217569351,-0.5165011882781982,0.1614694893360138,0.4966089982904815,0.23115523953557937
1790173709576959200,9.247959228515626,-0.0840731486678123,-0.4496240019798279,0.1809334903955459,0.43496772414722357,0.2297173140626892
1790173709587031000,9.258031005859374,0.0393148325383663,-0.43165323138237,0.1824554949998855,0.3662852385882652,0.29494965649810895
1790173709597103000,9.26810302734375,0.1333947479724884,-0.3700209856033325,0.2003797888755798,0.26987416488610305,0.34932747313996887
1790173709607174100,9.278174072265625,0.218668907880783,-0.3640277981758117,0.2088981866836547,0.22791421881561214,0.41476003951669715
1790173709617246200,9.28824609375,0.29579958319664,-0.3197511434555053,0.129702016711235,0.1583779381986581,0.42600144247562427
1790173709627318000,9.298318115234377,0.3401731550693512,-0.1989703774452209,0.0858309641480445,0.032092998079378515,0.4020497238046439
1790173709637389000,9.30838916015625,0.3584925532341003,-0.1174161806702613,0.1429806351661682,-0.05179504310056811,0.4000802491378784
1790173709647461000,9.318461181640624,0.3844147026538849,-0.0876417756080627,0.1569715589284896,-0.09030233018278659,0.4146580566252246
1790173709657532200,9.3285322265625,0.4316120147705078,-0.0410540103912353,0.0924212709069252,-0.14982630860746798,0.4172147308384158
1790173709667604200,9.338604248046876,0.4703200161457062,0.0006729294545948,0.0721495598554611,-0.20316641626136467,0.4302677500257239
1790173709677676300,9.34867626953125,0.4866940677165985,0.0228111129254102,0.1660819798707962,-0.2339924669049374,0.45849995844380415
1790173709687747300,9.358747314453124,0.4160603880882263,0.0882194191217422,0.2027116417884826,-0.2646834737894705,0.3897737559990717
1790173709697819100,9.368819091796874,0.4045776128768921,0.0989077910780906,0.1078694462776184,-0.2655892009593257,0.33847302662271106
1790173709707890000,9.378889892578124,0.4192401766777038,0.0517815612256526,0.0796844139695167,-0.22802798070217628,0.36441254323948774
1790173709717962000,9.3889619140625,0.4219350814819336,0.0446058064699173,0.0481766313314437,-0.22138877234916654,0.3651395489948636
1790173709728034300,9.399034423828123,0.3537842631340027,0.0431131049990654,0.0560329593718051,-0.19143820677951617,0.30579919912409065
1790173709738105000,9.40910498046875,0.2452301084995269,0.0548973977565765,-0.0065873684361577,-0.15346049456756616,0.19911002090584284
1790173709748177200,9.41917724609375,0.12490876019001,0.0320477373898029,0.0231529511511325,-0.08294825449718903,0.10141450619555116
1790173709758249000,9.4292490234375,0.130539059638977,-0.0435698218643665,-0.0108318701386451,-0.01554414963219334,0.13716590061539885
1790173709768320000,9.439320068359375,0.0964141264557838,-0.0806647315621376,0.0289248637855052,0.030862006816819804,0.12524642501274114
1790173709778392000,9.44939208984375,0.0034131093416363,-0.089119017124176,0.1338587254285812,0.0736749090842694,0.14298256772539117
1790173709788463000,9.459463134765626,-0.1141553297638893,-0.1129660233855247,0.0896105617284774,0.1469550993652816,0.11057582600584402
1790173709798535200,9.46953515625,-0.126826137304306,-0.1679465472698211,-0.0104743503034114,0.2061693875503701,0.04352938656550085
1790173709808607000,9.47960693359375,-0.1556276977062225,-0.1840086132287979,0.0132634695619344,0.23194798992219495,0.06674728182928813
1790173709818678000,9.489677978515624,-0.1798430383205413,-0.2066381126642227,0.0929179638624191,0.2594278013361453,0.12796011855272338
1790173709828750000,9.49975,-0.315567284822464,-0.2409579902887344,0.0128127392381429,0.35135679270539566,0.18535380989008604
1790173709838821000,9.509821044921877,-0.3947531878948211,-0.2911292016506195,-0.0180185530334711,0.43160920267767156,0.2337187536853122
1790173709848893200,9.51989306640625,-0.358416736125946,-0.2765651643276214,0.0281015392392873,0.4011231904924143,0.2117562972181552
1790173709858965200,9.52996533203125,-0.3632141947746277,-0.286506175994873,0.0508017428219318,0.4112204442858624,0.2179194884448611
1790173709869036300,9.540036376953124,-0.4677794873714447,-0.2990299463272095,-0.0287191793322563,0.47018625198763986,0.29662474156630836
1790173709879108000,9.550108154296876,-0.590112030506134,-0.2990792393684387,0.0172842647880315,0.5202610230082556,0.4090327782915967
1790173709889180200,9.56018017578125,-0.6321081519126892,-0.294756531715393,0.0555727183818817,0.5326035150305631,0.45372232864253376
1790173709899251200,9.570251220703126,-0.5792645812034607,-0.2873604893684387,0.1040719971060752,0.5014982981665358,0.42125282599005137
1790173709909323300,9.5803232421875,-0.552566409111023,-0.316471517086029,0.0473858192563056,0.518824838521671,0.37222313254839
1790173709919394300,9.590394287109374,-0.5398327112197876,-0.3497521877288818,0.0670519471168518,0.5427183697860584,0.3517082365156805
1790173709929466400,9.60046630859375,-0.5763223171234131,-0.3287755250930786,0.070236824452877,0.5390991305067433,0.3931235150825082
1790173709939538200,9.6105380859375,-0.5865933299064636,-0.3054364621639251,0.1314097642898559,0.5198381125908955,0.4294415326428255
1790173709949609000,9.62060888671875,-0.5813769698143005,-0.2884913086891174,0.0990044251084327,0.5036254676950898,0.42117654338717747
1790173709959681000,9.630680908203123,-0.5386934876441956,-0.3177504241466522,0.0794973596930503,0.5127773235562028,0.3667904746859547
1790173709969752000,9.640751953125,-0.515414297580719,-0.3545361161231994,0.1486668288707733,0.533335899766847,0.3591690407213964
1790173709979824000,9.65082421875,-0.5339889526367188,-0.3565540611743927,0.0286432709544897,0.5479660328184373,0.33589978256350217
1790173709989896000,9.66089599609375,-0.5681136250495911,-0.3235513567924499,-0.0568023845553398,0.5360995232404996,0.3785001763826593
1790173709999967000,9.670967041015626,-0.6158758997917175,-0.2881325781345367,-0.0037208737339824,0.5221545134907598,0.43553646858705725
1790173710010039000,9.6810390625,-0.6036829352378845,-0.3412999212741852,0.0317255333065986,0.5636189115040876,0.4052887299416656
1790173710020110000,9.691110107421874,-0.5803993344306946,-0.4139628410339355,-0.0154470819979906,0.6213993173159158,0.3497572328716691
1790173710030182100,9.70118212890625,-0.5692825317382812,-0.432799369096756,0.0055761779658496,0.6328579326452631,0.3330462815909637
1790173710040254200,9.711254150390625,-0.6312276124954224,-0.4332641959190368,0.0496637783944606,0.6577593160668086,0.3949497882690644
1790173710050325200,9.7213251953125,-0.7559772729873657,-0.4553719162940979,0.0917923226952552,0.7289717502808413,0.5058569335504353
1790173710060397000,9.73139697265625,-0.7857092022895813,-0.519667387008667,0.0953991189599037,0.7996002728328253,0.5070833652043251
1790173710070469000,9.74146923828125,-0.7794771194458008,-0.5827699303627014,-0.0017063926206901,0.8580169652414242,0.4593638760374434
1790173710080540200,9.7515400390625,-0.8128378987312317,-0.6204227805137634,0.0385557636618614,0.9045827816210399,0.4783789442487248
1790173710090612200,9.7616123046875,-0.90592360496521,-0.6536997556686401,0.2228206843137741,0.9666318074624145,0.6027378822957833
1790173710100683300,9.771683349609376,-0.9445194602012634,-0.7167439460754395,0.219269573688507,1.040183773792008,0.6098653602394828
1790173710110755300,9.78175537109375,-0.91996568441391,-0.7747822403907776,0.1693491488695144,1.08430909938754,0.5473365433920133
1790173710120827100,9.7918271484375,-0.9654331207275392,-0.795625627040863,0.1682317107915878,1.1225047359173561,0.5773787971175013
1790173710130898200,9.801898193359374,-1.0824599266052246,-0.8643239736557007,0.2387258559465408,1.2314200330109397,0.6777685156002106
1790173710140970200,9.81197021484375,-1.1483136415481567,-0.91262948513031,0.2049645334482193,1.3044469326075754,0.7013882352001186
1790173710151041000,9.822041015625,-1.1581755876541138,-0.9535593390464784,0.2347376197576522,1.3444344331740417,0.7058639457758059
1790173710161113300,9.83211328125,-1.217922329902649,-0.9829308390617372,0.2832256853580475,1.3943699569924175,0.7651385808712081
1790173710171185200,9.84218505859375,-1.2439099550247192,-1.0133706331253052,0.2797673046588897,1.4330749925409192,0.7738202806855898
1790173710181256000,9.852255859375,-1.1467448472976685,-1.0369257926940918,0.2266988605260849,1.4153221648508172,0.6621890873488058
1790173710191328000,9.862327880859375,-1.1165012121200562,-1.0051599740982056,0.275726854801178,1.3717427549148398,0.6717653183901763
1790173710201399000,9.87239892578125,-1.1515629291534424,-1.005466103553772,0.2333663552999496,1.388636611906783,0.6805934770875292
1790173710211471000,9.88247119140625,-1.1510488986968994,-1.0756256580352783,0.1618077456951141,1.454815787588394,0.6257610519724484
1790173710221543200,9.892543212890626,-0.9909532070159912,-1.0680053234100342,0.1856045424938202,1.37900397528627,0.5053916418644594
1790173710231614200,9.9026142578125,-0.863427460193634,-1.015848159790039,0.3430008292198181,1.2712500785719223,0.5282303184611824
1790173710241686000,9.91268603515625,-0.8901585340499878,-0.979462504386902,0.259138822555542,1.2531208090126467,0.4985681303661993
1790173710251758000,9.922758056640625,-0.9263468980789183,-0.9355650544166564,0.151575356721878,1.233182264675353,0.4854246980548137
1790173710261829000,9.9328291015625,-0.8336034417152405,-0.9164617657661438,0.2317573130130767,1.173254909452938,0.4604142001831737
1790173710271901200,9.942901123046877,-0.7122538089752197,-0.8923758268356323,0.3316333293914795,1.0958727149994096,0.4611764981039114
1790173710281973000,9.952972900390623,-0.6104561686515808,-0.8829590678215027,0.471635639667511,1.0384117090091953,0.5444398483672633
1790173710292044800,9.963044921875,-0.5376671552658081,-0.8727104663848877,0.5163994431495667,0.9964147494933501,0.5696802259747494
1790173710302116900,9.973116943359376,-0.569715678691864,-0.8387711048126221,0.5994243025779724,0.9759112796419089,0.6595601485874493
1790173710312187600,9.983187744140626,-0.5511004328727722,-0.8149142265319824,0.4879196286201477,0.9510039719170758,0.549048170115833
1790173710322259700,9.993259765625,-0.4480257928371429,-0.8294939398765564,0.4417559504508972,0.9223413049088074,0.4829307863008699
1790173710332330800,10.003330810546874,-0.4188090562820434,-0.806644856929779,0.5243335962295532,0.8858875398126318,0.5623219164987777
1790173710342402800,10.01340283203125,-0.478620707988739,-0.80705326795578,0.4516928493976593,0.9146192628479188,0.4979064105414309
1790173710352474600,10.023474609375,-0.496998131275177,-0.8389875292778015,0.3628649711608886,0.9549472452010808,0.41310284791217206
1790173710362545700,10.033545654296876,-0.4598925113677978,-0.8340233564376831,0.4563588798046112,0.9308756709865266,0.4988286213096257
1790173710372617700,10.04361767578125,-0.3750524520874023,-0.8595835566520691,0.3976244628429413,0.9203994780353084,0.4364839595756796
1790173710382689800,10.053689697265623,-0.320007711648941,-0.8481027483940125,0.3270686268806457,0.8895474218060431,0.37062444387288046
1790173710392760800,10.0637607421875,-0.2948453724384308,-0.8160886168479919,0.3448596000671386,0.8491808128911993,0.3882711874104671
1790173710402832600,10.07383251953125,-0.3287662863731384,-0.7745723724365234,0.3197285234928131,0.827053533265798,0.3553285986871624
1790173710412903700,10.083903564453124,-0.3742032647132873,-0.7396578192710876,0.3900569975376129,0.8118705283414467,0.424420168547138
1790173710422975700,10.093975830078126,-0.3069995045661926,-0.7659710645675659,0.4420360922813415,0.8050200475477579,0.4778064435356875
1790173710433047800,10.1040478515625,-0.2092284560203552,-0.7832714915275574,0.4479211568832397,0.7789347876936326,0.5011833352703992
1790173710443118800,10.114118896484374,-0.1837266385555267,-0.7895765900611877,0.4935146868228912,0.7719456648128628,0.552126168528616
1790173710453191000,10.12419091796875,-0.1786711663007736,-0.7695000767707825,0.389932632446289,0.7558876284738644,0.4524766345173734
1790173710463262000,10.134261962890625,-0.1956950426101684,-0.7269647121429443,0.3254060745239258,0.727283095749791,0.37910770814761935
1790173710473333800,10.144333740234377,-0.1712197810411453,-0.7299530506134033,0.3692611455917358,0.7178007460991914,0.42809292456516573
1790173710483405800,10.15440576171875,-0.0750692784786224,-0.737025260925293,0.327633649110794,0.6850996776926951,0.4322312708126486
1790173710493476900,10.164476806640623,-0.0362963117659091,-0.7017695307731628,0.3836212754249573,0.634458305669023,0.48828868294857775
1790173710503549000,10.174548828125,-0.0263028461486101,-0.6898547410964966,0.4558070302009582,0.6164794704032153,0.5516380288566227
1790173710513619700,10.18461962890625,-0.0865331664681434,-0.6701659560203552,0.4144976735115051,0.6259251105847775,0.4864529522919604
1790173710523691800,10.19469189453125,-0.0738858133554458,-0.660382866859436,0.4083891808986664,0.6119589004376303,0.483583158833032
1790173710533763800,10.204763916015626,0.0642382353544235,-0.6560187339782715,0.344114601612091,0.5520286443658443,0.4981629904500742
1790173710543834600,10.214834716796876,0.1120920628309249,-0.5980621576309204,0.3541726768016815,0.4788828564583473,0.5160934699480377
1790173710553906700,10.22490673828125,0.1184152066707611,-0.5576486587524414,0.374763160943985,0.438798956040737,0.5223955309509859
1790173710563977700,10.234977783203124,0.1012881323695182,-0.5558111667633057,0.3540423214435577,0.445255124093895,0.49626523019345786
1790173710574049800,10.2450498046875,0.1069252490997314,-0.5866875648498535,0.2418281584978103,0.4753937104688698,0.43372455076185523
1790173710584121600,10.25512158203125,0.1275024712085724,-0.5888387560844421,0.2780812680721283,0.4671201469972452,0.47129175756981045
1790173710594192600,10.265192626953125,0.1947425007820129,-0.5774763822555542,0.309931606054306,0.42700020943244227,0.5339775606238967
1790173710604264700,10.2752646484375,0.1708264499902725,-0.5409508347511292,0.2136975973844528,0.40805708224690146,0.44829182726239347
1790173710614336800,10.285336669921875,0.1322825253009796,-0.5342745184898376,0.1983876079320907,0.419003495055038,0.4083401054516098
1790173710624407800,10.29540771484375,0.1366314589977264,-0.5324720740318298,0.1976152956485748,0.4155591206954927,0.4105570453574855
1790173710634479900,10.30547998046875,0.1653139740228653,-0.5267276763916016,0.1820810735225677,0.3988274805164075,0.4229195114962108
1790173710644551000,10.315551025390626,0.1780791282653808,-0.5268879532814026,0.1229089051485061,0.3959815798762113,0.40942432585322475
1790173710654622700,10.325622802734374,0.1270180642604828,-0.5241882801055908,0.1095350384712219,0.41575781741353046,0.3606248792872824
1790173710664694800,10.33569482421875,0.1163570806384086,-0.5120187401771545,0.1767153441905975,0.4065193479939164,0.3763940662208903
1790173710674765800,10.345765869140624,0.0931921079754829,-0.5013245940208435,0.1447145342826843,0.4079892144976571,0.3383758484958944
1790173710684838000,10.355837890625,0.0429020337760448,-0.5073299407958984,0.0013626487925648,0.44064249853411847,0.2550692036044962
1790173710694909000,10.365908935546877,0.052397534251213,-0.5437923669815063,-0.0468219220638275,0.47157075626145967,0.27976589178758454
1790173710704980700,10.375980712890623,0.0706956461071968,-0.5394554734230042,0.0598948746919631,0.4555060606235183,0.30349910532678875
1790173710715052800,10.386052734375,0.1137288659811019,-0.5250389575958252,0.0737832635641098,0.4236332011413629,0.3384952626308832
1790173710725123800,10.396123779296875,0.066861942410469,-0.5187105536460876,0.09869946539402,0.4367769253298673,0.3041359231909057
1790173710735196000,10.40619580078125,0.0597635507583618,-0.5156042575836182,0.1879545003175735,0.4333194534591952,0.3420242358094736
1790173710745268000,10.41626806640625,0.0768419131636619,-0.5013814568519592,0.1414525508880615,0.41511327267484915,0.32400283933256
1790173710755338800,10.4263388671875,0.0466840155422687,-0.5059258937835693,0.1549784839153289,0.43146798067724423,0.3098291778300573
1790173710765410600,10.43641064453125,0.019974622875452,-0.519831657409668,0.1165529415011406,0.45695738850913475,0.27458781994797016
1790173710775481600,10.446481689453124,0.0309068989008665,-0.4956704080104828,0.2103683799505233,0.4266156037527908,0.3299975328613782
1790173710785553700,10.4565537109375,0.0414604544639587,-0.4729823470115661,0.1588350534439087,0.403727554725854,0.2960809106081299
1790173710795625700,10.466625732421877,0.0303878299891948,-0.4881221354007721,0.0131987566128373,0.4280935955474073,0.2368474612637417
1790173710805696800,10.47669677734375,0.0620488636195659,-0.5123365521430969,-0.0109062828123569,0.437548634281137,0.27387760730269756
1790173710815768800,10.486768798828123,0.0890634357929229,-0.5112446546554565,0.0748661458492279,0.42157890769237033,0.311736357988995
1790173710825839900,10.49683984375,0.111278586089611,-0.4964205026626587,0.124930202960968,0.39668881161382813,0.34214292560014603
1790173710835911700,10.50691162109375,0.0955446362495422,-0.5116643905639648,0.0850389823317527,0.4187908586808337,0.32058551322329115
1790173710845983700,10.516983642578126,0.0728464126586914,-0.4874787926673889,0.1452853679656982,0.40407608468632206,0.3174468917270983
1790173710856054800,10.5270546875,0.056601658463478,-0.4772389233112335,0.2402395755052566,0.3978138476936752,0.361137001546755
