time,seconds_elapsed,z,y,x
1789996807541404000,1.56940380859375,0.0330772995948791,-0.1290621608495712,-0.0313668847084045
1789996807551475000,1.579474853515625,0.0159084312617778,-0.1586450934410095,-0.0103819724172353
1789996807561546000,1.5895458984375,0.0366443991661071,-0.1599875688552856,0.0406179204583168
1789996807571617000,1.599616943359375,0.0863344594836235,-0.1457772105932235,0.0313264168798923
1789996807581688000,1.60968798828125,0.0778403282165527,-0.1055415198206901,-0.0214144978672266
1789996807591759000,1.619759033203125,0.1175424680113792,-0.0925141349434852,0.0063324440270662
1789996807601830000,1.629829833984375,0.0953666269779205,-0.0714084208011627,0.0316546075046062
1789996807611902000,1.63990185546875,0.1253072172403335,-0.0594620108604431,0.0140636311843991
1789996807621973000,1.649972900390625,0.1627963334321975,-0.0201173722743988,0.0046720206737518
1789996807632044000,1.6600439453125,0.1577909141778946,0.021402109414339,0.0436527095735073
1789996807642115000,1.670114990234375,0.1699375659227371,0.0607097186148166,0.0119122937321662
1789996807652186000,1.68018603515625,0.1887727677822113,0.1476326286792755,-0.0942192003130912
1789996807662257200,1.690257080078125,0.1807972490787506,0.2255148291587829,-0.1277650594711303
1789996807672328000,1.700327880859375,0.2091114372014999,0.2148792296648025,-0.0027104711625725
1789996807682399000,1.71039892578125,0.2216608524322509,0.2553106248378753,-0.0782527104020118
1789996807692470000,1.720469970703125,0.2622354626655578,0.337675005197525,-0.0339148044586181
1789996807702541000,1.730541015625,0.2762081027030945,0.3405697643756866,0.0552303604781627
1789996807712612000,1.740612060546875,0.2513829171657562,0.356300801038742,-0.0433034040033817
1789996807722684200,1.75068408203125,0.2489552050828933,0.4094978272914886,-0.0858184397220611
1789996807732755200,1.760755126953125,0.2740693688392639,0.4278600513935089,0.0524459592998027
1789996807742827000,1.770826904296875,0.2688166201114654,0.4111987948417663,0.0541888177394866
1789996807752897800,1.780897705078125,0.2555066645145416,0.4601945579051971,-0.0383685454726219
1789996807762968800,1.79096875,0.2864728569984436,0.462776631116867,0.0191321056336164
1789996807773039900,1.801039794921875,0.2243215888738632,0.4293246567249298,-0.0084497211501002
1789996807783111000,1.81111083984375,0.1589627265930175,0.4410763680934906,-0.0476876273751258
1789996807793182000,1.821181884765625,0.1708289682865142,0.3802015781402588,0.123263344168663
1789996807803253000,1.8312529296875,0.1479193419218063,0.3396823704242706,0.0960816890001297
1789996807813324000,1.841323974609375,0.1095261424779892,0.3470990061759949,-0.0358260050415992
1789996807823395800,1.851395751953125,0.0615269020199775,0.3131403923034668,0.0428133569657802
1789996807833467000,1.861466796875,0.0685161054134368,0.2358794212341308,0.0866162329912185
1789996807843538000,1.871537841796875,0.0495584793388843,0.2035460621118545,0.0164246801286935
1789996807853609000,1.88160888671875,0.0214573368430137,0.1904837936162948,-0.0163183510303497
1789996807863680000,1.891679931640625,-0.0395844206213951,0.1851501166820526,-0.0599214285612106
1789996807873751000,1.9017509765625,-0.1094314083456993,0.1452799290418625,-0.0590812005102634
1789996807883822000,1.911822021484375,-0.1195514202117919,0.0878229588270187,0.07801503688097
1789996807893892900,1.921892822265625,-0.1438061594963073,0.0177679788321256,0.0363437570631504
1789996807903964000,1.9319638671875,-0.1449564397335052,-0.0225330553948879,-0.0209749285131692
1789996807914035000,1.942034912109375,-0.1454722881317138,-0.0540736690163612,0.0468837469816207
1789996807924106000,1.95210595703125,-0.1460589915513992,-0.0724018067121505,0.08167315274477
1789996807934177800,1.962177734375,-0.1539720296859741,-0.0938546359539032,0.0470597818493843
1789996807944248800,1.972248779296875,-0.1209422722458839,-0.1155383065342903,-0.0131936827674508
1789996807954320000,1.98231982421875,-0.089741475880146,-0.1022677719593048,-0.0693328455090522
1789996807964390700,1.992390625,-0.1042212322354316,-0.100680686533451,-0.0615047365427017
1789996807974461700,2.002461669921875,-0.1002669706940651,-0.1645589917898178,0.0912903994321823
1789996807984532700,2.01253271484375,-0.1501047164201736,-0.1819384545087814,0.0821579098701477
1789996807994603800,2.022603759765625,-0.1333238631486892,-0.1738650947809219,0.0516631156206131
1789996808004674800,2.0326748046875,-0.1387929618358612,-0.1476488560438156,0.0292207933962345
1789996808014745900,2.042745849609375,-0.1039462983608245,-0.1463212668895721,-0.0511235818266868
1789996808024816600,2.052816650390625,-0.0958056449890136,-0.1489177197217941,-0.0459715835750103
1789996808034887700,2.0628876953125,-0.109331838786602,-0.1501912325620651,-0.0368409343063831
1789996808044959700,2.072959716796875,-0.1039379239082336,-0.1004176586866378,-0.0784285217523574
1789996808055030800,2.08303076171875,-0.0649670958518982,-0.0656721889972686,-0.1195421367883682
1789996808065101800,2.093101806640625,-0.07589653134346,-0.0558235459029674,0.0019896661397069
1789996808075172900,2.1031728515625,-0.1226129010319709,-0.0647422075271606,-0.0260747261345386
1789996808085244000,2.113243896484375,-0.0973567515611648,-0.0262563861906528,-0.0687513574957847
1789996808095314700,2.123314697265625,-0.065611608326435,0.0033736769109964,-0.0442428216338157
1789996808105385700,2.1333857421875,-0.0750505030155181,-0.0126189105212688,-0.0248240288347005
1789996808115456800,2.143456787109375,-0.088486410677433,-0.0012943502515554,-0.004832477774471
1789996808125527800,2.15352783203125,-0.0575284399092197,-0.0367878749966621,0.0432179644703865
1789996808135598800,2.163598876953125,-0.0282653607428073,-0.0406190976500511,0.0043179695494472
1789996808145670000,2.173669921875,-0.0037598125636577,-0.0415599420666694,0.0063174716196954
1789996808155742000,2.183741943359375,-0.0377055257558822,-0.0105839185416698,0.0609575472772121
1789996808165813000,2.19381298828125,-0.0385156944394111,0.0148787852376699,0.04258843511343
1789996808175883800,2.2038837890625,-0.0409322455525398,0.0464092828333377,0.0197875127196311
1789996808185954800,2.213954833984375,-0.0235939435660839,0.077234461903572,0.0538173876702785
1789996808196025900,2.22402587890625,-0.0087739843875169,0.0812923237681388,0.0312194004654884
1789996808206097000,2.234096923828125,0.0023581502027809,0.1039368882775306,-0.0398757047951221
1789996808216168000,2.24416796875,0.0263955760747194,0.082772746682167,0.0003545423387549
1789996808226239000,2.254239013671875,0.0177402459084987,0.0703758373856544,0.0039481818675994
1789996808236309800,2.264309814453125,0.0396711118519306,0.0893841460347175,0.0352347306907177
1789996808246380800,2.274380859375,0.0543657764792442,0.0944665521383285,0.0436622202396392
1789996808256452900,2.284452880859375,-0.0010375587735325,0.0449722409248352,0.0207204185426235
1789996808266524000,2.29452392578125,-0.0133499167859554,-0.047687828540802,0.0783916488289833
1789996808276595000,2.304594970703125,-0.0069040013477206,-0.0789336338639259,0.0544157400727272
1789996808286666000,2.314666015625,0.0237924233078956,-0.0954175591468811,0.0450535416603088
1789996808296737000,2.324737060546875,-0.0374091491103172,-0.0939714610576629,-0.0420683100819587
1789996808306807800,2.334807861328125,-0.0389970429241657,-0.1105300411581993,-0.0339438281953334
1789996808316878800,2.34487890625,-0.0040313377976417,-0.102509394288063,0.0618098638951778
1789996808326950000,2.354949951171875,-0.0159722995012998,-0.0969790369272232,0.0629602819681167
1789996808337021000,2.36502099609375,-0.0060490951873362,-0.1167423576116561,0.0613711774349212
1789996808347092000,2.375092041015625,-0.0730166435241699,-0.1085759997367858,0.0088727744296193
1789996808357163000,2.3851630859375,-0.0326412618160247,-0.1338438093662262,0.0279940050095319
1789996808367233800,2.39523388671875,-0.0390330553054809,-0.1067831367254257,-0.0629089102149009
1789996808377305900,2.405305908203125,-0.0800718367099762,-0.1173542886972427,-0.0758356228470802
1789996808387377000,2.415376953125,-0.0443180054426193,-0.1120277047157287,-0.0081990994513034
1789996808397448000,2.425447998046875,-0.0245813205838203,-0.1217333301901817,0.0243079774081707
1789996808407519000,2.43551904296875,-0.0377328991889953,-0.1375463753938675,0.0668522864580154
1789996808417590000,2.445590087890625,-0.0690841600298881,-0.0978114753961563,0.0231370292603969
1789996808427661000,2.4556611328125,-0.0755954757332801,-0.0740410611033439,-0.0179952066391706
1789996808437731800,2.46573193359375,-0.0644083395600318,-0.088790975511074,-0.0530216358602047
1789996808447803000,2.475802978515625,-0.0102775441482663,-0.1097626313567161,-0.0499247051775455
1789996808457874000,2.4858740234375,0.0702633708715438,-0.0742752104997634,0.0064051486551761
1789996808467945000,2.495945068359375,0.0964048653841018,-0.0621553659439086,0.0713123455643653
1789996808478016000,2.50601611328125,0.0856182649731636,-0.0319444611668586,0.0126205356791615
1789996808488087800,2.516087890625,0.1037570610642433,0.0137671567499637,-0.0701646134257316
1789996808498158800,2.526158935546875,0.1611271351575851,0.0856091231107711,-0.0214977413415908
1789996808508230000,2.53622998046875,0.1803601384162902,0.1445811688899994,-0.0566124692559242
1789996808518300700,2.54630078125,0.1600836217403412,0.151444137096405,-0.0074622328393161
1789996808528371700,2.556371826171875,0.192250519990921,0.1899997293949127,-0.0054457513615489
1789996808538442800,2.56644287109375,0.1625173985958099,0.2277151495218277,-0.0001633713254705
1789996808548513800,2.576513671875,0.1586185842752456,0.227614164352417,0.0537595376372337
1789996808558584800,2.586584716796875,0.1526043713092804,0.2620296478271484,-0.0152906375005841
1789996808568656000,2.59665576171875,0.1476994305849075,0.2942026853561401,0.0191078167408704
1789996808578726700,2.6067265625,0.1222955286502838,0.3329538106918335,-0.0646624416112899
1789996808588797700,2.616797607421875,0.1210381910204887,0.3126190602779388,-0.0538769103586673
1789996808598869800,2.626869873046875,0.1178810149431228,0.3167456388473511,0.0242091007530689
1789996808608940800,2.63694091796875,0.0657019093632698,0.2968499958515167,0.044182788580656
1789996808619011800,2.64701171875,0.0148307364434003,0.2576842308044433,-0.010271399281919
1789996808629083000,2.657082763671875,-0.0043090749531984,0.2570812404155731,-0.0750461146235466
1789996808639154000,2.66715380859375,0.0492340438067913,0.2692936956882477,-0.0296243038028478
1789996808649224700,2.677224609375,0.0920911431312561,0.2619831264019012,0.0310101080685853
1789996808659295700,2.687295654296875,0.0056055174209177,0.1871075481176376,0.0485968254506588
1789996808669366800,2.69736669921875,-0.0487419962882995,0.1762569099664688,0.0363286845386028
1789996808679437800,2.707437744140625,-0.0774282366037368,0.1856541484594345,-0.0804914087057113
1789996808689508900,2.7175087890625,-0.0646666884422302,0.122632548213005,-0.0631119981408119
1789996808699580000,2.727579833984375,-0.0293766129761934,0.0560838878154754,0.0810446441173553
1789996808709650700,2.737650634765625,-0.0517822280526161,0.015274335630238,0.1111595928668975
1789996808719722800,2.74772265625,-0.0667425394058227,0.019822746515274,0.021915465593338
1789996808729793800,2.757793701171875,-0.0717038512229919,0.0216466356068849,-0.0461112782359123
1789996808739864800,2.76786474609375,-0.0667112246155738,0.0200524684041738,-0.0150574864819645
1789996808749935600,2.777935546875,-0.0735367313027381,-0.0101999156177043,-0.0065625049173831
1789996808760006700,2.788006591796875,-0.0949746444821357,-0.0620540603995323,0.0395266935229301
1789996808770077700,2.79807763671875,-0.0595995262265205,-0.0205018147826194,-0.0055999914184212
1789996808780148500,2.8081484375,-0.0556963942945003,0.0041127176955342,-0.0370135754346847
1789996808790219500,2.818219482421875,-0.0374849624931812,-0.0073584732599556,0.014363600872457
1789996808800290600,2.82829052734375,-0.0619716607034206,-0.0226756446063518,0.029451472684741
1789996808810361600,2.838361572265625,-0.0512731224298477,-0.0372961312532424,-0.0371387191116809
1789996808820432600,2.8484326171875,-0.028065538033843,-0.0146832298487424,-0.0343290828168392
1789996808830504700,2.858504638671875,-0.04026485607028,-0.0017822156660258,-0.0538318455219268
1789996808840575700,2.86857568359375,-0.0068067647516727,-0.0259506683796644,0.058652888983488
1789996808850646500,2.878646484375,0.0106291892006993,-0.0128206014633178,0.0464630089700222
1789996808860717600,2.888717529296875,0.0239098407328128,0.0266671516001224,-0.0391568206250667
1789996808870788600,2.89878857421875,-0.0119431428611278,0.0305073019117116,-0.0565124861896038
1789996808880859600,2.908859619140625,0.0021596262231469,0.021070122718811,-0.0170716047286987
1789996808890930700,2.9189306640625,-0.0191925354301929,0.01345088891685,0.0919100940227508
1789996808901001700,2.929001708984375,-0.0255124829709529,-0.0128590120002627,0.1702648252248764
1789996808911072500,2.939072509765625,-0.0578703023493289,0.0190044902265071,0.0559939295053482
1789996808921143600,2.9491435546875,-0.0848515927791595,0.0551931224763393,-0.0078782616183161
1789996808931214600,2.959214599609375,-0.0125110503286123,0.0781145319342613,0.1085141748189926
1789996808941285600,2.96928564453125,0.0151730421930551,0.1393134444952011,0.0434550084173679
1789996808951357700,2.979357666015625,0.0006635781028307,0.1242601424455642,0.0720555409789085
1789996808961428700,2.9894287109375,0.0476728975772857,0.1148919388651847,0.1521333307027816
1789996808971499800,2.999499755859375,0.0040987012907862,0.1387502551078796,0.038244966417551
1789996808981570800,3.00957080078125,-0.0615727193653583,0.099136009812355,0.0132123157382011
1789996808991641600,3.0196416015625,-0.0709283724427223,0.0764835402369499,0.1095615252852439
1789996809001712600,3.029712646484375,-0.0475594066083431,0.0512966960668563,0.0418866127729415
1789996809011783700,3.03978369140625,-0.0324531570076942,0.0283106863498687,-0.0195794124156236
1789996809021854700,3.049854736328125,-0.0327117480337619,0.048835139721632,-0.0204465389251709
1789996809031925800,3.05992578125,-0.0039547574706375,0.0313889682292938,-0.0423172824084758
1789996809041996800,3.069996826171875,-0.0517763420939445,-0.0020952215418219,-0.0003525204665493
1789996809052067600,3.080067626953125,-0.0447746850550174,-0.0353707075119018,0.0137085234746336
1789996809062138600,3.090138671875,-0.0684568434953689,-0.0653038397431373,0.0120368571951985
1789996809072210400,3.10021044921875,-0.0842883884906768,-0.0585541687905788,-0.0158214271068573
1789996809082281500,3.110281494140625,-0.0671426877379417,-0.0283557865768671,-0.0070156846195459
1789996809092352500,3.1203525390625,-0.0578994825482368,-0.0248287636786699,0.0189173147082328
1789996809102423600,3.130423583984375,-0.0944031700491905,0.0029866220429539,-0.0553507916629314
1789996809112494600,3.14049462890625,-0.155647724866867,0.0245639737695455,-0.1275658905506134
1789996809122565600,3.150565673828125,-0.1317967176437378,-0.0117535525932908,-0.1291709840297699
1789996809132636700,3.16063671875,-0.1264164298772812,-0.0283744074404239,-0.0985092744231224
1789996809142707700,3.170707763671875,-0.1617131680250167,-0.0469598099589347,-0.1036158800125122
1789996809152778800,3.18077880859375,-0.1600805073976516,-0.0347061194479465,-0.1091173961758613
1789996809162849800,3.190849853515625,-0.1503101587295532,-0.0430551283061504,-0.040534608066082
1789996809172920600,3.200920654296875,-0.1207853257656097,-0.0641586631536483,-0.0871825516223907
1789996809182991600,3.21099169921875,-0.0966669395565986,-0.1205590814352035,-0.0288920849561691
1789996809193063400,3.2210634765625,-0.088977538049221,-0.1569735258817672,0.0099683366715908
1789996809203134500,3.231134521484375,-0.0565572753548622,-0.1407165378332138,-0.0304094459861516
1789996809213205500,3.24120556640625,-0.0810080021619796,-0.1302041858434677,-0.0546495802700519
1789996809223276500,3.251276611328125,-0.086632065474987,-0.128792718052864,-0.0462457090616226
1789996809233347600,3.26134765625,-0.0684466063976287,-0.1229021102190017,-0.0808412134647369
1789996809243418600,3.271418701171875,-0.0483312159776687,-0.1064269989728927,-0.0315354503691196
1789996809253489400,3.281489501953125,-0.040579967200756,-0.1121938303112983,0.0176879335194826
1789996809263560400,3.291560546875,-0.0713996663689613,-0.1642232090234756,0.0114300372079014
1789996809273631500,3.301631591796875,-0.053387701511383,-0.1522993892431259,0.0155237959697842
1789996809283702500,3.31170263671875,-0.0656579509377479,-0.1138705164194107,0.0495784357190132
1789996809293773600,3.321773681640625,-0.0520734302699565,-0.0891107022762298,0.0582500919699668
1789996809303844600,3.3318447265625,-0.0626610964536666,-0.0530014336109161,0.0180091988295316
1789996809313915400,3.341915283203125,-0.07123464345932,-0.0542540326714515,0.0190579127520322
1789996809323987700,3.35198779296875,-0.0882847309112548,-0.050194039940834,0.039357591420412
1789996809334058500,3.36205859375,-0.1055122762918472,-0.0525338947772979,0.0122610088437795
1789996809344129500,3.372129638671875,-0.1349753588438034,-0.0441119149327278,-0.0263239331543445
1789996809354200600,3.38220068359375,-0.1568966805934906,-0.0233031269162893,-0.090692713856697
1789996809364271600,3.392271728515625,-0.1867973357439041,0.0054438319057226,-0.1281956136226654
1789996809374342700,3.4023427734375,-0.1930793672800064,0.0184245444834232,-0.0880461260676384
1789996809384413700,3.41241357421875,-0.1299781650304794,-0.0171422362327575,-0.0075148050673305
1789996809394484500,3.422484375,-0.0985112935304641,-0.0608294233679771,0.1441471576690673
1789996809404555500,3.432555419921875,-0.1591661274433136,-0.1255652755498886,0.0703224763274192
1789996809414626600,3.44262646484375,-0.1808762997388839,-0.1270816773176193,-0.0819136500358581
1789996809424697600,3.452697509765625,-0.1308906376361847,-0.0976244509220123,-0.0034870177041739
1789996809434768600,3.4627685546875,-0.1408519297838211,-0.0997120440006256,0.0028282045386731
1789996809444840700,3.4728408203125,-0.0962468981742858,-0.1731934547424316,-0.0257163532078266
1789996809454911700,3.482911865234375,-0.08778677880764,-0.2274550050497055,0.0140589298680424
1789996809464982500,3.492982421875,-0.0658271536231041,-0.2456190884113311,-0.0329296179115772
1789996809475053600,3.503053466796875,-0.0733816847205162,-0.2703575789928436,-0.0880213975906372
1789996809485124600,3.51312451171875,-0.0523232631385326,-0.2895579040050506,0.0073637077584862
1789996809495195600,3.523195556640625,-0.0473411120474338,-0.2468037754297256,0.0252662897109985
1789996809505266700,3.5332666015625,-0.0600068420171737,-0.2584436535835266,-0.0155125651508569
1789996809515337700,3.543337646484375,-0.0899755731225013,-0.2619343996047973,-0.0538004301488399
1789996809525408500,3.553408447265625,-0.1064770519733429,-0.2541635632514953,-0.0494032837450504
1789996809535479600,3.5634794921875,-0.0492502748966217,-0.252934068441391,0.043159645050764
1789996809545550600,3.573550537109375,-0.0132014593109488,-0.2318218648433685,0.064626321196556
1789996809555621600,3.58362158203125,-0.018345296382904,-0.2048220485448837,0.0541885755956172
1789996809565693700,3.593693603515625,-0.0068782577291131,-0.2180510312318802,0.0111939692869782
1789996809575764700,3.6037646484375,-0.0223336741328239,-0.2329886257648468,-0.0764819309115409
1789996809585835800,3.613835693359375,0.062110636383295,-0.2361282259225845,-0.0434094667434692
1789996809595906600,3.623906494140625,0.0943146422505378,-0.1631396263837814,-0.0111831966787576
1789996809605977600,3.6339775390625,0.0775622949004173,-0.1444658041000366,0.0483371242880821
1789996809616048600,3.644048583984375,0.0839373469352722,-0.1266110390424728,0.0819914266467094
1789996809626119700,3.65411962890625,0.0615747794508934,-0.0933678597211837,0.0689523220062255
1789996809636190700,3.664190673828125,0.0736430361866951,-0.0856041833758354,0.0801862180233001
1789996809646261800,3.67426171875,0.1094351261854171,-0.0854036509990692,0.0083666201680898
1789996809656332500,3.68433251953125,0.093426838517189,-0.0507763400673866,-0.0111983818933367
1789996809666403600,3.694403564453125,0.1243719682097435,0.0160679351538419,-0.095599815249443
1789996809676474600,3.704474609375,0.1861893832683563,0.0657744854688644,-0.063465416431427
1789996809686545700,3.714545654296875,0.1995800286531448,0.0988136604428291,-0.0376319624483585
1789996809696616700,3.72461669921875,0.2057305574417114,0.1271850615739822,-0.087662860751152
1789996809706688800,3.734688720703125,0.2422414422035217,0.1515966653823852,-0.0534327179193496
1789996809716759800,3.744759765625,0.2876082062721252,0.1828784346580505,0.0603324621915817
1789996809726830800,3.754830810546875,0.2576662898063659,0.2317754030227661,0.0327873900532722
1789996809736901600,3.764901611328125,0.2816226184368133,0.251574844121933,0.0131171057000756
1789996809746972700,3.77497265625,0.3086456954479217,0.2833865582942962,0.0811938941478729
1789996809757043700,3.785043701171875,0.2913371622562408,0.295030266046524,0.0349416211247444
1789996809767114800,3.79511474609375,0.3012140393257141,0.3033840656280517,-0.0124282939359545
1789996809777185800,3.805185791015625,0.2892457246780395,0.323228120803833,0.0049450602382421
1789996809787256800,3.8152568359375,0.2451416552066803,0.3200158178806305,-0.0334297604858875
1789996809797328000,3.825327880859375,0.2263935804367065,0.3012182414531708,-0.0210184548050165
1789996809807399000,3.83539892578125,0.2278330326080322,0.3183929920196533,0.0043377666734158
1789996809817470000,3.845469970703125,0.1784387230873108,0.3141080439090729,-0.0550425536930561
1789996809827541800,3.855541748046875,0.1675399988889694,0.29176065325737,-0.0426476672291755
1789996809837612800,3.86561279296875,0.1621060669422149,0.3066852986812591,0.0077029606327414
1789996809847683600,3.87568359375,0.1307894140481948,0.2858040034770965,-0.0233798567205667
1789996809857754600,3.885754638671875,0.1088498532772064,0.2267516404390335,-0.0584972947835922
1789996809867825700,3.89582568359375,0.0498629622161388,0.1987690180540084,-0.043042704463005
1789996809877896700,3.905896728515625,0.0299285221844911,0.1896206438541412,-0.0409789979457855
1789996809887967700,3.9159677734375,0.01001260522753,0.1746845692396164,0.0002035913639701
1789996809898038800,3.926038818359375,0.0041762576438486,0.1350078880786895,-0.0184723790735006
1789996809908109600,3.936109619140625,0.0567366704344749,0.0594947524368763,0.0414226427674293
1789996809918180600,3.9461806640625,0.0828473716974258,0.0115642426535487,0.054518736898899
1789996809928251600,3.956251708984375,0.0244146827608346,0.009192164056003,-0.0027195161674171
1789996809938322700,3.96632275390625,-0.0261972118169069,0.0130697479471564,0.0169520247727632
1789996809948393700,3.976393798828125,-0.0446619726717472,0.0078582074493169,0.0131117459386587
1789996809958464800,3.98646484375,-0.0195146594196558,-0.0267078690230846,-0.040214616805315
1789996809968536800,3.996536865234375,-0.0115020060911774,-0.0664560794830322,0.0335770510137081
1789996809978607600,4.006607666015625,0.002987393643707,-0.0201078467071056,-0.0194860715419054
1789996809988678700,4.0166787109375,0.0150544419884681,-0.0106530915945768,-0.0483376942574977
1789996809998749700,4.026749755859375,0.0377568267285823,-0.0055661872029304,0.0139216845855116
1789996810008820700,4.03682080078125,0.0525610707700252,-0.0029126140289008,0.0797880515456199
1789996810018891800,4.046891845703125,0.0702608823776245,0.004837118089199,-0.0126034710556268
1789996810028962800,4.056962890625,0.0633710175752639,0.0479177422821521,0.03412302210927
1789996810039033900,4.067033935546875,0.0642420500516891,0.0584235191345214,0.0387469418346881
1789996810049104600,4.077104736328125,0.0426502078771591,0.099744327366352,-0.017244154587388
1789996810059175700,4.08717578125,0.0726297125220298,0.1192174702882766,0.0243483018130064
1789996810069246700,4.097246826171875,0.127039685845375,0.109618104994297,0.0389749146997928
1789996810079317800,4.10731787109375,0.0843981578946113,0.1086105331778526,0.0423511005938053
1789996810089388800,4.117388916015625,0.0214873682707548,0.1412393301725387,0.0077116312459111
1789996810099460900,4.1274609375,0.0364854633808136,0.1736843138933181,0.0233886409550905
1789996810109532000,4.137531982421875,0.0224601905792951,0.1913131028413772,-0.0250169746577739
1789996810119602700,4.147602783203125,-0.0146749578416347,0.1750847548246383,0.0236807782202959
1789996810129673700,4.157673828125,-0.037074539810419,0.2041206657886505,0.0025190340820699
1789996810139744800,4.167744873046875,-0.0045260889455676,0.170016810297966,0.0446731410920619
1789996810149815800,4.17781591796875,-0.0197569727897644,0.1487461477518081,0.0299357417970895
1789996810159886800,4.187886962890625,-0.0358946993947029,0.1427101194858551,-0.0093148127198219
1789996810169958000,4.1979580078125,-0.0813596472144126,0.1552205830812454,-0.097343735396862
1789996810180028700,4.208028564453125,-0.0688759088516235,0.1751742660999298,-0.0453402586281299
1789996810190099700,4.218099609375,-0.017294205725193,0.1177200153470039,0.0813633576035499
1789996810200170800,4.228170654296875,0.0030765810515731,0.0430165491998195,0.1410597562789917
1789996810210241800,4.23824169921875,-0.0020073933992534,-0.0136243598535656,0.1776169687509536
1789996810220312800,4.248312744140625,-0.0431214794516563,-0.0417736805975437,0.1903749704360962
1789996810230383900,4.2583837890625,-0.0795881450176239,-0.0751787796616554,0.0991089642047882
1789996810240456000,4.2684560546875,-0.1155783757567405,-0.0647457838058471,0.0577144399285316
1789996810250526700,4.278526611328125,-0.1183975934982299,-0.0635625347495079,0.0891879424452781
1789996810260597800,4.28859765625,-0.1043068915605545,-0.0961283296346664,0.0750339180231094
1789996810270668800,4.298668701171875,-0.1347875744104385,-0.1265067458152771,0.0431638732552528
1789996810280739800,4.30873974609375,-0.1094168201088905,-0.1048972308635711,-0.0018851717468351
1789996810290811000,4.318810791015625,-0.0991436764597892,-0.0795735046267509,-0.0283559281378984
1789996810300882000,4.3288818359375,-0.1190570816397667,-0.0871940925717353,-0.0149847697466611
1789996810310952700,4.33895263671875,-0.1123040989041328,-0.1032593473792076,0.0198493767529726
1789996810321023700,4.349023681640625,-0.1445807218551635,-0.1123949810862541,-0.0111638670787215
1789996810331094800,4.3590947265625,-0.1962580382823944,-0.1158320605754852,-0.0682242289185524
1789996810341165800,4.369165771484375,-0.1905960589647293,-0.1290191709995269,-0.0647722110152244
1789996810351236900,4.37923681640625,-0.1376545429229736,-0.1615872383117675,0.02860221080482
1789996810361308000,4.389307861328125,-0.1001258194446563,-0.1829962581396103,0.0857868492603302
1789996810371378700,4.399378662109375,-0.0901786535978317,-0.2041641175746917,0.0498421564698219
1789996810381449700,4.40944970703125,-0.1300896108150482,-0.1899785101413726,-0.0407952331006526
1789996810391521800,4.419521728515625,-0.1491493135690689,-0.1642579585313797,-0.1239628195762634
1789996810401592800,4.4295927734375,-0.119905948638916,-0.1389511376619339,-0.039996400475502
1789996810411664000,4.439663818359375,-0.0760586038231849,-0.1503553241491317,0.0310074687004089
1789996810421735000,4.44973486328125,-0.0910452753305435,-0.1780067980289459,-0.0227091740816831
1789996810431806000,4.459805908203125,-0.0824600383639335,-0.1710689961910247,0.0528601519763469
1789996810441877000,4.469876953125,-0.0741801857948303,-0.103284828364849,0.0110363448038697
1789996810451947800,4.47994775390625,-0.130074605345726,-0.0939765498042106,-0.2143216729164123
1789996810462018800,4.490018798828125,-0.0755700543522834,-0.1037206798791885,-0.1696266531944275
1789996810472089900,4.50008984375,-0.0595487430691719,-0.0401603430509567,-0.0701447948813438
1789996810482161000,4.510160888671875,-0.0817641839385032,-0.0225836355239152,-0.0987284779548645
1789996810492232000,4.52023193359375,-0.0699301585555076,-0.0423693247139453,-0.0150913726538419
1789996810502303000,4.530302978515625,-0.1372125744819641,0.0064949230290949,-0.0036060530692338
1789996810512373800,4.540373779296875,-0.1257905513048172,0.0250723343342542,-0.0845594927668571
1789996810522444800,4.55044482421875,-0.0843120291829109,0.0234148874878883,-0.0205698646605014
1789996810532516600,4.5605166015625,-0.0288823302835226,0.0249081198126077,0.0188686214387416
1789996810542587600,4.570587646484375,-0.0323371887207031,0.0148612335324287,0.0220981985330581
1789996810552658700,4.58065869140625,-0.0311973541975021,-0.0039793001487851,0.0210020411759614
1789996810562729700,4.590729736328125,-0.0080038551241159,-0.0161304622888565,0.0330503955483436
1789996810572800800,4.60080078125,-0.0110992472618818,-0.0318950451910495,0.0620727278292179
1789996810582871600,4.61087158203125,-0.0075393947772681,-0.0608434826135635,0.0864734798669815
1789996810592942600,4.620942626953125,-0.026935463771224,-0.043696716427803,0.0575606077909469
1789996810603013600,4.631013671875,-0.0324323810636997,-0.0546990446746349,0.0523692592978477
1789996810613084700,4.641084716796875,-0.01075398363173,-0.0621516369283199,0.0896085053682327
1789996810623155700,4.65115576171875,-0.0018520391313359,-0.0546530932188034,0.0376011691987514
1789996810633226800,4.661226806640625,-0.0286277253180742,-0.0793168991804122,0.0399383604526519
1789996810643297800,4.6712978515625,-0.0048486315645277,-0.1135093495249748,0.0862442627549171
1789996810653368800,4.681368896484375,-0.0016317992703989,-0.0918200314044952,-0.0496187694370746
1789996810663440000,4.69143994140625,-0.0395278967916965,-0.1032692119479179,-0.0069854990579187
1789996810673511000,4.701510986328125,-0.0306377336382865,-0.0927420035004615,-0.0276020932942628
1789996810683582700,4.711582763671875,-0.0364967808127403,-0.0927541777491569,-0.0035823988728225
1789996810693653800,4.72165380859375,-0.0754564255475997,-0.1205655634403228,0.0557935759425163
1789996810703724800,4.731724853515625,-0.0925635993480682,-0.1416277885437011,0.0539058521389961
1789996810713795600,4.741795654296875,-0.0865262150764465,-0.1427098214626312,0.0831143409013748
1789996810723866600,4.75186669921875,-0.0257217139005661,-0.1721725761890411,0.0547975189983844
1789996810733937700,4.761937744140625,-0.0003124953946098,-0.168143481016159,0.139050617814064
1789996810744008000,4.772008056640625,-0.0233632531017065,-0.1652120351791381,0.0605616234242916
1789996810754079000,4.782078857421875,-0.0574668943881988,-0.1681878566741943,-0.008593744598329
1789996810764150000,4.79214990234375,-0.0069192689843475,-0.1720589846372604,-0.0179281719028949
1789996810774221000,4.802220947265625,0.0370239540934562,-0.1452478766441345,0.0280190799385309
1789996810784292000,4.8122919921875,0.027408879250288,-0.1269476413726806,0.0456383377313613
1789996810794363000,4.82236279296875,0.0375824198126792,-0.131963700056076,0.0725128278136253
1789996810804434000,4.832433837890625,0.0244922116398811,-0.0996358767151832,0.0585385933518409
1789996810814505000,4.8425048828125,0.0342918448150157,-0.0940283238887786,0.0412054099142551
1789996810824576000,4.852575927734375,0.0735116302967071,-0.0721760392189025,0.0491026267409324
1789996810834647800,4.862647705078125,0.0860188975930213,-0.0509897954761981,-0.0089676016941666
1789996810844718800,4.87271875,0.1224546059966087,-0.0082346349954605,-0.0630807653069496
1789996810854790000,4.882789794921875,0.1283034384250641,0.0617170184850692,-0.0403331033885479
1789996810864861000,4.89286083984375,0.1384715139865875,0.0501994267106056,0.0443559288978576
1789996810874931700,4.902931640625,0.1070153191685676,0.0189741309732198,0.0444214418530464
1789996810885002800,4.913002685546875,0.0625965148210525,0.0035220254212617,-0.0393816754221916
1789996810895073800,4.92307373046875,0.0767765194177627,0.0495286658406257,-0.1507404148578643
1789996810905144800,4.933144775390625,0.1275375485420227,0.0623489022254943,-0.0425202399492263
1789996810915216000,4.9432158203125,0.1224596947431564,0.0922218486666679,0.0472392104566097
1789996810925287000,4.953286865234375,0.1147397607564926,0.0596184730529785,-0.0008212580578401
1789996810935357700,4.963357666015625,0.0702846720814704,0.0404429137706756,-0.0209084171801805
1789996810945428700,4.9734287109375,0.0765291452407836,0.0533469431102275,-0.0295474305748939
1789996810955499800,4.983499755859375,0.1075235456228256,0.0411062575876712,-0.0113303419202566
1789996810965570800,4.99357080078125,0.1226666271686554,0.0327665731310844,0.0384071506559848
1789996810975641900,5.003641845703125,0.0760847479104995,0.0384851805865764,-0.0318931080400943
1789996810985714000,5.0137138671875,0.0371126644313335,0.0589518472552299,-0.082870252430439
1789996810995785000,5.023784912109375,0.0987182408571243,0.055178940296173,0.0411667376756668
1789996811005855700,5.033855712890625,0.0650435164570808,0.0448581427335739,0.0856687650084495
1789996811015926800,5.0439267578125,0.0554529428482055,0.0447707921266555,0.020307071506977
1789996811025997800,5.053997802734375,0.0741206705570221,0.0717188268899917,0.0185144487768411
1789996811036068900,5.06406884765625,0.1144782081246376,0.0878554582595825,-0.1021310091018676
1789996811046140000,5.074139892578125,0.0910075604915618,0.0418853275477886,-0.0470149032771587
1789996811056211000,5.0842109375,0.0555395819246768,-0.0046997535973787,0.0668104663491249
1789996811066281700,5.09428173828125,0.0416333824396133,-0.017001649364829,0.0583535507321357
1789996811076352800,5.104352783203125,0.060553278774023,-0.0018898090347647,0.0736645981669426
1789996811086423800,5.114423828125,0.1219740584492683,-0.0036362661048769,0.0727369710803031
1789996811096494800,5.124494873046875,0.0867431014776229,-0.0059968922287225,-0.0380518659949302
1789996811106566000,5.13456591796875,0.0681740641593933,0.0262226127088069,-0.083726167678833
1789996811116637000,5.144636962890625,0.0804576277732849,0.0249301791191101,-0.0658512935042381
1789996811126707700,5.154707763671875,0.0472091287374496,0.0318131819367408,-0.0985950827598571
1789996811136779800,5.16477978515625,0.0804973095655441,0.0153284817934036,-0.0576191507279872
1789996811146850800,5.174850830078125,0.1390397697687149,-0.0111465109512209,0.0913025438785553
1789996811156921900,5.184921875,0.1271080076694488,-0.0016544722020626,0.0815697535872459
1789996811166993000,5.194992919921875,0.1069960817694664,0.0395946986973285,-0.0093684066087007
1789996811177064000,5.20506396484375,0.1437575668096542,0.0886716991662979,-0.0524471700191497
1789996811187135000,5.215135009765625,0.1504699438810348,0.1245836317539215,-0.0457186438143253
1789996811197205800,5.225205810546875,0.1211208403110504,0.2087432444095611,-0.0785154774785041
1789996811207276800,5.23527685546875,0.1448535174131393,0.2162887305021286,-0.0111202700063586
1789996811217347800,5.245347900390625,0.1605991870164871,0.2337920814752578,0.017737478017807
1789996811227419000,5.2554189453125,0.1728553771972656,0.2551747560501098,0.0021311468444764
1789996811237490000,5.265489990234375,0.1800323277711868,0.2718581557273865,0.0363018997013568
1789996811247561000,5.27556103515625,0.1483116000890731,0.2908896803855896,0.0550457537174224
1789996811257632000,5.285632080078125,0.1292015463113784,0.3100441992282867,-0.0062993615865707
1789996811267702800,5.295702880859375,0.1423630714416504,0.3095414936542511,-0.0551360175013542
1789996811277773800,5.30577392578125,0.160340741276741,0.3021850287914276,-0.0058004278689622
1789996811287844900,5.315844970703125,0.1644631326198578,0.3069854974746704,0.0303555596619844
1789996811297916000,5.325916015625,0.1093993559479713,0.2656505703926086,0.0950096473097801
1789996811307988000,5.335988037109375,0.0794780552387237,0.2427778095006942,0.0788296088576316
1789996811318059000,5.34605908203125,0.091044433414936,0.2710392475128174,0.0047380663454532
1789996811328130000,5.356130126953125,0.0831568241119384,0.2820808887481689,0.0565266720950603
1789996811338200800,5.366200927734375,0.0201933104544878,0.2937180995941162,-0.0109575651586055
1789996811348271900,5.37627197265625,-0.0049593816511332,0.2565890252590179,-0.0121144820004701
1789996811358343000,5.386343017578125,-0.0018903552554547,0.2377360016107559,0.0005587023333646
1789996811368414000,5.3964140625,-0.0149199618026614,0.2294297367334365,-0.1052666381001472
1789996811378485000,5.406485107421875,-0.0022062968928366,0.1992414742708206,-0.0174102820456028
1789996811388556000,5.41655615234375,-0.0509276166558265,0.1484726667404174,0.0534619688987731
1789996811398626800,5.426626708984375,-0.0900529101490974,0.0799631103873252,0.030420035123825
1789996811408697900,5.43669775390625,-0.0856247544288635,0.0534728802740573,0.0084666097536683
1789996811418769000,5.446768798828125,-0.0640536844730377,0.0348999947309494,0.0257814191281795
1789996811428840000,5.45683984375,-0.132532849907875,-0.0107495943084359,0.0486299060285091
1789996811438911000,5.466910888671875,-0.1680431813001632,-0.0664844959974289,0.0106987673789262
1789996811448982000,5.47698193359375,-0.163152277469635,-0.0868320539593696,0.074020504951477
1789996811459052800,5.487052734375,-0.1606137603521347,-0.0820146650075912,0.0738828256726265
1789996811469124900,5.497124755859375,-0.1602591276168823,-0.0904454812407493,-0.0206367634236812
1789996811479196000,5.50719580078125,-0.173262283205986,-0.1030030846595764,0.004317054990679
1789996811489267000,5.517266845703125,-0.2181082963943481,-0.1297951489686966,0.0404962301254272
1789996811499338000,5.527337890625,-0.1917083859443664,-0.1343659311532974,-0.0451084189116954
1789996811509409000,5.537408935546875,-0.1835387796163559,-0.0872422382235527,-0.0429996140301227
1789996811519480000,5.54747998046875,-0.1996791362762451,-0.120895005762577,0.0503311306238174
1789996811529550800,5.55755078125,-0.199554368853569,-0.1728959828615188,0.0967615321278572
1789996811539622000,5.567621826171875,-0.1911046952009201,-0.152089238166809,0.1104267463088035
1789996811549693000,5.57769287109375,-0.153722882270813,-0.0928357020020484,0.054221611469984
1789996811559764000,5.587763916015625,-0.1357241719961166,-0.0557077713310718,-0.0228281635791063
1789996811569835000,5.5978349609375,-0.1421999186277389,-0.0742492377758026,-0.0085703991353511
1789996811579906000,5.607906005859375,-0.1352389454841613,-0.0817750617861747,-0.0002102034632116
1789996811589976800,5.617976806640625,-0.1357104629278183,-0.0708577930927276,-0.0048547051846981
1789996811600047900,5.6280478515625,-0.1244887113571167,-0.0968065708875656,0.1052480936050415
1789996811610119000,5.638118896484375,-0.1620188355445861,-0.0917344018816948,0.1010185703635215
1789996811620190000,5.64818994140625,-0.1659651100635528,-0.1042957305908203,0.0696206986904144
1789996811630261000,5.658260986328125,-0.1057583391666412,-0.0759743973612785,0.0136314611881971
1789996811640332000,5.66833203125,-0.0409377962350845,-0.0847481787204742,-0.0123194456100463
1789996811650404000,5.678404052734375,-0.0518058352172374,-0.1188481301069259,0.0735449790954589
1789996811660475100,5.68847509765625,-0.0876653045415878,-0.1018648818135261,0.0200191680341959
1789996811670546000,5.6985458984375,-0.0952885970473289,-0.0435687564313411,0.0269612539559602
1789996811680617000,5.708616943359375,-0.1262624859809875,-0.0603541284799575,0.0771969929337501
1789996811690688000,5.71868798828125,-0.1307263970375061,-0.0337523370981216,-0.0229202304035425
1789996811700759000,5.728759033203125,-0.0853333547711372,0.0501438900828361,-0.0866454169154167
1789996811710830000,5.738830078125,-0.0783329904079437,-0.0287801995873451,0.0068899439647793
1789996811720901000,5.748901123046875,-0.1147482544183731,-0.0118132010102272,-0.0552080497145652
1789996811730972000,5.758971923828125,-0.105720080435276,0.0696590468287468,-0.0060576796531677
1789996811741043000,5.76904296875,-0.0478677041828632,0.0569171532988548,-0.0291339699178934
1789996811751114500,5.779114501953125,0.0180055312812328,0.0475487187504768,-0.0326718278229236
1789996811761185300,5.789185302734375,-0.0256751049309968,0.0187844485044479,-0.0092834141105413
1789996811771256300,5.79925634765625,-0.0815414488315582,-0.0097605315968394,0.0362018048763275
1789996811781327400,5.809327392578125,-0.0482428818941116,0.0391915664076805,0.0103662153705954
1789996811791398400,5.8193984375,-0.0377388410270214,0.0508114099502563,-0.0036446955054998
1789996811801469400,5.829469482421875,-0.0790553912520408,0.0063755023293197,-0.0301253050565719
1789996811811540500,5.83954052734375,-0.0476799495518207,-0.0104892570525407,-0.0365995839238166
1789996811821612300,5.8496123046875,-0.0125187644734978,-0.0465513877570629,0.0748941823840141
1789996811831683300,5.859683349609375,-0.0303143374621868,-0.0206611417233943,0.0251602251082658
1789996811841754400,5.86975439453125,-0.0171628501266241,0.0742328763008117,0.0111027294769883
1789996811851825400,5.879825439453125,-0.0829025954008102,0.0689914748072624,0.0060305688530206
1789996811861896200,5.889896240234375,-0.0754534676671028,0.025632819160819,-0.0084634190425276
1789996811871967200,5.89996728515625,-0.0519602112472057,0.0299416873604059,0.0024445143062621
1789996811882038300,5.910038330078125,-0.0310972742736339,0.0339867621660232,-0.034106571227312
1789996811892109300,5.920109375,-0.0002618048456497,0.0543863959610462,-0.0387397781014442
1789996811902180400,5.930180419921875,-0.0681822672486305,0.0152014400810003,-0.0147193977609276
1789996811912251400,5.94025146484375,-0.1571265161037445,-0.0335735529661178,0.053348071873188
1789996811922322200,5.950322265625,-0.1677599847316742,-0.0134376604110002,0.0310488902032375
1789996811932393200,5.960393310546875,-0.1159906759858131,0.0347862914204597,-0.0805569365620613
1789996811942464300,5.97046435546875,-0.0759670957922935,-0.0228572972118854,-0.0376124009490013
1789996811952535300,5.980535400390625,-0.0746345967054367,-0.103963553905487,0.0640825480222702
1789996811962606300,5.9906064453125,-0.1330837905406952,-0.0914280489087104,0.0207190979272127
1789996811972677400,6.000677490234375,-0.1310817003250122,-0.0797427222132682,0.0169415120035409
1789996811982748200,6.010748046875,-0.1533904671669006,-0.1641161888837814,0.061078879982233
1789996811992819200,6.020819091796875,-0.1547494530677795,-0.1529656201601028,0.050947830080986
1789996812002891300,6.030891357421875,-0.1497506946325302,-0.1133758574724197,0.0967400893568992
1789996812012962300,6.04096240234375,-0.2164894193410873,-0.0919692367315292,0.0198057405650615
1789996812023033300,6.051033447265625,-0.1527647674083709,-0.0782414451241493,-0.094345599412918
1789996812033104400,6.0611044921875,-0.1329043954610824,-0.1648157835006714,-0.010851427912712
1789996812043175400,6.071175537109375,-0.1940311193466186,-0.2351884841918945,0.0025522618088871
1789996812053246200,6.08124609375,-0.214561253786087,-0.0957313254475593,-0.0314643792808055
1789996812063317200,6.091317138671875,-0.2277827709913253,-0.1090412735939025,0.0090425685048103
1789996812073388300,6.10138818359375,-0.2597974836826324,-0.2531964480876922,0.0372878760099411
1789996812083459300,6.111459228515625,-0.2413303405046463,-0.2704119086265564,-0.0009591106791049
1789996812093530400,6.1215302734375,-0.253583014011383,-0.3085357248783111,0.0817925259470939
1789996812103601400,6.131601318359375,-0.2385758310556411,-0.3202546834945678,0.052378449589014
1789996812113672200,6.141672119140625,-0.1546375602483749,-0.2326984703540802,-0.0097443275153636
1789996812123743200,6.1517431640625,-0.2070416510105133,-0.2612640559673309,-0.0262921452522277
1789996812133814300,6.161814208984375,-0.2385184615850448,-0.2944075763225555,-0.0465092211961746
1789996812143885300,6.17188525390625,-0.2519479691982269,-0.2634195685386657,0.019506812095642
1789996812153956400,6.181956298828125,-0.2516752183437347,-0.3093319833278656,0.0531136319041252
1789996812164027400,6.19202734375,-0.1604361236095428,-0.3021776676177978,0.0326408483088016
1789996812174098200,6.20209814453125,-0.202200099825859,-0.3061021268367767,0.0156637821346521
1789996812184170200,6.212170166015625,-0.2271549850702285,-0.3478285372257232,-0.0139774680137634
1789996812194241300,6.2222412109375,-0.2533881664276123,-0.3506620824337005,0.0049645532853901
1789996812204312300,6.232312255859375,-0.2441030740737915,-0.3477970659732818,-0.0225440356880426
1789996812214383400,6.24238330078125,-0.1618954092264175,-0.357601910829544,-0.0373568497598171
1789996812224454400,6.252454345703125,-0.1605182886123657,-0.3952499628067016,0.0567326284945011
1789996812234525400,6.262525390625,-0.203470304608345,-0.4433007538318634,0.0175704006105661
1789996812244596200,6.27259619140625,-0.1355897933244705,-0.401369571685791,0.0236511956900358
1789996812254667300,6.282667236328125,-0.158268854022026,-0.4111849665641784,0.0024332306347787
1789996812264738300,6.29273828125,-0.1494274288415908,-0.4455594718456268,-0.0319670885801315
1789996812274809300,6.302809326171875,-0.1109906807541847,-0.4532711207866668,-0.0203541461378335
1789996812284880400,6.31288037109375,-0.1055317372083664,-0.5078201293945312,0.0084114549681544
1789996812294951400,6.322951416015625,-0.0885657146573066,-0.4466240704059601,0.0313674546778202
1789996812305022200,6.333022216796875,-0.1044219061732292,-0.4082380533218384,0.0521909743547439
1789996812315093200,6.34309326171875,-0.1294776797294616,-0.3949350416660309,0.0386587940156459
1789996812325164300,6.353164306640625,-0.150467649102211,-0.3420310616493225,-0.0659094303846359
1789996812335235300,6.3632353515625,-0.1172148138284683,-0.3682100474834442,-0.0153992101550102
1789996812345306400,6.373306396484375,-0.0933739319443702,-0.3304866254329681,-0.0506980791687965
1789996812355377400,6.38337744140625,-0.1308198124170303,-0.3812600374221802,0.0098610818386077
1789996812365448400,6.393448486328125,-0.1181234493851661,-0.4019802212715149,0.0364498160779476
1789996812375520500,6.4035205078125,-0.0539297610521316,-0.38090580701828,0.0644203349947929
1789996812385591300,6.41359130859375,-0.0219406709074974,-0.3679687082767486,0.0185463242232799
1789996812395662300,6.423662353515625,-0.029699370265007,-0.4288313090801239,0.0418558828532695
1789996812405733400,6.4337333984375,-0.0604551546275615,-0.4918880462646484,0.0432772152125835
1789996812415804400,6.443804443359375,-0.0159909967333078,-0.4785816967487335,0.0520674102008342
1789996812425875500,6.45387548828125,0.0159102100878953,-0.4323505461215973,0.0192599277943372
1789996812435946500,6.463946533203125,0.0671025812625885,-0.4336874783039093,0.0064505697228014
1789996812446017300,6.474017333984375,0.0921908915042877,-0.3895232081413269,0.0035035160835832
1789996812456088300,6.48408837890625,0.1394935995340347,-0.3379103541374206,-0.0056431586854159
1789996812466159400,6.494159423828125,0.1538645476102829,-0.3380483090877533,0.0858968719840049
1789996812476230400,6.50423046875,0.110566109418869,-0.2847544550895691,0.1110026836395263
1789996812486301400,6.514301513671875,0.2162217050790786,-0.1587131917476654,0.0336224064230918
1789996812496372500,6.52437255859375,0.3133467435836792,-0.019337585195899,-0.0571164414286613
1789996812506443300,6.534443359375,0.3436873257160187,-0.0103001473471522,-0.0457822941243648
1789996812516514300,6.544514404296875,0.3296394050121307,0.0301048718392848,-0.0275382213294506
1789996812526585300,6.55458544921875,0.3528374135494232,0.0777823776006698,0.0635714456439018
1789996812536656400,6.564656494140625,0.3178873360157013,0.1333136856555938,0.0403607673943042
1789996812546727400,6.5747275390625,0.3207382559776306,0.2005600929260254,-0.0120494468137621
1789996812556798500,6.584798583984375,0.4182361662387848,0.2262579202651977,-0.0907052606344223
1789996812566869200,6.594869140625,0.4289529919624328,0.1808126717805862,-0.0656675547361373
1789996812576941300,6.60494140625,0.4115428030490875,0.0885037332773208,0.034131534397602
1789996812587012400,6.615012451171875,0.3646144270896911,0.0751059055328369,0.1152018830180168
1789996812597083400,6.62508349609375,0.318683385848999,0.1261229813098907,0.1194521412253379
1789996812607154400,6.635154541015625,0.3876616656780243,0.2755159437656402,-0.074641965329647
1789996812617225500,6.6452255859375,0.4900059401988983,0.3332729339599609,-0.161119282245636
1789996812627296500,6.655296630859375,0.4505797028541565,0.1850746721029281,-0.1071154326200485
1789996812637367300,6.6653671875,0.3819844424724579,0.1277204602956771,-0.0518914125859737
1789996812647438300,6.675438232421875,0.3750714361667633,0.2380285859107971,-0.0257580783218145
1789996812657509400,6.68550927734375,0.4131328165531158,0.2729310095310211,0.0141016645357012
1789996812667580400,6.695580322265625,0.4724227786064148,0.2428750991821289,0.0153520191088318
1789996812677651500,6.7056513671875,0.4234031438827514,0.2967112362384796,-0.0599458441138267
1789996812687722500,6.715722412109375,0.4225938022136688,0.2871938943862915,-0.0558024980127811
1789996812697793300,6.725793212890625,0.4123815894126892,0.2377753853797912,-0.0179951470345258
1789996812707864300,6.7358642578125,0.4155707359313965,0.2720066010951996,-0.0429801270365715
1789996812717935400,6.745935302734375,0.415579080581665,0.3238113224506378,-0.0673697888851165
1789996812728006400,6.75600634765625,0.3395980298519134,0.3058725297451019,-0.0306149721145629
1789996812738077400,6.766077392578125,0.3094589412212372,0.2870944142341614,-0.0176656581461429
1789996812748148200,6.776148193359375,0.3063749969005584,0.3079009056091308,-0.0335226543247699
1789996812758219000,6.786218994140625,0.3126473724842071,0.2833261787891388,-0.0601417198777198
1789996812768290000,6.7962900390625,0.2940388023853302,0.2602139115333557,-0.0646459236741066
1789996812778361000,6.806361083984375,0.2835127711296081,0.2197258472442627,-0.0982395187020301
1789996812788433200,6.81643310546875,0.251201182603836,0.1263130754232406,0.0314492285251617
1789996812798504200,6.826504150390625,0.1869142949581146,0.0606300979852676,0.103216677904129
1789996812808575200,6.8365751953125,0.1514332741498947,0.1300858706235885,0.0521415099501609
1789996812818646300,6.846646240234375,0.2263936847448349,0.1686399281024933,-0.0275315083563327
1789996812828717000,6.856717041015625,0.2230753898620605,0.0882641226053237,0.0033851277548819
1789996812838788000,6.8667880859375,0.1868649572134018,0.004160625860095,-0.0057061603292822
1789996812848859100,6.876859130859375,0.2485594749450683,0.0451109856367111,-0.0161340348422527
1789996812858930200,6.88693017578125,0.2783986330032348,0.125555545091629,-0.0408045537769794
1789996812869001200,6.897001220703125,0.2182458043098449,0.098890908062458,0.0513826310634613
1789996812879072300,6.907072265625,0.2122656404972076,0.1976867318153381,0.008129496127367
1789996812889143000,6.91714306640625,0.2471746206283569,0.3183282017707824,-0.0255009029060602
1789996812899214000,6.927214111328125,0.3104996085166931,0.359035462141037,-0.1298575848340988
1789996812909285000,6.93728515625,0.3531810343265533,0.3585659563541412,-0.1339391320943832
1789996812919356200,6.947356201171875,0.3684554100036621,0.308122307062149,-0.007911286316812
1789996812929427200,6.95742724609375,0.3535755276679992,0.3552109897136688,0.0101811653003096
1789996812939498200,6.967498291015625,0.2514518797397613,0.3715665638446808,0.1142613738775253
1789996812949569300,6.9775693359375,0.4201815128326416,0.5250730514526367,-0.022911924868822
1789996812959640000,6.98764013671875,0.4278170466423034,0.5091014504432678,-0.0140398759394884
1789996812969711000,6.997711181640625,0.3502149283885956,0.4448654949665069,-0.0518226772546768
1789996812979782100,7.0077822265625,0.2921812534332275,0.3978403210639953,0.0254717338830232
1789996812989853200,7.017853271484375,0.2946760952472687,0.3713501393795013,0.0671067908406257
1789996812999924200,7.02792431640625,0.3228231370449066,0.4780070781707763,0.012036170810461
1789996813009996300,7.037996337890625,0.3520518541336059,0.5802985429763794,-0.122969850897789
1789996813020067300,7.0480673828125,0.4266070127487182,0.4946361184120178,-0.0924829244613647
1789996813030138000,7.05813818359375,0.3536593019962311,0.3117600381374359,0.1249993368983268
1789996813040209200,7.068209228515625,0.1868212074041366,0.3245508372783661,0.170861005783081
1789996813050280200,7.0782802734375,0.3022503554821014,0.4780019223690033,0.0967135429382324
1789996813060351200,7.088351318359375,0.4033097922801971,0.6715143918991089,-0.0420777797698974
1789996813070422300,7.09842236328125,0.4176064431667328,0.6437234878540039,-0.0930352360010147
1789996813080493300,7.108493408203125,0.336523562669754,0.6087266206741333,-0.083987146615982
1789996813090564000,7.118564208984375,0.2622610628604889,0.5479320287704468,0.0655283108353614
1789996813100635100,7.12863525390625,0.2276678085327148,0.5861218571662903,0.1032543554902076
1789996813110706200,7.1387060546875,0.1936384737491607,0.753670334815979,0.0807399898767471
1789996813120777200,7.148777099609375,0.1498986184597015,0.7987029552459717,-0.0411540530622005
1789996813130848300,7.15884814453125,0.196613922715187,0.733089029788971,-0.1039218306541442
1789996813140919300,7.168919189453125,0.1751296073198318,0.649931788444519,-0.0127505278214812
1789996813150990000,7.178989990234375,0.1366911381483078,0.5943912863731384,0.1134071424603462
1789996813161061000,7.18906103515625,0.1025942787528038,0.6262476444244385,0.1437946408987045
1789996813171132200,7.199132080078125,0.0905317589640617,0.6358691453933716,0.1452252864837646
1789996813181203200,7.209203125,0.0675788596272468,0.5956136584281921,0.008761553093791
1789996813191274200,7.219274169921875,0.0748761892318725,0.5473651885986328,0.0158556811511516
1789996813201345300,7.22934521484375,-0.0289844088256359,0.5040591359138489,0.0481253936886787
1789996813211416000,7.239416015625,-0.1332056075334549,0.4658795893192291,0.0946260541677475
1789996813221487000,7.249487060546875,-0.1295504868030548,0.4032156765460968,0.1222154647111892
1789996813231558100,7.25955810546875,-0.1557951420545578,0.3061778247356415,0.1943557113409042
1789996813241630000,7.2696298828125,-0.2027254253625869,0.2768789827823639,0.1787297278642654
1789996813251701000,7.279700927734375,-0.186450570821762,0.2875606417655945,0.1518203467130661
1789996813261772000,7.28977197265625,-0.2060654908418655,0.2667417824268341,0.0778357535600662
1789996813271843000,7.299843017578125,-0.18813256919384,0.1785504072904586,0.0951702669262886
1789996813281914000,7.3099140625,-0.2347575724124908,0.0516553521156311,0.1541054248809814
1789996813291985200,7.319985107421875,-0.3673544824123382,0.0273641292005777,0.1402338147163391
1789996813302056200,7.33005615234375,-0.3183393180370331,0.0439315177500247,0.1491680443286895
1789996813312127200,7.340127197265625,-0.2648518681526184,0.0660392120480537,0.0674353688955307
1789996813322198300,7.3501982421875,-0.2348447740077972,0.030625857412815,0.0057201874442398
1789996813332269300,7.360269287109375,-0.2704160511493683,-0.0931437537074089,0.0633246228098869
1789996813342340000,7.370340087890625,-0.3584846556186676,-0.199542224407196,0.1158988177776336
1789996813352411100,7.3804111328125,-0.378966748714447,-0.2074328958988189,0.1079966872930526
1789996813362482200,7.390482177734375,-0.3089276254177093,-0.1564472019672393,0.0316662713885307
1789996813372553200,7.40055322265625,-0.2578378021717071,-0.1037666872143745,-0.0528289042413234
1789996813382624300,7.410624267578125,-0.3321375846862793,-0.1617530286312103,-0.0169345550239086
1789996813392695300,7.4206953125,-0.4281115233898163,-0.2788639366626739,0.0613306909799575
1789996813402766000,7.43076611328125,-0.4248292446136474,-0.3255641460418701,0.1550109684467315
1789996813412837000,7.440837158203125,-0.3846546709537506,-0.2880687117576599,0.0747784376144409
1789996813422908200,7.450908203125,-0.3635159432888031,-0.2951879799365997,0.0599629804491996
1789996813432979200,7.460979248046875,-0.3751907050609588,-0.353369802236557,0.0512568429112434
1789996813443050200,7.47105029296875,-0.4048003852367401,-0.3635306060314178,0.0617677606642246
1789996813453121300,7.481121337890625,-0.4193471074104309,-0.3413960039615631,0.0544595122337341
1789996813463192300,7.4911923828125,-0.4403450787067413,-0.3335098922252655,0.107145644724369
1789996813473264000,7.50126416015625,-0.5144813656806946,-0.343297004699707,0.0578366816043853
1789996813483335000,7.5113349609375,-0.4573941230773926,-0.34520223736763,-0.0911191925406456
1789996813493406000,7.521406005859375,-0.3905391991138458,-0.4049212336540222,-0.0078000696375966
1789996813503477000,7.53147705078125,-0.4092854559421539,-0.4294880926609039,0.0583890676498413
1789996813513548000,7.541548095703125,-0.4446482360363006,-0.3649740815162658,0.082131952047348
1789996813523619000,7.551619140625,-0.4400727450847626,-0.3220810294151306,0.1107655838131904
1789996813533690000,7.561690185546875,-0.3644285798072815,-0.3675592839717865,0.0161559898406267
1789996813543761000,7.571760986328125,-0.3373093605041504,-0.3255254328250885,-0.0252360645681619
1789996813553832000,7.58183203125,-0.2521638572216034,-0.3080172836780548,0.0131155848503112
1789996813563903000,7.591903076171875,-0.2164244055747985,-0.2856444120407104,0.0428141690790653
1789996813573974000,7.60197412109375,-0.2198907881975174,-0.2559970319271087,0.0442525409162044
1789996813584045000,7.612045166015625,-0.2266887128353119,-0.2283891290426254,0.0159954968839883
1789996813594116000,7.6221162109375,-0.1828597486019134,-0.2650369107723236,-0.0296252500265836
1789996813604187100,7.632187255859375,-0.1386233419179916,-0.2755902409553528,-0.0270504467189311
1789996813614258200,7.642258056640625,-0.1272284835577011,-0.2289457768201828,0.0221631713211536
1789996813624329200,7.6523291015625,-0.1434598416090011,-0.2174557000398636,-0.0070971054956316
1789996813634400300,7.662400146484375,-0.124226227402687,-0.2110372185707092,0.0014497777447104
1789996813644471300,7.67247119140625,-0.0884236991405487,-0.2177590727806091,-0.0250469222664833
1789996813654542000,7.6825419921875,-0.0241565648466348,-0.2145462334156036,0.0131558571010828
1789996813664613000,7.692613037109375,-0.0009779983665794,-0.1865565478801727,0.0126844644546508
1789996813674684200,7.70268408203125,-0.0371676944196224,-0.1284091025590896,0.0229450911283493
1789996813684755200,7.712755126953125,-0.067446731030941,-0.0766544640064239,0.0194450765848159
1789996813694826200,7.722826171875,-0.0475497245788574,-0.0520519129931926,-0.0485840402543544
1789996813704897300,7.732897216796875,-0.0205885749310255,-0.055996049195528,-0.0620044395327568
1789996813714968300,7.74296826171875,0.0165907517075538,-0.0759212896227836,-0.0398687794804573
1789996813725040000,7.7530400390625,0.0284953527152538,-0.0644629821181297,-0.0249276589602231
1789996813735111000,7.76311083984375,0.0364094674587249,-0.0598658360540866,0.0379027016460895
1789996813745182000,7.773181884765625,0.0116221290081739,-0.0183156877756118,0.0771943852305412
1789996813755253200,7.783253173828125,-0.0027789147570729,0.0196484737098217,-0.0031680972315371
1789996813765324300,7.79332421875,-0.0046765096485614,0.0342390090227127,-0.0263307504355907
1789996813775395300,7.803395263671875,0.0336272045969963,0.0282764583826065,0.0211318396031856
1789996813785466400,7.81346630859375,0.0402541831135749,0.0296037346124649,0.0739503726363182
1789996813795537400,7.823537353515625,0.0268763247877359,0.0640549212694168,0.0610659979283809
1789996813805608200,7.833608154296875,0.0149486158043146,0.0998361110687255,-0.0057544219307601
1789996813815679200,7.84367919921875,0.016456764191389,0.1113894432783126,-0.0214313864707946
1789996813825750300,7.853750244140625,0.0395144745707511,0.0946965664625167,0.0003025495097972
1789996813835821300,7.8638212890625,0.0166698787361383,0.0535589791834354,0.0172479767352342
1789996813845892400,7.873892333984375,0.0092496303841471,-0.0222416594624519,0.0669178292155265
1789996813855963400,7.88396337890625,-0.0072289453819394,-0.023046201094985,-0.0053419894538819
1789996813866034200,7.8940341796875,-0.0285905692726373,-0.0444450676441192,-0.0057606208138167
1789996813876105200,7.904105224609375,-0.0374674201011657,-0.058136910200119,0.0110806766897439
1789996813886176300,7.91417626953125,-0.0339663662016391,-0.0723519846796989,0.0007490820717066
1789996813896247300,7.924247314453125,-0.0620754994451999,-0.0737938210368156,-0.0198161136358976
1789996813906318300,7.934318359375,-0.0862530097365379,-0.1186492294073104,-0.0430231466889381
1789996813916389400,7.944389404296875,-0.0989371165633201,-0.1685035973787307,-0.0239898022264242
1789996813926460200,7.954460205078125,-0.0863734781742096,-0.1918702572584152,0.03628995642066
1789996813936531200,7.96453125,-0.0582552850246429,-0.1937467157840728,0.0583611689507961
1789996813946602200,7.974602294921875,-0.0518155880272388,-0.1440189480781555,-0.0447437241673469
1789996813956673300,7.98467333984375,-0.0335676111280918,-0.1352664828300476,-0.026556197553873
1789996813966744300,7.994744384765625,-0.0317009054124355,-0.1862973272800445,0.0003788272151723
1789996813976815400,8.0048154296875,-0.0383939631283283,-0.1868496686220169,-0.0087795173749327
1789996813986886100,8.01488623046875,-0.049357496201992,-0.1490926146507263,0.0232222806662321
1789996813996958200,8.024958251953125,-0.0431736372411251,-0.1142323538661003,-0.0224844869226217
1789996814007029200,8.035029296875,-0.0430583283305168,-0.0645591765642166,-0.0968101248145103
1789996814017100300,8.045100341796875,-0.0013295223470777,-0.0776411592960357,-0.016008224338293
1789996814027171300,8.05517138671875,-0.0137449316680431,-0.1068292930722236,-0.0012784774880856
1789996814037242400,8.065242431640625,-0.0187077317386865,-0.076829582452774,-0.0027751738671213
1789996814047313400,8.0753134765625,0.0499653927981853,-0.0585490837693214,0.023248054087162
1789996814057384200,8.08538427734375,0.0696008801460266,-0.0261645093560218,-0.0613794811069965
1789996814067455200,8.095455322265625,0.0721306279301643,0.0057319598272442,-0.0504370927810668
1789996814077526300,8.1055263671875,0.0530296303331851,0.0592593625187873,-0.0316679328680038
1789996814087597300,8.115597412109375,0.0570036135613918,0.1017366200685501,-0.0533458404242992
1789996814097668400,8.12566845703125,0.0514759570360183,0.1011304855346679,0.0371571630239486
1789996814107739400,8.135739501953125,0.0499354228377342,0.0432536117732524,0.1022387742996215
1789996814117810200,8.14581005859375,0.0875371247529983,0.1014151871204376,-0.0660431832075119
1789996814127881200,8.155881103515625,0.1302493810653686,0.132193312048912,-0.0410407856106758
1789996814137952300,8.1659521484375,0.1451809257268905,0.1292600929737091,-0.135366752743721
1789996814148023300,8.176023193359375,0.1256154328584671,0.1448113471269607,-0.0752638950943946
1789996814158094300,8.18609423828125,0.1242308467626571,0.1095550805330276,0.05664087459445
1789996814168165400,8.196165283203126,0.0807763710618019,0.084483578801155,0.0676683858036995
1789996814178236200,8.206236083984376,0.0706750005483627,0.1531071066856384,-0.0303705632686615
1789996814188307200,8.21630712890625,0.0962457582354545,0.1432725340127945,-0.0149615677073597
1789996814198378200,8.226378173828126,0.122422769665718,0.1093111038208007,-0.0244019404053688
1789996814208449300,8.23644921875,0.0913744121789932,0.1295055896043777,-0.0870655253529548
1789996814218520300,8.246520263671876,0.1015282496809959,0.1233254522085189,-0.0605992935597896
1789996814228591400,8.25659130859375,0.0838266536593437,0.1007459014654159,-0.0247412621974945
1789996814238662100,8.266662109375,0.0443514101207256,0.1136518418788909,0.0282002501189708
1789996814248733200,8.276733154296876,-0.0289662536233663,0.1782874166965484,-0.0067909038625657
1789996814258804200,8.28680419921875,-0.0103315832093358,0.1897246241569519,-0.0757436081767082
1789996814268875300,8.296875244140624,0.0363323725759983,0.1234118863940239,-0.0843089744448661
1789996814278946300,8.3069462890625,0.0187629703432321,0.0319642648100853,-0.0275644659996032
1789996814289017300,8.317017333984374,-0.0805904194712638,0.0454174056649208,0.0161434095352888
1789996814299089400,8.32708935546875,-0.1348488628864288,0.0748804882168769,0.0527632050216198
1789996814309160400,8.337160400390625,-0.1123402342200279,0.0660258531570434,0.0323668867349624
1789996814319231200,8.347231201171875,-0.0871190354228019,-0.0022605247795581,0.0536567270755767
1789996814329302300,8.35730224609375,-0.1337910443544387,-0.071920670568943,0.0124269677326083
1789996814339373300,8.367373291015625,-0.1189455315470695,-0.0939301028847694,-0.0693539083003997
1789996814349444400,8.3774443359375,-0.131563052535057,-0.136607751250267,0.0187431648373603
1789996814359515400,8.387515380859375,-0.1741810888051986,-0.2293006628751754,0.0539749227464199
1789996814369586400,8.39758642578125,-0.2371095716953277,-0.2272624373435974,0.0977245196700096
1789996814379657200,8.4076572265625,-0.1866021752357483,-0.1837130934000015,0.0895600691437721
1789996814389728300,8.417728271484375,-0.1397978812456131,-0.198981761932373,-0.0263131130486726
1789996814399799300,8.42779931640625,-0.1339818090200424,-0.272019475698471,-0.0834658816456794
1789996814409870300,8.437870361328125,-0.1733321398496627,-0.3393134772777557,0.0281333364546298
1789996814419941400,8.44794140625,-0.2581945657730102,-0.3516830503940582,0.0906065702438354
1789996814430012400,8.458012451171875,-0.2404533773660659,-0.2794002294540405,-0.0349902175366878
1789996814440083200,8.468083251953125,-0.1330566257238388,-0.2945314943790436,-0.0203407015651464
1789996814450154200,8.478154296875,-0.0900479331612587,-0.3492458760738373,-0.0297756940126419
1789996814460225300,8.488225341796875,-0.173549473285675,-0.3355242311954498,0.0178325735032558
1789996814470296300,8.49829638671875,-0.2393656224012375,-0.3113278448581695,0.0684445723891258
1789996814480367400,8.508367431640625,-0.2078359276056289,-0.3571888208389282,0.1026257127523422
1789996814490438400,8.5184384765625,-0.1555296629667282,-0.2791691422462463,-0.0710463374853134
1789996814500509200,8.52850927734375,-0.0624234192073345,-0.2146460711956024,-0.0826848894357681
1789996814510580200,8.538580322265625,-0.0578956566751003,-0.2617652714252472,-0.0182776357978582
1789996814520651300,8.5486513671875,-0.1064639911055564,-0.3245224058628082,0.016268890351057
1789996814530722300,8.558722412109375,-0.1481404602527618,-0.3615159392356872,0.0954994931817054
1789996814540793300,8.56879345703125,-0.1733344942331314,-0.301495224237442,0.1023073345422744
1789996814550864400,8.578864501953126,-0.1416143625974655,-0.2537092268466949,0.1498246937990188
1789996814560935200,8.58893505859375,-0.0693324357271194,-0.248152270913124,0.0748785510659217
1789996814571006200,8.599006103515626,0.0118467574939131,-0.2302014082670211,-0.0497587621212005
1789996814581077200,8.6090771484375,0.072617694735527,-0.2269339710474014,-0.0299477726221084
1789996814591148300,8.619148193359376,0.0194413978606462,-0.2839405238628387,0.1131902784109115
1789996814601220400,8.629220458984374,-0.0568672195076942,-0.2743275761604309,0.1184739917516708
1789996814611291400,8.63929150390625,-0.0685744360089302,-0.1788102388381958,0.1106394007802009
1789996814621362400,8.649362548828124,-0.0118576241657137,-0.1312879920005798,0.0638455301523208
1789996814631433200,8.65943310546875,0.0823170468211174,-0.1416088491678238,0.0291427429765462
1789996814641504300,8.669504150390624,0.1146946921944618,-0.1004406362771987,-0.0340245068073272
1789996814651575300,8.6795751953125,0.0929116979241371,-0.0280593018978834,-0.1383241415023803
1789996814661646300,8.689646240234374,0.0638068094849586,-0.1033953353762626,0.0355664230883121
1789996814671717400,8.69971728515625,0.0504367463290691,-0.0744563937187194,-0.0254270173609256
1789996814681788400,8.709788330078124,0.0993939042091369,0.0118289589881896,-0.0244144834578037
1789996814691859200,8.719859130859374,0.2317986786365509,0.0992471724748611,-0.0075521534308791
1789996814701930200,8.72993017578125,0.1996340900659561,0.1113339215517044,-0.0566067807376384
1789996814712001300,8.740001220703125,0.1013636887073516,0.1011615097522735,-0.0411790981888771
1789996814722072300,8.750072265625,0.1237257197499275,0.0951611399650573,0.0387466251850128
1789996814732143400,8.760143310546875,0.1618682444095611,0.1490378379821777,-0.0615779384970665
1789996814742214400,8.77021435546875,0.2199227660894394,0.2064707577228546,-0.0877440273761749
1789996814752285700,8.78028564453125,0.2444951683282852,0.2243252545595169,-0.071811556816101
1789996814762356500,8.7903564453125,0.2342204302549362,0.1917092502117157,0.0266678743064403
1789996814772427500,8.800427490234375,0.1964668184518814,0.2046948075294494,0.0437780767679214
1789996814782498600,8.81049853515625,0.1765780746936798,0.2422869205474853,-0.0202339254319667
1789996814792569600,8.820569580078125,0.1711533069610595,0.2446039915084839,-0.0565732233226299
1789996814802640600,8.830640625,0.1548203974962234,0.2630892693996429,-0.0650005340576171
1789996814812711700,8.840711669921875,0.1197400540113449,0.2880573570728302,-0.0630181059241294
1789996814822782500,8.850782470703125,0.1342734694480896,0.2723955810070038,0.0018690102733671
1789996814832853500,8.860853515625,0.1537085324525833,0.2394593060016632,0.0261107329279184
1789996814842924500,8.870924560546875,0.1160658150911331,0.2296157330274582,-0.0345329046249389
1789996814852995600,8.88099560546875,0.1360322684049606,0.2060669064521789,0.0288059879094362
1789996814863066600,8.891066650390625,0.1191243901848793,0.1630526036024093,0.0609599314630031
1789996814873137700,8.9011376953125,0.1026083901524543,0.1340977996587753,0.038486573845148
1789996814883208400,8.91120849609375,0.1250889301300048,0.130546748638153,0.0260283052921295
1789996814893279500,8.921279541015625,0.051588274538517,0.1096703186631202,0.0434975028038024
1789996814903350500,8.9313505859375,0.0068775275722146,0.0376997143030166,0.0487796179950237
1789996814913421600,8.941421630859375,-0.0236346386373043,0.0185964051634073,-0.0216872990131378
1789996814923492600,8.95149267578125,0.0011671130778267,-0.0126251624897122,-0.0115774068981409
1789996814933563600,8.961563720703126,-0.0175074879080057,-0.039505835622549,0.0379957593977451
1789996814943634400,8.971634521484376,-0.0984638556838035,-0.0470905192196369,0.0331954099237918
1789996814953706500,8.98170654296875,-0.1227859184145927,-0.0228711664676666,-0.0540032424032688
1789996814963777500,8.991777587890626,-0.086433507502079,-0.0425820238888263,-0.0184993091970682
1789996814973848600,9.0018486328125,-0.1175063177943229,-0.088505633175373,-0.0577359981834888
1789996814983919600,9.011919677734374,-0.1474287807941436,-0.1705714762210846,0.0151320844888687
1789996814993990700,9.02199072265625,-0.1497862637042999,-0.190281942486763,0.0353123098611831
1789996815004061700,9.032061767578124,-0.1486956924200058,-0.1967228055000305,0.0650965720415115
1789996815014132500,9.042132568359374,-0.1759165674448013,-0.225500151515007,0.1013161018490791
1789996815024203500,9.05220361328125,-0.1728677749633789,-0.2562737762928009,0.0607518963515758
1789996815034274600,9.062274658203124,-0.1705503314733505,-0.2819405794143677,0.0841944366693496
1789996815044345600,9.072345703125,-0.1589543968439102,-0.2699558138847351,0.0795256495475769
1789996815054416600,9.082416748046874,-0.1261148899793625,-0.2556783258914947,-0.0017498577944934
1789996815064487700,9.09248779296875,-0.0938941091299057,-0.258725494146347,-0.0232980269938707
1789996815074558500,9.102558349609374,-0.0929659605026245,-0.2849253118038177,0.0650964379310607
1789996815084629500,9.11262939453125,-0.1250482499599456,-0.2625755369663238,0.0604944974184036
1789996815094700500,9.122700439453125,-0.1432154327630996,-0.2557138502597809,0.0834475606679916
1789996815104771600,9.132771484375,-0.1232896670699119,-0.2845681011676788,0.1542879045009613
1789996815114842600,9.142842529296876,-0.074288971722126,-0.3224234879016876,0.1162880584597587
1789996815124913700,9.15291357421875,-0.0451377443969249,-0.2779247164726257,-0.0225888695567846
1789996815134984400,9.162984375,0.0020137729588896,-0.2378190457820892,0.0009853895753622
1789996815145055500,9.173055419921877,0.0218045208603143,-0.2192637324333191,-0.0303648114204406
1789996815155126500,9.18312646484375,-0.0120175555348396,-0.186723917722702,-0.0527873449027538
1789996815165197600,9.193197509765625,0.0030711162835359,-0.1705209761857986,0.0022569987922906
1789996815175268600,9.2032685546875,0.025697749108076,-0.1676837652921676,-0.001734847552143
1789996815185339600,9.213339599609377,0.0294315014034509,-0.1219770014286041,-0.0847458466887474
1789996815195410400,9.223410400390623,0.0535905063152313,-0.0901547819375991,-0.0305875316262245
1789996815205481500,9.2334814453125,0.0864949226379394,-0.1039800569415092,0.0111023914068937
1789996815215552500,9.243552490234377,0.0959085151553154,-0.1024258807301521,0.0652167275547981
1789996815225623600,9.25362353515625,0.0896807163953781,-0.0817592218518257,0.086524412035942
1789996815235694600,9.263694580078123,0.1344308257102966,-0.0193689465522766,0.0088249882683157
1789996815245765600,9.273765625,0.1600610911846161,0.0362711437046527,-0.0598643273115158
1789996815255836700,9.283836669921875,0.1744315773248672,0.0078648775815963,-0.0944685414433479
1789996815265907500,9.293907470703124,0.2001196295022964,0.0161771345883607,-0.0933281779289245
1789996815275978500,9.303978515625,0.231561005115509,0.0594109632074832,0.0058549651876091
1789996815286049500,9.314049560546875,0.2193317711353302,0.0451758354902267,0.1098881587386131
1789996815296120600,9.32412060546875,0.1553991883993148,0.0440520644187927,0.044116199016571
1789996815306191600,9.334191650390624,0.1526776999235153,0.1101863458752632,-0.0168976187705993
1789996815316262700,9.3442626953125,0.1870839297771453,0.1369746327400207,-0.0135767664760351
1789996815326333400,9.35433349609375,0.2325163930654525,0.1079656183719635,-0.0012702994281426
1789996815336404500,9.364404541015626,0.2005888223648071,0.1383123397827148,-0.0178705807775259
1789996815346475500,9.3744755859375,0.1891777068376541,0.1503612846136093,-0.0268243942409753
1789996815356546600,9.384546630859376,0.1808416545391082,0.1550512611865997,-0.0216291584074497
1789996815366618600,9.39461865234375,0.1707839518785476,0.1650253236293792,-0.0426058135926723
1789996815376689700,9.404689697265624,0.1547360867261886,0.1544327288866043,-0.0660881623625755
1789996815386760700,9.4147607421875,0.1208934336900711,0.1768392324447631,-0.0955600291490554
1789996815396831500,9.42483154296875,0.1212312206625938,0.1668183654546737,-0.0944424793124198
1789996815406902500,9.434902587890624,0.1343709975481033,0.1403707712888717,-0.0180334616452455
1789996815416973600,9.4449736328125,0.1467462182044983,0.1669137775897979,-0.0476284958422184
1789996815427044600,9.455044677734374,0.1341926157474517,0.1731327921152115,-0.0002750947605818
1789996815437115600,9.46511572265625,0.0700499713420867,0.2078058719635009,-0.1083192080259323
1789996815447186700,9.475186767578125,0.0691950917243957,0.2030428200960159,-0.0763247907161712
1789996815457257500,9.485257568359376,0.0929052978754043,0.1536679863929748,0.0489375405013561
1789996815467328500,9.49532861328125,0.0655578300356864,0.1415109187364578,0.0263701826333999
1789996815477399600,9.505399658203125,0.0377120897173881,0.156654879450798,-0.0638123601675033
1789996815487470600,9.515470703125,0.0361003465950489,0.1054457575082779,-0.026321979239583
1789996815497541600,9.525541748046876,0.0187202394008636,0.1046706214547157,0.0142506714910268
1789996815507612700,9.53561279296875,0.0147012630477547,0.1391700208187103,0.0019074524752795
1789996815517683500,9.545683349609376,-0.0056019062176346,0.1072369813919067,-0.0207465291023254
1789996815527754500,9.55575439453125,0.0165340229868888,0.0033481316640973,0.0150269158184528
1789996815537825500,9.565825439453125,0.0200215484946966,-0.0670667961239814,0.0776093751192092
1789996815547896600,9.575896484375,-0.0337221063673496,-0.0328121557831764,-0.0029842751100659
1789996815557967600,9.585967529296877,-0.0437826998531818,-0.0086516523733735,-0.1129374802112579
1789996815568038700,9.59603857421875,-0.0239155162125825,-0.0748397260904312,-0.0593024790287017
1789996815578109400,9.606109375,-0.0307533219456672,-0.1201186329126358,-0.035792376846075
1789996815588180500,9.616180419921877,-0.0486545599997043,-0.1006807535886764,-0.0399959087371826
1789996815598251500,9.62625146484375,-0.0816990733146667,-0.1328728199005127,0.0460242442786693
1789996815608322600,9.636322509765623,-0.0512202568352222,-0.1242843940854072,-0.0109628736972808
1789996815618393600,9.6463935546875,-0.0210630688816308,-0.0993989408016204,-0.0949854999780654
1789996815628464600,9.656464599609375,-0.0404695197939872,-0.1621874868869781,-0.0596639961004257
1789996815638535400,9.666535400390623,0.0110315326601266,-0.2030278891324997,0.0325686670839786
1789996815648606500,9.6766064453125,-0.005017208866775,-0.148549735546112,0.0690118968486785
1789996815658677500,9.686677490234375,-0.0482782870531082,-0.1166131496429443,0.0552417300641536
1789996815668748500,9.69674853515625,-0.0054930057376623,-0.1025969311594963,0.0787915289402008
1789996815678819600,9.706819580078124,0.0665512084960937,-0.0657461285591125,-0.0149852586910128
1789996815688890600,9.716890625,0.0212718788534402,0.0422487780451774,-0.1229127943515777
1789996815698961400,9.72696142578125,0.012586067430675,0.0977240949869155,-0.0640086233615875
1789996815709032400,9.737032470703124,0.0415215753018856,0.0981310307979583,-0.031914334744215
1789996815719103500,9.747103515625,0.0538585223257541,0.1281984895467758,-0.0572361685335636
1789996815729174500,9.757174560546876,0.1165970042347908,0.1510971486568451,0.0071175224147737
1789996815739245600,9.76724560546875,0.1419461071491241,0.1624132692813873,0.0488746799528598
1789996815749316400,9.77731640625,0.0988958328962326,0.2515263855457306,-0.1705495566129684
1789996815759387400,9.787387451171876,0.1134659796953201,0.2558374404907226,-0.1489773541688919
1789996815769458400,9.79745849609375,0.1292726397514343,0.2167534232139587,0.019862787798047
1789996815779529500,9.807529541015626,0.1449196189641952,0.2199325412511825,0.0932363718748092
1789996815789600300,9.817600341796876,0.1012113019824028,0.2847975790500641,0.058718342334032
1789996815799671300,9.82767138671875,0.1139168143272399,0.3631928563117981,-0.0121885165572166
1789996815809742300,9.837742431640624,0.1606739312410354,0.3607528507709503,-0.0614607259631156
1789996815819813400,9.8478134765625,0.1815055608749389,0.2927396297454834,-0.0070094466209411
1789996815829884400,9.857884521484374,0.0934744924306869,0.2668086886405945,0.0833374932408332
1789996815839955500,9.86795556640625,0.0045820530503988,0.2862216830253601,0.0782910361886024
1789996815850026500,9.878026611328124,0.0107294283807277,0.2945427298545837,0.0068184495903551
1789996815860098600,9.8880986328125,0.056076880544424,0.2644479274749756,-0.0648460611701011
1789996815870169300,9.89816943359375,0.0879517272114753,0.1830547899007797,0.0356174297630786
1789996815880240400,9.908240478515625,0.0427267774939537,0.1343269646167755,0.1014373674988746
1789996815890311400,9.9183115234375,-0.0555372089147567,0.0841807052493095,0.0929852947592735
1789996815900382500,9.928382568359376,-0.0612283535301685,0.0388497486710548,0.0678042322397232
1789996815910453500,9.93845361328125,-0.047877661883831,0.0216334741562604,-0.0313670895993709
1789996815920524500,9.948524658203125,-0.0746789574623107,-0.033229861408472,-0.0256251990795135
1789996815930595300,9.95859521484375,-0.0846636816859245,-0.0960232093930244,0.0763552263379097
1789996815940666400,9.968666259765625,-0.1088699921965599,-0.0591264218091964,-0.0684716925024986
1789996815950737400,9.9787373046875,-0.0732451528310775,-0.1048909798264503,-0.0141064524650573
1789996815960808400,9.988808349609377,-0.0643988400697708,-0.1433362662792205,0.0589662082493305
1789996815970879500,9.99887939453125,-0.1144811809062957,-0.1632814705371856,0.003033434273675
1789996815980950500,10.008950439453123,-0.1197389811277389,-0.1905876398086547,0.041411880403757
1789996815991021300,10.019021240234377,-0.1376921385526657,-0.131135493516922,0.0348855406045913
1789996816001092400,10.02909228515625,-0.1568037867546081,-0.0858220234513282,0.0114051904529333
1789996816011163400,10.039163330078123,-0.1734056621789932,-0.0574780032038688,-0.0947079285979271
1789996816021234400,10.049234375,-0.1400043815374374,-0.0946206450462341,-0.0030372412875294
1789996816031305500,10.059305419921875,-0.1087071821093559,-0.0955106765031814,0.0758983194828033
1789996816041376500,10.06937646484375,-0.1173092648386955,-0.0823611840605735,0.012224736623466
1789996816051447300,10.079447265625,-0.1009215041995048,-0.0368083417415618,-0.0504812560975551
1789996816061518300,10.089518310546875,-0.0860132575035095,-0.0051378263160586,-0.0211098678410053
1789996816071589400,10.09958935546875,-0.092599518597126,-0.0242846235632896,0.0084051471203565
1789996816081660400,10.109660400390624,-0.0956748127937316,-0.0715775117278099,0.0142814964056015
1789996816091731500,10.1197314453125,-0.0421162396669387,-0.0784817561507225,0.0264595989137887
1789996816101802500,10.129802490234376,-0.0207066349685192,-0.0314783193171024,0.0014121383428573
1789996816111873300,10.139873291015626,-0.0702414289116859,-0.0033899587579071,0.0379067659378051
1789996816121944300,10.1499443359375,-0.0713676810264587,-0.0086177438497543,0.110684297978878
1789996816132015400,10.160015380859376,-0.0401580929756164,0.0328322276473045,0.0715491473674774
1789996816142086400,10.17008642578125,0.0256134439259767,0.0527975857257843,-0.0023452099412679
1789996816152157400,10.180157470703126,0.0536133833229541,0.0242069512605667,0.0048085730522871
1789996816162228500,10.190228515625,0.0400117225944995,0.011663444340229,0.0519343949854373
1789996816172299300,10.20029931640625,-0.0078700482845306,0.0787868276238441,-0.0034734671935439
1789996816182370300,10.210370361328126,0.0112017560750246,0.0752360969781875,-0.0234390906989574
1789996816192441300,10.22044140625,-0.0031433617696166,0.0468111112713813,0.001946160569787
1789996816202512400,10.230512451171874,-0.059581059962511,0.0405122525990009,-0.0317788384854793
1789996816212583400,10.24058349609375,-0.0689370185136795,0.0098472833633422,0.0366465598344802
1789996816222654500,10.250654541015624,-0.0837819352746009,-0.0119509296491742,0.0750220715999603
1789996816232725500,10.2607255859375,-0.0671760588884353,-0.066166765987873,0.0580702573060989
1789996816242796500,10.270796630859374,-0.0140650169923901,-0.0820470377802848,0.0290604066103696
1789996816252867600,10.28086767578125,-0.0129723213613033,-0.0586266703903675,0.0109937889501452
1789996816262938600,10.290938720703124,-0.0498533323407173,-0.0899488180875778,0.0707123801112175
1789996816273009700,10.301009765625,-0.0817976891994476,-0.0926239639520645,0.0394210405647754
1789996816283080700,10.311080810546876,-0.0857971310615539,-0.0779410898685455,0.0472636260092258
1789996816293151500,10.3211513671875,-0.1174144521355629,-0.0593330450356006,0.0150569528341293
1789996816303222500,10.331222412109376,-0.1024296656250953,-0.0550195649266243,-0.0911277309060096
1789996816313293600,10.34129345703125,-0.0898121446371078,-0.0809331834316253,0.0305321216583251
1789996816323364600,10.351364501953125,-0.0959318205714225,-0.1115731224417686,0.1221749559044838
1789996816333435600,10.361435546875,-0.1046155914664268,-0.136738121509552,0.1100881993770599
1789996816343506700,10.371506591796877,-0.0825318992137909,-0.0944233760237693,0.0335763171315193
1789996816353577500,10.381577392578125,-0.1070015504956245,-0.1076299920678138,-0.0297430008649826
1789996816363648500,10.3916484375,-0.0878720581531524,-0.12666817009449,-0.0333863943815231
1789996816373719600,10.401719482421877,-0.0751453414559364,-0.0981377363204956,0.0273837447166442
1789996816383790600,10.41179052734375,-0.1047273799777031,-0.1036421507596969,0.0935924425721168
1789996816393861600,10.421861572265623,-0.0690969452261924,-0.1436721086502075,0.0478145591914653
1789996816403932700,10.4319326171875,-0.0715125724673271,-0.1119283735752105,-0.0397004820406436
1789996816414003500,10.44200341796875,-0.0535319671034812,-0.0800732374191284,-0.1314695477485656
1789996816424074500,10.452074462890623,-0.0506817772984504,-0.1018022000789642,-0.0277674663811922
1789996816434145500,10.4621455078125,-0.026814529672265,-0.0999148190021514,-0.0786109343171119
1789996816444216600,10.472216552734375,-0.0521315075457096,-0.1197970658540725,-0.0579042881727218
1789996816454287600,10.48228759765625,-0.0481133311986923,-0.1277053207159042,-0.0659675374627113
1789996816464359400,10.492359375,-0.0082874288782477,-0.1485731750726699,0.0107743246480822
1789996816474430500,10.502430419921875,-0.0228354800492525,-0.0980215892195701,-0.055967953056097
1789996816484501500,10.51250146484375,-0.0290218535810709,-0.1330955326557159,-0.0123198460787534
1789996816494572300,10.522572265625,-0.056493155658245,-0.1668393760919571,-0.0304162912070751
1789996816504643300,10.532643310546876,-0.034049816429615,-0.1434706002473831,-0.0664263814687728
1789996816514714400,10.54271435546875,-0.0425040200352668,-0.1366001814603805,-0.0023033220786601
1789996816524785400,10.552785400390626,-0.0262992940843105,-0.1667458564043045,0.0133255291730165
1789996816534856400,10.5628564453125,-0.0539703369140625,-0.1914250999689102,-0.0413979031145572
1789996816544927500,10.572927490234376,-0.0632096230983734,-0.1972989737987518,0.012103664688766
1789996816554998300,10.582998291015626,-0.0657020732760429,-0.1142962351441383,-0.0478824377059936
1789996816565069300,10.5930693359375,-0.0904108211398124,-0.0685103386640548,-0.0351262502372264
1789996816575140400,10.603140380859376,-0.082718551158905,-0.0881570056080818,-0.0228011403232812
1789996816585211400,10.61321142578125,-0.0653976500034332,-0.1213370189070701,-0.004662949591875
1789996816595282400,10.623282470703124,-0.0485140085220336,-0.0764675512909889,-0.0783475562930107
1789996816605353500,10.633353515625,0.0019028784008696,-0.0363722890615463,-0.0440770089626312
1789996816615424500,10.643424560546874,-0.0165192726999521,-0.013774299994111,-0.0029394230805337
1789996816625495600,10.65349560546875,-0.059060052037239,-0.011331919580698,-0.0107811000198125
1789996816635566600,10.663566650390624,-0.0631685107946395,0.0032582082785665,0.0009160352055914
1789996816645637600,10.6736376953125,0.0067662689834833,0.022795571014285,-0.0162960179150104
1789996816655708700,10.683708740234374,0.0283868759870529,0.0462103523313999,-0.0878096222877502
1789996816665779700,10.69377978515625,0.0357312485575675,-0.0081217167899012,-0.0693337172269821
1789996816675850500,10.7038505859375,0.0023218914866447,-0.0381571128964424,0.0055940519087016
1789996816685921500,10.713921630859376,0.032794676721096,-0.0483677312731742,-0.0188807789236307
1789996816695992600,10.72399267578125,0.0407681763172149,-0.0640960931777954,0.088617980480194
1789996816706063600,10.734063720703125,0.0364073812961578,-0.0890743434429168,0.0385072790086269
1789996816716134700,10.744134765625,0.0591017752885818,-0.1063444092869758,0.0387778542935848
1789996816726205700,10.754205810546877,0.0690003037452697,-0.1135939583182334,0.0431385524570941
1789996816736276500,10.7642763671875,0.0691955164074897,-0.1016305014491081,-0.0567584820091724
1789996816746347500,10.774347412109377,0.0554002784192562,-0.1107471138238906,-0.0437967255711555
1789996816756418000,10.78441796875,0.0671205818653106,-0.1610816568136215,-0.0653187930583953
1789996816766489000,10.794489013671877,0.0489714927971363,-0.2215174883604049,-0.0121950106695294
1789996816776560000,10.80456005859375,0.0011003719409927,-0.1969724595546722,-0.0463572405278682
1789996816786631200,10.814631103515625,0.0102316699922084,-0.1912023574113845,0.0201906636357307
1789996816796702200,10.8247021484375,0.0398377664387226,-0.1994259357452392,0.0075222724117338
1789996816806773200,10.834773193359377,0.0294146426022052,-0.2264352589845657,-0.0476617477834224
1789996816816844300,10.84484423828125,0.0191846434026956,-0.2266629636287689,-0.0949400514364242
1789996816826915000,10.8549150390625,0.0231617540121078,-0.2044630646705627,-0.0078251985833048
1789996816836986000,10.864986083984377,0.0366842225193977,-0.1468964368104934,-0.0146367652341723
1789996816847057200,10.87505712890625,0.0223110765218734,-0.13541279733181,-0.0253727249801158
1789996816857128200,10.885128173828123,0.0308302622288465,-0.1227254867553711,-0.0096462257206439
1789996816867199200,10.89519921875,0.0434424616396427,-0.0414402186870574,-0.0515952743589878
1789996816877270300,10.905270263671875,0.0676916092634201,-0.0052766222506761,-0.0087817637249827
1789996816887341000,10.915341064453123,0.0772573128342628,0.0073986244387924,0.0324750244617462
1789996816897412000,10.925412109375,0.125613123178482,0.019963152706623,0.0297327693551778
1789996816907483100,10.935483154296875,0.138381540775299,0.0391814224421978,0.0063576870597898
1789996816917554200,10.94555419921875,0.1433150470256805,0.0854085758328437,-0.0712074115872383
1789996816927625200,10.955625244140624,0.1445547193288803,0.1092539429664611,-0.0931714922189712
1789996816937696300,10.9656962890625,0.1688616573810577,0.1064488366246223,-0.0344959311187267
1789996816947767000,10.97576708984375,0.1941973119974136,0.1281688809394836,-0.0376082733273506
1789996816957838000,10.985838134765626,0.2011388391256332,0.1683352142572403,-0.1279658675193786
1789996816967909000,10.9959091796875,0.2191238552331924,0.1921380311250686,-0.1302405148744583
1789996816977980200,11.005980224609376,0.2333028018474578,0.196633443236351,-0.0825164020061492
1789996816988051200,11.01605126953125,0.2263716906309127,0.2022517770528793,0.0360148251056671
1789996816998122200,11.026122314453126,0.2306711077690124,0.2062630355358123,0.1152752935886383
1789996817008193000,11.036193115234376,0.2331215292215347,0.2492038309574127,0.0440226756036281
1789996817018264000,11.04626416015625,0.2670507431030273,0.299881637096405,-0.0731465592980384
1789996817028335000,11.056335205078126,0.2517927885055542,0.2671059668064117,-0.008900080807507
1789996817038406100,11.06640625,0.1906079649925232,0.2990444302558899,-0.0957798510789871
1789996817048477200,11.076477294921874,0.1554017812013626,0.3240691125392914,-0.055914994329214
1789996817058548200,11.08654833984375,0.2295212745666504,0.3160409927368164,-0.0607598163187503
1789996817068619000,11.096618896484374,0.2356021404266357,0.2520085275173187,-0.008086304180324
1789996817078690000,11.10668994140625,0.2071036547422409,0.2233643531799316,0.0528846383094787
1789996817088761000,11.116760986328124,0.2236048430204391,0.2461549192667007,0.1044151484966278
1789996817098832100,11.12683203125,0.2143562287092209,0.269420862197876,0.050745528191328
1789996817108903200,11.136903076171874,0.2195275425910949,0.2912472784519195,-0.048247292637825
1789996817118974200,11.14697412109375,0.1935886144638061,0.3015273511409759,-0.0398538075387477
1789996817129045000,11.157044921875,0.1565447449684143,0.2981866598129272,-0.0950876921415329
1789996817139116000,11.167115966796874,0.1727098673582077,0.2614179849624634,-0.0259834565222263
1789996817149187000,11.17718701171875,0.1727945059537887,0.2730708420276642,-0.0825768932700157
1789996817159258000,11.187258056640625,0.1368966847658157,0.2620775997638702,-0.0785358101129531
1789996817169329200,11.1973291015625,0.0966590493917465,0.2753495275974273,-0.0557637214660644
1789996817179400200,11.207400146484376,0.0927886739373207,0.2753979861736297,-0.0437440760433673
1789996817189471000,11.217470947265625,0.0732218474149704,0.2436897605657577,-0.0904762744903564
1789996817199542000,11.2275419921875,0.0781779959797859,0.2130402326583862,-0.0075667407363653
1789996817209613000,11.237613037109377,0.051994040608406,0.2309300303459167,-0.0187325794249773
1789996817219684000,11.24768408203125,0.0251405872404575,0.2477345764636993,-0.0500398986041545
1789996817229755100,11.257755126953125,0.0296149645000696,0.2239533513784408,0.0424261167645454
1789996817239826200,11.267826171875,0.002986816689372,0.245736688375473,-0.0217105261981487
1789996817249897000,11.27789697265625,-0.0096460469067096,0.2282932996749878,-0.092519074678421
1789996817259968000,11.287968017578123,0.0119503252208232,0.1982118338346481,-0.0183223374187946
1789996817270039000,11.2980390625,-0.0056272950023412,0.1518556028604507,0.1113055422902107
1789996817280110000,11.308110107421877,-0.0810919627547264,0.1616222113370895,0.0955406948924064
1789996817290181000,11.31818115234375,-0.0525655411183834,0.1732593774795532,0.0346033871173858
1789996817300252200,11.328252197265623,-0.0306977946311235,0.1382731646299362,0.0661730244755745
1789996817310323000,11.338322998046875,-0.0383216217160224,0.0582680888473987,0.099344827234745
1789996817320394000,11.34839404296875,-0.0856020525097847,0.0541748106479644,0.0458621680736541
1789996817330465000,11.358465087890623,-0.0761574432253837,0.0531612113118171,0.0900940671563148
1789996817340536000,11.3685361328125,-0.0531922057271003,0.0164247695356607,0.1390983611345291
1789996817350607000,11.378607177734375,-0.0916016846895217,0.0105644036084413,0.0674033015966415
1789996817360678100,11.38867822265625,-0.0869938805699348,0.024441335350275,-0.0163994561880826
1789996817370749000,11.3987490234375,-0.1004614531993866,-0.0297975875437259,0.1128790080547332
1789996817380820000,11.408820068359375,-0.1235566511750221,-0.0281498897820711,0.1048146933317184
1789996817390891000,11.41889111328125,-0.10635806620121,0.012067899107933,0.0487201102077961
1789996817400962000,11.428962158203126,-0.099497765302658,0.0118705593049526,0.0721599236130714
1789996817411033000,11.439033203125,-0.0620083957910537,-0.0372385382652282,0.1631617844104766
1789996817421104000,11.449104248046876,-0.0730730295181274,-0.0334821492433548,0.1432879418134689
1789996817431175000,11.4591748046875,-0.1111305952072143,0.0075113894417881,0.0647749453783035
1789996817441246000,11.469245849609376,-0.0945263132452964,-0.0064278617501258,0.053096454590559
1789996817451317000,11.47931689453125,-0.0896244123578071,-0.0078938575461506,-0.0046394364908337
1789996817461388000,11.489387939453126,-0.0864930674433708,-0.0062797158025205,-0.0114773688837885
1789996817471459000,11.499458984375,-0.0534559078514575,-0.0307591129094362,0.1057803183794021
1789996817481530000,11.509530029296876,-0.0723438486456871,-0.0227621719241142,0.1646327227354049
1789996817491601000,11.519600830078126,-0.1022047325968742,-0.0080853700637817,0.1410864293575287
1789996817501672000,11.529671875,-0.0619835406541824,-0.0181931313127279,0.149802416563034
1789996817511743000,11.539742919921874,-0.0599562674760818,-0.0153091633692383,0.1155482232570648
1789996817521814000,11.54981396484375,-0.0705945342779159,-0.0208709090948104,-0.0314817056059837
1789996817531886000,11.559885986328124,-0.0337541736662387,-0.0437678471207618,-0.089138314127922
1789996817541957000,11.56995703125,-0.0420009195804595,-0.0717486143112182,0.0348001457750797
1789996817552027100,11.580027099609374,-0.0910403355956077,-0.0293478555977344,-0.0551183708012104
1789996817562098000,11.590097900390624,-0.145986407995224,0.0012558605521917,-0.0075961262919008
1789996817572169000,11.6001689453125,-0.1422349661588668,-0.0383305847644805,0.03056594543159
1789996817582240000,11.610239990234374,-0.1444174349308014,-0.0432758070528507,-0.0441895201802253
1789996817592312000,11.62031201171875,-0.07109135389328,-0.0890932157635688,0.0059149032458662
1789996817602383000,11.630383056640625,-0.0284927599132061,-0.136445552110672,0.0650035217404365
1789996817612453000,11.640453125,-0.0435522869229316,-0.1415451318025589,0.0881837159395217
1789996817622525200,11.650525146484377,-0.0917911902070045,-0.0877356827259063,0.0539474487304687
1789996817632596000,11.660595947265625,-0.1304766237735748,-0.0606171041727066,-0.0007057177717797
1789996817642667000,11.6706669921875,-0.1370258629322052,-0.071148045361042,-0.0304223354905843
1789996817652738000,11.680738037109377,-0.1186956688761711,-0.0725108161568641,-0.0411963425576686
1789996817662809000,11.69080908203125,-0.1294162422418594,-0.0622259527444839,-0.0690053328871727
1789996817672880000,11.700880126953123,-0.0947341173887252,-0.0710090175271034,-0.1125020235776901
1789996817682951200,11.710951171875,-0.0859957560896873,-0.0876654908061027,-0.0697708055377006
1789996817693022000,11.72102197265625,-0.105633370578289,-0.0897978842258453,-0.0720347613096237
1789996817703093000,11.731093017578123,-0.086792841553688,-0.0776384174823761,-0.0204828847199678
1789996817713164000,11.7411640625,-0.0907485485076904,-0.0589498989284038,0.0392276793718338
1789996817723235000,11.751235107421875,-0.0883157476782798,-0.0574239082634449,-0.0693248957395553
1789996817733306000,11.76130615234375,-0.0560146309435367,-0.0729754567146301,-0.154258593916893
1789996817743377200,11.771377197265624,-0.0450120456516742,-0.0584252774715423,-0.1178135052323341
1789996817753448000,11.781447998046875,-0.0408062115311622,-0.0754906684160232,-0.0753723457455635
1789996817763518700,11.791518798828124,-0.0974798798561096,-0.069936379790306,-0.0427744537591934
1789996817773589800,11.80158984375,-0.089467354118824,-0.0594958811998367,-0.0170970242470502
1789996817783660800,11.811660888671875,-0.0596026629209518,-0.0330533534288406,-0.0902189016342163
1789996817793731800,11.82173193359375,-0.0131241669878363,-0.0594860613346099,-0.0838168486952781
1789996817803803000,11.831802978515626,-0.0394740141928195,-0.0844723731279373,-0.0227068904787302
1789996817813874000,11.8418740234375,-0.0722515657544136,-0.1306631416082382,0.0972612798213958
1789996817823944700,11.85194482421875,-0.0171409081667661,-0.1036954373121261,0.1006203293800354
1789996817834015700,11.862015625,0.0371880382299423,-0.0129848308861255,-0.0292660649865865
1789996817844086800,11.872086669921876,0.0548261515796184,-0.0159712992608547,-0.0516177080571651
1789996817854157800,11.88215771484375,0.0443510971963405,-0.0501817278563976,0.0449905842542648
1789996817864228900,11.892228759765626,0.0174446497112512,-0.0410950221121311,0.0750371664762497
1789996817874300000,11.9022998046875,0.0375785641372203,0.0058052618987858,0.0313730053603649
1789996817884370700,11.91237060546875,0.0835484489798545,0.0189849790185689,-0.0158126186579465
1789996817894441700,11.922441650390626,0.0599271059036254,0.0463607907295227,-0.1009759530425071
1789996817904512800,11.9325126953125,0.0248769782483577,0.048032458871603,-0.071984514594078
1789996817914583800,11.942583740234374,0.0296037383377552,0.0161129795014858,0.0084699001163244
1789996817924654800,11.95265478515625,-0.0086496416479349,0.0146122900769114,0.0146151445806026
1789996817934726000,11.962725830078124,0.035615537315607,0.0305300075560808,-0.1098444908857345
1789996817944797000,11.972796875,0.0423509366810321,0.0425451248884201,-0.0660349652171135
1789996817954867700,11.98286767578125,0.0027076643891632,0.0347727313637733,-0.0544931665062904
1789996817964938800,11.992938720703124,0.0199170112609863,0.0169335454702377,-0.0408085137605667
1789996817975009800,12.003009765625,0.0515099130570888,0.0605128705501556,-0.0996495634317398
1789996817985080800,12.013080810546874,0.0213552080094814,0.0531257912516593,-0.0408733375370502
1789996817995152000,12.02315185546875,0.023885078728199,0.0227202493697404,0.0705117732286453
1789996818005223000,12.033222900390625,0.0098353056237101,0.0117874406278133,0.1475099027156829
1789996818015294000,12.0432939453125,-0.0313938148319721,0.0368074253201484,0.073264442384243
1789996818025365000,12.053364990234376,0.0276207700371742,0.0443638786673545,-0.0591191612184047
1789996818035436000,12.06343603515625,0.0602134279906749,0.0233023837208747,-0.0897036790847778
1789996818045507000,12.073507080078125,-0.0078391237184405,0.0190032422542572,-0.1042349487543106
1789996818055578000,12.083578125,-0.0316705889999866,-0.0383981503546237,0.0281699858605861
1789996818065649000,12.09364892578125,-0.0353422872722148,-0.0229438263922929,0.0625998675823211
1789996818075720000,12.103719970703125,0.027285411953926,-0.0016601500101387,0.0235191546380519
1789996818085791000,12.113791015625,0.0565892420709133,0.0011785132810473,0.0384003669023513
1789996818095862000,12.123862060546877,0.0280333887785673,-0.0127677358686923,0.0335460901260376
1789996818105933000,12.13393310546875,-0.0024006823077797,-0.0147741623222827,0.0163492579013109
1789996818116004000,12.144004150390623,0.0179780405014753,-0.0393993854522705,0.1049851775169372
1789996818126075000,12.154074951171877,0.0599910020828247,-0.0375756509602069,0.063718169927597
1789996818136146000,12.16414599609375,0.0741140320897102,-0.036224365234375,0.0801964998245239
1789996818146217000,12.174217041015623,0.0975301414728164,-0.016505254432559,0.0481301732361316
1789996818156288000,12.1842880859375,0.0665289014577865,0.0050493809394538,0.0682278424501419
1789996818166359000,12.194359130859375,0.0568477772176265,0.0059979991056025,-0.0035850997082889
1789996818176430000,12.20443017578125,0.0638508349657058,-0.0192813035100698,-0.0291452314704656
1789996818186500900,12.2145009765625,0.0559513717889785,-0.0104995295405387,-0.0317753702402114
1789996818196572000,12.224572021484375,0.0170834399759769,0.0009532868862152,-0.0224314518272876
1789996818206643000,12.234642822265624,0.0101565578952431,0.0028015207499265,-0.0154172182083129
1789996818216714000,12.2447138671875,0.0868520364165306,-0.0207004584372043,0.029321726411581
1789996818226785000,12.254784912109375,0.12684366106987,-0.0347430408000946,0.02941120788455
1789996818236856000,12.26485595703125,0.0702700465917587,-0.0025203889235854,0.0284702312201261
1789996818246926800,12.2749267578125,0.0699368864297866,0.0365071706473827,-0.0434279292821884
1789996818256998000,12.284997802734376,0.1154268756508827,0.0477858483791351,-0.1107912883162498
1789996818267069000,12.29506884765625,0.143806591629982,0.0446270741522312,-0.0513868182897567
1789996818277140000,12.305139892578126,0.1335702538490295,0.0518171526491642,-0.041127149015665
1789996818287211000,12.3152109375,0.0883814767003059,0.0774663239717483,0.0140657993033528
1789996818297282000,12.325281982421876,0.0759701579809188,0.1314641088247299,-0.0019516641041263
1789996818307352800,12.335352783203126,0.0938412994146347,0.1724424362182617,-0.0582650043070316
1789996818317423900,12.345423828125,0.1792249530553817,0.1625934988260269,-0.0613169111311435
1789996818327495000,12.355494873046876,0.1727066040039062,0.1496633142232895,-0.0225538052618503
1789996818337566000,12.36556591796875,0.1550061553716659,0.1442302465438842,0.0267835836857557
1789996818347637000,12.375636962890624,0.1289396733045578,0.1610513031482696,0.0670945197343826
1789996818357708000,12.3857080078125,0.1674467474222183,0.2015246152877807,0.0194027833640575
1789996818367779000,12.395779052734374,0.1813529729843139,0.2443253397941589,-0.0398413650691509
1789996818377849900,12.405849853515624,0.1629692763090133,0.2419490814208984,-0.0554625540971756
1789996818387921000,12.4159208984375,0.1300840228796005,0.2516182065010071,-0.2299792319536209
1789996818397992000,12.425991943359374,0.1414826661348343,0.2372728735208511,-0.2133601158857345
1789996818408063000,12.43606298828125,0.1508266329765319,0.2222121655941009,-0.0456632599234581
1789996818418134000,12.446134033203125,0.0880022495985031,0.2491137683391571,-0.0488376319408416
1789996818428205000,12.456205078125,0.0705004855990409,0.2305192947387695,-0.094901256263256
1789996818438275800,12.46627587890625,0.1073416545987129,0.240699216723442,-0.1349831372499466
1789996818448347000,12.476346923828125,0.1510798186063766,0.2242531329393386,-0.1343647539615631
1789996818458418000,12.48641796875,0.199255958199501,0.1897211074829101,-0.0922974199056625
1789996818468489000,12.496489013671876,0.1287764608860016,0.2233738750219345,0.0088726058602333
1789996818478560000,12.50656005859375,0.0787635445594787,0.2565522789955139,0.028344988822937
1789996818488631000,12.516631103515625,0.0775123909115791,0.2985077202320099,-0.0226580090820789
1789996818498701800,12.526701904296877,0.1150024831295013,0.327875941991806,-0.0526571050286293
1789996818508772900,12.53677294921875,0.0993438959121704,0.302774041891098,-0.0672176778316497
1789996818518844000,12.546843994140623,0.0790547952055931,0.224720224738121,0.0390917733311653
1789996818528915000,12.5569150390625,0.0409542806446552,0.2193851172924041,0.0256907474249601
1789996818538986000,12.566986083984377,0.0594758726656436,0.2297704368829727,-0.013213905505836
1789996818549057000,12.57705712890625,0.1050081998109817,0.2433632165193557,-0.0451100505888462
1789996818559127800,12.5871279296875,0.0820118933916091,0.2325708270072937,-0.017667656764388
1789996818569198800,12.59719873046875,0.0672324150800705,0.1694685667753219,0.0627611353993415
1789996818579270000,12.607269775390623,0.0216661766171455,0.1619517207145691,0.0521065108478069
1789996818589341000,12.6173408203125,0.0117629440501332,0.1627317517995834,-0.0051906006410717
1789996818599412000,12.627411865234375,0.0334745794534683,0.136900395154953,-0.0431850515305995
1789996818609483000,12.63748291015625,0.0479552522301673,0.1202287375926971,-0.0225860346108675
1789996818619553800,12.6475537109375,0.0295022614300251,0.1101556345820427,0.0933207869529724
1789996818629624800,12.657624755859375,0.0018482623854652,0.1330407112836837,0.0820532217621803
1789996818639696000,12.66769580078125,0.0453878976404666,0.1235083490610122,0.1626529544591903
1789996818649767000,12.677766845703124,0.0363944023847579,0.1519338637590408,0.122563324868679
1789996818659838000,12.687837890625,0.0126641802489757,0.1594267785549163,-0.0019745600875467
1789996818669909000,12.697908935546875,0.021129036322236,0.1303783506155014,0.0693954974412918
1789996818679979800,12.707979736328124,0.0298805478960275,0.1571895629167556,0.0399534814059734
1789996818690050800,12.71805078125,0.0160454250872135,0.1810254007577896,0.0976513996720314
1789996818700121900,12.728121826171876,0.0490538030862808,0.1547587513923645,0.2595226168632507
1789996818710193000,12.73819287109375,0.02673758007586,0.1495011448860168,0.2051520645618438
1789996818720264000,12.748263916015626,0.0017985042650252,0.1777173578739166,0.1677558869123459
1789996818730335000,12.7583349609375,0.0050784535706043,0.2100111097097396,-0.0497306324541568
1789996818740405800,12.76840576171875,0.0311841536313295,0.1461368799209594,-0.025951150804758
1789996818750476800,12.778476806640626,-0.0131947631016373,0.1372539103031158,0.0580143257975578
1789996818760548000,12.788548095703124,-0.0793399065732956,0.1359991431236267,0.1535573601722717
1789996818770619100,12.798619140625,-0.1161610409617424,0.1220013052225112,0.1381800025701522
1789996818780690200,12.808690185546874,-0.0871725156903266,0.1318076252937317,0.0712219104170799
1789996818790761000,12.818760986328124,-0.0720873102545738,0.1827890574932098,0.010807828977704
1789996818800832000,12.82883203125,-0.0929922312498092,0.1620324105024337,0.0443260855972766
1789996818810903000,12.838903076171874,-0.1160267144441604,0.0988750159740448,0.0848870947957038
1789996818820974000,12.84897412109375,-0.1430773288011551,0.0969649255275726,0.0748441740870475
1789996818831045000,12.859045166015624,-0.0881925225257873,0.0818461626768112,0.1225850656628608
1789996818841116200,12.8691162109375,-0.074590265750885,0.0239574033766984,0.1850575655698776
1789996818851187000,12.87918701171875,-0.1179872751235961,0.0033788918517529,0.15153369307518
1789996818861258000,12.889258056640625,-0.1257142722606659,0.0280223358422517,0.0279217064380645
1789996818871329000,12.8993291015625,-0.1316113024950027,0.0517028979957103,-0.089860588312149
1789996818881400000,12.909400146484376,-0.1325498223304748,-0.0104227876290678,-0.0621799603104591
1789996818891471000,12.91947119140625,-0.1001892238855362,-0.0804410204291343,0.0409352406859397
1789996818901542100,12.929542236328125,-0.1244104728102684,-0.1153141260147094,0.0941362977027893
1789996818911613200,12.93961328125,-0.1374463737010955,-0.1401193439960479,0.0849425345659256
1789996818921684000,12.94968408203125,-0.1093610227108001,-0.0676853880286216,-0.1271435618400573
1789996818931755000,12.959755126953125,-0.0937277376651763,-0.0572252944111824,-0.1380899548530578
1789996818941826000,12.969825927734377,-0.1506827920675277,-0.0894949659705162,-0.1528835296630859
1789996818951897000,12.97989697265625,-0.1728794425725937,-0.1416087597608566,-0.0987870022654533
1789996818961968000,12.989968017578123,-0.1434482932090759,-0.1456721723079681,0.0046788561157882
1789996818972039200,13.0000390625,-0.1224553808569908,-0.1476317346096038,0.0670098811388015
1789996818982110000,13.01010986328125,-0.1700880378484726,-0.0906631872057914,-0.0759673714637756
1789996818992181000,13.020180908203123,-0.1423781067132949,-0.0819178968667984,-0.0449553914368152
1789996819002252000,13.030251953125,-0.1209472715854644,-0.0712720155715942,0.0221631228923797
1789996819012323000,13.040322998046875,-0.1267383098602295,-0.0596675649285316,-0.0367840826511383
1789996819022394000,13.05039404296875,-0.1505221575498581,-0.0695111006498336,0.0245133005082607
1789996819032465200,13.060465087890623,-0.1337106823921203,-0.0535124242305755,0.0227425638586282
1789996819042536000,13.070535888671875,-0.0843688547611236,-0.0381253659725189,0.0045396327041089
1789996819052607000,13.08060693359375,-0.0524633824825286,-0.0279893763363361,0.0277280416339635
1789996819062678000,13.090677978515624,-0.0614616386592388,-0.0619478374719619,0.0613474436104297
1789996819072749000,13.1007490234375,-0.0519022196531295,-0.0598165094852447,0.0176233947277069
1789996819082820000,13.110820068359375,-0.0291869584470987,0.0050438274629414,-0.0663918554782867
1789996819092891100,13.12089111328125,-0.0291755069047212,0.0109051782637834,-0.0323489345610141
1789996819102962000,13.1309619140625,-0.005210337229073,0.0219444371759891,-0.0154760712757706
1789996819113033000,13.141032958984376,0.0199296362698078,0.0597775653004646,-0.0195443164557218
1789996819123104000,13.15110400390625,0.0661472082138061,0.0854811072349548,0.0132755665108561
1789996819133175000,13.161175048828126,0.0815109834074974,0.0884864851832389,0.0116307977586984
1789996819143246000,13.17124609375,0.076308324933052,0.1161244586110115,-0.036969605833292
1789996819153317000,13.181317138671876,0.1078257709741592,0.1693480014801025,-0.1062600016593933
1789996819163388000,13.191387939453126,0.129466101527214,0.2114993333816528,-0.038776446133852
1789996819173459000,13.201458984375,0.1289017796516418,0.243072971701622,0.0588462501764297
1789996819183530000,13.211530029296876,0.1127064451575279,0.3000012934207916,0.0326410569250583
1789996819193601000,13.22160107421875,0.1199731454253196,0.3189973533153534,0.0332794189453125
1789996819203672000,13.231672119140624,0.1630885452032089,0.3195956349372864,0.0340964347124099
1789996819213743000,13.2417431640625,0.1476555317640304,0.3563272953033447,-0.1196113675832748
1789996819223814000,13.25181396484375,0.1050290688872337,0.37149778008461,-0.0716402754187583
1789996819233885000,13.261885009765624,0.1056820824742317,0.3479408025741577,0.0306866336613893
1789996819243956000,13.2719560546875,0.0549069866538047,0.3339110016822815,0.0475492291152477
1789996819254027000,13.282027099609374,0.0534355901181697,0.2980105280876159,-0.0472007170319557
1789996819264098000,13.29209814453125,0.041104931384325,0.2943066954612732,-0.1481064707040786
1789996819274169000,13.302169189453124,0.008175210095942,0.2744954228401184,-0.2108388245105743
1789996819284240100,13.312240234375,-0.0175900980830192,0.2480882406234741,-0.0824471041560173
1789996819294311200,13.322311279296876,-0.0443426147103309,0.2112934738397598,0.0584098771214485
1789996819304382200,13.33238232421875,-0.0342101342976093,0.2104892432689666,-0.0652496442198753
1789996819314453200,13.342453369140625,-0.0403838753700256,0.20527184009552,0.0550290942192077
1789996819324524300,13.352524169921876,-0.0779565945267677,0.1583580523729324,0.114852949976921
1789996819334595300,13.36259521484375,-0.0922511145472526,0.1107814833521843,0.0745502635836601
1789996819344666000,13.372666015625,-0.0643749237060546,0.1170317232608795,0.0387050434947013
1789996819354737200,13.382737060546877,-0.0874371007084846,0.1075474172830581,0.0253444947302341
1789996819364808200,13.39280810546875,-0.1188276782631874,0.0395937748253345,-0.0654791370034217
1789996819374879200,13.402879150390625,-0.1503075808286667,0.0089868642389774,-0.0018458305858075
1789996819384950300,13.4129501953125,-0.1398369222879409,-0.0317058600485324,0.029766246676445
1789996819395021300,13.423021240234377,-0.1651127189397812,-0.0281699784100055,-0.0189506914466619
1789996819405092000,13.433092041015623,-0.2294734567403793,-0.0046038231812417,0.0065267449244856
1789996819415163100,13.4431630859375,-0.3130761981010437,-0.1064542904496193,0.1239881291985511
1789996819425234200,13.453234130859377,-0.3499243557453155,-0.1833467781543731,0.121001623570919
1789996819435305200,13.46330517578125,-0.2564109265804291,-0.1923368126153946,0.0503873713314533
1789996819445376300,13.473376220703123,-0.1991031169891357,-0.2321567833423614,0.1391370445489883
1789996819455447300,13.483447265625,-0.2567424476146698,-0.2662412524223327,0.1706342548131942
1789996819465518000,13.49351806640625,-0.3556286990642547,-0.2928459048271179,0.252889484167099
1789996819475589000,13.503589111328123,-0.3121818900108337,-0.2199589163064956,0.1633811444044113
1789996819485660200,13.51366015625,-0.2444367110729217,-0.2131519764661789,0.0713606029748916
1789996819495731200,13.523731201171875,-0.2522024810314178,-0.3236459791660309,0.1222237795591354
1789996819505802200,13.53380224609375,-0.3300987780094147,-0.3748818635940552,0.154293492436409
1789996819515873300,13.543873291015624,-0.3939917385578155,-0.3744395077228546,0.2291560173034668
1789996819525944000,13.553944091796875,-0.3476048409938812,-0.3798015415668487,0.1828429400920868
1789996819536015000,13.56401513671875,-0.2820098400115967,-0.4054602980613708,0.1718440800905227
1789996819546086100,13.574086181640626,-0.2883607149124145,-0.4046414196491241,0.0561900027096271
1789996819556157200,13.5841572265625,-0.2952103614807129,-0.400285005569458,0.0449301600456237
1789996819566228200,13.594228271484376,-0.293684720993042,-0.415417730808258,-0.0025640013627707
1789996819576299300,13.60429931640625,-0.2777614295482635,-0.4104088544845581,-0.0267961043864488
1789996819586370000,13.6143701171875,-0.2284812331199646,-0.3696377277374267,-0.0442226491868495
1789996819596441000,13.624441162109376,-0.2140982896089553,-0.3038067817687988,-0.0479065999388694
1789996819606512000,13.63451220703125,-0.200773000717163,-0.2703650295734405,-0.0644313693046569
1789996819616583200,13.644583251953126,-0.1624399870634079,-0.2691660821437835,-0.0722706466913223
1789996819626654200,13.654654296875,-0.1298954635858535,-0.2506771683692932,-0.1169426441192627
1789996819636725200,13.664725341796874,-0.1105649024248123,-0.2205877006053924,-0.1335514634847641
1789996819646796000,13.674796142578124,-0.1215467676520347,-0.1729746907949447,-0.0772772058844566
1789996819656867000,13.6848671875,-0.0895249173045158,-0.1471321731805801,-0.0837297812104225
1789996819666938000,13.694938232421874,-0.0538969300687313,-0.1217629685997963,-0.159366026520729
1789996819677009200,13.705009033203124,-0.0479522198438644,-0.1368138194084167,-0.1192987710237503
1789996819687080200,13.715080078125,-0.0653171464800834,-0.1335861086845398,-0.1565424799919128
1789996819697151200,13.725151123046874,-0.0503656305372715,-0.1111862659454345,-0.1458472162485122
1789996819707222300,13.73522216796875,-0.0421862229704856,-0.104475624859333,-0.1379988640546798
1789996819717293000,13.74529296875,0.0298464260995388,-0.1405598670244217,-0.0902928560972213
1789996819727364000,13.755364013671874,0.0511093400418758,-0.1289750784635543,-0.0182563569396734
1789996819737435100,13.76543505859375,0.0268788374960422,-0.1325109601020813,0.0880937874317169
1789996819747506200,13.775506103515625,0.0464836433529853,-0.0965892821550369,0.0672076940536499
1789996819757577700,13.78557763671875,0.0625020191073417,-0.0346761159598827,-0.0353359840810298
1789996819767648800,13.795648681640625,0.0386868640780448,-0.0349952392280101,-0.1184757500886917
1789996819777719800,13.8057197265625,0.0499805323779583,-0.0289440061897039,-0.1714643985033035
1789996819787790800,13.815790771484377,0.026956133544445,0.0222115889191627,-0.145243763923645
1789996819797862000,13.82586181640625,0.0521443076431751,0.0461603291332721,-0.029850598424673
1789996819807932700,13.8359326171875,0.0526306629180908,0.0488650389015674,-0.0179318133741617
1789996819818003700,13.846003662109377,0.0133897839114069,0.0428359098732471,-0.0758547633886337
1789996819828074800,13.85607470703125,0.0312264468520879,0.0739934891462326,-0.1821022778749466
1789996819838145800,13.866145751953123,0.0562540367245674,0.1094960868358612,-0.1693156361579895
1789996819848216800,13.876216796875,0.042770929634571,0.0756163001060485,-0.0326901338994503
1789996819858287900,13.886287841796875,0.0087759429588913,0.0421464927494525,0.0229171998798847
1789996819868359000,13.89635888671875,-0.0052244067192077,0.03974374756217,-0.0333849675953388
1789996819878429700,13.9064296875,-0.0108167789876461,0.0189905315637588,-0.0103574115782976
1789996819888500700,13.916500732421875,0.0360062681138515,-0.0036075683310627,0.0021641952916979
1789996819898571800,13.92657177734375,0.0149585083127021,-0.0101629393175244,0.0596879422664642
1789996819908642800,13.936642822265624,-0.0519753284752368,-0.015883520245552,0.1163917258381843
1789996819918713900,13.9467138671875,-0.044942982494831,0.0064023439772427,-0.027685023844242
1789996819928785000,13.956784912109375,-0.039679292589426,-0.0113538270816206,0.0873501375317573
1789996819938855700,13.966855712890624,-0.0149273416027426,-0.0617877058684825,0.0538401082158088
1789996819948926700,13.9769267578125,-0.0091665480285882,-0.0905174687504768,0.0220836941152811
1789996819958997800,13.986997802734376,0.0055237147025763,-0.1170824989676475,0.0617661289870739
1789996819969068800,13.99706884765625,-0.0329503566026687,-0.1506132930517196,0.0051588318310678
1789996819979139800,14.007139892578126,-0.0353898108005523,-0.2074590027332306,-0.0091897463425993
1789996819989211000,14.0172109375,-0.0432550422847271,-0.2241594493389129,0.0363146439194679
1789996819999281700,14.02728173828125,-0.0590843372046947,-0.2616927325725555,0.1463080048561096
1789996820009352700,14.037352783203126,-0.0200562644749879,-0.2617749869823456,0.0292383302003145
1789996820019423700,14.047423828125,0.0305736232548952,-0.2782258689403534,0.0035313691478222
1789996820029494800,14.057494873046876,0.0151622034609317,-0.2909718155860901,0.0312105510383844
1789996820039565800,14.06756591796875,-0.0065316399559378,-0.2770077884197235,0.0360234156250953
1789996820049636900,14.077636962890624,-0.0451569035649299,-0.2097843587398529,0.0623904392123222
1789996820059707600,14.087707763671874,-0.0436101406812667,-0.1930783540010452,0.1180379837751388
1789996820069778700,14.09777880859375,-0.0343832224607467,-0.2089263945817947,-0.0556230843067169
1789996820079849700,14.107849609375,-0.0397092774510383,-0.2169156074523925,-0.1676201820373535
1789996820089920800,14.117920654296874,0.0196472331881523,-0.2529844939708709,-0.0837682336568832
1789996820099991800,14.12799169921875,0.0522453896701335,-0.1853481829166412,-0.0633037015795707
1789996820110062800,14.138062744140624,0.0545962490141391,-0.1594780832529068,0.1082679480314254
1789996820120133600,14.148133544921874,-0.0488137602806091,-0.1628094315528869,0.1708791255950927
1789996820130204700,14.15820458984375,-0.0330581292510032,-0.1042947322130203,0.0330867171287536
1789996820140275700,14.168275634765624,0.0635586827993393,-0.0757251381874084,0.019573837518692
1789996820150346800,14.1783466796875,0.1237370669841766,-0.0801986679434776,0.0554545186460018
1789996820160417800,14.188417724609376,0.111270010471344,-0.0641224980354309,0.0093032680451869
1789996820170488800,14.19848876953125,0.1169262528419494,-0.0475022122263908,0.0464261993765831
