time,seconds_elapsed,z,y,x
1791110005760124200,0.051124267578125,-0.8897247314453125,-0.9175567626953125,-0.0826873779296875
1791110005770194200,0.061194091796875,-0.7835693359375,-1.0614013671875,-0.0660858154296875
1791110005780265200,0.07126513671875,0.0313720703125,-1.13897705078125,0.074554443359375
1791110005790336300,0.081336181640625,0.3927459716796875,-0.716339111328125,0.0580902099609375
1791110005800407300,0.0914072265625,0.10589599609375,-0.75653076171875,-0.1176605224609375
1791110005810478000,0.10147802734375,-1.2449493408203125,-0.8271942138671875,0.0125274658203125
1791110005820549000,0.111549072265625,-1.79473876953125,-1.0317840576171875,-0.0347442626953125
1791110005830620200,0.1216201171875,-0.5521697998046875,-1.452911376953125,-0.110504150390625
1791110005840691200,0.131691162109375,0.0765228271484375,-1.0279388427734375,0.08282470703125
1791110005850762200,0.14176220703125,0.112701416015625,-0.709320068359375,0.065887451171875
1791110005860833300,0.151833251953125,-0.13232421875,-0.7808990478515625,-0.0076751708984375
1791110005870903000,0.161903076171875,-0.933502197265625,-0.7863006591796875,-0.0163726806640625
1791110005880974000,0.17197412109375,-0.3997344970703125,-1.1861572265625,-0.042816162109375
1791110005891045000,0.182045166015625,0.51806640625,-1.1265869140625,-0.072967529296875
1791110005901116200,0.1921162109375,0.089202880859375,-0.5589599609375,-0.0538482666015625
1791110005911187200,0.202187255859375,-0.244659423828125,-0.754058837890625,-0.1163177490234375
1791110005921258000,0.212258056640625,-0.8396148681640625,-0.7670440673828125,0.107269287109375
1791110005931329000,0.2223291015625,-0.8631134033203125,-0.93438720703125,0.0775909423828125
1791110005941400000,0.232400146484375,0.3657073974609375,-1.2431182861328125,0.0010528564453125
1791110005951471000,0.24247119140625,0.40277099609375,-0.874359130859375,0.0935516357421875
1791110005961541000,0.252541015625,-0.5020751953125,-0.61688232421875,0.1489410400390625
1791110005971612000,0.26261181640625,-1.3018646240234375,-0.7706298828125,-0.0248260498046875
1791110005981683000,0.272682861328125,-1.1454925537109375,-0.9822845458984375,-0.09521484375
1791110005991754000,0.28275390625,-0.0240631103515625,-1.16119384765625,0.013763427734375
1791110006001825000,0.292824951171875,0.67449951171875,-0.818115234375,0.100433349609375
1791110006011896000,0.30289599609375,0.7971649169921875,-0.536102294921875,-0.144073486328125
1791110006021967000,0.312967041015625,-0.419952392578125,-0.584442138671875,-0.20233154296875
1791110006032038000,0.323037841796875,-1.9709930419921875,-0.7488861083984375,-0.1538238525390625
1791110006042109000,0.33310888671875,-1.2302703857421875,-1.61639404296875,-0.19195556640625
1791110006052180000,0.343179931640625,-0.30767822265625,-1.634979248046875,0.08062744140625
1791110006062250200,0.353250244140625,0.0820770263671875,-0.9891510009765625,0.231781005859375
1791110006072321300,0.3633212890625,-0.1416168212890625,-0.4214019775390625,0.0068511962890625
1791110006082392000,0.37339208984375,-0.7861175537109375,-0.30438232421875,-0.156768798828125
1791110006092463000,0.383463134765625,-0.35809326171875,-0.951873779296875,-0.16259765625
1791110006102534100,0.3935341796875,0.356964111328125,-1.219085693359375,0.0240936279296875
1791110006112605700,0.403605712890625,-0.3018646240234375,-0.980010986328125,0.149078369140625
1791110006122676500,0.413676513671875,-1.2401123046875,-0.8663482666015625,-0.0875244140625
1791110006132747500,0.42374755859375,-1.82940673828125,-0.9166412353515625,-0.2137451171875
1791110006142818600,0.433818603515625,-1.124267578125,-1.126373291015625,-0.15338134765625
1791110006152889600,0.4438896484375,0.4849700927734375,-1.116424560546875,0.068511962890625
1791110006162959600,0.453959716796875,0.877532958984375,-0.784210205078125,0.2486419677734375
1791110006173030400,0.464030517578125,-0.9765777587890625,-0.41650390625,0.049652099609375
1791110006183101400,0.474101318359375,-2.6717987060546875,-0.60955810546875,-0.485992431640625
1791110006193172500,0.48417236328125,-1.9388885498046875,-1.457366943359375,-0.468231201171875
1791110006203243500,0.494243408203125,-0.13494873046875,-1.6219482421875,0.2076568603515625
1791110006213314600,0.504314453125,0.330291748046875,-0.7910919189453125,0.5388336181640625
1791110006223385600,0.514385498046875,0.3471221923828125,-0.3417816162109375,-0.3056640625
1791110006233456400,0.524456298828125,0.090728759765625,-0.4636383056640625,-0.794952392578125
1791110006243527400,0.53452734375,-0.8243865966796875,-0.7208251953125,-0.3524169921875
1791110006253597400,0.544597412109375,-0.7296905517578125,-1.0989990234375,-0.1622161865234375
1791110006263668500,0.55466845703125,0.1182098388671875,-1.15960693359375,-0.31585693359375
1791110006273739500,0.564739501953125,-0.1763763427734375,-0.8542938232421875,-0.41912841796875
1791110006283810300,0.574810302734375,-0.5866546630859375,-0.809783935546875,-0.567840576171875
1791110006293881300,0.58488134765625,-1.2135467529296875,-0.702667236328125,-0.3915863037109375
1791110006303952400,0.594952392578125,-0.5575714111328125,-0.9485626220703125,0.02142333984375
1791110006314023400,0.6050234375,-0.3092498779296875,-0.9767608642578125,0.1434173583984375
1791110006324094500,0.615094482421875,0.310272216796875,-1.14593505859375,-0.2512664794921875
1791110006334165500,0.62516552734375,0.382080078125,-0.9373016357421875,-0.401275634765625
1791110006344235500,0.635235595703125,1.007232666015625,-0.7978515625,-0.4646148681640625
1791110006354306600,0.645306640625,-0.245086669921875,-0.693206787109375,-0.175567626953125
1791110006364377600,0.655377685546875,-1.5903472900390625,-0.7629241943359375,0.0197601318359375
1791110006374448600,0.66544873046875,-1.19439697265625,-1.15374755859375,-0.3670501708984375
1791110006384519700,0.675519775390625,-0.956146240234375,-1.0096282958984375,-0.3636322021484375
1791110006394590500,0.685590576171875,-0.3780670166015625,-0.718231201171875,-0.2532501220703125
1791110006404661500,0.69566162109375,0.3348236083984375,-1.0247344970703125,-0.1948394775390625
1791110006414732500,0.705732666015625,-0.4221954345703125,-0.964874267578125,-0.2501373291015625
1791110006424803600,0.715803466796875,-0.9443359375,-1.1902313232421875,-0.4851531982421875
1791110006434873600,0.72587353515625,-1.0543060302734375,-1.2378082275390625,-0.3496246337890625
1791110006444944400,0.7359443359375,0.1557464599609375,-1.06256103515625,-0.1166839599609375
1791110006455015400,0.746015380859375,1.1900634765625,-0.7545166015625,-0.3329620361328125
1791110006465086500,0.75608642578125,0.2965545654296875,-0.259765625,-0.3915252685546875
1791110006475157500,0.766157470703125,-0.3853302001953125,-0.4698944091796875,-0.1727142333984375
1791110006485228500,0.776228515625,-1.7361297607421875,-1.1755523681640625,0.05517578125
1791110006495299600,0.786299560546875,-2.070220947265625,-1.1312713623046875,0.0584716796875
1791110006505370400,0.796370361328125,-0.67962646484375,-1.4965362548828125,-0.492767333984375
1791110006515441400,0.80644140625,0.85321044921875,-1.4758148193359375,-0.4100799560546875
1791110006525512400,0.816512451171875,1.0107879638671875,-0.64447021484375,0.2061920166015625
1791110006535582500,0.82658251953125,0.5412750244140625,-0.2154998779296875,0.2177276611328125
1791110006545653500,0.836653564453125,-1.6944732666015625,-0.2203216552734375,0.3549346923828125
1791110006555724300,0.846724365234375,-1.6029052734375,-1.1088714599609375,0.29119873046875
1791110006565795300,0.85679541015625,-0.5581512451171875,-1.641510009765625,0.050567626953125
1791110006575866400,0.866866455078125,-0.359039306640625,-1.10540771484375,-0.159881591796875
1791110006585937400,0.8769375,0.4547882080078125,-0.84527587890625,-0.29376220703125
1791110006596008400,0.887008544921875,-0.2296600341796875,-0.6041259765625,-0.08026123046875
1791110006606079500,0.89707958984375,-0.955291748046875,-0.4122314453125,0.1142120361328125
1791110006616150300,0.907150390625,-0.594482421875,-0.73980712890625,-0.0202789306640625
1791110006626220500,0.917220458984375,-0.568267822265625,-0.8437042236328125,-0.0129547119140625
1791110006636291600,0.92729150390625,-0.26324462890625,-1.0797119140625,0.157196044921875
1791110006646362600,0.937362548828125,-0.4553070068359375,-1.112030029296875,0.2138824462890625
1791110006656433700,0.94743359375,-0.45550537109375,-0.89788818359375,-0.0308685302734375
1791110006666504400,0.95750439453125,0.1302947998046875,-0.9196014404296875,-0.1923675537109375
1791110006676575500,0.967575439453125,-0.1696319580078125,-0.8190155029296875,-0.0146484375
1791110006686646500,0.977646484375,-0.652374267578125,-0.7439727783203125,0.23748779296875
1791110006696717600,0.987717529296875,-0.64447021484375,-1.03558349609375,0.2278900146484375
1791110006706788600,0.99778857421875,-0.196746826171875,-1.23443603515625,-0.0160369873046875
1791110006716858400,1.0078583984375,0.3098297119140625,-1.1807403564453125,-0.1895599365234375
1791110006726929400,1.017929443359375,-0.76214599609375,-0.5513916015625,-0.0582275390625
1791110006737000400,1.02800048828125,-1.6707000732421875,-0.3678436279296875,0.013824462890625
1791110006747071500,1.038071533203125,-1.3727874755859375,-0.901763916015625,0.1150360107421875
1791110006757142500,1.048142578125,-0.6066131591796875,-1.0545654296875,0.09637451171875
1791110006767213600,1.058213623046875,0.3338165283203125,-1.106536865234375,-0.0057830810546875
1791110006777284400,1.068284423828125,0.662017822265625,-1.0676727294921875,0.2113494873046875
1791110006787355400,1.07835546875,-0.264556884765625,-0.5478973388671875,0.3568267822265625
1791110006797426400,1.088426513671875,-0.6320343017578125,-0.80816650390625,0.12896728515625
1791110006807496400,1.098496337890625,-0.8356170654296875,-1.037322998046875,0.021636962890625
1791110006817567200,1.108567138671875,-1.30645751953125,-0.752471923828125,0.009552001953125
1791110006827638300,1.11863818359375,-0.510467529296875,-1.0647430419921875,0.2120513916015625
1791110006837709300,1.128709228515625,0.3736114501953125,-1.0160980224609375,0.321685791015625
1791110006847780400,1.1387802734375,-0.2851409912109375,-0.6517791748046875,0.167388916015625
1791110006857851400,1.148851318359375,-0.3287811279296875,-1.00994873046875,0.0577392578125
1791110006867922400,1.15892236328125,-0.3610076904296875,-1.116790771484375,0.0257110595703125
1791110006877993500,1.168993408203125,-0.9255828857421875,-0.8367767333984375,0.2099761962890625
1791110006888064500,1.179064453125,-0.553436279296875,-0.821136474609375,0.1832733154296875
1791110006898134500,1.189134521484375,0.10784912109375,-1.0565185546875,-0.103851318359375
1791110006908205600,1.19920556640625,-0.284210205078125,-0.9915924072265625,-0.058685302734375
1791110006918276600,1.209276611328125,-0.71881103515625,-0.5330047607421875,-0.016632080078125
1791110006928347400,1.219347412109375,-0.59991455078125,-0.7914581298828125,0.0377960205078125
1791110006938418400,1.22941845703125,-1.0729217529296875,-0.9382781982421875,-0.016082763671875
1791110006948489500,1.239489501953125,-1.191619873046875,-1.0342864990234375,-0.1777191162109375
1791110006958560500,1.249560546875,-0.699249267578125,-1.2666473388671875,-0.121490478515625
1791110006968631600,1.259631591796875,-0.9232940673828125,-1.1162109375,-0.1338348388671875
1791110006978702600,1.26970263671875,-0.6234283447265625,-1.0604095458984375,-0.114532470703125
1791110006988772400,1.2797724609375,0.091552734375,-1.0191192626953125,-0.240325927734375
1791110006998843400,1.289843505859375,0.1842041015625,-0.701873779296875,-0.1922607421875
1791110007008914400,1.29991455078125,0.33270263671875,-0.8559722900390625,-0.1426849365234375
1791110007018985500,1.3099853515625,0.3257598876953125,-0.839752197265625,-0.03521728515625
1791110007029056500,1.320056396484375,-0.65838623046875,-0.7127838134765625,0.0903167724609375
1791110007039127300,1.330127197265625,-0.4131011962890625,-1.0178070068359375,0.0238037109375
1791110007049198300,1.3401982421875,-0.1452484130859375,-1.152557373046875,-0.204376220703125
1791110007059269400,1.350269287109375,-0.36871337890625,-1.002471923828125,-0.1476898193359375
1791110007069340400,1.36034033203125,-0.5569305419921875,-0.8184814453125,0.1457366943359375
1791110007079410400,1.370410400390625,-0.498687744140625,-0.7543792724609375,0.111419677734375
1791110007089481500,1.3804814453125,-0.19219970703125,-0.83984375,0.1064453125
1791110007099552500,1.390552490234375,-0.215576171875,-0.7646484375,0.04803466796875
1791110007109623600,1.40062353515625,0.4131927490234375,-0.81597900390625,-0.004730224609375
1791110007119694300,1.4106943359375,-0.0126495361328125,-0.8377227783203125,0.03106689453125
1791110007129765400,1.420765380859375,-1.0619964599609375,-0.8602752685546875,0.089874267578125
1791110007139836400,1.43083642578125,-0.99456787109375,-1.0583953857421875,0.04931640625
1791110007149907200,1.4409072265625,-0.6027374267578125,-1.1606903076171875,0.002960205078125
1791110007159978200,1.450978271484375,-0.04241943359375,-1.13934326171875,-0.0621490478515625
1791110007170048300,1.46104833984375,0.2003173828125,-0.911224365234375,0.0044403076171875
1791110007180119300,1.471119384765625,-0.42559814453125,-0.5083465576171875,0.1605682373046875
1791110007190190300,1.4811904296875,-0.2210540771484375,-0.7861175537109375,0.2071685791015625
1791110007200261000,1.49126123046875,-0.543304443359375,-1.046051025390625,0.09735107421875
1791110007210332200,1.501332275390625,-0.983673095703125,-0.990570068359375,0.169677734375
1791110007220403200,1.5114033203125,-0.1537933349609375,-1.31390380859375,-0.0135040283203125
1791110007230474200,1.52147412109375,0.354827880859375,-1.01837158203125,0.009552001953125
1791110007240545300,1.531545166015625,-0.2144927978515625,-0.821441650390625,-0.0384674072265625
1791110007250616300,1.5416162109375,-0.7062835693359375,-0.956207275390625,0.138153076171875
1791110007260686000,1.55168603515625,-0.775665283203125,-0.9663543701171875,0.2479248046875
1791110007270757000,1.561757080078125,-0.4742279052734375,-0.966827392578125,0.217803955078125
1791110007280828200,1.571828125,-0.3518829345703125,-1.0159149169921875,-0.114898681640625
1791110007290899200,1.581899169921875,-0.2054290771484375,-0.9791259765625,-0.1547393798828125
1791110007300970200,1.59197021484375,-0.8350372314453125,-0.564208984375,0.3224639892578125
1791110007311041000,1.602041015625,-0.9801025390625,-0.5827484130859375,0.292633056640625
1791110007321112000,1.612112060546875,0.30377197265625,-1.250274658203125,-0.1149444580078125
1791110007331183000,1.62218310546875,0.552001953125,-0.7990875244140625,-0.0786285400390625
1791110007341254100,1.632254150390625,-0.766143798828125,-0.14410400390625,0.1603851318359375
1791110007351324400,1.642324462890625,-0.9050140380859375,-0.5934600830078125,0.16748046875
1791110007361395200,1.652395263671875,-0.32061767578125,-0.9928436279296875,0.0291748046875
1791110007371466200,1.66246630859375,-0.2292938232421875,-0.928558349609375,-0.10894775390625
1791110007381537300,1.672537353515625,-0.56158447265625,-0.86151123046875,-0.0797119140625
1791110007391608300,1.6826083984375,-1.232452392578125,-0.7710113525390625,0.0158843994140625
1791110007401679400,1.692679443359375,-1.10845947265625,-0.7437896728515625,0.23919677734375
1791110007411750400,1.70275048828125,-0.1253814697265625,-0.9570465087890625,0.039947509765625
1791110007421821200,1.7128212890625,-0.13287353515625,-0.9912567138671875,-0.208282470703125
1791110007431891200,1.72289111328125,-0.80340576171875,-0.641448974609375,0.0155181884765625
1791110007441962200,1.732962158203125,-1.3610992431640625,-0.495361328125,0.295806884765625
1791110007452033300,1.743033203125,-1.190643310546875,-0.8147430419921875,0.2830963134765625
1791110007462104300,1.753104248046875,-0.046875,-0.997344970703125,-0.0250396728515625
1791110007472175000,1.763175048828125,0.3708038330078125,-0.9698486328125,-0.1416473388671875
1791110007482246100,1.77324609375,-0.1507720947265625,-0.7047576904296875,-0.1005096435546875
1791110007492317200,1.783317138671875,-0.745941162109375,-0.8183135986328125,-0.045074462890625
1791110007502388200,1.79338818359375,-0.910125732421875,-1.1635284423828125,-0.0550994873046875
1791110007512459300,1.803459228515625,-0.2025146484375,-1.4343414306640625,-0.3320770263671875
1791110007522529000,1.813529052734375,-0.37701416015625,-1.05804443359375,-0.2723541259765625
1791110007532600000,1.82360009765625,-0.701416015625,-0.670684814453125,-0.062225341796875
1791110007542671000,1.833671142578125,0.1405029296875,-0.8248291015625,-0.0467681884765625
1791110007552742100,1.8437421875,0.4347381591796875,-1.1648406982421875,-0.227081298828125
1791110007562813200,1.853813232421875,-0.9716033935546875,-1.05010986328125,-0.153564453125
1791110007572884200,1.86388427734375,-1.97198486328125,-1.0565643310546875,0.149261474609375
1791110007582955000,1.873955078125,-1.2923126220703125,-1.0719757080078125,0.1636199951171875
1791110007593026000,1.884026123046875,0.11688232421875,-1.1888427734375,-0.2454071044921875
1791110007603097000,1.89409716796875,1.072601318359375,-1.1588134765625,-0.143280029296875
1791110007613167400,1.90416748046875,0.5083160400390625,-0.49652099609375,0.20819091796875
1791110007623238400,1.91423828125,-0.4409027099609375,-0.123992919921875,0.334075927734375
1791110007633309200,1.92430908203125,-1.3228607177734375,-0.5555267333984375,0.244415283203125
1791110007643380200,1.934380126953125,-0.8229217529296875,-1.3262481689453125,-0.05975341796875
1791110007653451300,1.944451171875,-0.32965087890625,-1.441650390625,-0.2734527587890625
1791110007663522300,1.954522216796875,-0.6167449951171875,-0.74365234375,-0.173309326171875
1791110007673593300,1.96459326171875,-0.1322784423828125,-0.4970550537109375,-0.16278076171875
1791110007683664400,1.974664306640625,0.1882476806640625,-0.88226318359375,-0.03753662109375
1791110007693735200,1.984735107421875,-0.0804901123046875,-0.9315338134765625,0.06640625
1791110007703805200,1.99480517578125,-0.085906982421875,-0.82977294921875,-0.1220245361328125
1791110007713876200,2.004876220703125,-0.7296142578125,-0.802581787109375,-0.1338043212890625
1791110007723947300,2.014947265625,-0.91802978515625,-0.92926025390625,0.0194244384765625
1791110007734018300,2.025018310546875,-0.836578369140625,-1.3163604736328125,0.0302581787109375
1791110007744089000,2.035089111328125,-0.8106231689453125,-1.2113189697265625,0.18701171875
1791110007754160000,2.04516015625,-0.313934326171875,-0.9351043701171875,0.15338134765625
1791110007764231200,2.055231201171875,0.1484222412109375,-0.8330230712890625,0.1106414794921875
1791110007774302200,2.06530224609375,-0.3724212646484375,-0.407806396484375,0.20489501953125
1791110007784372200,2.075372314453125,-0.4010009765625,-0.7388763427734375,0.0944671630859375
1791110007794443000,2.085443115234375,0.2463836669921875,-1.295166015625,0.032135009765625
1791110007804514000,2.09551416015625,-0.14404296875,-1.08062744140625,0.0896453857421875
1791110007814585000,2.105585205078125,-1.212921142578125,-0.86822509765625,0.1519317626953125
1791110007824656100,2.11565625,-0.6799468994140625,-1.3309326171875,0.079864501953125
1791110007834727200,2.12572705078125,-0.1410369873046875,-1.2216796875,-0.004974365234375
1791110007844798200,2.135798095703125,-0.387359619140625,-0.7425537109375,0.0565032958984375
1791110007854869200,2.145869140625,0.059417724609375,-0.872955322265625,-0.041259765625
1791110007864940300,2.155940185546875,0.3128204345703125,-1.096099853515625,-0.0463714599609375
1791110007875010300,2.16601025390625,-0.385162353515625,-0.6214599609375,0.0254669189453125
1791110007885081300,2.176081298828125,-0.149505615234375,-0.8979034423828125,-0.113616943359375
1791110007895152400,2.18615234375,-0.408172607421875,-1.0323333740234375,-0.0703582763671875
1791110007905223200,2.19622314453125,-1.2545928955078125,-0.7847900390625,-0.0070648193359375
1791110007915294200,2.206294189453125,-1.0023193359375,-1.0879058837890625,-0.176116943359375
1791110007925365200,2.216365234375,-0.4455413818359375,-1.094818115234375,-0.3839569091796875
1791110007935436300,2.226436279296875,0.173248291015625,-1.0836029052734375,-0.2826995849609375
1791110007945507300,2.23650732421875,-0.4004669189453125,-0.8248291015625,-0.074676513671875
1791110007955578400,2.246578369140625,-0.7141571044921875,-0.3418731689453125,-0.0445098876953125
1791110007965648100,2.256648193359375,-0.3590850830078125,-0.5739593505859375,-0.11663818359375
1791110007975719200,2.26671923828125,0.0386810302734375,-1.0503387451171875,-0.2391204833984375
1791110007985790200,2.276790283203125,-0.9391632080078125,-1.1780242919921875,-0.29632568359375
1791110007995861200,2.286861328125,-1.6901397705078125,-0.996185302734375,-0.2094268798828125
1791110008005932300,2.296932373046875,-0.0593109130859375,-0.984039306640625,-0.294921875
1791110008016003000,2.307003173828125,1.045013427734375,-1.016448974609375,-0.577301025390625
1791110008026074000,2.31707421875,-0.681365966796875,-0.5693206787109375,0.00177001953125
1791110008036145200,2.327145263671875,-1.404876708984375,-0.615386962890625,0.5086517333984375
1791110008046215200,2.337215087890625,-1.1466217041015625,-0.9350738525390625,0.210296630859375
1791110008056286200,2.3472861328125,-0.131317138671875,-1.030853271484375,-0.19757080078125
1791110008066357200,2.357357177734375,0.935455322265625,-1.22418212890625,-0.420806884765625
1791110008076428300,2.36742822265625,-0.7304840087890625,-0.704345703125,-0.00201416015625
1791110008086499300,2.377499267578125,-2.237213134765625,-0.5345611572265625,0.3734588623046875
1791110008096570400,2.3875703125,-1.35418701171875,-1.24658203125,-0.044708251953125
1791110008106641400,2.397641357421875,0.68389892578125,-1.456756591796875,-0.4204559326171875
1791110008116712200,2.407712158203125,2.392242431640625,-1.035003662109375,-0.2279815673828125
1791110008126783200,2.417783203125,-0.4703216552734375,-0.161468505859375,0.4066162109375
1791110008136853000,2.42785302734375,-3.4847259521484375,-0.32470703125,0.4369964599609375
1791110008146924000,2.437924072265625,-2.381317138671875,-1.5007781982421875,-0.13531494140625
1791110008156995000,2.4479951171875,0.0787200927734375,-1.4498443603515625,-0.4745941162109375
1791110008167066000,2.458066162109375,3.13226318359375,-1.1851654052734375,-0.54913330078125
1791110008177137200,2.46813720703125,1.030914306640625,-0.3017578125,0.06048583984375
1791110008187208200,2.478208251953125,-3.2841033935546875,0.164642333984375,0.5281524658203125
1791110008197279000,2.488279052734375,-2.7476806640625,-1.412078857421875,0.054107666015625
1791110008207350000,2.49835009765625,-0.283599853515625,-1.9858245849609375,-0.43438720703125
1791110008217420000,2.508419921875,1.9585113525390625,-1.1660614013671875,-0.2044677734375
1791110008227491000,2.518490966796875,1.0899810791015625,-0.1699066162109375,0.2582855224609375
1791110008237562000,2.52856201171875,-1.9008026123046875,0.0399169921875,0.2299346923828125
1791110008247633000,2.5386328125,-2.4536895751953125,-1.045867919921875,-0.0619659423828125
1791110008257704000,2.548703857421875,-0.443939208984375,-1.7784881591796875,-0.1972198486328125
1791110008267775000,2.55877490234375,1.3116607666015625,-1.267333984375,-0.198516845703125
1791110008277846000,2.568845947265625,0.7792205810546875,-0.353240966796875,-0.013946533203125
1791110008287917000,2.5789169921875,-0.6040496826171875,-0.09478759765625,-0.0579833984375
1791110008297988000,2.588988037109375,-1.143463134765625,-0.9434814453125,-0.2079620361328125
1791110008308058000,2.59905810546875,-1.0681610107421875,-1.43951416015625,-0.1001739501953125
1791110008318129200,2.609129150390625,-0.803619384765625,-1.11907958984375,-0.030975341796875
1791110008328200200,2.6192001953125,0.0248565673828125,-0.8568878173828125,-0.3306427001953125
1791110008338271200,2.629271240234375,-0.1923828125,-0.7648773193359375,-0.3778076171875
1791110008348342300,2.63934228515625,-0.5121917724609375,-1.050537109375,-0.142913818359375
1791110008358413000,2.6494130859375,-0.3170623779296875,-1.2833251953125,-0.1406402587890625
1791110008368484000,2.659484130859375,-0.6678466796875,-1.227386474609375,-0.0847625732421875
1791110008378555100,2.66955517578125,-0.68243408203125,-0.9243927001953125,-0.2853546142578125
1791110008388625200,2.679625244140625,-0.1048126220703125,-0.8888397216796875,-0.3937835693359375
1791110008398696200,2.6896962890625,0.6098480224609375,-1.0513458251953125,-0.3802642822265625
1791110008408767000,2.69976708984375,0.037811279296875,-0.8792877197265625,-0.06927490234375
1791110008418838000,2.709838134765625,-0.6357269287109375,-0.6737060546875,-0.0045623779296875
1791110008428909000,2.719908935546875,-0.8673858642578125,-0.8615570068359375,-0.105316162109375
1791110008438980000,2.72997998046875,-0.87347412109375,-1.0610198974609375,-0.2053375244140625
1791110008449051100,2.740051025390625,-0.163543701171875,-1.2859954833984375,-0.4539337158203125
1791110008459122200,2.7501220703125,-0.013641357421875,-1.0750885009765625,-0.2525787353515625
1791110008469193000,2.76019287109375,-0.6598968505859375,-0.7413787841796875,-0.06536865234375
1791110008479263000,2.770262939453125,-0.700408935546875,-0.850067138671875,-0.143646240234375
1791110008489334000,2.780333984375,-0.0275421142578125,-1.0319976806640625,-0.12823486328125
1791110008499405000,2.790405029296875,0.24420166015625,-0.906219482421875,-0.1548309326171875
1791110008509476000,2.80047607421875,-0.29388427734375,-0.5517730712890625,0.0059814453125
1791110008519547000,2.810546875,-0.880157470703125,-0.4884490966796875,0.0546875
1791110008529618000,2.820617919921875,-1.1653900146484375,-0.80145263671875,-0.0254669189453125
1791110008539689000,2.83068896484375,-0.8289794921875,-0.96331787109375,-0.096466064453125
1791110008549760000,2.840760009765625,0.3215789794921875,-1.0161895751953125,-0.1796417236328125
1791110008559830300,2.850830322265625,-0.1436614990234375,-0.6371002197265625,0.0693206787109375
1791110008569901000,2.860901123046875,-1.194061279296875,-0.6974029541015625,0.2136993408203125
1791110008579972000,2.87097216796875,-0.97296142578125,-1.0794677734375,0.047149658203125
1791110008590043100,2.881043212890625,-0.4240570068359375,-1.1862945556640625,-0.0308685302734375
1791110008600114200,2.8911142578125,0.09197998046875,-0.9895477294921875,0.03851318359375
1791110008610185200,2.901185302734375,-0.2064208984375,-0.68603515625,0.0885467529296875
1791110008620256300,2.91125634765625,-0.93548583984375,-0.6302642822265625,0.15966796875
1791110008630327000,2.9213271484375,-0.9312744140625,-0.85968017578125,0.0418701171875
1791110008640397000,2.93139697265625,0.0534820556640625,-1.2034912109375,-0.074554443359375
1791110008650468000,2.941468017578125,0.672088623046875,-0.9631500244140625,-0.0251922607421875
1791110008660539100,2.9515390625,-0.221954345703125,-0.3975982666015625,0.021331787109375
1791110008670610200,2.961610107421875,-1.2729644775390625,-0.6312255859375,0.0187835693359375
1791110008680681000,2.971680908203125,-1.7006683349609375,-0.9329986572265625,-0.13311767578125
1791110008690752000,2.981751953125,-0.7088623046875,-1.3201141357421875,-0.1949462890625
1791110008700823000,2.991822998046875,0.4392242431640625,-1.4565887451171875,-0.27996826171875
1791110008710894000,3.00189404296875,0.302154541015625,-0.77294921875,-0.2884521484375
1791110008720964000,3.011964111328125,-0.18475341796875,-0.411041259765625,-0.1745147705078125
1791110008731035000,3.022034912109375,-1.147491455078125,-0.8158416748046875,-0.049591064453125
1791110008741106000,3.03210595703125,-1.6837005615234375,-1.42913818359375,0.0037689208984375
1791110008751177000,3.042177001953125,-1.4024658203125,-1.428680419921875,-0.1689300537109375
1791110008761248000,3.052248046875,0.097503662109375,-1.2112884521484375,-0.383575439453125
1791110008771319000,3.062319091796875,1.1214141845703125,-0.8612060546875,-0.4418487548828125
1791110008781390000,3.07239013671875,0.178314208984375,-0.3256988525390625,-0.0091094970703125
1791110008791460900,3.0824609375,-0.8605194091796875,-0.3586883544921875,0.2843475341796875
1791110008801532000,3.092531982421875,-1.0697784423828125,-1.0614776611328125,0.16790771484375
1791110008811602200,3.102602294921875,-0.7836761474609375,-1.3115997314453125,-0.0308380126953125
1791110008821673200,3.112673095703125,-0.2711029052734375,-1.2265777587890625,-0.35943603515625
1791110008831744300,3.122744140625,-0.2524871826171875,-0.7798309326171875,-0.3901214599609375
1791110008841815000,3.13281494140625,0.4796295166015625,-0.6737060546875,-0.30950927734375
1791110008851886000,3.142885986328125,0.449920654296875,-0.6736297607421875,-0.115936279296875
1791110008861957000,3.15295703125,-0.856475830078125,-0.822357177734375,0.0785369873046875
1791110008872028200,3.163028076171875,-0.7801666259765625,-1.04852294921875,0.0046844482421875
1791110008882099200,3.17309912109375,-0.9964599609375,-0.9104156494140625,-0.154937744140625
1791110008892169000,3.1831689453125,-0.287811279296875,-1.05230712890625,-0.193023681640625
1791110008902240000,3.193239990234375,0.3030242919921875,-1.0794677734375,-0.247650146484375
1791110008912311000,3.20331103515625,-0.09197998046875,-0.7911529541015625,-0.12274169921875
1791110008922382000,3.213382080078125,-0.168670654296875,-0.4509429931640625,0.0524749755859375
1791110008932453000,3.223453125,-0.768768310546875,-0.409423828125,0.0524444580078125
1791110008942524200,3.233524169921875,-0.8360443115234375,-0.703155517578125,0.0653533935546875
1791110008952595000,3.243594970703125,-0.21588134765625,-1.1891326904296875,-0.0789947509765625
1791110008962666000,3.253666015625,-0.63836669921875,-1.2300872802734375,-0.1713409423828125
1791110008972736000,3.263736083984375,-0.5679931640625,-1.1277008056640625,-0.0627288818359375
1791110008982807000,3.27380712890625,-0.309173583984375,-1.0900115966796875,-0.12103271484375
1791110008992878000,3.283878173828125,-0.74090576171875,-0.6851348876953125,-0.0179290771484375
1791110009002949000,3.29394921875,-0.4865570068359375,-0.77508544921875,-0.0017852783203125
1791110009013020200,3.304020263671875,0.56103515625,-1.2790679931640625,0.0297393798828125
1791110009023091200,3.31409130859375,0.3538055419921875,-0.9656829833984375,0.23211669921875
1791110009033162200,3.324162353515625,-1.0380401611328125,-0.5359954833984375,0.22882080078125
1791110009043233300,3.3342333984375,-0.8493804931640625,-0.8533935546875,0.1121978759765625
1791110009053304300,3.34430419921875,0.11566162109375,-1.02252197265625,-0.0507965087890625
1791110009063374000,3.3543740234375,-0.6123504638671875,-0.616424560546875,0.01690673828125
1791110009073445000,3.364445068359375,-0.4344024658203125,-0.8334808349609375,0.132293701171875
1791110009083516200,3.37451611328125,0.0625,-1.3553924560546875,0.0431976318359375
1791110009093587200,3.384587158203125,-0.720306396484375,-0.8970489501953125,0.04010009765625
1791110009103658200,3.394658203125,-0.7734832763671875,-0.8445281982421875,-0.0082244873046875
1791110009113729000,3.40472900390625,-0.59783935546875,-1.0344390869140625,0.0583953857421875
1791110009123800000,3.414800048828125,-0.725677490234375,-0.8374786376953125,0.014007568359375
1791110009133870000,3.4248701171875,-0.455474853515625,-0.8839111328125,0.0183563232421875
1791110009143940900,3.43494091796875,-0.3758697509765625,-0.8272857666015625,-0.0043182373046875
1791110009154012000,3.445011962890625,-0.5290679931640625,-0.8232269287109375,0.0106964111328125
1791110009164083000,3.4550830078125,-0.6560211181640625,-0.9776611328125,0.0757293701171875
1791110009174154000,3.465154052734375,-0.57659912109375,-0.814422607421875,0.020263671875
1791110009184225000,3.47522509765625,-0.4458160400390625,-0.9199371337890625,-0.1207122802734375
1791110009194296000,3.485296142578125,-0.3051300048828125,-0.9615020751953125,-0.16717529296875
1791110009204366800,3.495366943359375,-0.4589385986328125,-0.69366455078125,-0.1142425537109375
1791110009214438000,3.50543798828125,-0.501922607421875,-0.7409515380859375,-0.0074462890625
1791110009224508200,3.515508056640625,-0.0662078857421875,-0.938385009765625,-0.0147857666015625
1791110009234579200,3.5255791015625,-0.0353240966796875,-1.0473785400390625,0.001678466796875
1791110009244650200,3.535650146484375,-0.6808929443359375,-0.9215850830078125,0.104736328125
1791110009254721000,3.545720947265625,-0.863616943359375,-0.7510833740234375,0.122467041015625
1791110009264792000,3.5557919921875,-0.539093017578125,-0.8971710205078125,0.1084747314453125
1791110009274863000,3.565863037109375,0.0514678955078125,-0.9640045166015625,0.03607177734375
1791110009284934100,3.57593408203125,-0.0868988037109375,-1.0459747314453125,0.0148162841796875
1791110009295005200,3.586005126953125,-0.91455078125,-0.7877197265625,0.154205322265625
1791110009305075000,3.596074951171875,-0.60113525390625,-0.7000274658203125,0.089019775390625
1791110009315146000,3.60614599609375,-0.4346771240234375,-0.8951873779296875,0.024993896484375
1791110009325217000,3.616217041015625,-0.8969879150390625,-0.93536376953125,0.0584716796875
1791110009335288000,3.6262880859375,-1.394683837890625,-0.9739532470703125,-0.0284423828125
1791110009345359000,3.636359130859375,-0.511749267578125,-1.0799713134765625,0.0042877197265625
1791110009355430100,3.64643017578125,0.8180389404296875,-0.928436279296875,-0.082427978515625
1791110009365501000,3.6565009765625,1.1820831298828125,-0.8530426025390625,-0.0925750732421875
1791110009375572000,3.666572021484375,-0.658050537109375,-0.6313934326171875,0.1192474365234375
1791110009385642000,3.67664208984375,-2.49920654296875,-0.8061370849609375,0.2021331787109375
1791110009395713000,3.686713134765625,-1.3260040283203125,-1.4018402099609375,-0.03875732421875
1791110009405783800,3.69678369140625,0.5712432861328125,-1.378997802734375,-0.2062530517578125
1791110009415854800,3.706854736328125,1.5629425048828125,-1.0967254638671875,-0.25311279296875
1791110009425926000,3.71692578125,0.3198699951171875,-0.349273681640625,0.1151580810546875
1791110009435997000,3.726996826171875,-1.1959686279296875,-0.4763641357421875,0.28466796875
1791110009446068000,3.73706787109375,-1.0501708984375,-1.3047637939453125,0.0712127685546875
1791110009456139000,3.747138916015625,0.1761016845703125,-1.5682373046875,-0.1572265625
1791110009466209000,3.757208984375,0.0698699951171875,-0.92987060546875,-0.23028564453125
1791110009476280000,3.767280029296875,-1.2200164794921875,-0.403778076171875,0.123748779296875
1791110009486351000,3.77735107421875,-1.74688720703125,-0.8065185546875,0.1370391845703125
1791110009496422100,3.787422119140625,-0.7479095458984375,-1.4380340576171875,-0.2196807861328125
1791110009506493200,3.7974931640625,0.3873443603515625,-1.5391693115234375,-0.295562744140625
1791110009516564000,3.80756396484375,0.956207275390625,-1.059906005859375,-0.241424560546875
1791110009526635000,3.817635009765625,-0.009613037109375,-0.5538482666015625,-0.03399658203125
1791110009536706000,3.8277060546875,-1.165252685546875,-0.321502685546875,0.231170654296875
1791110009546776000,3.837776123046875,-0.747283935546875,-0.9513397216796875,0.0045013427734375
1791110009556847000,3.84784716796875,-0.06646728515625,-1.20458984375,-0.316680908203125
1791110009566918000,3.85791796875,0.4696197509765625,-1.0770416259765625,-0.3905792236328125
1791110009576989000,3.867989013671875,-0.5462799072265625,-0.485626220703125,-0.0437164306640625
1791110009587060000,3.87806005859375,-1.0090484619140625,-0.7010955810546875,0.0613555908203125
1791110009597131000,3.888131103515625,-0.605224609375,-1.228851318359375,-0.1267547607421875
1791110009607202000,3.8982021484375,-0.0646209716796875,-1.3638916015625,-0.1168060302734375
1791110009617273000,3.908273193359375,0.5078887939453125,-1.0374755859375,-0.160491943359375
1791110009627342800,3.9183427734375,-0.650177001953125,-0.473114013671875,0.0229339599609375
1791110009637414000,3.928413818359375,-1.56671142578125,-0.64892578125,0.1252288818359375
1791110009647485000,3.93848486328125,-1.2005462646484375,-1.0529327392578125,-0.0654754638671875
1791110009657556000,3.948555908203125,-0.129913330078125,-1.152099609375,-0.1455535888671875
1791110009667627000,3.958626953125,0.736297607421875,-0.9905548095703125,-0.120758056640625
1791110009677697800,3.96869775390625,-0.3144989013671875,-0.418914794921875,0.034027099609375
1791110009687768800,3.978768798828125,-1.4371795654296875,-0.3425750732421875,0.0257720947265625
1791110009697839900,3.98883984375,-1.014129638671875,-0.8756561279296875,-0.0477142333984375
1791110009707910100,3.99891015625,0.11468505859375,-1.3901519775390625,-0.0524444580078125
1791110009717981200,4.008981201171875,0.8228607177734375,-1.0869140625,0.0232391357421875
1791110009728052000,4.019052001953125,0.0511322021484375,-0.530181884765625,0.100982666015625
1791110009738123000,4.029123046875,-1.48699951171875,-0.444091796875,0.054290771484375
1791110009748194000,4.039194091796875,-1.9642181396484375,-0.806915283203125,-0.0108184814453125
1791110009758265000,4.04926513671875,-0.7076263427734375,-1.524261474609375,-0.069915771484375
1791110009768336100,4.059336181640625,0.97918701171875,-1.817718505859375,-0.1664276123046875
1791110009778406000,4.069406005859375,0.29034423828125,-0.8062744140625,0.069122314453125
1791110009788477000,4.079476806640625,-1.1109619140625,-0.1006317138671875,0.2273406982421875
1791110009798548000,4.0895478515625,-0.902313232421875,-0.68878173828125,0.098785400390625
1791110009808619000,4.099618896484375,-0.42779541015625,-1.152099609375,-0.1879730224609375
1791110009818690000,4.10968994140625,-0.02545166015625,-1.02587890625,-0.2473297119140625
1791110009828761000,4.119760986328125,0.0298614501953125,-0.835479736328125,-0.2845916748046875
1791110009838831900,4.129831787109375,-0.6949310302734375,-0.7252044677734375,-0.15594482421875
1791110009848903000,4.13990283203125,-1.19781494140625,-0.7559967041015625,0.127777099609375
1791110009858973000,4.149972900390625,-0.18597412109375,-1.1239166259765625,0.046051025390625
1791110009869044000,4.1600439453125,0.312255859375,-1.16943359375,-0.2705230712890625
1791110009879115000,4.170114990234375,-0.0625457763671875,-0.707275390625,-0.3271026611328125
1791110009889185800,4.180185791015625,-0.827301025390625,-0.3348388671875,-0.0607452392578125
1791110009899256800,4.1902568359375,-1.4891510009765625,-0.68414306640625,0.2226104736328125
1791110009909328000,4.200327880859375,-1.0289764404296875,-1.30255126953125,0.1042633056640625
1791110009919399000,4.21039892578125,-0.4136505126953125,-1.453887939453125,-0.285888671875
1791110009929470000,4.220469970703125,-0.0880279541015625,-1.0120391845703125,-0.42828369140625
1791110009939540000,4.2305400390625,0.58563232421875,-0.5907440185546875,-0.3144073486328125
1791110009949611000,4.240611083984375,-0.3985137939453125,-0.396636962890625,0.009368896484375
1791110009959682000,4.25068212890625,-1.5984344482421875,-0.7270355224609375,0.1647491455078125
1791110009969753000,4.260753173828125,-1.6930694580078125,-1.129730224609375,0.1172027587890625
1791110009979824000,4.27082421875,-0.287811279296875,-1.2535552978515625,-0.0750885009765625
1791110009989895200,4.280895263671875,1.4087982177734375,-1.038848876953125,-0.3520965576171875
1791110009999966000,4.290966064453125,0.6794891357421875,-0.323974609375,-0.1818084716796875
1791110010010037000,4.301037109375,-1.1165618896484375,-0.2102508544921875,0.1732940673828125
1791110010020107000,4.31110693359375,-2.291412353515625,-0.838104248046875,0.185394287109375
1791110010030178000,4.321177978515625,-1.393310546875,-1.5773773193359375,0.1390228271484375
1791110010040249000,4.3312490234375,0.8701324462890625,-1.8757781982421875,-0.2758941650390625
1791110010050320000,4.34131982421875,1.0299072265625,-1.209228515625,-0.5034637451171875
1791110010060391000,4.351390869140625,-0.618682861328125,-0.1516265869140625,-0.021820068359375
1791110010070462000,4.3614619140625,-1.735992431640625,-0.278411865234375,0.310211181640625
1791110010080533000,4.371532958984375,-0.9207305908203125,-1.2299957275390625,0.2047882080078125
1791110010090604000,4.38160400390625,0.222564697265625,-1.4004669189453125,-0.0714263916015625
1791110010100673800,4.391673828125,0.0216064453125,-0.7557830810546875,-0.2340087890625
1791110010110744800,4.401744873046875,0.0785675048828125,-0.5359649658203125,-0.078582763671875
1791110010120815900,4.41181591796875,-0.51519775390625,-0.658477783203125,0.0932769775390625
1791110010130887000,4.421886962890625,-0.8618316650390625,-1.177886962890625,0.1027069091796875
1791110010140958000,4.4319580078125,-0.4094696044921875,-1.457916259765625,-0.0872650146484375
1791110010151029000,4.442029052734375,-0.4251708984375,-1.0219268798828125,-0.119598388671875
1791110010161100000,4.45210009765625,-0.53900146484375,-0.4922027587890625,0.0029144287109375
1791110010171171000,4.462171142578125,-0.06024169921875,-0.911865234375,0.0113677978515625
1791110010181240800,4.47224072265625,0.133544921875,-1.076934814453125,0.0194244384765625
1791110010191312000,4.482311767578125,0.0273590087890625,-0.7347564697265625,0.0215911865234375
1791110010201383000,4.4923828125,-0.3809356689453125,-0.682403564453125,0.222991943359375
1791110010211454000,4.502453857421875,-0.5652923583984375,-0.760650634765625,0.21051025390625
1791110010221525000,4.51252490234375,-0.630859375,-1.15557861328125,-0.0631256103515625
1791110010231595800,4.522595703125,-0.581146240234375,-1.266265869140625,-0.1154022216796875
1791110010241666800,4.532666748046875,-0.4492340087890625,-0.97021484375,-0.042510986328125
1791110010251737900,4.54273779296875,-0.6788787841796875,-0.726470947265625,0.134552001953125
1791110010261807900,4.552807861328125,-0.79931640625,-0.7191619873046875,0.22125244140625
1791110010271879000,4.56287890625,-0.4902496337890625,-1.0243988037109375,0.1365814208984375
1791110010281949700,4.57294970703125,0.114501953125,-0.95098876953125,-0.0665130615234375
1791110010292020700,4.583020751953125,0.5440216064453125,-0.8254547119140625,-0.0517578125
1791110010302091800,4.593091796875,-0.2562408447265625,-0.7259521484375,0.1158294677734375
1791110010312162800,4.603162841796875,-1.16790771484375,-0.68695068359375,0.1999359130859375
1791110010322233900,4.61323388671875,-1.0876312255859375,-1.17449951171875,-0.0401611328125
1791110010332304000,4.623303955078125,-0.3697052001953125,-1.3879241943359375,-0.253997802734375
1791110010342375000,4.633375,-0.116973876953125,-1.054107666015625,-0.2238006591796875
1791110010352446000,4.643446044921875,-0.3406982421875,-0.817626953125,-0.1035614013671875
1791110010362517000,4.65351708984375,-0.3621673583984375,-0.8592987060546875,0.016693115234375
1791110010372588000,4.663588134765625,-0.6541900634765625,-0.9723663330078125,-0.0489501953125
1791110010382659000,4.6736591796875,-0.845855712890625,-0.81890869140625,-0.06536865234375
1791110010392729900,4.683729736328125,-0.4393310546875,-0.848419189453125,-0.028839111328125
1791110010402799900,4.6937998046875,-0.2308197021484375,-0.8543701171875,-0.1359100341796875
1791110010412871000,4.703870849609375,-0.2239227294921875,-0.8409881591796875,-0.106170654296875
1791110010422942000,4.71394189453125,-0.45013427734375,-1.0200042724609375,-0.1652679443359375
1791110010433012700,4.7240126953125,-0.5379180908203125,-0.8300018310546875,-0.0485992431640625
1791110010443083800,4.734083740234375,0.060089111328125,-0.6202545166015625,0.0330963134765625
1791110010453154800,4.74415478515625,-0.180206298828125,-0.7166748046875,-0.0174407958984375
1791110010463225900,4.754225830078125,-1.691162109375,-0.6641082763671875,0.0430908203125
1791110010473297000,4.764296875,-1.3634490966796875,-1.0247344970703125,0.066680908203125
1791110010483368000,4.774367919921875,-0.491729736328125,-1.0577850341796875,0.0217742919921875
1791110010493437700,4.784437744140625,0.9468994140625,-1.07196044921875,-0.153594970703125
1791110010503508700,4.7945087890625,0.7193450927734375,-0.9208221435546875,-0.11785888671875
1791110010513579800,4.804579833984375,-0.941009521484375,-0.3520965576171875,0.0605316162109375
1791110010523650800,4.81465087890625,-1.632354736328125,-0.600982666015625,0.1767578125
1791110010533721900,4.824721923828125,-0.4172210693359375,-1.3948822021484375,-0.03192138671875
1791110010543792600,4.834792724609375,0.22320556640625,-1.329193115234375,-0.2093048095703125
1791110010553863700,4.84486376953125,-0.4101715087890625,-0.7476959228515625,-0.0119476318359375
1791110010563934000,4.854933837890625,-0.4210968017578125,-0.6035614013671875,0.0333251953125
1791110010574005000,4.8650048828125,-0.5136260986328125,-0.8155975341796875,-0.106231689453125
1791110010584076000,4.875075927734375,-0.9738311767578125,-0.9144287109375,0.000579833984375
1791110010594146800,4.885146728515625,-0.55780029296875,-1.2081451416015625,0.077056884765625
1791110010604217900,4.8952177734375,0.28515625,-1.3476104736328125,-0.00048828125
1791110010614289000,4.905288818359375,0.0324554443359375,-0.68212890625,0.054962158203125
1791110010624360000,4.91535986328125,-0.6730499267578125,-0.49261474609375,0.0684967041015625
1791110010634431000,4.925430908203125,-0.49365234375,-1.0150909423828125,-0.0803070068359375
1791110010644500700,4.935500732421875,-0.4050750732421875,-1.3093109130859375,-0.0966339111328125
1791110010654571800,4.94557177734375,-0.7154693603515625,-1.1660614013671875,0.0797119140625
1791110010664642800,4.955642822265625,-0.6049652099609375,-1.0367584228515625,0.0406951904296875
1791110010674713900,4.9657138671875,-0.3857879638671875,-0.9902496337890625,-0.129180908203125
1791110010684785000,4.975784912109375,-0.397705078125,-0.949462890625,-0.141632080078125
1791110010694856000,4.98585595703125,-0.4710540771484375,-0.99444580078125,0.0378875732421875
1791110010704926700,4.9959267578125,-0.3195037841796875,-0.94183349609375,0.019927978515625
1791110010714996700,5.005996826171875,0.050506591796875,-0.81549072265625,-0.1248321533203125
1791110010725067800,5.01606787109375,0.0776519775390625,-0.8273773193359375,-0.2049713134765625
1791110010735138800,5.026138916015625,-0.4470062255859375,-0.7493133544921875,-0.048004150390625
1791110010745209900,5.0362099609375,-0.925201416015625,-0.7745208740234375,0.1344146728515625
1791110010755280600,5.04628076171875,-0.62847900390625,-1.019012451171875,-0.06207275390625
1791110010765351700,5.0563515625,-0.020050048828125,-1.1046295166015625,-0.218994140625
1791110010775422700,5.066422607421875,-0.3811798095703125,-1.02935791015625,-0.138885498046875
1791110010785493800,5.07649365234375,-0.8475189208984375,-0.8394775390625,0.037261962890625
1791110010795564000,5.08656396484375,-0.391143798828125,-0.8902435302734375,0.133209228515625
1791110010805634800,5.096634765625,0.0504302978515625,-0.9337615966796875,-0.0693817138671875
1791110010815705900,5.106705810546875,0.0122222900390625,-0.823150634765625,-0.097015380859375
1791110010825777000,5.11677685546875,-0.3166656494140625,-0.6870574951171875,-0.033233642578125
1791110010835848000,5.126847900390625,-1.323638916015625,-0.696746826171875,0.17315673828125
1791110010845919000,5.1369189453125,-1.4824066162109375,-1.04766845703125,0.1695098876953125
1791110010855990000,5.146989990234375,-0.21173095703125,-1.309906005859375,-0.0831146240234375
1791110010866059800,5.157059814453125,0.67462158203125,-1.066986083984375,-0.11614990234375
1791110010876130800,5.167130859375,0.528778076171875,-0.5945281982421875,-0.1058502197265625
1791110010886201900,5.177201904296875,-0.9127044677734375,-0.291412353515625,0.241180419921875
1791110010896273000,5.18727294921875,-1.6765899658203125,-0.7126617431640625,0.2635498046875
1791110010906344000,5.197343994140625,-0.80499267578125,-1.305267333984375,-0.009857177734375
1791110010916414700,5.207414794921875,0.223236083984375,-1.4345245361328125,-0.240447998046875
1791110010926485800,5.21748583984375,0.5271453857421875,-1.042144775390625,-0.1514739990234375
1791110010936556800,5.227556884765625,-0.43115234375,-0.450531005859375,0.09100341796875
1791110010946626800,5.237626708984375,-0.8194427490234375,-0.5760498046875,0.1522064208984375
1791110010956697900,5.24769775390625,-0.838287353515625,-1.0383453369140625,0.0499114990234375
1791110010966768600,5.2577685546875,-0.51068115234375,-1.2659759521484375,-0.0691070556640625
1791110010976839700,5.267839599609375,-0.39178466796875,-1.076995849609375,-0.131195068359375
1791110010986910700,5.27791064453125,-0.429168701171875,-0.754638671875,0.074462890625
1791110010996981800,5.287981689453125,-0.2273101806640625,-0.8141632080078125,0.107696533203125
1791110011007052800,5.298052734375,0.0990447998046875,-0.8867340087890625,-0.0337371826171875
1791110011017122800,5.308122802734375,-0.1734619140625,-0.796905517578125,-0.0951995849609375
1791110011027193900,5.31819384765625,-0.1875,-0.7833709716796875,-0.0172119140625
1791110011037265000,5.328264892578125,-1.00482177734375,-0.694793701171875,0.0963897705078125
1791110011047336000,5.3383359375,-0.841552734375,-1.02569580078125,0.10260009765625
1791110011057407000,5.348406982421875,-0.0188751220703125,-1.3214111328125,-0.135955810546875
1791110011067478000,5.35847802734375,-0.2910308837890625,-1.018341064453125,-0.1476898193359375
1791110011077548800,5.368548828125,-0.636199951171875,-0.752471923828125,-0.079132080078125
1791110011087619800,5.378619873046875,-0.5761566162109375,-0.64654541015625,-0.0672454833984375
1791110011097689900,5.38868994140625,-0.9879150390625,-0.69232177734375,0.0183563232421875
1791110011107761000,5.398760986328125,-0.5491943359375,-1.0403900146484375,0.060089111328125
1791110011117832200,5.408832275390625,0.162506103515625,-0.9794921875,-0.0386810302734375
1791110011127903200,5.4189033203125,0.204376220703125,-0.8729248046875,-0.16839599609375
1791110011137974000,5.42897412109375,-0.4588623046875,-0.5593109130859375,-0.0505218505859375
1791110011148045000,5.439045166015625,-0.2539825439453125,-0.387451171875,0.0339813232421875
1791110011158116000,5.4491162109375,-0.4345550537109375,-0.755767822265625,-0.027374267578125
1791110011168186000,5.45918603515625,-1.17486572265625,-1.1756744384765625,-0.06243896484375
1791110011178257200,5.469257080078125,-1.7616424560546875,-1.3232421875,0.0233154296875
1791110011188328000,5.479327880859375,-1.117340087890625,-1.15838623046875,-0.11529541015625
1791110011198399000,5.48939892578125,0.0913543701171875,-1.1939697265625,-0.295440673828125
1791110011208470000,5.499469970703125,0.1778717041015625,-0.8665618896484375,-0.1695404052734375
1791110011218541000,5.509541015625,0.179412841796875,-0.540069580078125,0.0002593994140625
1791110011228612000,5.519612060546875,-0.805389404296875,-0.5264434814453125,-0.0094757080078125
1791110011238683100,5.52968310546875,-0.8982696533203125,-0.9215240478515625,0.0028839111328125
1791110011248753200,5.539753173828125,-0.06182861328125,-1.2807159423828125,-0.0601806640625
1791110011258824200,5.54982421875,-0.2221832275390625,-1.1363983154296875,-0.1582183837890625
1791110011268895200,5.559895263671875,-1.1493988037109375,-0.74798583984375,0.088348388671875
1791110011278966300,5.56996630859375,-0.862335205078125,-0.965118408203125,0.0155487060546875
1791110011289037300,5.580037353515625,-0.34844970703125,-0.8694915771484375,-0.056884765625
1791110011299108000,5.590108154296875,0.016265869140625,-0.697906494140625,-0.1136932373046875
1791110011309179100,5.60017919921875,0.605621337890625,-0.96331787109375,-0.1347503662109375
1791110011319249200,5.610249267578125,0.491851806640625,-0.839691162109375,-0.0793914794921875
1791110011329320200,5.6203203125,-1.3838043212890625,-0.5934600830078125,0.066619873046875
1791110011339391200,5.63039111328125,-1.6141357421875,-1.0175628662109375,0.097564697265625
1791110011349462000,5.6404619140625,-0.2169342041015625,-1.432159423828125,-0.14697265625
1791110011359533000,5.650532958984375,0.4011688232421875,-1.0867462158203125,-0.100250244140625
1791110011369604000,5.66060400390625,0.792816162109375,-0.6992034912109375,-0.05902099609375
1791110011379675100,5.670675048828125,-0.14788818359375,-0.47540283203125,0.068939208984375
1791110011389746200,5.68074609375,-1.55926513671875,-0.4936065673828125,0.3350677490234375
1791110011399816000,5.69081591796875,-1.67486572265625,-1.0615997314453125,0.1943511962890625
1791110011409887000,5.700886962890625,-1.00006103515625,-1.347412109375,-0.0247650146484375
1791110011419958000,5.7109580078125,-0.3529510498046875,-0.829833984375,-0.011688232421875
1791110011430029000,5.721029052734375,0.0902252197265625,-0.6457061767578125,0.0369110107421875
1791110011440100000,5.73110009765625,0.859375,-0.908905029296875,-0.06744384765625
1791110011450171100,5.741171142578125,0.6297760009765625,-0.8160552978515625,-0.0340423583984375
1791110011460242000,5.751241943359375,-0.8029937744140625,-0.6944122314453125,0.1021728515625
1791110011470312200,5.761312255859375,-0.9456024169921875,-1.2457275390625,-0.0382537841796875
1791110011480383200,5.77138330078125,-1.1423797607421875,-1.3164825439453125,-0.2436981201171875
1791110011490454300,5.781454345703125,-1.3549957275390625,-0.9431304931640625,-0.0659637451171875
1791110011500525300,5.791525390625,-0.77154541015625,-1.111083984375,-0.1020355224609375
1791110011510596000,5.80159619140625,0.469329833984375,-1.1333160400390625,-0.275909423828125
1791110011520667100,5.811667236328125,0.2862091064453125,-0.5450897216796875,-0.0944671630859375
1791110011530738200,5.82173828125,-0.087188720703125,-0.5765838623046875,0.023834228515625
1791110011540808200,5.83180810546875,-0.3811798095703125,-1.3258819580078125,-0.011322021484375
1791110011550879200,5.841879150390625,-1.4161224365234375,-1.1568756103515625,0.1326904296875
1791110011560950000,5.851949951171875,-1.7722320556640625,-0.731201171875,0.0945281982421875
1791110011571021000,5.86202099609375,0.211517333984375,-1.167266845703125,-0.365753173828125
1791110011581092000,5.872092041015625,1.05615234375,-1.41082763671875,-0.42742919921875
1791110011591163100,5.8821630859375,-0.8123321533203125,-0.426849365234375,-0.0667266845703125
1791110011601234200,5.892234130859375,-2.200775146484375,-0.5367431640625,0.197998046875
1791110011611304000,5.902303955078125,-1.06903076171875,-1.28271484375,-0.120330810546875
1791110011621375000,5.912375,0.0320892333984375,-1.41552734375,-0.29656982421875
1791110011631446000,5.922446044921875,0.39373779296875,-1.0323028564453125,-0.1317138671875
1791110011641517000,5.93251708984375,-0.3758697509765625,-0.201507568359375,0.0165557861328125
1791110011651588000,5.942588134765625,-1.110107421875,-0.2240447998046875,-0.127777099609375
1791110011661659100,5.9526591796875,-0.5963287353515625,-1.0200347900390625,-0.3502655029296875
1791110011671730000,5.96272998046875,-0.1444091796875,-1.25482177734375,-0.36248779296875
1791110011681801000,5.972801025390625,-0.416168212890625,-1.1313018798828125,-0.3394927978515625
1791110011691871200,5.982871337890625,-0.9106903076171875,-0.9739837646484375,-0.240020751953125
1791110011701942300,5.9929423828125,-1.448699951171875,-0.917327880859375,-0.072998046875
1791110011712013300,6.003013427734375,-0.58544921875,-1.0290374755859375,-0.256591796875
1791110011722084000,6.013083984375,0.934600830078125,-1.1081390380859375,-0.4400177001953125
1791110011732155100,6.023155029296875,0.6328582763671875,-0.7471923828125,-0.1914520263671875
1791110011742226200,6.03322607421875,-0.5084381103515625,-0.291656494140625,0.1258544921875
1791110011752297200,6.043297119140625,-0.979217529296875,-0.5611419677734375,0.151580810546875
1791110011762367200,6.0533671875,-0.2500762939453125,-1.27783203125,-0.094085693359375
1791110011772438000,6.06343798828125,0.133758544921875,-1.65728759765625,-0.4034271240234375
1791110011782509000,6.073509033203125,-0.43560791015625,-1.2594146728515625,-0.4364776611328125
1791110011792580000,6.083580078125,-0.28131103515625,-0.7016448974609375,-0.2947540283203125
1791110011802651100,6.093651123046875,-0.3896636962890625,-0.640350341796875,-0.0880584716796875
1791110011812722200,6.10372216796875,-0.4542083740234375,-0.8319854736328125,-0.0043182373046875
1791110011822793200,6.113793212890625,-0.607086181640625,-0.9314422607421875,0.050750732421875
1791110011832863000,6.123863037109375,-0.4566650390625,-0.961456298828125,-0.1588592529296875
1791110011842934000,6.13393408203125,0.0187530517578125,-0.9604949951171875,-0.1817474365234375
1791110011853005000,6.144005126953125,0.1554718017578125,-1.1144256591796875,-0.324249267578125
1791110011863076000,6.154076171875,-0.4886474609375,-0.8270263671875,-0.0924072265625
1791110011873147100,6.164147216796875,-0.592071533203125,-0.811920166015625,0.071136474609375
1791110011883218200,6.17421826171875,-0.4114837646484375,-1.0652618408203125,-0.1547698974609375
1791110011893289200,6.184289306640625,0.03021240234375,-1.039459228515625,-0.190093994140625
1791110011903360300,6.1943603515625,0.0817413330078125,-1.0038604736328125,-0.1507415771484375
1791110011913430300,6.20443017578125,-1.34637451171875,-0.8864898681640625,0.069549560546875
1791110011923501000,6.2145009765625,-2.0602569580078125,-0.9948883056640625,0.2743988037109375
1791110011933572000,6.224572021484375,-0.838714599609375,-1.269134521484375,-0.055328369140625
1791110011943643100,6.23464306640625,0.84759521484375,-1.256103515625,-0.3836669921875
1791110011953714200,6.244714111328125,1.438201904296875,-0.8665924072265625,-0.3117523193359375
1791110011963785200,6.25478515625,0.4788055419921875,-0.234466552734375,0.160400390625
1791110011973856300,6.264856201171875,-0.763763427734375,-0.2850799560546875,0.2816925048828125
1791110011983926000,6.274926025390625,-1.5547332763671875,-0.8964996337890625,0.186676025390625
1791110011993997000,6.2849970703125,-1.84124755859375,-1.2281494140625,-0.108428955078125
1791110012004068000,6.295068115234375,-0.7962646484375,-1.302886962890625,-0.3320159912109375
1791110012014139100,6.30513916015625,0.0830230712890625,-0.7896575927734375,-0.2845916748046875
1791110012024210200,6.315210205078125,-0.07440185546875,-0.4194793701171875,-0.099639892578125
1791110012034281000,6.325281005859375,0.0851287841796875,-0.5270233154296875,-0.0374755859375
1791110012044352000,6.33535205078125,0.0701904296875,-0.8417510986328125,0.05810546875
1791110012054422000,6.345422119140625,-1.069061279296875,-0.9406585693359375,0.1640167236328125
1791110012064493000,6.3554931640625,-1.833770751953125,-0.8306884765625,0.2855682373046875
1791110012074564000,6.365564208984375,-0.95599365234375,-0.8720703125,0.0436859130859375
1791110012084635100,6.37563525390625,0.45123291015625,-0.93157958984375,-0.1681365966796875
1791110012094706200,6.3857060546875,0.828704833984375,-0.8629302978515625,-0.0692901611328125
1791110012104777200,6.395777099609375,0.2553558349609375,-0.862762451171875,-0.0455322265625
1791110012114848300,6.40584814453125,-1.4545440673828125,-0.6134185791015625,0.01495361328125
1791110012124919000,6.4159189453125,-2.0465545654296875,-0.6085357666015625,0.0283203125
1791110012134989000,6.425989013671875,0.1785888671875,-1.124267578125,-0.0469207763671875
1791110012145060000,6.43606005859375,0.969085693359375,-0.9408111572265625,-0.0920562744140625
1791110012155131100,6.446131103515625,-0.354156494140625,-0.699462890625,0.1214752197265625
1791110012165202000,6.456201904296875,-2.112091064453125,-0.559906005859375,0.145599365234375
1791110012175273000,6.46627294921875,-2.0301513671875,-0.8808135986328125,0.0293121337890625
1791110012185344000,6.476343994140625,0.039093017578125,-1.609893798828125,-0.3255615234375
1791110012195415000,6.4864150390625,1.34783935546875,-1.6351165771484375,-0.39324951171875
1791110012205485000,6.496485107421875,0.3167572021484375,-0.7397003173828125,-0.2448577880859375
1791110012215555800,6.506555908203125,-0.7799072265625,-0.3057403564453125,-0.1922149658203125
1791110012225627000,6.516626953125,-0.7952423095703125,-0.7962188720703125,0.0064697265625
1791110012235698000,6.526697998046875,-0.455596923828125,-0.942352294921875,0.149627685546875
1791110012245769000,6.53676904296875,-0.6467742919921875,-0.850677490234375,0.020263671875
1791110012255840000,6.546840087890625,-0.1993255615234375,-1.2443389892578125,-0.126922607421875
1791110012265911000,6.5569111328125,-0.27880859375,-0.996978759765625,-0.113372802734375
1791110012275981000,6.56698095703125,-0.5851593017578125,-0.581939697265625,-0.00189208984375
1791110012286052000,6.577052001953125,-0.422515869140625,-0.977996826171875,0.018035888671875
1791110012296123100,6.587123046875,-0.73480224609375,-1.1715545654296875,0.1402435302734375
1791110012306194200,6.597194091796875,-1.800384521484375,-0.8228302001953125,0.3446197509765625
1791110012316265200,6.60726513671875,-1.37213134765625,-0.7889556884765625,0.1818389892578125
1791110012326336000,6.6173359375,0.429840087890625,-1.180419921875,-0.2200164794921875
1791110012336407000,6.627406982421875,1.183349609375,-1.1261138916015625,-0.2603912353515625
1791110012346477000,6.63747705078125,0.29949951171875,-0.416961669921875,0.0770263671875
1791110012356548000,6.647548095703125,-0.931610107421875,-0.3294219970703125,0.2601470947265625
1791110012366619100,6.657619140625,-1.4703521728515625,-0.7955169677734375,0.3435821533203125
1791110012376690000,6.66768994140625,0.0491180419921875,-1.140380859375,0.001220703125
1791110012386761000,6.677760986328125,0.8226470947265625,-1.0376739501953125,-0.1788482666015625
1791110012396832000,6.68783203125,-0.2482757568359375,-0.6048736572265625,-0.1154327392578125
1791110012406903000,6.697903076171875,-1.9056854248046875,-0.5805816650390625,-0.0557708740234375
1791110012416973000,6.70797314453125,-1.91448974609375,-1.124908447265625,-0.0596466064453125
1791110012427043800,6.7180439453125,-0.4274139404296875,-1.15814208984375,-0.156341552734375
1791110012437115000,6.728114990234375,1.357269287109375,-1.21881103515625,-0.29083251953125
1791110012447186000,6.73818603515625,1.1850433349609375,-0.7695465087890625,0.047760009765625
1791110012457257000,6.748257080078125,-0.7827606201171875,-0.2786865234375,0.3300933837890625
1791110012467328000,6.758327880859375,-2.0295867919921875,-0.84765625,0.33966064453125
1791110012477399000,6.76839892578125,-1.0456085205078125,-1.6522369384765625,0.1318206787109375
1791110012487469800,6.7784697265625,-0.409912109375,-1.254058837890625,-0.2079315185546875
1791110012497540000,6.7885400390625,0.080291748046875,-0.8837432861328125,-0.219024658203125
1791110012507611100,6.798611083984375,-0.4743499755859375,-0.6228179931640625,-0.0345306396484375
1791110012517682200,6.80868212890625,-0.9188079833984375,-0.82586669921875,0.03411865234375
1791110012527753200,6.818753173828125,-0.4337921142578125,-0.920501708984375,0.0103912353515625
1791110012537824000,6.828823974609375,0.691986083984375,-1.0442047119140625,-0.0418243408203125
1791110012547895000,6.83889501953125,0.332244873046875,-0.5314483642578125,0.1008758544921875
1791110012557965000,6.848965087890625,-0.0507354736328125,-0.5003204345703125,0.078857421875
1791110012568036000,6.8590361328125,-0.09246826171875,-1.197174072265625,0.0093231201171875
1791110012578107100,6.869107177734375,-0.619384765625,-1.349517822265625,-0.023773193359375
1791110012588178000,6.879177978515625,-1.2197418212890625,-1.082061767578125,-0.0311279296875
1791110012598249000,6.8892490234375,-0.8126068115234375,-1.169464111328125,-0.006317138671875
1791110012608320000,6.899320068359375,0.335205078125,-1.1629486083984375,-0.1365966796875
1791110012618391000,6.90939111328125,0.25860595703125,-0.7917633056640625,-0.2064361572265625
1791110012628462000,6.919462158203125,-0.716552734375,-0.3182220458984375,0.085540771484375
1791110012638531800,6.92953173828125,-1.1108245849609375,-0.50946044921875,0.28460693359375
1791110012648603000,6.939602783203125,-1.2893524169921875,-0.8254852294921875,0.19671630859375
1791110012658674000,6.949673828125,-0.7113037109375,-1.0658416748046875,-0.1002655029296875
1791110012668745000,6.959744873046875,0.48541259765625,-1.4052886962890625,-0.29327392578125
1791110012678816000,6.96981591796875,0.07452392578125,-0.80816650390625,-0.13555908203125
1791110012688887000,6.979886962890625,-0.578460693359375,-0.31915283203125,0.0554656982421875
1791110012698957800,6.989957763671875,-1.0732421875,-0.9532928466796875,0.0508575439453125
1791110012709028000,7.000028076171875,-1.8834075927734375,-1.177459716796875,0.0759735107421875
1791110012719099100,7.01009912109375,-1.5898895263671875,-1.008392333984375,-0.0953521728515625
1791110012729170200,7.020170166015625,0.16632080078125,-1.0322265625,-0.22003173828125
1791110012739241200,7.0302412109375,1.5850372314453125,-1.172149658203125,-0.333038330078125
1791110012749312000,7.04031201171875,0.5017547607421875,-0.9879150390625,-0.2227630615234375
1791110012759383000,7.050383056640625,-1.20648193359375,-0.6069488525390625,0.1820831298828125
1791110012769454000,7.0604541015625,-0.9974212646484375,-0.685699462890625,0.1221923828125
1791110012779524000,7.070524169921875,-0.5877227783203125,-0.96466064453125,-0.0636444091796875
1791110012789595000,7.080594970703125,0.8164825439453125,-1.10736083984375,-0.272552490234375
1791110012799666000,7.090666015625,0.7483062744140625,-0.936248779296875,-0.2175445556640625
1791110012809737000,7.100737060546875,-1.4246063232421875,-0.433685302734375,0.0770416259765625
1791110012819808000,7.11080810546875,-2.4688873291015625,-0.763092041015625,0.131683349609375
1791110012829879000,7.120879150390625,-1.6847991943359375,-1.1590423583984375,0.03961181640625
1791110012839950000,7.1309501953125,-0.143951416015625,-1.1837921142578125,-0.231658935546875
1791110012850019800,7.141019775390625,1.1931304931640625,-1.2118377685546875,-0.393280029296875
1791110012860091000,7.1510908203125,0.4365234375,-0.5114288330078125,0.0026397705078125
1791110012870162000,7.161161865234375,-0.9903106689453125,-0.397125244140625,0.3160247802734375
1791110012880233000,7.17123291015625,-1.2430877685546875,-1.2714080810546875,0.238739013671875
1791110012890304000,7.181303955078125,-0.988494873046875,-1.4066009521484375,0.021759033203125
1791110012900374800,7.191374755859375,-0.4559173583984375,-0.8376617431640625,-0.18731689453125
1791110012910445800,7.20144580078125,0.505584716796875,-0.686187744140625,-0.1726837158203125
1791110012920516000,7.21151611328125,1.437835693359375,-0.680267333984375,-0.000213623046875
1791110012930587100,7.221587158203125,0.685791015625,-0.537139892578125,0.1749114990234375
1791110012940658200,7.231658203125,-1.1369476318359375,-0.4967041015625,0.2271881103515625
1791110012950729000,7.24172900390625,-1.713287353515625,-1.064453125,0.175506591796875
1791110012960800000,7.251800048828125,-1.6412506103515625,-1.1910858154296875,0.151641845703125
1791110012970871000,7.26187109375,-0.06842041015625,-1.35882568359375,-0.20751953125
1791110012980942000,7.271942138671875,1.041778564453125,-1.386962890625,-0.318450927734375
1791110012991012000,7.28201220703125,-0.2100830078125,-0.7860260009765625,0.025177001953125
1791110013001083000,7.292082763671875,-1.5647125244140625,-0.7140045166015625,0.275543212890625
1791110013011154000,7.30215380859375,-1.1133880615234375,-1.25909423828125,0.291717529296875
1791110013021225000,7.312224853515625,0.6326446533203125,-1.4012908935546875,-0.1487579345703125
1791110013031296000,7.3222958984375,0.6103363037109375,-0.7689208984375,-0.277740478515625
1791110013041367000,7.332366943359375,-0.7640228271484375,-0.1083221435546875,-0.05322265625
1791110013051438000,7.34243798828125,-1.0920562744140625,-0.5872039794921875,0.182769775390625
1791110013061507800,7.3525078125,-0.8819732666015625,-1.20208740234375,0.0946502685546875
1791110013071579000,7.362578857421875,-0.8148345947265625,-1.0040283203125,-0.0544586181640625
1791110013081650000,7.37264990234375,-0.0489044189453125,-1.0596466064453125,-0.224609375
1791110013091721000,7.382720947265625,0.3369293212890625,-1.0363616943359375,-0.30828857421875
1791110013101792000,7.3927919921875,-0.2107086181640625,-0.9804534912109375,0.0653228759765625
1791110013111862800,7.40286279296875,-0.2637176513671875,-1.0901336669921875,0.13702392578125
1791110013121934600,7.4129345703125,0.2594757080078125,-0.854949951171875,-0.1258392333984375
1791110013132004900,7.4230048828125,0.1699981689453125,-0.657379150390625,-0.2291412353515625
1791110013142076000,7.433075927734375,-0.8082733154296875,-0.619842529296875,0.0388641357421875
1791110013152147000,7.44314697265625,-1.501434326171875,-1.20538330078125,0.02734375
1791110013162217700,7.4532177734375,-1.1918792724609375,-1.6195526123046875,-0.380615234375
1791110013172288800,7.463288818359375,0.0815887451171875,-1.1925048828125,-0.5259246826171875
1791110013182359800,7.47335986328125,0.3185882568359375,-0.32391357421875,-0.2386932373046875
1791110013192430800,7.483430908203125,-1.1420440673828125,0.11248779296875,0.1813812255859375
1791110013202500900,7.4935009765625,-1.944854736328125,-0.417755126953125,0.3175201416015625
1791110013212571600,7.503571533203125,-1.2341461181640625,-1.358489990234375,-0.0227508544921875
1791110013222642700,7.513642578125,0.14013671875,-1.5511627197265625,-0.2834625244140625
1791110013232713700,7.523713623046875,1.4083099365234375,-1.06256103515625,-0.2689361572265625
1791110013242784800,7.53378466796875,1.3316497802734375,-0.26806640625,-0.044342041015625
1791110013252855800,7.543855712890625,0.990203857421875,0.14727783203125,-0.0487518310546875
1791110013262926800,7.5539267578125,-0.265289306640625,-0.3863372802734375,-0.056182861328125
1791110013272996600,7.56399658203125,-3.0780487060546875,-1.105621337890625,0.29095458984375
1791110013283067600,7.574067626953125,-3.7078399658203125,-1.84271240234375,0.3739471435546875
1791110013293138700,7.584138671875,-0.851715087890625,-2.042572021484375,-0.17584228515625
1791110013303209700,7.594209716796875,1.945465087890625,-1.392578125,-0.6289520263671875
1791110013313280800,7.60428076171875,1.8861846923828125,-0.111053466796875,-0.394989013671875
1791110013323351600,7.6143515625,-0.775909423828125,0.8557586669921875,0.133453369140625
1791110013333422600,7.624422607421875,-2.387786865234375,-0.210052490234375,0.4453125
1791110013343492900,7.634492919921875,-2.534820556640625,-1.9080810546875,0.1839752197265625
1791110013353564000,7.64456396484375,-1.2823486328125,-2.1945037841796875,-0.049346923828125
1791110013363635000,7.654635009765625,1.273651123046875,-1.8502655029296875,-0.4986724853515625
1791110013373705700,7.664705810546875,0.996673583984375,-0.6555938720703125,-0.2389068603515625
1791110013383776800,7.67477685546875,-0.5726165771484375,0.0251312255859375,0.05242919921875
1791110013393847800,7.684847900390625,-1.005462646484375,-0.4033966064453125,0.152435302734375
1791110013403918800,7.6949189453125,-1.0485382080078125,-0.97174072265625,0.1887969970703125
1791110013413988900,7.70498876953125,-0.3485870361328125,-1.3214569091796875,-0.0546417236328125
1791110013424059600,7.7150595703125,-0.3854522705078125,-1.11114501953125,-0.2746734619140625
1791110013434130700,7.725130615234375,0.4350433349609375,-1.20196533203125,-0.4710540771484375
1791110013444201700,7.73520166015625,0.196197509765625,-0.886627197265625,-0.277740478515625
1791110013454272800,7.745272705078125,-0.1744842529296875,-0.5344390869140625,-0.04510498046875
1791110013464343800,7.75534375,-1.131103515625,-0.595123291015625,0.20184326171875
1791110013474414800,7.765414794921875,-1.3554534912109375,-0.866485595703125,0.1513671875
1791110013484484600,7.775484619140625,-1.5534820556640625,-1.2379150390625,-0.055084228515625
1791110013494555600,7.7855556640625,-0.8569793701171875,-1.64202880859375,-0.192718505859375
1791110013504626700,7.795626708984375,-0.472747802734375,-1.29461669921875,-0.1212158203125
1791110013514697700,7.80569775390625,-0.60675048828125,-0.6609954833984375,-0.154632568359375
1791110013524768800,7.815768798828125,-0.7481689453125,-0.241546630859375,0.2246551513671875
1791110013534839600,7.825839599609375,0.2006072998046875,0.1258087158203125,0.21588134765625
1791110013544909800,7.835909912109375,1.3199310302734375,-0.3922271728515625,-0.143646240234375
1791110013554980900,7.84598095703125,1.1676025390625,-1.0350799560546875,-0.1472015380859375
1791110013565052000,7.856052001953125,0.4996795654296875,-1.3201446533203125,-0.05352783203125
1791110013575123000,7.866123046875,-1.91094970703125,-0.9522857666015625,-0.0040435791015625
1791110013585193700,7.87619384765625,-2.446075439453125,-0.765380859375,0.2442779541015625
1791110013595264800,7.8862646484375,-0.3495025634765625,-1.2374267578125,-0.2038421630859375
1791110013605335800,7.896335693359375,0.8325347900390625,-0.989990234375,-0.615753173828125
1791110013615406800,7.90640673828125,0.46917724609375,-0.519287109375,-0.5006866455078125
1791110013625476600,7.9164765625,-0.191131591796875,-0.9288177490234375,-0.225189208984375
1791110013635547600,7.926547607421875,-1.1772308349609375,-1.1121368408203125,0.1392822265625
1791110013645618700,7.93661865234375,-1.3930511474609375,-1.2008514404296875,0.206207275390625
1791110013655689700,7.946689697265625,-0.8587799072265625,-1.0289154052734375,-0.0636749267578125
1791110013665760800,7.9567607421875,0.0001983642578125,-0.911865234375,-0.19561767578125
1791110013675831800,7.966831787109375,-0.009552001953125,-0.773590087890625,-0.19268798828125
1791110013685902800,7.97690283203125,-0.1665496826171875,-0.7299346923828125,-0.1151580810546875
1791110013695972600,7.98697265625,0.0219268798828125,-0.8827667236328125,-0.040374755859375
1791110013706043600,7.997043701171875,-0.5170745849609375,-0.9234619140625,0.0234222412109375
1791110013716114700,8.00711474609375,-1.0077667236328125,-0.9456024169921875,0.2016448974609375
1791110013726185700,8.017185791015624,-0.8783111572265625,-1.127227783203125,0.0416107177734375
1791110013736256500,8.027256591796874,0.1934814453125,-1.2611846923828125,-0.1983184814453125
1791110013746327600,8.03732763671875,0.3985137939453125,-0.8983001708984375,-0.14874267578125
1791110013756397800,8.047397705078126,-0.2631378173828125,-0.7257232666015625,-0.0843048095703125
1791110013766468900,8.05746875,-0.2470855712890625,-1.1779022216796875,0.0399169921875
1791110013776540000,8.067539794921874,-0.7444000244140625,-1.0752716064453125,-0.0802001953125
1791110013786610700,8.077610595703124,-1.3012542724609375,-1.123260498046875,-0.0427398681640625
1791110013796681700,8.087681640625,-0.6869964599609375,-1.372039794921875,-0.230194091796875
1791110013806752800,8.097752685546874,-0.6097869873046875,-1.0083465576171875,-0.3458251953125
1791110013816823800,8.10782373046875,-0.932220458984375,-0.3555908203125,-0.0423431396484375
1791110013826893800,8.117893798828124,0.0591583251953125,-0.581085205078125,-0.0085296630859375
1791110013836964600,8.127964599609374,-0.2361297607421875,-0.6174163818359375,-0.0361175537109375
1791110013847035600,8.13803564453125,-0.682342529296875,-0.423797607421875,0.0372772216796875
1791110013857106700,8.148106689453124,-0.1178436279296875,-1.00445556640625,-0.0346527099609375
1791110013867177700,8.158177734375,-0.3564300537109375,-1.06396484375,-0.0588531494140625
1791110013877248800,8.168248779296874,-0.8594512939453125,-0.75213623046875,0.005126953125
1791110013887319800,8.17831982421875,-0.662872314453125,-0.8927459716796875,-0.056640625
1791110013897389600,8.1883896484375,-0.122161865234375,-0.992523193359375,-0.1572265625
1791110013907460600,8.198460693359374,0.1155853271484375,-0.89361572265625,-0.2037353515625
1791110013917531600,8.20853173828125,-0.525543212890625,-0.6165771484375,-0.0567169189453125
1791110013927602700,8.218602783203124,-0.803436279296875,-0.7184600830078125,0.183013916015625
1791110013937673700,8.228673828125,-0.6029052734375,-1.1201629638671875,0.141204833984375
1791110013947744500,8.23874462890625,-0.590179443359375,-1.023101806640625,0.0404205322265625
1791110013957815600,8.248815673828124,-0.353363037109375,-0.8494720458984375,-0.040557861328125
1791110013967885800,8.2588857421875,0.046051025390625,-0.8695526123046875,-0.059722900390625
1791110013977956900,8.268956787109374,0.394561767578125,-0.824066162109375,-0.0977020263671875
1791110013988028000,8.27902783203125,0.0570526123046875,-0.8887939453125,-0.0774993896484375
1791110013998098700,8.2890986328125,-0.9665374755859375,-0.827545166015625,0.0471038818359375
1791110014008169700,8.299169677734374,-1.7419586181640625,-0.8294830322265625,0.0260772705078125
1791110014018240800,8.30924072265625,-0.811431884765625,-1.2028656005859375,0.0010528564453125
1791110014028311800,8.319311767578125,-0.118133544921875,-1.023284912109375,-0.017242431640625
1791110014038381800,8.3293818359375,0.177978515625,-0.980194091796875,-0.0250091552734375
1791110014048452600,8.33945263671875,0.1383514404296875,-0.9557037353515625,0.111297607421875
1791110014058523600,8.349523681640624,-0.021697998046875,-0.954864501953125,0.1646728515625
1791110014068594700,8.3595947265625,-0.7054443359375,-0.8933563232421875,0.174652099609375
1791110014078665700,8.369665771484375,-0.754058837890625,-0.95159912109375,0.103759765625
1791110014088736800,8.37973681640625,-0.026092529296875,-1.1038360595703125,-0.2175445556640625
1791110014098807800,8.389807861328125,-0.1885223388671875,-0.7761383056640625,-0.181182861328125
1791110014108877600,8.399877685546874,-0.3499298095703125,-0.5138702392578125,-0.0378875732421875
1791110014118948600,8.409948486328124,-0.195159912109375,-0.7482147216796875,-0.1029205322265625
1791110014129019000,8.420018798828124,-0.6837310791015625,-0.714141845703125,-0.0992584228515625
1791110014139090000,8.43008984375,-0.477569580078125,-0.9651947021484375,0.011444091796875
1791110014149161000,8.440160888671874,-0.65399169921875,-1.1337738037109375,0.0607147216796875
1791110014159231700,8.450231689453124,-0.853912353515625,-0.7074127197265625,0.012176513671875
1791110014169301800,8.4603017578125,-0.4741363525390625,-0.8363800048828125,-0.15301513671875
1791110014179372800,8.470372802734374,-0.1008758544921875,-1.01580810546875,-0.1414337158203125
1791110014189443800,8.48044384765625,0.24114990234375,-0.9527130126953125,0.006134033203125
1791110014199515000,8.490514892578124,-0.504852294921875,-0.727447509765625,0.141845703125
1791110014209585700,8.500585693359374,-0.732086181640625,-0.9799041748046875,0.129486083984375
1791110014219656700,8.51065673828125,-0.9977569580078125,-0.9467010498046875,0.078216552734375
1791110014229727700,8.520727783203125,-0.9059295654296875,-0.9308624267578125,0.1189422607421875
1791110014239797800,8.5307978515625,0.3694000244140625,-1.299224853515625,-0.07135009765625
1791110014249868800,8.540868896484374,0.493438720703125,-1.1989898681640625,-0.2591705322265625
1791110014259939600,8.550939697265624,-0.90380859375,-0.4682464599609375,-0.0743408203125
1791110014270010600,8.5610107421875,-1.342254638671875,-0.5348968505859375,0.21099853515625
1791110014280081700,8.57108154296875,-0.2872467041015625,-1.2002410888671875,0.2889404296875
1791110014290152700,8.581152587890625,0.3808441162109375,-1.35919189453125,0.08831787109375
1791110014300223700,8.5912236328125,0.13873291015625,-1.170623779296875,-0.1710052490234375
1791110014310293800,8.601293701171874,-0.4286041259765625,-0.770538330078125,-0.1417236328125
1791110014320364800,8.61136474609375,-0.456268310546875,-0.802215576171875,0.0431060791015625
1791110014330435800,8.621435791015625,-0.462158203125,-0.964141845703125,0.1171722412109375
1791110014340507000,8.6315068359375,0.1222991943359375,-0.955902099609375,0.0146636962890625
1791110014350578000,8.641577880859375,-0.2711944580078125,-0.9807586669921875,-0.11395263671875
1791110014360649000,8.65164892578125,-1.419189453125,-0.90679931640625,0.02099609375
1791110014370718700,8.66171875,-1.2750244140625,-1.11328125,0.1241607666015625
1791110014380789800,8.671789794921875,-0.6788482666015625,-1.1111602783203125,-0.0079803466796875
1791110014390860800,8.68186083984375,-0.0028839111328125,-0.975555419921875,-0.2593994140625
1791110014400931800,8.691931884765625,0.1349945068359375,-0.6057281494140625,-0.2071990966796875
1791110014411003000,8.7020029296875,-0.5673065185546875,-0.389862060546875,0.0955657958984375
1791110014421073700,8.71207373046875,-0.8878936767578125,-0.8915863037109375,0.1503448486328125
1791110014431144700,8.722144775390625,-1.0333099365234375,-1.1331787109375,0.0266265869140625
1791110014441214700,8.732214599609375,-0.44488525390625,-0.939727783203125,-0.1079559326171875
1791110014451285800,8.74228564453125,0.1440277099609375,-0.8595733642578125,-0.09912109375
1791110014461356500,8.7523564453125,-0.7551422119140625,-0.2807464599609375,0.1992034912109375
1791110014471427600,8.762427490234375,-0.20709228515625,-0.4199066162109375,0.11676025390625
1791110014481498600,8.77249853515625,0.06988525390625,-0.9124908447265625,0.048614501953125
1791110014491569700,8.782569580078125,-0.629730224609375,-1.01275634765625,0.0653076171875
1791110014501640700,8.792640625,-1.015228271484375,-1.021514892578125,0.096099853515625
1791110014511710700,8.802710693359375,-1.15771484375,-0.9820098876953125,0.252288818359375
1791110014521781800,8.81278173828125,-0.6736297607421875,-0.9134368896484375,0.0559844970703125
1791110014531852800,8.822852783203125,-0.1623687744140625,-0.8254241943359375,0.0186309814453125
1791110014541923800,8.832923828125,-0.12744140625,-0.539764404296875,0.0847015380859375
1791110014551995000,8.842994873046875,-0.28173828125,-0.594451904296875,0.165374755859375
1791110014562066000,8.85306591796875,-1.0670623779296875,-0.684234619140625,0.2482452392578125
1791110014572136700,8.86313671875,-1.0243682861328125,-1.0138702392578125,0.1616363525390625
1791110014582206700,8.873206787109375,-0.2059326171875,-1.1821746826171875,-0.0450897216796875
1791110014592277800,8.88327783203125,0.1659698486328125,-1.0613861083984375,-0.1565704345703125
1791110014602348800,8.893348876953125,0.041412353515625,-0.8546142578125,-0.1491241455078125
1791110014612419800,8.903419921875,-0.6230926513671875,-0.6390380859375,-0.0775299072265625
1791110014622490600,8.91349072265625,-0.4918670654296875,-1.0646209716796875,-0.1321563720703125
1791110014632561700,8.923561767578125,-0.200408935546875,-1.46124267578125,-0.29754638671875
1791110014642631700,8.933631591796875,-0.6886444091796875,-1.269775390625,-0.2441864013671875
1791110014652702700,8.94370263671875,-0.3351287841796875,-1.134033203125,-0.2054443359375
1791110014662773800,8.953773681640625,1.08135986328125,-1.2638092041015625,-0.31085205078125
1791110014672844500,8.963844482421875,0.0596771240234375,-0.8221893310546875,-0.19952392578125
1791110014682915600,8.97391552734375,-1.3743743896484375,-0.6578369140625,0.2667694091796875
1791110014692986600,8.983986572265625,-0.949615478515625,-1.1473236083984375,0.2009735107421875
1791110014703057700,8.9940576171875,-0.66412353515625,-1.3133697509765625,-0.1551055908203125
1791110014713128000,9.0041279296875,-0.529998779296875,-1.1926727294921875,-0.31939697265625
1791110014723198700,9.01419873046875,-0.59539794921875,-0.85595703125,-0.2801666259765625
1791110014733269800,9.024269775390625,-0.632659912109375,-0.5567779541015625,-0.0766143798828125
1791110014743340800,9.0343408203125,-0.91558837890625,-0.5290679931640625,0.13958740234375
1791110014753411800,9.044411865234375,-0.3170318603515625,-0.9834442138671875,0.1640472412109375
1791110014763483000,9.05448291015625,0.5972442626953125,-0.9834747314453125,-0.0926513671875
1791110014773552600,9.064552734375,0.2051239013671875,-0.598358154296875,-0.2376861572265625
1791110014783623700,9.074623779296875,-1.0198822021484375,-0.4625701904296875,-0.06317138671875
1791110014793694700,9.08469482421875,-0.9974212646484375,-0.934600830078125,0.00604248046875
1791110014803765800,9.094765869140625,-0.903350830078125,-1.0860443115234375,-0.12823486328125
1791110014813836800,9.1048369140625,-0.122314453125,-1.033111572265625,-0.233734130859375
1791110014823907800,9.114907958984375,0.5136871337890625,-0.7846832275390625,-0.1877899169921875
1791110014833978600,9.124978515625,-0.23858642578125,-0.409820556640625,-0.0727386474609375
1791110014844048600,9.135048583984375,-0.951019287109375,-0.6277008056640625,-0.0646514892578125
1791110014854119700,9.14511962890625,-1.173736572265625,-0.8983154296875,-0.0555267333984375
1791110014864190700,9.155190673828125,-0.4864959716796875,-1.1601715087890625,-0.1493988037109375
1791110014874261800,9.16526171875,0.337432861328125,-1.1317596435546875,-0.26336669921875
1791110014884332500,9.17533251953125,0.09063720703125,-0.7378387451171875,-0.139404296875
1791110014894403600,9.185403564453125,-0.285125732421875,-0.6408233642578125,0.136932373046875
1791110014904474600,9.195474609375,-0.8889617919921875,-0.8143310546875,0.2100067138671875
1791110014914545000,9.205544921875,-0.9184417724609375,-0.9495697021484375,0.044158935546875
1791110014924616000,9.215615966796875,-0.1795654296875,-1.2587738037109375,-0.0697021484375
1791110014934686700,9.225686767578125,-0.0703125,-1.026824951171875,-0.01312255859375
1791110014944757800,9.2357578125,-0.3069915771484375,-0.6884613037109375,-0.010406494140625
1791110014954828800,9.245828857421875,-0.6077728271484375,-0.7917022705078125,0.06536865234375
1791110014964899800,9.25589990234375,-0.7689666748046875,-0.9178466796875,0.100830078125
1791110014974971000,9.265970947265625,-1.0496978759765625,-1.00994873046875,0.085174560546875
1791110014985040600,9.27604052734375,-0.091552734375,-1.3175811767578125,0.0030517578125
1791110014995111700,9.286111572265625,0.8578948974609375,-1.1505584716796875,-0.0650177001953125
1791110015005182700,9.2961826171875,0.3109893798828125,-0.8437347412109375,-0.198150634765625
1791110015015253800,9.306253662109375,-0.3600006103515625,-0.788055419921875,0.019683837890625
1791110015025324800,9.31632470703125,-0.126708984375,-0.8582611083984375,0.150787353515625
1791110015035395800,9.326395751953125,-1.312469482421875,-0.8668975830078125,0.074371337890625
1791110015045465600,9.336465576171875,-1.758392333984375,-1.1117706298828125,0.0298614501953125
1791110015055536600,9.34653662109375,-1.1345977783203125,-1.2181396484375,-0.1851654052734375
1791110015065607700,9.356607666015625,-0.574188232421875,-0.9621734619140625,-0.254730224609375
1791110015075678700,9.3666787109375,0.4393157958984375,-1.0498199462890625,-0.37664794921875
1791110015085749800,9.376749755859375,0.265625,-0.84051513671875,-0.1661376953125
1791110015095820500,9.386820556640625,-0.37249755859375,-0.389434814453125,0.2040557861328125
1791110015105891600,9.3968916015625,-0.704986572265625,-0.6171722412109375,0.3074493408203125
1791110015115961900,9.4069619140625,-0.6309967041015625,-0.8931427001953125,0.1467437744140625
1791110015126033700,9.41703369140625,-0.0430145263671875,-1.078948974609375,-0.1751708984375
1791110015136104700,9.427104736328126,-0.032257080078125,-1.003692626953125,-0.166046142578125
1791110015146175700,9.43717578125,-0.5001220703125,-0.7368316650390625,-0.0358734130859375
1791110015156246800,9.447246826171876,-0.8986053466796875,-0.674652099609375,0.0381622314453125
1791110015166317800,9.45731787109375,-0.8830718994140625,-0.813995361328125,0.06048583984375
1791110015176387800,9.467387939453126,-0.2751617431640625,-0.9222564697265625,0.0469512939453125
1791110015186459000,9.477458984375,-0.1279754638671875,-0.9215240478515625,0.0376434326171875
1791110015196530000,9.487530029296876,-0.90625,-0.7254486083984375,0.0879669189453125
1791110015206601000,9.49760107421875,-1.3854217529296875,-0.765380859375,0.1285400390625
1791110015216672000,9.507672119140626,-0.75994873046875,-0.869415283203125,0.0237274169921875
1791110015226743000,9.517742919921876,0.7751922607421875,-1.30804443359375,-0.2570037841796875
1791110015236813800,9.527813720703126,0.5504302978515625,-1.1593017578125,-0.2595977783203125
1791110015246883800,9.5378837890625,-0.657440185546875,-0.552825927734375,-0.10491943359375
1791110015256955000,9.547954833984376,-1.2816162109375,-0.5751953125,-0.051025390625
1791110015267026000,9.55802587890625,-0.715545654296875,-1.070709228515625,-0.0833587646484375
1791110015277097000,9.568096923828126,-0.0785980224609375,-1.234161376953125,-0.0455322265625
1791110015287167700,9.578167724609376,0.025726318359375,-1.042755126953125,0.0659332275390625
1791110015297238800,9.58823876953125,0.053985595703125,-0.786346435546875,0.0933380126953125
1791110015307309800,9.598309814453126,-0.3115692138671875,-0.8235015869140625,0.10076904296875
1791110015317379800,9.6083798828125,-1.0503997802734375,-0.8114013671875,0.2097320556640625
1791110015327451000,9.618450927734376,-1.106475830078125,-1.1456298828125,0.0672760009765625
1791110015337521700,9.628521728515626,-0.3421783447265625,-1.3264312744140625,-0.0914459228515625
1791110015347592700,9.6385927734375,0.42218017578125,-1.060638427734375,-0.1238861083984375
1791110015357663700,9.648663818359376,0.3686370849609375,-0.763671875,-0.0199127197265625
1791110015367734800,9.65873486328125,-0.2364959716796875,-0.6007232666015625,0.07861328125
1791110015377805000,9.66880517578125,-0.601104736328125,-0.69061279296875,0.21954345703125
1791110015387875800,9.678875732421876,-0.98724365234375,-0.9578704833984375,0.172271728515625
1791110015397947000,9.68894677734375,-1.29217529296875,-1.0099945068359375,0.02880859375
1791110015408018000,9.699017822265626,-0.69317626953125,-1.109893798828125,-0.1217193603515625
1791110015418089000,9.7090888671875,0.404754638671875,-1.04742431640625,-0.10321044921875
1791110015428160000,9.719159912109374,0.739715576171875,-0.906341552734375,0.012176513671875
1791110015438231000,9.72923095703125,-0.3899993896484375,-0.596160888671875,0.0927886962890625
1791110015448300800,9.73930078125,-0.9158782958984375,-0.79742431640625,0.1215057373046875
1791110015458371800,9.749371826171876,-0.7649688720703125,-1.016876220703125,0.007904052734375
1791110015468443000,9.75944287109375,-0.0357208251953125,-1.315521240234375,-0.14019775390625
1791110015478514000,9.769513916015624,0.2249755859375,-1.3614349365234375,-0.18865966796875
1791110015488585000,9.7795849609375,-0.38140869140625,-0.798431396484375,-0.0069427490234375
1791110015498655700,9.78965576171875,-0.0316314697265625,-0.582305908203125,0.10345458984375
1791110015508725800,9.799725830078126,-0.5084228515625,-0.56536865234375,0.1268310546875
1791110015518796800,9.809796875,-1.0955810546875,-0.8126373291015625,0.03436279296875
1791110015528867800,9.819867919921874,-0.8574066162109375,-1.291656494140625,-0.039276123046875
1791110015538939000,9.82993896484375,-0.88531494140625,-1.1013031005859375,-0.0295562744140625
1791110015549010000,9.840010009765624,-0.4477386474609375,-1.0008392333984375,-0.1265106201171875
1791110015559081000,9.8500810546875,-0.583709716796875,-0.82135009765625,-0.0106353759765625
1791110015569152000,9.860152099609374,-0.7007598876953125,-0.6412353515625,0.0061492919921875
1791110015579222000,9.870221923828124,-0.7219696044921875,-0.77264404296875,0.021575927734375
1791110015589292800,9.880292724609374,-0.5230712890625,-0.897308349609375,-0.179290771484375
1791110015599363800,9.89036376953125,-0.3326568603515625,-1.028533935546875,-0.3515472412109375
1791110015609435000,9.900434814453124,-0.604034423828125,-0.741363525390625,-0.1940155029296875
1791110015619506000,9.910505859375,-0.9992523193359375,-0.6504364013671875,0.0455169677734375
1791110015629577000,9.920576904296874,-0.8523101806640625,-0.7185516357421875,-0.0541534423828125
1791110015639646700,9.930646728515624,-0.292877197265625,-0.6878814697265625,-0.204925537109375
1791110015649717800,9.9407177734375,0.402801513671875,-0.954803466796875,-0.172332763671875
1791110015659788800,9.950788818359374,0.2089080810546875,-0.8466033935546875,-0.2470855712890625
1791110015669859800,9.96085986328125,-0.807861328125,-0.4990386962890625,-0.0335235595703125
1791110015679931000,9.970930908203124,-1.0829925537109375,-0.754974365234375,0.1770782470703125
1791110015690002000,9.981001953125,-0.4199981689453125,-1.2548828125,-0.0608367919921875
1791110015700072700,9.99107275390625,-0.047088623046875,-1.214447021484375,-0.3299407958984375
1791110015710143000,10.00114306640625,-0.23895263671875,-0.5776214599609375,-0.226898193359375
1791110015720214000,10.011214111328124,0.1602783203125,-0.37335205078125,-0.1603851318359375
1791110015730285000,10.02128515625,-0.0016326904296875,-0.739471435546875,-0.115447998046875
1791110015740356000,10.031356201171874,-1.57061767578125,-0.94384765625,0.119781494140625
1791110015750427000,10.041427001953124,-1.9835968017578125,-1.284759521484375,0.067230224609375
1791110015760498000,10.051497802734374,-0.707305908203125,-1.660369873046875,-0.1829986572265625
1791110015770568000,10.06156787109375,0.8159332275390625,-1.3260650634765625,-0.362823486328125
1791110015780639000,10.071638916015624,0.4713592529296875,-0.4756622314453125,-0.25628662109375
1791110015790710000,10.0817099609375,-0.4560394287109375,-0.1896820068359375,0.0251007080078125
1791110015800780800,10.09178076171875,-0.301300048828125,-1.0546417236328125,0.117950439453125
1791110015810851800,10.101851806640624,-0.25177001953125,-1.52685546875,0.0909423828125
1791110015820923000,10.1119228515625,-0.4902496337890625,-1.336761474609375,0.0066375732421875
1791110015830994000,10.121993896484375,-0.682769775390625,-0.9279937744140625,-0.1873626708984375
1791110015841064000,10.13206396484375,-0.5589141845703125,-0.894866943359375,-0.1872406005859375
1791110015851134700,10.142134765625,-0.209747314453125,-1.12646484375,-0.0872344970703125
1791110015861205800,10.152205810546874,-0.3972625732421875,-1.031829833984375,0.073638916015625
1791110015871276800,10.16227685546875,-0.4609222412109375,-0.9155731201171875,0.118621826171875
1791110015881347800,10.172347900390625,-0.3369293212890625,-0.764862060546875,0.0278472900390625
1791110015891419000,10.1824189453125,-0.3294525146484375,-0.7274932861328125,-0.1248016357421875
1791110015901489000,10.192489013671874,-0.5487213134765625,-0.7432403564453125,-0.1991729736328125
1791110015911560000,10.202559814453124,-0.16796875,-0.8706207275390625,-0.087738037109375
1791110015921631000,10.212630859375,-0.1583099365234375,-0.851654052734375,-0.0854034423828125
1791110015931702000,10.222701904296875,-1.0647735595703125,-0.427215576171875,0.1254119873046875
1791110015941773000,10.23277294921875,-0.9150848388671875,-0.56121826171875,0.112548828125
1791110015951844000,10.242843994140625,-0.362548828125,-1.01495361328125,-0.076080322265625
1791110015961913900,10.252913818359374,-0.0093994140625,-1.0597686767578125,-0.2750244140625
1791110015971985000,10.26298486328125,0.323150634765625,-0.8305816650390625,-0.2866973876953125
1791110015982056000,10.273055908203125,-0.8153533935546875,-0.511871337890625,0.0413665771484375
1791110015992127000,10.283126953125,-1.69110107421875,-0.3986663818359375,0.2015838623046875
1791110016002198000,10.293197998046875,-0.98638916015625,-0.9454498291015625,0.0849151611328125
1791110016012268800,10.303268798828125,0.645843505859375,-1.4219818115234375,-0.168182373046875
1791110016022339800,10.31333984375,1.2957305908203125,-1.3645782470703125,-0.2698822021484375
1791110016032409900,10.323409912109375,-0.220001220703125,-0.561431884765625,-0.0070648193359375
1791110016042481000,10.33348095703125,-0.9116668701171875,-0.295318603515625,0.1145477294921875
1791110016052552000,10.343552001953125,-1.1111297607421875,-0.7853546142578125,0.141387939453125
1791110016062622700,10.353622802734375,-0.670196533203125,-1.135772705078125,0.0009002685546875
1791110016072693800,10.36369384765625,-0.26617431640625,-1.1349029541015625,-0.1284332275390625
1791110016082764800,10.373764892578125,-0.4840545654296875,-1.0217742919921875,0.026702880859375
1791110016092835000,10.3838349609375,-0.766632080078125,-1.0090789794921875,0.0877532958984375
1791110016102906000,10.393906005859375,-0.72015380859375,-1.001953125,-0.0084991455078125
1791110016112977000,10.403976806640625,-0.4864349365234375,-1.0056915283203125,-0.0578765869140625
1791110016123048000,10.4140478515625,-0.181732177734375,-1.152862548828125,-0.074127197265625
1791110016133118700,10.42411865234375,-0.05670166015625,-1.0202789306640625,0.0042877197265625
1791110016143189800,10.434189697265625,-0.3394012451171875,-0.7720489501953125,0.12689208984375
1791110016153260800,10.4442607421875,-0.6120147705078125,-0.8095855712890625,0.137481689453125
1791110016163330800,10.454330810546875,-0.23126220703125,-1.0386810302734375,-0.09234619140625
1791110016173401900,10.46440185546875,-0.25262451171875,-1.0271453857421875,-0.1591949462890625
1791110016183472600,10.47447265625,-0.389373779296875,-0.8531494140625,-0.07421875
1791110016193543700,10.484543701171875,-0.590911865234375,-0.8251800537109375,-0.060882568359375
1791110016203614700,10.49461474609375,-0.887298583984375,-0.816741943359375,0.1025238037109375
1791110016213685800,10.504685791015625,-0.92108154296875,-1.008026123046875,0.03826904296875
1791110016223755500,10.514755615234375,-0.4652862548828125,-0.985321044921875,-0.067626953125
1791110016233826600,10.52482666015625,-0.117156982421875,-0.7427825927734375,-0.162628173828125
1791110016243897600,10.534897705078125,-0.17877197265625,-0.7565155029296875,-0.1963653564453125
1791110016253968600,10.54496875,-0.4747772216796875,-0.8202056884765625,-0.087493896484375
1791110016264039700,10.555039794921875,-0.7649383544921875,-0.9104156494140625,-0.0369720458984375
1791110016274110700,10.56511083984375,-0.80999755859375,-0.9749603271484375,-0.100616455078125
1791110016284180700,10.5751806640625,-0.0816650390625,-0.915679931640625,-0.2689971923828125
1791110016294251800,10.585251708984375,-0.0695037841796875,-0.766387939453125,-0.177520751953125
1791110016304322800,10.59532275390625,-0.532928466796875,-0.600677490234375,-0.0316314697265625
1791110016314393900,10.605393798828125,-1.0619659423828125,-0.681671142578125,0.015289306640625
1791110016324465000,10.61546484375,-0.29705810546875,-0.9993896484375,-0.052001953125
1791110016334535700,10.62553564453125,0.664398193359375,-1.19732666015625,-0.2162322998046875
1791110016344606700,10.635606689453125,-0.8784332275390625,-1.0039215087890625,-0.0560455322265625
1791110016354676700,10.6456767578125,-1.9042816162109375,-0.9925537109375,0.23321533203125
1791110016364747800,10.655747802734375,-1.044708251953125,-1.21295166015625,0.0614471435546875
1791110016374818800,10.66581884765625,0.9417266845703125,-1.3445587158203125,-0.352630615234375
1791110016384889600,10.6758896484375,1.536651611328125,-1.0976409912109375,-0.3155364990234375
1791110016394960600,10.685960693359375,-0.401092529296875,-0.388763427734375,0.0784912109375
1791110016405031700,10.69603173828125,-2.1560211181640625,-0.399566650390625,0.4612884521484375
1791110016415101700,10.706101806640625,-1.9210662841796875,-1.0714569091796875,0.1666412353515625
1791110016425172700,10.7161728515625,0.583831787109375,-1.54522705078125,-0.45062255859375
1791110016435243500,10.726243408203125,1.5569610595703125,-1.23260498046875,-0.6345367431640625
1791110016445314600,10.736314453125,-0.8122100830078125,-0.3578643798828125,-0.1820831298828125
1791110016455385600,10.746385498046875,-2.1806793212890625,-0.5146484375,0.30712890625
1791110016465456600,10.75645654296875,-1.0903167724609375,-1.2377777099609375,0.1485595703125
1791110016475527700,10.766527587890625,1.0904998779296875,-1.5885009765625,-0.3459625244140625
1791110016485597700,10.77659765625,1.523590087890625,-0.8971099853515625,-0.5264434814453125
1791110016495668700,10.786668701171875,-0.6592559814453125,-0.0863189697265625,0.104888916015625
1791110016505739800,10.79673974609375,-1.93231201171875,-0.5218658447265625,0.6329803466796875
1791110016515810800,10.806810791015625,-1.306671142578125,-1.3276519775390625,0.2672882080078125
1791110016525881900,10.8168818359375,0.12060546875,-1.4712677001953125,-0.3224945068359375
1791110016535953000,10.826952880859375,0.897308349609375,-0.9238128662109375,-0.36285400390625
1791110016546022700,10.837022705078125,-0.5005340576171875,-0.2454376220703125,-0.00360107421875
1791110016556093700,10.84709375,-1.5294342041015625,-0.4900665283203125,0.35369873046875
1791110016566164700,10.857164794921875,-0.1111907958984375,-1.2207794189453125,0.19232177734375
1791110016576235800,10.86723583984375,0.793426513671875,-1.2031402587890625,-0.1784820556640625
1791110016586306800,10.877306884765625,-0.20233154296875,-0.729583740234375,-0.18951416015625
1791110016596377600,10.887377685546875,-1.845458984375,-0.6692657470703125,0.0442962646484375
1791110016606447600,10.897447509765625,-1.65362548828125,-1.0648345947265625,0.273590087890625
1791110016616518700,10.9075185546875,0.0871734619140625,-1.6761627197265625,-0.1420135498046875
1791110016626589700,10.917589599609375,0.615020751953125,-1.437744140625,-0.3989715576171875
1791110016636660700,10.92766064453125,-0.52117919921875,-0.569488525390625,-0.128448486328125
1791110016646731500,10.9377314453125,-1.4732666015625,-0.2581787109375,0.2202606201171875
1791110016656802600,10.947802490234375,-0.8938446044921875,-0.973052978515625,0.24151611328125
1791110016666873600,10.95787353515625,0.187469482421875,-1.54718017578125,-0.108612060546875
1791110016676944000,10.96794384765625,0.409454345703125,-1.1123504638671875,-0.319854736328125
1791110016687015000,10.978014892578125,-0.3292083740234375,-0.4846954345703125,-0.1591949462890625
1791110016697085700,10.988085693359375,-0.9699249267578125,-0.4649658203125,0.17510986328125
1791110016707156700,10.99815673828125,-0.6048431396484375,-1.045013427734375,0.1056976318359375
1791110016717227800,11.008227783203125,-0.6535186767578125,-1.4094390869140625,-0.2121734619140625
1791110016727298800,11.018298828125,-1.8818817138671875,-1.05889892578125,-0.08038330078125
1791110016737368800,11.028368896484375,-1.6344146728515625,-0.87872314453125,0.0983428955078125
1791110016747439600,11.038439697265625,-0.3296661376953125,-0.9568328857421875,-0.066162109375
1791110016757510700,11.0485107421875,1.0872344970703125,-0.995208740234375,-0.36968994140625
1791110016767581700,11.058581787109375,0.970947265625,-0.55584716796875,-0.284332275390625
1791110016777652700,11.06865283203125,-0.6566314697265625,-0.0893707275390625,0.115936279296875
1791110016787723800,11.078723876953125,-1.2831573486328125,-0.533111572265625,0.245513916015625
1791110016797793500,11.08879345703125,-0.56781005859375,-1.338165283203125,0.041748046875
1791110016807864600,11.098864501953125,0.392608642578125,-1.4911956787109375,-0.3549346923828125
1791110016817935600,11.108935546875,0.1038970947265625,-0.8583831787109375,-0.2404632568359375
1791110016828006700,11.119006591796875,-0.775970458984375,-0.24127197265625,0.005401611328125
1791110016838077700,11.12907763671875,-1.18377685546875,-0.484466552734375,0.125244140625
1791110016848148700,11.139148681640625,-0.758880615234375,-1.0416259765625,0.048858642578125
1791110016858218800,11.14921875,0.157440185546875,-1.2747955322265625,-0.21875
1791110016868289800,11.159289794921875,-0.257354736328125,-0.8816680908203125,-0.216949462890625
1791110016878360800,11.16936083984375,-0.9280548095703125,-0.6996917724609375,0.0755462646484375
1791110016888431900,11.179431884765625,-0.58984375,-0.975799560546875,0.0989990234375
1791110016898503000,11.1895029296875,0.191802978515625,-1.3853607177734375,-0.1118927001953125
1791110016908573700,11.19957373046875,0.14996337890625,-1.0692901611328125,-0.108795166015625
1791110016918644700,11.209644775390625,-0.6537933349609375,-0.6049652099609375,0.0911712646484375
1791110016928714800,11.21971484375,-1.15667724609375,-0.6438446044921875,0.244842529296875
1791110016938785800,11.229785888671875,-0.8429412841796875,-1.1049652099609375,0.117767333984375
1791110016948856800,11.23985693359375,-0.194488525390625,-1.4690093994140625,-0.08612060546875
1791110016958927600,11.249927734375,-0.3902587890625,-1.0891876220703125,-0.0377197265625
1791110016968998700,11.25999853515625,-0.6320953369140625,-0.66131591796875,0.0046844482421875
1791110016979069700,11.270069580078125,0.094696044921875,-0.908050537109375,-0.0921173095703125
1791110016989139700,11.2801396484375,0.7087860107421875,-1.3141326904296875,-0.162353515625
1791110016999210800,11.290210693359375,0.3011322021484375,-0.87969970703125,0.0040283203125
1791110017009281500,11.300281494140625,-0.769317626953125,-0.524658203125,0.2859039306640625
1791110017019352600,11.3103525390625,-1.3735809326171875,-0.6898956298828125,0.3287353515625
1791110017029423600,11.320423583984375,-0.9196624755859375,-1.0836029052734375,0.0002899169921875
1791110017039494700,11.33049462890625,-0.3437042236328125,-1.15960693359375,-0.2359161376953125
1791110017049564700,11.340564697265625,0.1244659423828125,-0.8023681640625,-0.316375732421875
1791110017059635700,11.3506357421875,0.1453857421875,-0.241912841796875,-0.2131805419921875
1791110017069706800,11.360706787109375,-0.5309600830078125,-0.2534027099609375,-0.041168212890625
1791110017079777800,11.37077783203125,-1.0454559326171875,-0.539764404296875,0.05255126953125
1791110017089848800,11.380848876953126,-0.8759765625,-0.983795166015625,-0.023834228515625
1791110017099920000,11.390919921875,-0.23492431640625,-1.0691070556640625,-0.11016845703125
1791110017109989600,11.40098974609375,-0.237823486328125,-0.884002685546875,-0.18658447265625
1791110017120060700,11.411060791015625,-0.8026885986328125,-0.6861419677734375,-0.089599609375
1791110017130131200,11.421131103515625,-1.2001190185546875,-0.794403076171875,-0.027618408203125
1791110017140202200,11.4312021484375,-0.8567352294921875,-1.15057373046875,-0.0843658447265625
1791110017150273300,11.441273193359375,-0.3834686279296875,-1.2754669189453125,-0.1834564208984375
1791110017160344300,11.45134423828125,-0.6503753662109375,-0.8811187744140625,-0.1575927734375
1791110017170415400,11.461415283203126,-0.7961578369140625,-0.6674957275390625,-0.0921630859375
1791110017180485400,11.4714853515625,-0.502349853515625,-0.76190185546875,-0.04010009765625
1791110017190556200,11.48155615234375,-0.0684661865234375,-0.9178924560546875,-0.0841064453125
1791110017200627200,11.491627197265625,0.14874267578125,-0.880218505859375,-0.077728271484375
1791110017210698200,11.5016982421875,-0.09814453125,-0.92987060546875,-0.1757354736328125
1791110017220769300,11.511769287109376,-0.500091552734375,-0.93377685546875,-0.178619384765625
1791110017230840300,11.52184033203125,-1.0651702880859375,-0.9384613037109375,-0.043853759765625
1791110017240910300,11.531910400390625,-0.497039794921875,-1.2536468505859375,-0.05517578125
1791110017250981400,11.5419814453125,-0.35760498046875,-1.20159912109375,-0.1356658935546875
1791110017261052400,11.552052490234376,-0.9418792724609375,-0.7307281494140625,-0.0723114013671875
1791110017271123500,11.56212353515625,-0.821197509765625,-0.7041168212890625,0.0563507080078125
1791110017281194500,11.572194580078126,0.1047515869140625,-0.9508209228515625,-0.109130859375
1791110017291265300,11.582265380859376,0.5608673095703125,-1.0271453857421875,-0.199310302734375
1791110017301335300,11.592335205078125,0.158050537109375,-0.7931365966796875,-0.102752685546875
1791110017311406300,11.60240625,-0.3401336669921875,-0.690093994140625,-0.0054473876953125
1791110017321477400,11.612477294921876,-1.189788818359375,-0.5243682861328125,0.1150970458984375
1791110017331548400,11.62254833984375,-1.344879150390625,-0.68914794921875,0.0667877197265625
1791110017341619200,11.632619140625,-0.450469970703125,-0.850799560546875,-0.1834564208984375
1791110017351690200,11.642690185546876,0.2862701416015625,-1.0000762939453125,-0.15264892578125
1791110017361760300,11.65276025390625,0.082183837890625,-0.8785400390625,-0.051971435546875
1791110017371831300,11.662831298828126,-0.5616912841796875,-0.85357666015625,0.141937255859375
1791110017381902300,11.67290234375,-0.887481689453125,-0.76251220703125,0.0962982177734375
1791110017391973400,11.682973388671876,-0.05072021484375,-0.9207916259765625,-0.112548828125
1791110017402044400,11.69304443359375,-0.0275115966796875,-0.793243408203125,0.0308685302734375
1791110017412115500,11.703115478515626,0.3338165283203125,-1.0455474853515625,0.0556793212890625
1791110017422185500,11.713185546875,-0.3292999267578125,-1.2259979248046875,-0.0108795166015625
1791110017432256300,11.72325634765625,-1.172271728515625,-1.0107421875,-0.0060272216796875
1791110017442327300,11.733327392578126,-1.1472625732421875,-1.0423736572265625,-0.0540008544921875
1791110017452398300,11.7433984375,-0.3661651611328125,-1.0582275390625,-0.07293701171875
1791110017462469400,11.753469482421876,-0.334564208984375,-0.9183349609375,0.0093994140625
1791110017472540400,11.76354052734375,-0.677886962890625,-0.913726806640625,0.04150390625
1791110017482610200,11.773610107421876,-0.175018310546875,-1.193328857421875,0.0147552490234375
1791110017492681200,11.78368115234375,0.0091094970703125,-1.1033782958984375,0.006744384765625
1791110017502752300,11.793752197265626,-0.5853118896484375,-0.7753143310546875,0.1023101806640625
1791110017512823300,11.8038232421875,-0.716949462890625,-0.967529296875,0.0802459716796875
1791110017522894300,11.813894287109376,-0.1407928466796875,-1.1345062255859375,-0.1263427734375
1791110017532965400,11.82396533203125,0.618804931640625,-1.1428375244140625,-0.2127532958984375
1791110017543036200,11.8340361328125,-0.014617919921875,-0.7430267333984375,0.0389862060546875
1791110017553106400,11.8441064453125,-1.2586212158203125,-0.4489898681640625,-0.0378570556640625
1791110017563177500,11.854177490234376,-2.0851593017578125,-0.654541015625,-0.2100982666015625
1791110017573248500,11.86424853515625,-0.8078765869140625,-1.2988739013671875,-0.1646728515625
1791110017583319600,11.874319580078126,0.073577880859375,-1.113311767578125,-0.0692901611328125
1791110017593390300,11.884390380859376,0.159393310546875,-0.53790283203125,-0.1009368896484375
1791110017603461400,11.89446142578125,0.1085968017578125,-0.6171112060546875,0.0643157958984375
1791110017613531400,11.904531494140626,-1.056976318359375,-0.796722412109375,0.2193145751953125
1791110017623602400,11.9146025390625,-1.5517730712890625,-1.029449462890625,-0.1092529296875
1791110017633673500,11.924673583984376,-1.103546142578125,-1.011383056640625,-0.172454833984375
1791110017643744300,11.934744140625,-0.370513916015625,-0.74346923828125,-0.1618194580078125
1791110017653815300,11.944815185546876,0.0503997802734375,-0.5970916748046875,-0.10137939453125
1791110017663886300,11.95488623046875,0.276611328125,-0.6316375732421875,-0.00067138671875
1791110017673956400,11.964956298828126,0.4472808837890625,-0.7729339599609375,0.04718017578125
1791110017684027400,11.97502734375,-0.8639678955078125,-0.744354248046875,0.3218231201171875
1791110017694098200,11.98509814453125,-2.0765533447265625,-0.6991729736328125,0.1826934814453125
1791110017704169200,11.995169189453126,-1.3430023193359375,-1.0501708984375,-0.134002685546875
1791110017714240300,12.005240234375,0.78955078125,-1.4114990234375,-0.3200225830078125
1791110017724311300,12.015311279296874,1.36724853515625,-1.2367401123046875,-0.0797119140625
1791110017734381300,12.02538134765625,-0.2877044677734375,-0.495147705078125,0.352020263671875
1791110017744452400,12.035452392578126,-1.4057769775390625,-0.610260009765625,0.1855926513671875
1791110017754523400,12.0455234375,-1.474151611328125,-1.1317901611328125,0.113037109375
1791110017764594400,12.055594482421874,-0.9178466796875,-1.361083984375,-0.0529937744140625
1791110017774665500,12.06566552734375,0.0727691650390625,-1.2284698486328125,-0.1496429443359375
1791110017784736500,12.075736572265624,0.6643524169921875,-0.8380279541015625,-0.026153564453125
1791110017794806300,12.08580615234375,0.7439422607421875,-0.8053741455078125,0.001708984375
1791110017804877300,12.095877197265626,-0.4177093505859375,-0.71490478515625,-0.0512542724609375
1791110017814948400,12.1059482421875,-1.869354248046875,-0.735809326171875,-0.25372314453125
1791110017825019400,12.116019287109374,-0.9471282958984375,-1.1856536865234375,-0.226715087890625
1791110017835090400,12.12609033203125,1.2533721923828125,-1.47637939453125,0.039947509765625
1791110017845161500,12.136161376953124,0.2569732666015625,-0.7959747314453125,0.2963409423828125
1791110017855231200,12.146231201171876,-1.801788330078125,-0.470672607421875,0.086669921875
1791110017865302300,12.15630224609375,-1.5693206787109375,-0.9363555908203125,-0.1699066162109375
1791110017875373300,12.166373291015624,-0.156585693359375,-1.11578369140625,-0.028289794921875
1791110017885444400,12.1764443359375,0.8316802978515625,-1.0277099609375,0.21343994140625
1791110017895515400,12.186515380859374,0.441650390625,-0.7459716796875,0.41253662109375
1791110017905586200,12.196586181640624,-0.7115936279296875,-0.4330291748046875,0.257843017578125
1791110017915656400,12.206656494140624,-1.75433349609375,-0.4227142333984375,0.17236328125
1791110017925727500,12.2167275390625,-1.3585357666015625,-1.0185089111328125,-0.180572509765625
1791110017935798500,12.226798583984374,-0.22601318359375,-1.5119476318359375,-0.0731353759765625
1791110017945869600,12.23686962890625,0.2773284912109375,-1.38641357421875,0.033843994140625
1791110017955940400,12.2469404296875,-0.5954132080078125,-0.660888671875,-0.107391357421875
1791110017966011400,12.257011474609374,-1.702423095703125,-0.31353759765625,-0.3180694580078125
1791110017976081400,12.267081298828124,-0.7148284912109375,-1.0158233642578125,-0.2520904541015625
1791110017986152400,12.27715234375,0.9228363037109375,-1.4167022705078125,-0.0140228271484375
1791110017996223500,12.287223388671874,0.67181396484375,-0.66802978515625,-0.1588134765625
1791110018006294300,12.297294189453124,-1.1900787353515625,-0.3885955810546875,-0.146209716796875
1791110018016365300,12.307365234375,-2.0979156494140625,-0.940765380859375,-0.1694488525390625
1791110018026436400,12.317436279296874,-1.23004150390625,-1.5873260498046875,-0.2388916015625
1791110018036506400,12.32750634765625,0.2742462158203125,-1.7543182373046875,-0.1508636474609375
1791110018046577400,12.337577392578124,0.8166351318359375,-1.099517822265625,0.10888671875
1791110018056648200,12.347648193359374,-0.0436248779296875,-0.2562255859375,-0.0259552001953125
1791110018066719200,12.35771923828125,-0.8366546630859375,-0.168212890625,-0.34307861328125
1791110018076790300,12.367790283203124,-0.171173095703125,-0.818359375,-0.30291748046875
1791110018086861300,12.377861328125,0.1680908203125,-0.9784393310546875,0.1373291015625
1791110018096932400,12.387932373046874,-0.6285247802734375,-0.998260498046875,0.1424560546875
1791110018107002400,12.39800244140625,-1.554290771484375,-1.0149078369140625,-0.233123779296875
1791110018117073400,12.408073486328124,-1.3020477294921875,-1.1737060546875,-0.521636962890625
1791110018127144200,12.418144287109374,-0.2045440673828125,-1.2041778564453125,-0.2729949951171875
1791110018137215200,12.42821533203125,0.5352020263671875,-0.8966064453125,0.1019134521484375
1791110018147286300,12.438286376953124,0.291351318359375,-0.3421630859375,0.085662841796875
1791110018157357300,12.448357421875,-0.6628570556640625,-0.085784912109375,-0.2614898681640625
1791110018167427300,12.45842724609375,-0.9248809814453125,-0.6486053466796875,-0.45867919921875
1791110018177498000,12.468498046875,-0.4049835205078125,-1.222320556640625,-0.2609100341796875
1791110018187569200,12.478569091796874,-0.25115966796875,-1.1753692626953125,-0.0472869873046875
1791110018197640200,12.48864013671875,-0.473236083984375,-0.8752593994140625,-0.01812744140625
1791110018207711200,12.498711181640624,-0.6072235107421875,-0.895111083984375,-0.1893463134765625
1791110018217782300,12.5087822265625,-0.5572509765625,-0.9738922119140625,0.009613037109375
1791110018227852000,12.51885205078125,-0.465850830078125,-0.9953155517578125,0.1649932861328125
1791110018237923000,12.528923095703124,-0.4834747314453125,-0.7736358642578125,0.324188232421875
1791110018247994000,12.538994140625,-0.949493408203125,-0.500701904296875,0.1533355712890625
1791110018258065200,12.549065185546874,-0.430999755859375,-0.843109130859375,-0.074310302734375
1791110018268136200,12.55913623046875,0.7544708251953125,-1.278564453125,0.0486297607421875
1791110018278207200,12.569207275390625,0.8309173583984375,-1.100250244140625,0.1681976318359375
1791110018288277200,12.57927734375,-0.7462005615234375,-0.7314453125,0.14898681640625
1791110018298348300,12.589348388671874,-1.5973052978515625,-0.6835174560546875,0.0055999755859375
1791110018308419300,12.59941943359375,-1.205322265625,-0.99407958984375,-0.1324615478515625
1791110018318490400,12.609490478515625,-0.5599822998046875,-1.311187744140625,-0.103546142578125
1791110018328561400,12.6195615234375,0.00341796875,-1.0433197021484375,0.0267486572265625
1791110018338631200,12.629631103515624,-0.3771820068359375,-0.494659423828125,0.0800323486328125
1791110018348702200,12.6397021484375,-0.912811279296875,-0.5629119873046875,-0.1070556640625
1791110018358773200,12.649773193359374,-1.0404052734375,-1.108154296875,-0.1699066162109375
1791110018368844300,12.65984423828125,-0.411895751953125,-1.3819580078125,-0.0289459228515625
1791110018378915300,12.669915283203125,0.530426025390625,-1.3097991943359375,-0.052581787109375
1791110018388986000,12.679986083984375,0.0471649169921875,-0.74871826171875,-0.094268798828125
1791110018399056100,12.69005615234375,-0.61187744140625,-0.3231201171875,-0.3763275146484375
1791110018409127200,12.700127197265624,-1.043121337890625,-0.50201416015625,-0.2320098876953125
1791110018419198200,12.7101982421875,-0.715728759765625,-0.9618072509765625,-0.0964202880859375
1791110018429269200,12.720269287109375,-0.3289642333984375,-1.123748779296875,0.016357421875
1791110018439340000,12.730340087890625,-0.4267425537109375,-0.8979949951171875,0.177154541015625
1791110018449411000,12.7404111328125,0.131805419921875,-0.694061279296875,0.1288909912109375
1791110018459482000,12.750482177734375,0.2149505615234375,-0.67474365234375,0.1203460693359375
1791110018469552400,12.760552490234375,-0.853790283203125,-0.775665283203125,0.084808349609375
1791110018479623400,12.77062353515625,-1.56524658203125,-0.9842529296875,0.0980987548828125
1791110018489694200,12.780694091796875,-1.086669921875,-1.1692047119140625,0.1555023193359375
1791110018499765200,12.79076513671875,-0.2128753662109375,-1.21099853515625,-0.01019287109375
1791110018509836300,12.800836181640625,0.3560638427734375,-0.9339752197265625,0.1100616455078125
1791110018519907300,12.8109072265625,0.6678619384765625,-0.380523681640625,0.0144805908203125
1791110018529977300,12.820977294921875,-0.073822021484375,-0.2874755859375,-0.0102081298828125
1791110018540048100,12.831048095703125,-1.246673583984375,-0.6528167724609375,0.1630401611328125
1791110018550119200,12.841119140625,-1.7300567626953125,-1.151824951171875,0.017303466796875
1791110018560190200,12.851190185546875,-1.02947998046875,-1.29998779296875,-0.156951904296875
1791110018570261200,12.86126123046875,0.173797607421875,-1.162750244140625,-0.0619964599609375
1791110018580331300,12.871331298828125,0.735137939453125,-0.9645843505859375,0.2188262939453125
1791110018590402000,12.881402099609375,-0.0262908935546875,-0.8431396484375,0.17938232421875
1791110018600473000,12.89147314453125,-1.3779144287109375,-0.7737579345703125,0.0074005126953125
1791110018610544000,12.901544189453125,-0.8068695068359375,-1.15216064453125,-0.1345977783203125
1791110018620615200,12.911615234375,0.1903228759765625,-1.3484954833984375,0.1827850341796875
1791110018630686200,12.921686279296875,-0.113189697265625,-0.9357452392578125,0.3934326171875
1791110018640756200,12.931756103515625,-0.9693450927734375,-0.6308441162109375,0.27587890625
1791110018650827300,12.9418271484375,-1.106353759765625,-0.8466033935546875,-0.0321502685546875
1791110018660898300,12.951898193359375,-0.4354248046875,-1.1822052001953125,-0.0550079345703125
1791110018670969300,12.96196923828125,0.0780487060546875,-1.1613922119140625,0.0820465087890625
