time,seconds_elapsed,z,y,x,vertical,horizontal
1789141117388456700,1.540456787109375,-5.647085265484452,-8.012171890315413,-0.2931053963107988,9.80486246391063,0.18722508580564487
1789141117398428700,1.5504287109375,-5.64837588981688,-8.010624660873413,-0.3100277434086427,9.805163395668,0.17072093015613343
1789141117408401700,1.560401611328125,-5.650529268458485,-8.008395878908038,-0.3278653421878814,9.805446407216444,0.15362943998901202
1789141117418374000,1.570373779296875,-5.650742034426331,-8.007575210174918,-0.3438676518313586,9.805678478011922,0.13806097953566512
1789141117428345600,1.580345703125,-5.651904648464918,-8.005993493941427,-0.3611552155124023,9.805895626854142,0.12166357427945464
1789141117438318800,1.59031884765625,-5.653329712831973,-8.004089706146717,-0.3805251384254545,9.806101552795043,0.10373323130522288
1789141117448290800,1.600290771484375,-5.653875071755051,-8.002744721278548,-0.400219251791574,9.806275801960366,0.08577147752032625
1789141117458263600,1.610263671875,-5.651828660619259,-8.003135766422748,-0.4207486834706738,9.806424228683053,0.06650268064242168
1789141117468235800,1.62023583984375,-5.652051363459229,-8.001895995494722,-0.4408506469853222,9.806519397956015,0.05050473597194589
1789141117478207700,1.630207763671875,-5.651350521713495,-8.001421363720297,-0.458123341890797,9.806572545549605,0.03896747783604049
1789141117488180700,1.6401806640625,-5.648824802628159,-8.002289378726482,-0.4738327695349231,9.806600864622338,0.030885710924115593
1789141117498152700,1.650152587890625,-5.646428847402334,-8.003087835627793,-0.4886700539870187,9.806604140300799,0.029787424355129544
1789141117508125700,1.660125732421875,-5.647351222944259,-8.001404997107386,-0.5053047067172826,9.806568952969378,0.03994972231197159
1789141117518097700,1.67009765625,-5.648153771498799,-7.999734433546662,-0.5224878236431628,9.806501861728503,0.053914706148101364
1789141117528069600,1.680069580078125,-5.649162071758508,-7.997927091863751,-0.5389981924066319,9.806408066193441,0.06891857860438333
1789141117538043000,1.69004296875,-5.651112621304392,-7.995480283233523,-0.5546217683982104,9.80628838449168,0.084215464176979
1789141117548014600,1.7000146484375,-5.653274767774343,-7.992834152638911,-0.5705041414564475,9.806139678663225,0.10006482654103649
1789141117557986800,1.70998681640625,-5.653956320297718,-7.9911647581219665,-0.5869038529196754,9.805965913426222,0.11586587323281412
1789141117567959800,1.719959716796875,-5.653143834871053,-7.990464500898122,-0.6040099956192075,9.805762395938341,0.1319472131693303
1789141117577931500,1.729931640625,-5.649996769016981,-7.99132667068541,-0.6217871329154819,9.80553055457062,0.14817297173084976
1789141117587904800,1.73990478515625,-5.647269974401593,-7.99186852247715,-0.639348654699698,9.80526724909983,0.16468612672436048
1789141117597876700,1.749876708984375,-5.646123142454028,-7.991217949613929,-0.6573580663818865,9.804956721668622,0.18224755589421343
1789141117607848700,1.7598486328125,-5.646370979735255,-7.990009158346057,-0.6698093324802815,9.804718156929376,0.19467407713259066
1789141117617821700,1.76982177734375,-5.64541002574861,-7.989958889463543,-0.6784487852055578,9.80454772687529,0.20306166480136253
1789141117627793700,1.779793701171875,-5.646270441970229,-7.988446731334924,-0.6890105112303048,9.804320126020889,0.21376022625806057
1789141117637765600,1.789765625,-5.646610049188137,-7.987330294525623,-0.6990970209587365,9.804094273476204,0.22388033174821972
1789141117647738600,1.799738525390625,-5.645163942033052,-7.987395760977268,-0.7099477930579334,9.8038482211391,0.23442035031818254
1789141117657710800,1.8097109375,-5.645129455241561,-7.986453511691093,-0.7207444238170981,9.803584951782828,0.24519559229240837
1789141117667683600,1.81968359375,-5.6466655787676565,-7.984782948130369,-0.7271874624766409,9.803414242839871,0.2519160099330084
1789141117677655800,1.82965576171875,-5.648540724989772,-7.98330644583702,-0.7288236853763461,9.803361996332619,0.25391270790921516
1789141117687627800,1.839627685546875,-5.652567496287823,-7.980541657298803,-0.7278925420060753,9.803364766668082,0.25383311117743546
1789141117697600500,1.8496005859375,-5.654914936196803,-7.97911133223474,-0.7253312401507049,9.803416216135902,0.2518263071260066
1789141117707572700,1.85957275390625,-5.6532630773365495,-7.980405463698506,-0.7239676967125386,9.803460682469609,0.2500853049690263
1789141117717545700,1.869545654296875,-5.648769857570529,-7.983553114074468,-0.7243295888274908,9.803475727529804,0.24947593477228538
1789141117727517700,1.879517578125,-5.644511615604162,-7.986691996622085,-0.72291811459437,9.803531783515723,0.24725613764529267
1789141117737489700,1.88948974609375,-5.638979700440168,-7.990862560304999,-0.7200022271476686,9.803627678851075,0.24344211061996665
1789141117747462700,1.899462646484375,-5.633783885362744,-7.994942523095011,-0.7153719369985163,9.803758532276856,0.23812279105435877
1789141117757434600,1.9094345703125,-5.629685802394151,-7.998521550625562,-0.7075808447308838,9.803954941294448,0.22988560285079843
1789141117767406600,1.919406494140625,-5.62884876704812,-7.999817435654998,-0.6995464452266693,9.804142463116479,0.221750395838316
1789141117777379800,1.9293798828125,-5.631462748938799,-7.998578249248862,-0.692648210145533,9.804291358126292,0.21507954349551459
1789141117787351600,1.9393515625,-5.632558142960071,-7.998424519991874,-0.6854868671488017,9.804444216258895,0.20801896820727336
1789141117797324500,1.949324462890625,-5.635064572823048,-7.997152600359916,-0.6796962279833852,9.80455873496803,0.2025275986766433
1789141117807296800,1.959296875,-5.638897282853722,-7.994941354051232,-0.6738983553595841,9.80466531405449,0.19729899651732882
1789141117817268700,1.969268798828125,-5.638776871344446,-7.995699478942155,-0.6658657824862748,9.80482411480735,0.18925136814110394
1789141117827241700,1.97924169921875,-5.638813696223497,-7.9963143959701055,-0.6581172872513532,9.804969840568843,0.18151751769719154
1789141117837213700,1.989213623046875,-5.641627584600449,-7.994955967098474,-0.6504636306930333,9.805098983665442,0.17441208256726104
1789141117847185700,1.999185546875,-5.642277572941779,-7.9950307859003535,-0.6438790646709501,9.805211475717268,0.16799298794923928
1789141117857158700,2.00915869140625,-5.641852041006088,-7.995736888343095,-0.6388149862144142,9.805297670794227,0.1628650175591146
1789141117867131000,2.019130859375,-5.640478999087214,-7.997077197036146,-0.6341373497921973,9.80537800766178,0.157921941995247
1789141117877103900,2.029103759765625,-5.639376006281376,-7.998070884248614,-0.6314188846137374,9.805425389279065,0.15499146046103304
1789141117887075600,2.03907568359375,-5.638779793953895,-7.998709182152152,-0.6286578954678028,9.805470685905865,0.15212337993432837
1789141117897047800,2.0490478515625,-5.639361977756023,-7.998615074127912,-0.6246114696212113,9.805530054019112,0.148210890075281
1789141117907020800,2.059020751953125,-5.642309137123823,-7.996979581880569,-0.6189127465229481,9.805604480780486,0.1432081917766086
1789141117916992800,2.06899267578125,-5.64397443998754,-7.996552880901098,-0.609167122654058,9.80573477451974,0.13399840065183652
1789141117926965800,2.0789658203125,-5.646090993750095,-7.995755593043565,-0.5999489932579919,9.805846537360544,0.12555275241466912
1789141117936937700,2.088937744140625,-5.647210353168845,-7.995497234368324,-0.5928146478660404,9.805928893271956,0.1189476546539321
1789141117946909700,2.09890966796875,-5.646593682575226,-7.996224964120984,-0.5888606495432556,9.805977354240746,0.11488640314776281
1789141117956882700,2.108882568359375,-5.643292887464165,-7.998908504116534,-0.5840301606468856,9.806043196980117,0.10908674730065203
1789141117966855000,2.11885498046875,-5.642233733800054,-8.000064688414335,-0.5784003015337511,9.806106480155762,0.10324308357830311
1789141117976826600,2.12882666015625,-5.642826438996195,-8.000359287446736,-0.5684566708747297,9.806201874857694,0.0937375328732396
1789141117986799600,2.138799560546875,-5.643502730822563,-8.00078423486054,-0.5556097565222531,9.806310070300356,0.08158708392410173
1789141117996771800,2.148771728515625,-5.646556273174285,-7.999498871225118,-0.5429467108367011,9.806391854965272,0.07106232852204408
1789141118006744600,2.15874462890625,-5.651522955670952,-7.996659263885021,-0.5330268263794481,9.80643364328652,0.06517590515120213
1789141118016716800,2.168716796875,-5.65354130975604,-7.995680774241685,-0.5262594146037474,9.806460545859927,0.060999333175463626
1789141118026688800,2.178688720703125,-5.653861043229699,-7.995770790612697,-0.5214351362524554,9.80648200876898,0.057449501081888156
1789141118036661500,2.18866162109375,-5.651925106731057,-7.997395176944136,-0.5174979794666171,9.80650800623529,0.05283853424693199
1789141118046633700,2.1986337890625,-5.647938082921504,-8.00057614506781,-0.5118210663413628,9.806545787475358,0.04520800419457201
1789141118056605700,2.208605712890625,-5.6434360953271385,-8.004169201123714,-0.5052629134021699,9.80658223251806,0.03648411681018342
1789141118066578700,2.21857861328125,-5.639664760094881,-8.007247877916694,-0.4985622101871296,9.806610073634927,0.028290029447038807
1789141118076550700,2.228550537109375,-5.634971049320697,-8.010919844427704,-0.4925954472698271,9.806629973384634,0.019857500171258896
1789141118086523600,2.238523681640625,-5.6337160808235405,-8.012117529779673,-0.4874505951946601,9.806638579079387,0.015233266226148996
1789141118096495600,2.24849560546875,-5.634483558064699,-8.011736421507596,-0.4848430065121501,9.806639743518911,0.014667501896586659
1789141118106467800,2.2584677734375,-5.635390151515603,-8.011172942405938,-0.4836155836090445,9.806638922637955,0.015203507749363568
1789141118116440800,2.26844091796875,-5.637869108849763,-8.009480751535296,-0.4827388738397508,9.806633881187773,0.017853246005660472
1789141118126412500,2.27841259765625,-5.640820359870791,-8.007315682455896,-0.4841925797794014,9.806626737442027,0.021754485458384067
1789141118136385800,2.2883857421875,-5.641839181524515,-8.00641551874578,-0.487183030299656,9.806620845512473,0.023952168391026433
1789141118146358300,2.298358154296875,-5.641603619202972,-8.006375186735392,-0.4905518126130104,9.806617229724145,0.025191615901127198
1789141118156330200,2.308330322265625,-5.641043647232651,-8.006667447680234,-0.4922214263256639,9.806616615736802,0.02548592190059216
1789141118166303500,2.318303466796875,-5.640199013102055,-8.007111099794507,-0.4946822269486263,9.806615185831514,0.026118470999833186
1789141118176275200,2.328275146484375,-5.639505770140886,-8.00742264996171,-0.4975266200616955,9.806611269060816,0.02740404662752626
1789141118186247400,2.338247314453125,-5.63763237748444,-8.008685217243432,-0.4984432234499603,9.806614190927071,0.026485653952672963
1789141118196220400,2.348220458984375,-5.635034177684783,-8.010564455118775,-0.4976209107490256,9.806620873068614,0.023805377494734662
1789141118206192000,2.358192138671875,-5.63237460308671,-8.0124559679538,-0.4972831301620229,9.806626050495781,0.021686981714850354
1789141118216165400,2.368165283203125,-5.630977011248469,-8.013362561404705,-0.4984981685075909,9.806625288186456,0.02196640249716641
1789141118226137300,2.378137451171875,-5.628064338672161,-8.01529323720634,-0.5003630855966359,9.80662487840836,0.0224853340863042
1789141118236109300,2.388109375,-5.624442056521773,-8.017762257668375,-0.5015338464090601,9.806623892850025,0.022893032548066402
1789141118246082300,2.398082275390625,-5.622610749441385,-8.01896520371735,-0.5028278682749718,9.806620616756035,0.024135498604889245
1789141118256054500,2.408054443359375,-5.62096005962491,-8.020176917594672,-0.5019620817584917,9.806622653245352,0.02340619138713571
1789141118266026200,2.418026123046875,-5.622640560057759,-8.019088537836074,-0.5005317566944286,9.806626483025356,0.0218382038151945
1789141118275999200,2.427999267578125,-5.623379395726323,-8.018812643504143,-0.4966275888627395,9.80663396925137,0.017921915242783665
1789141118285971500,2.437971435546875,-5.624757698342203,-8.018101280364395,-0.4924945807112381,9.806640878787228,0.013888620169929866
1789141118295944400,2.4479443359375,-5.625364432063699,-8.017852858561277,-0.4895949137469753,9.806644112301154,0.011130557156811162
1789141118305916400,2.45791650390625,-5.624776403042674,-8.018436211407185,-0.4867762030644342,9.806646351227224,0.008202101149777555
1789141118315888400,2.467888427734375,-5.622468710622191,-8.020137754628061,-0.4854130614850669,9.806647912607932,0.0068237481476204976
1789141118325861400,2.477861328125,-5.620815682718157,-8.02137284938097,-0.4841471697350963,9.806648196775448,0.0063995718540473725
1789141118335833300,2.487833251953125,-5.620452694624662,-8.021966139099002,-0.4784929433656856,9.806649193788342,0.004039329870425046
1789141118345805300,2.497805419921875,-5.622147223582863,-8.021276987791062,-0.470060301791504,9.806645717559658,0.008965271669587303
1789141118355778600,2.507778564453125,-5.624706260415912,-8.01990043874085,-0.4628665543625131,9.806636345816955,0.015893122001387223
1789141118365750300,2.517750244140625,-5.628244955936074,-8.017832400295138,-0.4556362012501805,9.806621501459984,0.023595724925905736
1789141118375723300,2.52772314453125,-5.634002496549487,-8.01409730542004,-0.4501556144146248,9.806601221317317,0.030859603259304123
1789141118385695500,2.537695556640625,-5.638571704161167,-8.011154822227358,-0.4452847204426303,9.806577418468187,0.03755351532329061
1789141118395667200,2.547667236328125,-5.640239929634332,-8.010157627883553,-0.4420901256524026,9.806562652358075,0.04128331330820981
1789141118405640400,2.557640380859375,-5.642414351063967,-8.008865249985456,-0.4377427440978586,9.806540501463058,0.046307717415293395
1789141118415612400,2.5676123046875,-5.642345377480983,-8.009071586212515,-0.4348629508778452,9.806529102368339,0.04880350711458509
1789141118425584400,2.57758447265625,-5.642186972048878,-8.009527513286471,-0.4284549835316836,9.806498292871053,0.05449512346366085
1789141118435557400,2.587557373046875,-5.638349001321196,-8.012583978247642,-0.4217747751154005,9.806470757204195,0.05921754970592602
1789141118445529300,2.597529296875,-5.634817904585599,-8.015517109090089,-0.413157095830515,9.806423761648336,0.06662684720413753
1789141118455502300,2.60750244140625,-5.63336302960217,-8.016918792581558,-0.405718652925454,9.806372587567797,0.07369022503975682
1789141118465474300,2.617474365234375,-5.63134818264842,-8.018807382807134,-0.3962858213327825,9.806301111490042,0.0827958921592173
1789141118475446300,2.6274462890625,-5.6281116849452255,-8.021513719156385,-0.3873866582253947,9.806223849298298,0.09146433870847029
1789141118485419300,2.637419189453125,-5.628917740631104,-8.021425456351041,-0.3773717889610677,9.806125019725377,0.1015029418674251
1789141118495391500,2.6473916015625,-5.633441355535387,-8.018660083290934,-0.3685337814563885,9.806026246014124,0.11062300021456195
1789141118505363200,2.65736328125,-5.635562000951171,-8.017699129304289,-0.3568435993909835,9.805885835498012,0.12246930316311591
1789141118515336200,2.667336181640625,-5.639164993879199,-8.015652133646608,-0.3457452457388862,9.805736248420345,0.13393041921965976
1789141118525308400,2.677308349609375,-5.643631910160184,-8.01290721885264,-0.3363318494990467,9.80559360183852,0.14393215029991596
1789141118535281400,2.687281494140625,-5.645002613991498,-8.012360690885782,-0.3261999662589281,9.805438106470866,0.1541697472881749
1789141118545253400,2.69725341796875,-5.644601047453284,-8.012929430684446,-0.3191014228327199,9.805326397003084,0.16111800746057167
1789141118555225300,2.707225341796875,-5.64458935701549,-8.013225783282518,-0.3117888713296503,9.805205068073164,0.16835182361245096
1789141118565198300,2.7171982421875,-5.640360925665497,-8.016529501003026,-0.303261409345176,9.805065638255094,0.1762723010946933
1789141118575170300,2.72717041015625,-5.638066092726588,-8.018591109707952,-0.2911735514653846,9.804845481275285,0.18809512494815353
1789141118585143300,2.737143310546875,-5.637313228532672,-8.019509393596648,-0.2802685832272283,9.804632347192939,0.19891296010163623
1789141118595115500,2.747115478515625,-5.635141729712486,-8.02139038503766,-0.2699413052791729,9.804421159053986,0.20909344158052695
1789141118605087200,2.757087158203125,-5.634654822978377,-8.021975491449236,-0.2626162778870202,9.804262838179245,0.21638684995722443
1789141118615060200,2.767060302734375,-5.634507523462176,-8.022333218845725,-0.2547135419384576,9.804085122451376,0.22427484549522775
1789141118625032400,2.777032470703125,-5.634769973790645,-8.022344909283518,-0.2484863562529906,9.803941197190277,0.2305059051715965
1789141118635004200,2.787004150390625,-5.635198428335785,-8.022141495665908,-0.2453150510068051,9.80386574035919,0.23369108340883468
1789141118644977400,2.796977294921875,-5.6361699037164446,-8.021573340389132,-0.2415239881607703,9.803773154240947,0.23752013776162673
1789141118654949400,2.806949462890625,-5.636585498780012,-8.021439484876394,-0.2361986649521626,9.803642053787295,0.24285754081270644
1789141118664922000,2.816922119140625,-5.638417974904179,-8.020280962491036,-0.2317725190729834,9.803529428806728,0.2473726260857016
1789141118674894300,2.826894287109375,-5.640091461074352,-8.019161603072286,-0.2297654900995083,9.803475748944695,0.24947930929560885
1789141118684866300,2.8368662109375,-5.641175164657831,-8.01846251489222,-0.2275467546041123,9.803417203634957,0.2517677463238261
1789141118694839300,2.84683935546875,-5.640706962624192,-8.018789262628555,-0.2276369901708327,9.80342031866147,0.2516444547243513
1789141118704811300,2.856811279296875,-5.640985195043683,-8.01851979803741,-0.2302414005155675,9.803486651746633,0.24906684596081868
1789141118714783500,2.866783447265625,-5.641227187106013,-8.018269622668624,-0.2330339355772361,9.803557160234877,0.2463001004720233
1789141118724756200,2.876756103515625,-5.640874135884642,-8.018504015946387,-0.2334898078522644,9.803568633898468,0.24581944889226184
1789141118734728400,2.886728515625,-5.6405199156194925,-8.018678203469515,-0.236052205686178,9.803633036050922,0.2432385404443364
1789141118744701400,2.896701416015625,-5.637648744097351,-8.020579068654776,-0.2400369279407896,9.80373552915082,0.239080236754682
1789141118754673200,2.906673095703125,-5.631727537354827,-8.024511147406697,-0.2474768321505747,9.803918689025304,0.23142456932368255
1789141118764645400,2.916645263671875,-5.62646157965064,-8.02793586115837,-0.2560328626424074,9.804117184559153,0.22285231957987253
1789141118774618400,2.926618408203125,-5.622789613139629,-8.030206144177914,-0.2653435291601345,9.804322547829301,0.21363594785697673
1789141118784590300,2.93659033203125,-5.619142196547985,-8.032491624766587,-0.273316937458422,9.804489137183637,0.20585342873317586
1789141118794562300,2.946562255859375,-5.617941588586569,-8.033114140579103,-0.2796128044659272,9.804617055417792,0.19964519872612324
1789141118804535300,2.956535400390625,-5.618033358523249,-8.03284058433473,-0.2855834033081307,9.804737439510838,0.19367057937300594
1789141118814507300,2.96650732421875,-5.617841050821543,-8.032719588303566,-0.2926648312027566,9.80487390279023,0.18660790556001577
1789141118824480300,2.976480224609375,-5.618446030977368,-8.03200237994492,-0.3006350246306508,9.805023399481039,0.1785933596474799
1789141118834452500,2.986452392578125,-5.6179129470139735,-8.032153771114348,-0.3064965736078098,9.80512764146247,0.17277779751931333
1789141118844424200,2.996424072265625,-5.616172825348377,-8.033146289283037,-0.3123361664814874,9.805226473904112,0.16710531273932383
1789141118854397200,3.006397216796875,-5.614182528313994,-8.034416455349326,-0.3154407814333215,9.805275381160586,0.16422796781163312
1789141118864369400,3.016369384765625,-5.61059005677998,-8.036921716168523,-0.3155197284210473,9.8052678285801,0.16464193237019
1789141118874341400,3.02634130859375,-5.610072170385718,-8.037275351911783,-0.3157181736025959,9.805269722283331,0.16452500661516076
1789141118884314400,3.036314453125,-5.6099348077416415,-8.037386995592714,-0.315311346367374,9.805262389463183,0.16495145637694952
1789141118894286300,3.046286376953125,-5.608350168898701,-8.03854610249996,-0.3139765540996566,9.805236387678708,0.16654043733915963
1789141118904259300,3.05625927734375,-5.608085965004563,-8.038672943750024,-0.3154233553744852,9.805259232435965,0.16514891856987476
1789141118914231300,3.066231201171875,-5.609615658789873,-8.037617297217249,-0.3151360628657043,9.805259147792134,0.16517699181071843
1789141118924203500,3.07620361328125,-5.6087160796016455,-8.038295342609286,-0.3138435753697529,9.805234666836313,0.16661030780973926
1789141118934176500,3.086176513671875,-5.608868639814854,-8.038173762056232,-0.3142371047319844,9.805241939602205,0.16619359663980135
1789141118944148200,3.096148193359375,-5.607985427239537,-8.038602801123261,-0.3189843723243102,9.805318054060006,0.16163055054589162
1789141118954121500,3.10612158203125,-5.60522005417943,-8.04035870487988,-0.3232968286959454,9.805378671578975,0.15789206852120563
1789141118964093400,3.116093505859375,-5.60288898088336,-8.041838129782676,-0.3268824320977553,9.805426763479812,0.15486622672058378
1789141118974065400,3.1260654296875,-5.601386759626865,-8.042718419748544,-0.3309474530469626,9.805483616600212,0.15122986328362462
1789141118984038400,3.136038330078125,-5.601006820398569,-8.042842922911047,-0.3343514162715524,9.805533721690745,0.14798306362570612
1789141118994010400,3.14601025390625,-5.603834152778983,-8.040752672633529,-0.3372373835040256,9.805586618564638,0.14443293590503137
1789141119003982300,3.155982421875,-5.6079369119226925,-8.037669904187322,-0.3424687813514843,9.805673763951154,0.13835027265620253
1789141119013955300,3.165955322265625,-5.611806446832418,-8.034674814024568,-0.3493049475144594,9.805777204679835,0.13083700688261893
1789141119023927600,3.175927490234375,-5.614596369811892,-8.0323945941329,-0.3568443665759638,9.805880462424712,0.12288844679061064
1789141119033900300,3.185900390625,-5.61633415338993,-8.0308473646909,-0.3642258916620164,9.805972071520289,0.11528638348926327
1789141119043872300,3.195872314453125,-5.615880564403533,-8.030739812663198,-0.3734839877422898,9.806075951749905,0.10611865976886824
1789141119053844500,3.205844482421875,-5.613578717201948,-8.031908271920681,-0.3828472246974706,9.806168548739324,0.09719513333906225
1789141119063817200,3.215817138671875,-5.612141962397098,-8.03248694859147,-0.3916562983686104,9.806247881523145,0.08877571495232654
1789141119073789400,3.22578955078125,-5.6120455162853,-8.032156693723797,-0.3997360713845118,9.806316926966735,0.08082873277211261
1789141119083761400,3.235761474609375,-5.614651899391412,-8.029890502357482,-0.4085648726694285,9.806389347063332,0.07148888146194274
1789141119093734100,3.245734130859375,-5.6192894960641855,-8.02618112644553,-0.4175965030500665,9.806456292296057,0.0616420451838857
1789141119103706400,3.255706298828125,-5.624644885617494,-8.02184046689272,-0.4287589714469388,9.806522636987667,0.05002590754104606
1789141119113679400,3.265679443359375,-5.630218886357546,-8.017451876544952,-0.4375985498541966,9.806561754479961,0.04169349369810762
1789141119123651300,3.2756513671875,-5.635182646244764,-8.013456084907055,-0.4468077652914449,9.806590187395727,0.03446675021882318
1789141119133623300,3.285623291015625,-5.638616127824783,-8.010427676996589,-0.4576486005185172,9.806611816231241,0.027392200880160353
1789141119143596300,3.29559619140625,-5.640585966593027,-8.008456084662676,-0.4677582353942096,9.806622643996988,0.022999815683089463
1789141119153568000,3.305568115234375,-5.644596955800056,-8.005160550248622,-0.4757160625308751,9.806616263249412,0.02556298507832343
1789141119163540200,3.315540283203125,-5.648529034551978,-8.00199477969408,-0.4822733021546155,9.806602375942237,0.030628198824315833
1789141119173513200,3.32551318359375,-5.652804227653146,-7.998654821616411,-0.4875605583751574,9.806580809111555,0.03691509161297931
1789141119183485000,3.33548486328125,-5.657680309256911,-7.994884070906043,-0.4928083228355273,9.806549609733725,0.04430105944369883
1789141119193458200,3.345458251953125,-5.662116245877742,-7.99119573778212,-0.5016053772753104,9.806506667498931,0.052958815982677036
1789141119203430100,3.35543017578125,-5.660985780543089,-7.991354727736115,-0.511724072240293,9.806482367625529,0.05723191051510002
1789141119213402000,3.365402099609375,-5.661234786868096,-7.990552179181575,-0.5214220210425555,9.806442280824001,0.06382912473434679
1789141119223375000,3.375375,-5.657729993617535,-7.992429078969359,-0.5306170252913609,9.806416166139174,0.06773231907853089
1789141119233347000,3.38534716796875,-5.65316780026853,-7.995254073262214,-0.5366599587174132,9.806405126957895,0.06939936075695566
1789141119243319000,3.395319091796875,-5.648780963486432,-7.998257931253313,-0.5380803469093516,9.806415261070187,0.06787116827527476
1789141119253292000,3.4052919921875,-5.646788328364491,-7.999723327630757,-0.5372067058799788,9.806428276683723,0.06593362642448307
1789141119263264300,3.41526416015625,-5.645331699815392,-8.000842687049508,-0.535851016954705,9.80644215938415,0.06389202515663797
1789141119273237000,3.425237060546875,-5.647700182512402,-7.999000274053215,-0.5383977057628333,9.806418035966924,0.0675287293475966
1789141119283209000,3.435208984375,-5.650905116033554,-7.996368171983957,-0.5438307271296158,9.806368698547555,0.07427907006234373
1789141119293181200,3.44518115234375,-5.653764012596011,-7.993785754275321,-0.5520308020569383,9.806296631039496,0.08332218110366428
1789141119303154000,3.45515380859375,-5.655975258904695,-7.991653418421745,-0.560192773463577,9.806219366270813,0.09196832895113498
1789141119313126100,3.465126220703125,-5.656287978115677,-7.990862560304999,-0.5682532572571188,9.806145440890585,0.09950630906725781
1789141119323098000,3.47509814453125,-5.657181127563119,-7.989877056398988,-0.5732035731408744,9.806093365715586,0.10454150160344318
1789141119333071000,3.485071044921875,-5.657520150259137,-7.989471398207545,-0.5754948624158278,9.806067898362302,0.10683717864085618
1789141119343043000,3.49504296875,-5.656666163778305,-7.9898975146651265,-0.57797012995556,9.806047471222922,0.10870531969380971
1789141119353016000,3.50501611328125,-5.6539393691629165,-7.991428962016105,-0.5834527626177296,9.806003781189617,0.11257981444903305
1789141119362988000,3.514988037109375,-5.652195155844092,-7.9922636592745775,-0.5888861493106932,9.805951375420754,0.11701708782165754
1789141119372960000,3.5249599609375,-5.650397166511416,-7.993360806861519,-0.5912467044295743,9.805932751054003,0.11857771837645771
1789141119382933200,3.534933349609375,-5.648185335680842,-7.994854260289668,-0.5921887345200404,9.80593164562495,0.11867724337707773
1789141119392905000,3.544905029296875,-5.647895412823558,-7.995083977392316,-0.5918535112163051,9.805936878281853,0.11824938748141069
1789141119402877200,3.554877197265625,-5.647794290536642,-7.995176916372776,-0.5915646843375638,9.805940792094276,0.1179331590999222
1789141119412850200,3.56485009765625,-5.648294056752324,-7.994744954696297,-0.5926272355351597,9.805926011813527,0.11914165234042304
1789141119422822000,3.57482177734375,-5.644819658640027,-7.997091225561499,-0.5940767402237281,9.805923057940092,0.11940353242399548
1789141119432795100,3.584795166015625,-5.639394710981845,-8.000791833645104,-0.5957654239630327,9.8059207569307,0.11957098627053772
1789141119442767000,3.59476708984375,-5.635144067800045,-8.00371210500598,-0.5967541792720555,9.805919566951856,0.11963745914499704
1789141119452739000,3.604739013671875,-5.630231161317229,-8.007351922813058,-0.5943025848688558,9.805959074763287,0.11640417559042744
1789141119462712000,3.614712158203125,-5.622943342396616,-8.012693283841013,-0.591306910184212,9.806001579683384,0.11279350154991978
1789141119472684000,3.62468408203125,-5.617246007537841,-8.016848065432905,-0.5891331098090857,9.806025933048744,0.11062926775484398
1789141119482656000,3.634656005859375,-5.615449187248945,-8.018266700059176,-0.5869498109532519,9.806049067309782,0.10854592550492846
1789141119492629000,3.64462890625,-5.616426507848501,-8.01786513352096,-0.5830818104134872,9.806092309617103,0.10462327799190145
1789141119502601200,3.654601318359375,-5.616119633856416,-8.018190127691627,-0.5815619804350659,9.806107908087018,0.1031246703741964
1789141119512574200,3.66457421875,-5.617474555596709,-8.01745421463251,-0.5786211412101984,9.806139531028848,0.10011188517738721
1789141119522546200,3.674546142578125,-5.619387111219764,-8.016425456106662,-0.5742752209603786,9.806182862767168,0.09569895735219773
1789141119532518100,3.68451806640625,-5.62025103457272,-8.016415519234538,-0.565901506499201,9.806261387030354,0.08730173500963315
1789141119542491100,3.6944912109375,-5.620135883760452,-8.01698776616454,-0.5589086154045537,9.806321951951336,0.08030448190820762
1789141119552463000,3.704463134765625,-5.620069832786918,-8.017460644373298,-0.5527479373503476,9.806370038378827,0.07414217495715718
1789141119562435000,3.71443505859375,-5.618282364848255,-8.019222393348812,-0.5453190659912303,9.806423054771802,0.0668152656626585
1789141119572408300,3.724408203125,-5.61896391737163,-8.019210118389129,-0.538421159703657,9.806467128274809,0.05988518081443449
1789141119582380000,3.734380126953125,-5.619025292170048,-8.019641495543718,-0.5313080397628247,9.806507854961858,0.052790858880661366
1789141119592353000,3.74435302734375,-5.617926975539326,-8.02094439483583,-0.5231954604558646,9.806547461321829,0.044864977708317925
1789141119602325200,3.7543251953125,-5.61723080996871,-8.022053232860564,-0.5135866147091612,9.806585944841387,0.03554378367765914
1789141119612297000,3.764296875,-5.618091226190328,-8.02196906170845,-0.5054090438745915,9.806611325981601,0.02737253301970781
1789141119622270200,3.774270263671875,-5.616929781195521,-8.023377174940705,-0.4958845519430935,9.80663184703495,0.01883517497494087
1789141119632242200,3.7842421875,-5.615985193821787,-8.024683581364155,-0.4853298401810229,9.80664326249706,0.011368998730043335
1789141119642214100,3.794214111328125,-5.617841635343432,-8.024031839457153,-0.4745056272951886,9.806646480881236,0.008484678826531516
1789141119652187100,3.804187255859375,-5.620315916502475,-8.022952227526902,-0.463319156968221,9.806636421233687,0.016130387986930683
1789141119662159000,3.8141591796875,-5.62374004573226,-8.021161836978793,-0.4526429011857137,9.806614713413733,0.026129975675696093
1789141119672132000,3.824132080078125,-5.627195154622197,-8.019314747807384,-0.442313120753318,9.806581318301912,0.036579733828831784
1789141119682104000,3.83410400390625,-5.630400672665238,-8.017463566982746,-0.4350307817254215,9.806550212241541,0.04425492604072367
1789141119692076300,3.844076171875,-5.631424170494079,-8.017113438370824,-0.4281718557413667,9.806515992939147,0.051198535220664323
1789141119702049000,3.854049072265625,-5.631480284595489,-8.017433171844482,-0.4213848259497433,9.806478321957133,0.0579046915669326
1789141119712021000,3.86402099609375,-5.631866653564572,-8.017587485623359,-0.4132138675190508,9.806427204702459,0.06604750062254998
1789141119721993200,3.8739931640625,-5.632367588824033,-8.017811357507108,-0.4018962450930848,9.80634506001194,0.07733547701256066
1789141119731966000,3.883966064453125,-5.633520850512385,-8.017598591539263,-0.3897862667130306,9.80624124805311,0.08950009446939607
1789141119741938200,3.893938232421875,-5.6335822253108025,-8.018232797789572,-0.3756048523537814,9.806102792407161,0.10359980088003533
1789141119751911200,3.9039111328125,-5.634073808220029,-8.018569482398032,-0.3607466712441295,9.805934701493221,0.11843568457499051
1789141119761883100,3.913883056640625,-5.633920078963041,-8.019267986056208,-0.3473712029729038,9.805764816223332,0.13174828234308786
1789141119771855000,3.923855224609375,-5.633732447436452,-8.019977011108399,-0.3337802287874743,9.80557357311266,0.14528830444862964
1789141119781828000,3.933828125,-5.634454916492104,-8.02000915981233,-0.3205691938303411,9.805369252970431,0.1585167195940437
1789141119791800000,3.943800048828125,-5.636925690519809,-8.018791016194223,-0.3073149407859891,9.805142951827634,0.1719150048558017
1789141119801772000,3.95377197265625,-5.635737357518076,-8.02004832277894,-0.2961093456334434,9.804942661590998,0.18300494561194136
1789141119811745300,3.963745361328125,-5.6353270231515165,-8.020764362093805,-0.2842863857675343,9.804715751493923,0.19478036768501455
1789141119821717000,3.973717041015625,-5.6353065648853775,-8.02107240512967,-0.2758691244255751,9.804545026368237,0.20318269685711596
1789141119831690000,3.98368994140625,-5.635864198768139,-8.020925690135359,-0.2686435753525235,9.804392100877202,0.21042598809258314
1789141119841662200,3.993662109375,-5.636542828682065,-8.02068077546358,-0.2616077584316023,9.804237518872343,0.2174866760648927
1789141119851634000,4.003634033203125,-5.636307266360521,-8.021050193297862,-0.2553129326037131,9.804097240803465,0.22375833092124142
1789141119861607200,4.013607177734375,-5.637649913141131,-8.020279208925366,-0.2498420451782643,9.803969635336305,0.22929363096970792
1789141119871579100,4.0235791015625,-5.638495716315507,-8.019829711592196,-0.2451057556376792,9.803855873617398,0.23407132808115075
1789141119881551000,4.033551025390625,-5.638616127824783,-8.019895762565731,-0.2401527180738747,9.803737148882549,0.23902117689460434
1789141119891524000,4.043524169921875,-5.637715379592776,-8.020676683810352,-0.235157686265558,9.803615380779627,0.24395444383499273
1789141119901496000,4.05349609375,-5.636713509073854,-8.02159672126472,-0.227678673888091,9.803428128870777,0.2513715230276259
1789141119911469000,4.063468994140625,-5.636938550001383,-8.02154002264142,-0.2240627666795626,9.803334297885462,0.2549927815536367
1789141119921441000,4.07344091796875,-5.634944161313772,-8.023037567722797,-0.2206024336252361,9.803246324461409,0.2583688252687405
1789141119931413200,4.083413330078125,-5.631593097320199,-8.025492559659481,-0.2168223853635601,9.803147717859595,0.2620656550430784
1789141119941386000,4.093385986328125,-5.630091460585594,-8.026622440472245,-0.2139552506957203,9.803070610334565,0.26491718431689604
1789141119951358000,4.10335791015625,-5.628645353430509,-8.027689777442813,-0.2119776487461291,9.803017624191455,0.26689260183521074
1789141119961330200,4.113330078125,-5.623439016959071,-8.031450006759167,-0.2076831664226018,9.802897366699629,0.2712768034650493
1789141119971303000,4.123302978515625,-5.619461930021643,-8.034265648701787,-0.2064051823760382,9.802856832785626,0.27272314183433555
1789141119981275100,4.133275146484375,-5.617727069053053,-8.03549022206068,-0.2059862993768416,9.802842932804305,0.2732422396041433
1789141119991248100,4.143248046875,-5.616467424380779,-8.036393308380246,-0.2050613482853397,9.802813942698107,0.2742493345724977
1789141120001220000,4.15322021484375,-5.616929781195521,-8.0361068926543,-0.2036129943742416,9.802774159294742,0.275664996668811
1789141120011192000,4.163192138671875,-5.620248111963272,-8.033785756230353,-0.2036664415945298,9.802781537916832,0.2754206897549968
1789141120021165000,4.1731650390625,-5.620477829065918,-8.033674697071314,-0.2016968220219947,9.802726300200247,0.277378544162251
1789141120031137000,4.183136962890625,-5.621991156238317,-8.032632494542002,-0.2010194342170841,9.802708780916241,0.277990508245339
1789141120041109000,4.19310888671875,-5.623218067684769,-8.031806565111875,-0.1997147265603765,9.802673252115108,0.27925117794333687
1789141120051082200,4.203082275390625,-5.62094135492444,-8.033383605170249,-0.2003843146513216,9.802689994721593,0.27866934575119806
1789141120061054000,4.213053955078125,-5.617906517273188,-8.035417156824469,-0.2038905874729156,9.802783782856554,0.27532526079925873
1789141120071026200,4.223026123046875,-5.616189191961288,-8.036489169970155,-0.2089141695222817,9.80292086224719,0.27041989145842354
1789141120080999200,4.232999267578125,-5.612707779586315,-8.038769389861821,-0.2146562933708541,9.803069422728496,0.2649700735128902
1789141120090971000,4.242970947265625,-5.608921246784925,-8.041265298330783,-0.2200708292328752,9.803203401168654,0.25996037384340387
1789141120100944100,4.252944091796875,-5.605104318845272,-8.043758868712187,-0.2260988025518134,9.803347983114769,0.254440864640211
1789141120110916000,4.262916015625,-5.602506703567505,-8.045382085999846,-0.2326690477875992,9.803506513557362,0.24829256469494873
1789141120120888000,4.27288818359375,-5.600026577189564,-8.046862679946422,-0.2410075448049232,9.803702105855354,0.24042943131860525
1789141120130861000,4.282861083984375,-5.599278389170766,-8.047076614958048,-0.251044187509641,9.803937954989165,0.23061718332488798
1789141120140833000,4.2928330078125,-5.5996162428230045,-8.046463451495766,-0.2628736136489548,9.80420774515589,0.2188359424831846
1789141120150805500,4.302805419921875,-5.600740862938761,-8.045386762174964,-0.2717191468729637,9.804403992349481,0.2098571331908151
1789141120160778500,4.312778564453125,-5.604738992664218,-8.04235309356749,-0.2789955493504181,9.804571119788239,0.20190624328395618
1789141120170750700,4.322750732421875,-5.606107942929864,-8.041109230986237,-0.2872248869048431,9.804740690283502,0.1934995203866266
1789141120180723700,4.3327236328125,-5.6059197268813845,-8.04093504346311,-0.2956571083539165,9.804901942588584,0.1851577148642834
1789141120190695400,4.3426953125,-5.604851220867038,-8.041355899223685,-0.3043474144835956,9.805057592339518,0.17673388368475265
1789141120200667600,4.352667724609375,-5.604181358781457,-8.041507874915004,-0.3125597826369106,9.805198634501519,0.16873339955439548
1789141120210640600,4.362640625,-5.6027603860676285,-8.042160785865784,-0.3211037025658413,9.805334780791199,0.1605972409911317
1789141120220612600,4.372612548828125,-5.603448368331789,-8.041304461297392,-0.330402788243629,9.805482982396484,0.1512631490272401
1789141120230584600,4.38258447265625,-5.60596531958878,-8.039189661100506,-0.3390633202895522,9.80561970635867,0.14213965320659314
1789141120240557600,4.3925576171875,-5.608982037061453,-8.036713626375795,-0.3477661571072414,9.805749683895458,0.13289033548643645
1789141120250529500,4.402529541015625,-5.613206961280107,-8.033346780291199,-0.3572682910764589,9.805883057956532,0.1226823869517887
1789141120260502500,4.41250244140625,-5.617475724640489,-8.029850754868983,-0.3685810181315988,9.80602431962958,0.11079563238377199
1789141120270474800,4.422474853515625,-5.619475374025106,-8.027877993491291,-0.3808579140437766,9.806157085272188,0.09830832778663344
1789141120280446500,4.432446533203125,-5.621654471629857,-8.025721692240237,-0.3939086438726633,9.806280439338405,0.08506259141406385
1789141120290419500,4.44241943359375,-5.6225558043837545,-8.02444801904261,-0.4068074345428496,9.806385417695964,0.07209099892220704
1789141120300391700,4.4523916015625,-5.621667915633321,-8.024480167746544,-0.4182763385403901,9.806462411530925,0.06068099234952158
1789141120310363600,4.46236376953125,-5.62012010166943,-8.025034879019856,-0.4283251831395551,9.806518979276891,0.05082064804471837
1789141120320336600,4.472336669921875,-5.621970697972178,-8.023259101518988,-0.4372005635125562,9.806561306309272,0.04172310269548643
1789141120330308600,4.48230859375,-5.62502716293335,-8.020598942399024,-0.4465836376793682,9.806596712022122,0.032184650847745216
1789141120340281600,4.492281494140625,-5.629442641288041,-8.016867939177155,-0.4578123031802475,9.806625846478116,0.021854470691574958
1789141120350253600,4.502253662109375,-5.632144301462173,-8.014277922683954,-0.4697702693363651,9.806640843655714,0.013398656954496897
1789141120360225800,4.512225830078125,-5.63453674955666,-8.011948018431664,-0.4806956045091152,9.806640823083901,0.013396394077670458
1789141120370198500,4.522198486328125,-5.635840817892551,-8.01032830827534,-0.4922611007489264,9.806628687504833,0.02039871806861915
1789141120380170500,4.53217041015625,-5.635388397949933,-8.009854845544695,-0.5049724790882318,9.806602583156101,0.030331882848483666
1789141120390142700,4.542142822265625,-5.633180658772587,-8.010691296368837,-0.5162224065728486,9.806569741167266,0.039684565758697915
1789141120400115500,4.552115478515625,-5.630563169750571,-8.01184105092585,-0.5268223457161337,9.806526404856418,0.049196429260137835
1789141120410087700,4.562087646484375,-5.62717060470283,-8.013609229642153,-0.5360895018856973,9.806479261609116,0.057778417249869665
1789141120420060700,4.572060791015625,-5.623596837869286,-8.015562117275595,-0.5443430970985442,9.806429777657245,0.0657409616081767
1789141120430032400,4.582032470703125,-5.623670487627387,-8.01497350373268,-0.5521916917070746,9.806373801862241,0.07361074302280908
1789141120440004600,4.592004638671875,-5.6255941491663455,-8.012955734169482,-0.5617931213323026,9.806295577160071,0.08335282503497178
1789141120449977600,4.6019775390625,-5.6285687810629605,-8.00997642609775,-0.57435541005712,9.80617826122283,0.09623365305835868
1789141120459949600,4.611949462890625,-5.6298927231431,-8.00807731447816,-0.5877049036368728,9.80603612364036,0.10975857314356156
1789141120469921500,4.621921630859375,-5.629500508955121,-8.007426157093049,-0.6001992051593958,9.805888633656417,0.12221633207459577
1789141120479894500,4.63189453125,-5.627622440123558,-8.007669902721046,-0.6143889854881912,9.80570365931343,0.13623938763486007
1789141120489866500,4.641866455078125,-5.623268336567282,-8.009848415803908,-0.6257566941335797,9.805543213267987,0.14735047398520154
1789141120499839500,4.651839599609375,-5.620882902735471,-8.010754424732923,-0.6355150678861886,9.805392540174562,0.15705920616594687
1789141120509811700,4.661811767578125,-5.618059662008285,-8.01208596559763,-0.643642333305627,9.805259165529456,0.16517880019802622
1789141120519783400,4.671783447265625,-5.613522603100538,-8.01469702487886,-0.6506774195741861,9.805136022779662,0.1723168455347742
1789141120529756700,4.681756591796875,-5.612842804142832,-8.014571352672576,-0.65804619477652,9.80500313129637,0.17971282877442357
1789141120539728600,4.691728759765625,-5.612648158353567,-8.01389155371487,-0.6679100016649812,9.804817104864686,0.1895850591403202
1789141120549700600,4.70170068359375,-5.611132493093609,-8.014425222200154,-0.674212682005763,9.804692024886538,0.19595033807735418
1789141120559673600,4.711673583984375,-5.610024239590763,-8.014813929256796,-0.6788000097960233,9.804598296477572,0.20058910093243557
1789141120569645600,4.7216455078125,-5.609494662758707,-8.01510385211408,-0.6797562876075506,9.804578378204646,0.20157273594503844
1789141120579618800,4.731618896484375,-5.609401139256358,-8.01527219441831,-0.6785477886006236,9.804603417264609,0.2003707146361593
1789141120589590500,4.741590576171875,-5.608373549774289,-8.016157160559295,-0.6765748080272227,9.804641522530135,0.1984630497824145
1789141120599562800,4.751562744140625,-5.606613554364443,-8.017315098422765,-0.6774506410136818,9.804621919792865,0.19946256868848436
1789141120609535700,4.76153564453125,-5.602855663135648,-8.019661369287967,-0.6807626881711185,9.804547316437091,0.2031005104206458
1789141120619507500,4.771507568359375,-5.600197842103243,-8.02111098357439,-0.6855224499188363,9.804440970872088,0.20812390430472152
1789141120629479700,4.781479736328125,-5.598874484544992,-8.021572755867242,-0.6909110841546208,9.804322756465794,0.213631422349846
1789141120639452700,4.79145263671875,-5.5947746480107305,-8.024305395701527,-0.6923922626230865,9.804278646425791,0.21565647239953015
1789141120649424600,4.801424560546875,-5.590565505883097,-8.027053233104944,-0.6945424994595348,9.804216943157295,0.21846211967608464
1789141120659396600,4.811396728515625,-5.5924201938390725,-8.025725199371577,-0.6949536375436931,9.804214573964085,0.21855376064584145
1789141120669369600,4.82136962890625,-5.59473782313168,-8.024272077953816,-0.693079660365358,9.804263838795219,0.21634159450751986
1789141120679341600,4.831341552734375,-5.5982829483926295,-8.022017577025293,-0.6905453926473856,9.804329444701494,0.21334257763570227
1789141120689314600,4.841314453125,-5.603790898159146,-8.018155056378244,-0.6907328780435025,9.804338524589145,0.21293412709735945
1789141120699286800,4.851286865234375,-5.60900483341515,-8.014280260771512,-0.6933795931600034,9.804289011526613,0.21521049727104644
1789141120709258500,4.861258544921875,-5.611810538485646,-8.012048556196689,-0.6964567355830222,9.804223160576905,0.2181737584091345
1789141120719231500,4.8712314453125,-5.613118113952875,-8.010844441103934,-0.6997570192374288,9.80414941911606,0.22144451758842829
1789141120729203700,4.88120361328125,-5.612409673422575,-8.010987064445018,-0.7038003763440996,9.804057172328717,0.22550836012139341
1789141120739175700,4.89117578125,-5.61074027890563,-8.012064338287711,-0.7048465243961661,9.804031874958024,0.22660330085002867
1789141120749148700,4.901148681640625,-5.605542125740647,-8.015897048318386,-0.7026199343878775,9.804076531028533,0.22464674185740335
1789141120759120600,4.91112060546875,-5.601741564413905,-8.018889215871692,-0.6987872243572026,9.804156872971515,0.2211434059516872
1789141120769093600,4.92109375,-5.601496065220236,-8.019378460693359,-0.69512029934749,9.80423717364868,0.21751951158603217
1789141120779065600,4.931065673828125,-5.602943341419101,-8.018825502985715,-0.6898120368715375,9.804355805026058,0.2120953303386149
1789141120789037800,4.941037841796875,-5.607463449192047,-8.015952577897906,-0.6864653567921369,9.804435135344344,0.20839488485558796
1789141120799010600,4.951010498046875,-5.614737824109197,-8.010990571576356,-0.6849341286368668,9.804474159297728,0.2065720010126933
1789141120808982500,4.960982421875,-5.6216720072865485,-8.006107475709914,-0.685144921843335,9.804467666844566,0.20685841499567148
1789141120818954800,4.970954833984375,-5.62431638431549,-8.004135298854113,-0.6864972863003611,9.804437337760659,0.20833551609013845
1789141120828927500,4.980927490234375,-5.625061649724841,-8.003383019182085,-0.6891511618100107,9.804379077035229,0.21104158963393974
1789141120838899700,4.990899658203125,-5.623461813312769,-8.004338127949833,-0.6911043417043984,9.804338043324769,0.2129140100502889
1789141120848872700,5.000872802734375,-5.6191620702922345,-8.007245539829135,-0.6923943084497004,9.804312884404949,0.21406132389837929
1789141120858844400,5.010844482421875,-5.613831815180182,-8.010956084784866,-0.6927211292512715,9.804306530467318,0.21438530972981903
1789141120868816600,5.020816650390625,-5.613347831055521,-8.011464618828892,-0.6907624694641679,9.804349235127674,0.212433697973123
1789141120878789600,5.03078955078125,-5.617019213044643,-8.008965787750482,-0.6898955504365265,9.80436883177369,0.2115313454953201
1789141120888761600,5.04076171875,-5.6210150046825405,-8.006185217121242,-0.6896176102779805,9.80437281746586,0.2113232553673047
1789141120898733600,5.050733642578125,-5.625443927040696,-8.002717248749732,-0.6937422889925539,9.804277971654516,0.2156723389361386
1789141120908706600,5.06070654296875,-5.631692466041446,-7.997682761713862,-0.7010692708797752,9.804101872904182,0.2235490491405774
1789141120918678500,5.070678466796875,-5.637957371655106,-7.9927628409683695,-0.706796270224452,9.803950743419028,0.23006943469654123
1789141120928651500,5.080651611328125,-5.641264596506953,-7.989796392378211,-0.7139132626228034,9.803768851706064,0.2376995757870229
1789141120938623700,5.090623779296875,-5.644449656283856,-7.986798964127898,-0.7222261137422173,9.803549946380791,0.24655349096244986
1789141120948595500,5.100595458984375,-5.646134832891821,-7.985065272203087,-0.7281991968024522,9.803390147267113,0.2528272992142808
1789141120958568400,5.110568359375,-5.645366771128773,-7.984979932007193,-0.7350642602663486,9.803215033338386,0.25954762948580345
1789141120968540700,5.120540771484375,-5.643809604814648,-7.985402541333436,-0.7423967220462858,9.80302560311945,0.2666130529854064
1789141120978512600,5.1305126953125,-5.64089810128212,-7.986920544680952,-0.7481707754030823,9.802879221435294,0.271936858874181
1789141120988485600,5.140485595703125,-5.637890736159682,-7.988352038788795,-0.7555232570577413,9.802684175253178,0.27888815086394964
1789141120998457600,5.15045751953125,-5.635834972673655,-7.988998519998788,-0.7639736900169402,9.802446470888945,0.28711004188158384
1789141121008429600,5.1604296875,-5.634177268594503,-7.989620451289415,-0.7696693443752824,9.802282483111766,0.29263880562977307
1789141121018402600,5.170402587890625,-5.634377759602666,-7.988951758247613,-0.7751311899777501,9.802117245656042,0.2981422439063698
1789141121028374800,5.180374755859375,-5.635808084666729,-7.987352506357431,-0.7811868367549032,9.801925270998296,0.30437917749628374
1789141121038347500,5.190347412109375,-5.63765108218491,-7.985572052681445,-0.7860829382333904,9.80176516092954,0.3095106602319351
1789141121048319500,5.200319580078125,-5.640160434657335,-7.983436209696531,-0.7897616998113691,9.801637125199544,0.3135229678455358
1789141121058291700,5.210291748046875,-5.640316502001881,-7.983240394863486,-0.7906335872750729,9.801609054050852,0.3144182975125029
1789141121068264400,5.220264404296875,-5.639422183510661,-7.984047619593143,-0.7888583942960947,9.80166966555192,0.3125192625324617
1789141121078236700,5.230236572265625,-5.637813579270244,-7.985210818153619,-0.7885852033779025,9.801685090476788,0.31204130347302095
1789141121088208600,5.240208740234375,-5.639585265117884,-7.983966955572367,-0.788504977748543,9.801679969036172,0.31218615397794486
1789141121098181400,5.250181396484375,-5.638870394846797,-7.984514068061113,-0.7880763770729303,9.801696510119582,0.3116634924971432
1789141121108153600,5.260153564453125,-5.635820944148302,-7.986713623932004,-0.7875981651019305,9.801723162913573,0.3108152706628159
1789141121118126600,5.270126708984375,-5.6324757253736255,-7.989010794958472,-0.7882286450251936,9.80171415378999,0.3110953601669418
1789141121128098600,5.2800986328125,-5.630118933114409,-7.99088009596169,-0.786112602719292,9.801787992359579,0.3087540866769934
1789141121138070500,5.290070556640625,-5.62763588412702,-7.993132258802652,-0.7809829116806387,9.801955406089512,0.30340315818307106
1789141121148043000,5.30004296875,-5.627485662001371,-7.993860573077201,-0.7745928453173488,9.802152914972606,0.29697482273760556
1789141121158014700,5.3100146484375,-5.629439134156704,-7.993215260910987,-0.7670179530836642,9.802375656131618,0.2895223805963434
1789141121167987000,5.319987060546875,-5.631204974785447,-7.992568779700994,-0.760767514386773,9.802554497092961,0.28340379102652535
1789141121177960000,5.3299599609375,-5.633368290299177,-7.991583275794983,-0.7550864730756729,9.802711826608455,0.2779172078280516
1789141121187932000,5.339931884765625,-5.633625479930639,-7.992047970697283,-0.7482097191739827,9.80290363087145,0.27104428007990955
1789141121197905000,5.34990478515625,-5.632174112078547,-7.993802120888232,-0.7403519183456897,9.803122235090763,0.26300757318412005
1789141121207876900,5.359876953125,-5.628707897272705,-7.997054985204339,-0.7315321406174451,9.803364051448744,0.2538376975953065
1789141121217848800,5.369848876953125,-5.6276686173528425,-7.998851805493235,-0.719788876657933,9.803664191671025,0.24196842126244641
1789141121227821800,5.37982177734375,-5.625701701194048,-8.001213858449459,-0.7088245611816644,9.803932626485151,0.230824940887296
1789141121237794000,5.3897939453125,-5.623460644268989,-8.003664174211025,-0.6988781175110489,9.80416572017021,0.2207147157902879
1789141121247765800,5.399765869140625,-5.621362795206904,-8.006047269955276,-0.6883797390460967,9.804399023657062,0.21009287026529586
1789141121257738800,5.40973876953125,-5.619439718189836,-8.008466021534801,-0.6758375067286193,9.80466193659855,0.19746242418157592
1789141121267711000,5.4197109375,-5.617988934859633,-8.010357534369826,-0.6653995532140136,9.804867253241456,0.18698185037986492
1789141121277684000,5.42968408203125,-5.618035696610808,-8.01120801371932,-0.6546722613640129,9.805065899485054,0.176231109707543
1789141121287656000,5.439656005859375,-5.620291366583109,-8.010470931616425,-0.6442537432022393,9.805248076035996,0.16580906061742737
1789141121297628000,5.4496279296875,-5.621450473490357,-8.010377992635965,-0.6352306249216199,9.805396298159252,0.15678773451607772
1789141121307601000,5.459600830078125,-5.6233910861641165,-8.009692932981253,-0.6266350844033062,9.805529335625735,0.148236857050226
1789141121317572900,5.46957275390625,-5.624956435784697,-8.009290781921148,-0.6176669842455536,9.805660342411697,0.13932511088915822
1789141121327544800,5.479544921875,-5.624582341775298,-8.010334153494238,-0.6074595150185749,9.805800762228913,0.129066819532515
1789141121337518000,5.48951806640625,-5.621944979009032,-8.012855196404457,-0.598559255932644,9.805915499569588,0.12003392734699721
1789141121347489800,5.49948974609375,-5.621319540587067,-8.013717950713634,-0.5928623594652861,9.805984269742375,0.11431119722831393
1789141121357462000,5.5094619140625,-5.619418675401806,-8.015406049931048,-0.5880430495500564,9.806039418323829,0.10948035955924855
1789141121367435000,5.51943505859375,-5.617725900009274,-8.01687904509306,-0.584128725650534,9.806082170192752,0.10560658523566213
1789141121377406700,5.52940673828125,-5.618538385435938,-8.016737590795755,-0.578209637799859,9.806143471806708,0.0996583357382643
1789141121387380000,5.5393798828125,-5.621487882891297,-8.015246475455164,-0.5701666165977716,9.8062228663428,0.09157044331150256
1789141121397352000,5.54935205078125,-5.624604553607106,-8.013667681831121,-0.5615499236935749,9.8062984225403,0.08304013587562997
1789141121407324000,5.559323974609375,-5.629968710988759,-8.010541658765078,-0.5523137106515467,9.80636729861412,0.07440559903982945
1789141121417297000,5.569296875,-5.635916221216321,-8.006929898008703,-0.5439723640900105,9.806417165673,0.06757477253033431
1789141121427268900,5.579268798828125,-5.641536983707547,-8.00346660581231,-0.5366211245443672,9.806449402896565,0.06268643098592354
1789141121437240800,5.58924072265625,-5.645071003052592,-8.00139506023526,-0.5303133296370506,9.806474045162862,0.058724514474858276
1789141121447213800,5.5992138671875,-5.646144769763946,-8.001020381703972,-0.5245048625539988,9.806499856835162,0.05425696554250903
1789141121457186000,5.60918603515625,-5.647195155599713,-8.000657978132367,-0.5186875180447473,9.806521865246506,0.05006851605132358
1789141121467158800,5.61915869140625,-5.645999223813415,-8.002047971186041,-0.5102084800455718,9.80655882681677,0.042374966157273375
1789141121477131000,5.629131103515625,-5.644152719163895,-8.003871679481863,-0.5019683288361877,9.806589052660671,0.034715043532958234
1789141121487103000,5.63910302734375,-5.640910376241803,-8.006685567858815,-0.4934631700150668,9.806615625915802,0.026067624678999216
1789141121497075700,5.64907568359375,-5.642191648223996,-8.00624542287588,-0.4859103434827178,9.80662174329671,0.023900050487197854
1789141121507048000,5.6590478515625,-5.642882553097605,-8.00602505812347,-0.4814831381576135,9.806621620766986,0.023646115745140035
1789141121517020000,5.66902001953125,-5.642696090614796,-8.006374602213501,-0.4778397401539608,9.806622681414815,0.023148296693115716
1789141121526993000,5.678992919921875,-5.642639391991496,-8.006613087144494,-0.4744966037385165,9.806621993083763,0.023335531124936422
1789141121536964900,5.68896484375,-5.644419261145592,-8.005583744096755,-0.4706884801598265,9.806615009551411,0.026259838798452728
1789141121546937900,5.698937744140625,-5.6452112883061165,-8.005359872213006,-0.4649676548276096,9.806606858525145,0.02922354565304684
1789141121556909800,5.708909912109375,-5.645458541065454,-8.005558609655498,-0.4584915541486814,9.806595029341679,0.03285159409986114
1789141121566881800,5.7188818359375,-5.644353794693947,-8.006689659512043,-0.4523091757193207,9.806584640267939,0.035921401891894036
1789141121576855000,5.72885498046875,-5.643610282850265,-8.007437847530841,-0.4483284355200826,9.806575787335547,0.03830953018137339
1789141121586826800,5.73882666015625,-5.643052648967505,-8.007987882629036,-0.4455173966873437,9.80656858480317,0.040143114668215706
1789141121596799000,5.748799072265625,-5.641992326259612,-8.008921364086866,-0.4421453264383599,9.806559294446611,0.042262511679641006
1789141121606772000,5.75877197265625,-5.641197961011529,-8.009637403401731,-0.4393018101081252,9.8065505041078,0.04426127020303419
1789141121616743700,5.76874365234375,-5.643112270200252,-8.008346194547414,-0.4382534700989723,9.806541193006728,0.046268776973845675
1789141121626716000,5.7787158203125,-5.64237109644413,-8.00893305452466,-0.4370664888041093,9.806538132892419,0.046874573152751925
1789141121636689000,5.78868896484375,-5.639944161558151,-8.010698310631513,-0.4360313005374744,9.806539425640162,0.04653340587115229
1789141121646660900,5.798660888671875,-5.638121622306108,-8.011955617216229,-0.4365092567801475,9.80654579464322,0.04525647996122498
1789141121656633900,5.8086337890625,-5.632957955932617,-8.015595435023307,-0.4363455541184172,9.806553188421079,0.043560492861557956
1789141121666605800,5.818605712890625,-5.628333218741417,-8.018881032565236,-0.4356659743564203,9.80655478175103,0.043312692718747006
1789141121676577800,5.828577880859375,-5.627824684697389,-8.019287859800457,-0.4347315795831382,9.80655023584719,0.04418685465744044
1789141121686550800,5.83855078125,-5.6286628890872,-8.018747177052497,-0.4338637837726622,9.80654639452057,0.04514203650670517
1789141121696523000,5.84852294921875,-5.631791250240802,-8.016582107973099,-0.4332761931430548,9.806541167390472,0.046259831211412486
1789141121706494700,5.85849462890625,-5.637779092478752,-8.012343155229091,-0.4338159260429441,9.806534806188848,0.04761602075098834
1789141121716468000,5.868468017578125,-5.640753724375367,-8.010151198142767,-0.4356210027035325,9.806536234911697,0.047302510746560604
1789141121726440000,5.87843994140625,-5.64056083215177,-8.010006821236013,-0.440749049774371,9.80655788499137,0.042637432412149526
1789141121736413000,5.888412841796875,-5.637628870353103,-8.011699596628546,-0.4474423368679359,9.806587569616283,0.03513674324771013
1789141121746385000,5.898385009765625,-5.632577432182431,-8.014952460944652,-0.4527695963053032,9.80661093170152,0.027817661732406265
1789141121756356900,5.90835693359375,-5.62631311109066,-8.019268570578097,-0.4542376230312511,9.806619851912624,0.024627816440935035
1789141121766329900,5.918329833984375,-5.621825736543536,-8.022495131409167,-0.4528003202371299,9.806614949229559,0.02615555583864934
1789141121776301800,5.9283017578125,-5.620760737660527,-8.023511614975332,-0.447988901367411,9.806600590080294,0.03112600288193871
1789141121786274000,5.938274169921875,-5.621391436779499,-8.023384189203382,-0.442325249582529,9.806581585771049,0.036670984321504695
1789141121796246800,5.948246826171875,-5.6226054887443775,-8.022763426956534,-0.4381409496352076,9.806565891012848,0.040723505992996886
1789141121806218800,5.95821875,-5.626009159708023,-8.020356950336694,-0.4384899822685867,9.806566849414391,0.04030841660614769
1789141121816192000,5.96819189453125,-5.629920195671915,-8.017469996723532,-0.4410977170815691,9.806576102687243,0.038195499925949894
1789141121826163700,5.978163818359375,-5.630988117164373,-8.016568663969636,-0.4438355810802429,9.806585081218293,0.03576852870783766
1789141121836136000,5.988135986328125,-5.63013588424921,-8.017107008630036,-0.4449274679701775,9.806589905072709,0.03449272989877963
1789141121846109000,5.99810888671875,-5.628072521978616,-8.018484142202139,-0.4461968303188681,9.80659479654356,0.03283837982160618
1789141121856081000,6.008080810546875,-5.624826087403297,-8.020829244023561,-0.44498449538704,9.806591672913127,0.0337822024448044
1789141121866052900,6.018052978515625,-5.620386059129237,-8.024027747803926,-0.4434283519862219,9.806585175761114,0.035730170293721955
1789141121876025900,6.02802587890625,-5.615720989927649,-8.027418559285998,-0.4411707092525437,9.806572645725172,0.03918547563127663
1789141121885997800,6.037997802734375,-5.615947199898958,-8.02739868554175,-0.4386212439654395,9.80656165985862,0.041588649162083415
1789141121895969800,6.0479697265625,-5.618464735677838,-8.025798264607786,-0.4356633074752986,9.806552190250644,0.04382268370837332
1789141121905943000,6.057943115234375,-5.622419610783457,-8.023315215620398,-0.4303500400306657,9.806530209612978,0.048535902491170915
1789141121915914800,6.067914794921875,-5.626559779328107,-8.020639858931302,-0.4260935881625861,9.806508813536926,0.05271937903812353
1789141121925887700,6.0778876953125,-5.629048673534393,-8.019068664091826,-0.4227849020060151,9.80648969699633,0.056197015114964784
1789141121935860000,6.08785986328125,-5.631767869365215,-8.017206377351284,-0.4218831673933192,9.806482101429426,0.05745983580443708
1789141121945831700,6.097831787109375,-5.630474322423338,-8.018132844546436,-0.421549661122635,9.806481662359932,0.057592802101091016
1789141121955805000,6.107804931640625,-5.627402659893035,-8.020358119380473,-0.4202238193463534,9.806475231322436,0.05862299454218228
1789141121965777000,6.11777685546875,-5.624412245905399,-8.022489286190272,-0.4195844254642725,9.806471944166628,0.05921619114129564
1789141121975748900,6.127748779296875,-5.62457883464396,-8.022516758719085,-0.4168137186419218,9.806454686097707,0.06198690679348709
1789141121985721900,6.137721923828125,-5.627629454386234,-8.020597188833355,-0.4125417038785293,9.806425778923947,0.06630717375881842
1789141121995693800,6.14769384765625,-5.631071703794598,-8.018393541309237,-0.4084005124205723,9.80639553127763,0.07071901632097756
1789141122005667000,6.1576669921875,-5.632055454134941,-8.017876239436864,-0.4049792327350005,9.806369622688209,0.07423632225497005
1789141122015638800,6.167638671875,-5.632710703173279,-8.017571703532338,-0.4018639867912977,9.806344265304073,0.07741253866758423
1789141122025611000,6.177611083984375,-5.632222627395391,-8.018020031821727,-0.3997671606425195,9.806328643906724,0.0794308860697058
1789141122035584000,6.187583984375,-5.628426742243766,-8.020902893781662,-0.3953824062196537,9.806295330973487,0.08348624530681234
1789141122045555700,6.1975556640625,-5.624438549390435,-8.023917857688664,-0.390920750635676,9.806256012470573,0.08791378712414183
1789141122055528000,6.20752783203125,-5.621368640425801,-8.026298030823469,-0.3861939778421074,9.806211236776006,0.09280322953875265
1789141122065501000,6.2175009765625,-5.621981803888082,-8.025974790218472,-0.3839722832046449,9.806190068890448,0.09498306972753966
1789141122075473000,6.227472900390625,-5.623073690778017,-8.025262842556833,-0.3828572346348315,9.806179578623833,0.09603727368267885
1789141122085446000,6.23744580078125,-5.624173760974407,-8.024692349192499,-0.3786275246432051,9.806137411482581,0.10022805176586583
1789141122095417900,6.24741796875,-5.627080588331818,-8.022856950458884,-0.3743175524896011,9.8060930249226,0.10451225656981196
1789141122105389800,6.257389892578125,-5.631772545540333,-8.01986186029613,-0.3678901863232254,9.806020611780724,0.111127014982331
1789141122115362800,6.26736279296875,-5.63407205465436,-8.018578250226378,-0.3605825301909819,9.805932853176621,0.11859895493246089
1789141122125335000,6.2773349609375,-5.63615938232243,-8.017434340888261,-0.3533350432807579,9.805840597583634,0.12602309703543618
1789141122135306800,6.287306640625,-5.637077666211128,-8.017072521838545,-0.3468445122176781,9.80575446568995,0.1325779377275011
1789141122145279700,6.29727978515625,-5.634999106371402,-8.018879863521457,-0.3387229458866641,9.805644021240346,0.1404555345296632
1789141122155251700,6.307251708984375,-5.63446309979856,-8.019518161424994,-0.3324713016133755,9.805553441223108,0.1466452935865939
1789141122165223700,6.3172236328125,-5.633955734798312,-8.020089823833107,-0.3272409266792238,9.805474648215164,0.15182737342705924
1789141122175196700,6.32719677734375,-5.63240967440009,-8.0213880469501,-0.3220048526566475,9.805394087763498,0.15696766806181844
1789141122185168600,6.337168701171875,-5.634451409360766,-8.020161135503649,-0.3168102796882391,9.805308025891499,0.16226704716174623
1789141122195142000,6.347141845703125,-5.637918793210387,-8.017960995110869,-0.3107469610612839,9.805201227977735,0.16858051674762958
1789141122205113600,6.357113525390625,-5.640989286696911,-8.01600226225853,-0.305530760782957,9.805105599066874,0.17408514610749373
1789141122215085800,6.3670859375,-5.646068781918287,-8.01264418400228,-0.2996977255142293,9.804987594901439,0.1805450084746408
1789141122225058800,6.377058837890625,-5.649428029218316,-8.010530552849174,-0.2928240038198418,9.804849968646323,0.18788237010678835
1789141122235030500,6.387030517578125,-5.650295459702611,-8.010199128937721,-0.2850534063509665,9.804697041966081,0.19570443762074213
1789141122245002800,6.397002685546875,-5.650400673642754,-8.010428846040368,-0.2763891662443056,9.804522275405253,0.20428409746611914
1789141122254975700,6.406975830078125,-5.648928263002634,-8.0118042260468,-0.2664199627526104,9.804315991444613,0.2139275894031898
1789141122264947700,6.41694775390625,-5.647027982339263,-8.013460176560283,-0.256730014593713,9.804107416117242,0.2232870535172057
1789141122274920700,6.426920654296875,-5.6453971662670375,-8.014961228772997,-0.2454930013895966,9.803851173915643,0.23426830147157485
1789141122284892700,6.436892578125,-5.641386761581898,-8.018125830283761,-0.2340654705820605,9.803581436472598,0.2452836867461893
1789141122294864600,6.44686474609375,-5.638385241678357,-8.020574977001548,-0.2222004616727121,9.80328381888177,0.2569250997822502
1789141122304837600,6.456837646484375,-5.636173410847783,-8.02243492565453,-0.2108627280404791,9.802982966402421,0.2681434392443247
1789141122314809900,6.466809814453125,-5.634668851503729,-8.02375652964711,-0.2005150466252118,9.802695793572099,0.2784301990948774
1789141122324781600,6.476781494140625,-5.634408154740929,-8.024167448535561,-0.1912355424307286,9.8024293381368,0.28769532473170656
1789141122334754800,6.4867548828125,-5.635117179793119,-8.023921364820003,-0.1803611885265447,9.802103845737475,0.29858006383508656
1789141122344726800,6.496726806640625,-5.635030086031556,-8.02420719602406,-0.1700523960832506,9.801784404959243,0.3088777934986183
1789141122354699500,6.506699462890625,-5.632546452522278,-8.026170020529626,-0.1593849629280157,9.801444535056167,0.31948917179619735
1789141122364671700,6.516671630859375,-5.629568313494325,-8.028481804603338,-0.1477731615947559,9.801060354432074,0.33107751239512956
1789141122374643700,6.526643798828125,-5.626639274305105,-8.030722277006506,-0.137173816106515,9.800695438560641,0.34169487845604374
1789141122384616700,6.53661669921875,-5.624070300599932,-8.032650614720582,-0.1294041228199377,9.800419884980082,0.34951130074857256
1789141122394588700,6.546588623046875,-5.61989622978568,-8.035686621415614,-0.122043403059896,9.80014965782432,0.3570075456253962
1789141122404561000,6.556560791015625,-5.616178670567273,-8.03838068280518,-0.1155694304059725,9.799904876513805,0.3636585843281609
1789141122414533600,6.56653369140625,-5.612541190847754,-8.041008108699321,-0.1093461263111792,9.799663761728349,0.37010370916599716
1789141122424505600,6.576505615234375,-5.608462397101521,-8.043930718147754,-0.1035348462165333,9.799431077472867,0.3762205208422266
1789141122434478800,6.586478759765625,-5.604038735440373,-8.047064339998364,-0.0994674323808401,9.79925831505102,0.3806900122111611
1789141122444450600,6.596450439453125,-5.600685333359241,-8.04944100600183,-0.09606492132782,9.799112744716899,0.3844406298059783
1789141122454422800,6.6064228515625,-5.597192230546474,-8.051897166982293,-0.093745145743899,9.799004925914256,0.38716852610456187
1789141122464395800,6.616395751953125,-5.594612735447288,-8.053702170577646,-0.0926455413383897,9.798948091021263,0.3885998170312142
1789141122474367700,6.62636767578125,-5.590601161718368,-8.056484494772553,-0.0928547636422794,9.798933134330582,0.38896683658971826
1789141122484339700,6.636339599609375,-5.589425103676319,-8.05729288854599,-0.0935776619561947,9.798955083390577,0.3884298314135473
1789141122494312700,6.646312744140625,-5.58886396266222,-8.057652369508146,-0.0961276752325706,9.799051748146738,0.3859889481224341
1789141122504284700,6.65628466796875,-5.589338009914756,-8.057319192031025,-0.0964356817358173,9.799066167927249,0.3856086470046654
1789141122514256600,6.666256591796875,-5.5877557091593735,-8.058371915954352,-0.1001462540910113,9.799200807753628,0.38218399052563107
1789141122524230000,6.67622998046875,-5.585058140638471,-8.060170489808916,-0.1056430705421604,9.799393019822414,0.3771997620729323
1789141122534201600,6.68620166015625,-5.582984256973862,-8.061527749636769,-0.1115888820029795,9.799603914391293,0.3716962085025703
1789141122544174600,6.696174560546875,-5.58099337541759,-8.062804345443844,-0.1186563909701071,9.799851200095187,0.3650982942634861
1789141122554146800,6.706146728515625,-5.57950050651133,-8.063710938894749,-0.1270222874510101,9.800144881513381,0.35714838802296334
1789141122564118500,6.716118408203125,-5.578022250652313,-8.064646173918247,-0.1324227308555971,9.80032560160939,0.35214204712490405
1789141122574091800,6.726091796875,-5.5792146753072736,-8.0637080162853,-0.1391843796107918,9.80057229161177,0.34522226678926377
1789141122584063700,6.736063720703125,-5.580362676298618,-8.06277570387125,-0.1469264359717723,9.800846146680701,0.3373452780825691
1789141122594035700,6.74603564453125,-5.581657976806164,-8.061700183594226,-0.1564132536408491,9.801172534145714,0.3277158556268805
1789141122604008700,6.7560087890625,-5.583360689070821,-8.06031486671567,-0.1666716310711577,9.801516877894482,0.3172359686614861
1789141122613980700,6.765980712890625,-5.587051944804191,-8.057487534335255,-0.1792296820122748,9.801934594191112,0.30406625926281294
1789141122623954000,6.775953857421875,-5.592060128355026,-8.053781665554641,-0.189340632062219,9.802269614093813,0.2930799944127669
1789141122633925600,6.785925537109375,-5.597433053565025,-8.049800486963987,-0.199611960305646,9.802596487146662,0.2819427494100194
1789141122643897900,6.79589794921875,-5.601964267253876,-8.046367005383967,-0.2106101415188983,9.802924046042321,0.2703006033232026
1789141122653870800,6.805870849609375,-5.603191178700327,-8.045189193776249,-0.2226258840105496,9.803251017406879,0.25817111120682035
1789141122663842600,6.815842529296875,-5.60268381370008,-8.045154706984757,-0.2362260644157417,9.803595776484066,0.24473001538219416
1789141122673814800,6.825814697265625,-5.601179838877916,-8.045669086247683,-0.2537192154051735,9.804007908556656,0.22761590910661492
1789141122683787800,6.835787841796875,-5.596071117562055,-8.04869515607059,-0.2699623480672016,9.804345831151647,0.2125750707859783
1789141122693759700,6.845759765625,-5.591918674057721,-8.051016292494534,-0.2863047398526221,9.804660511366617,0.1975359719091285
1789141122703732700,6.855732666015625,-5.591898800313473,-8.050538738110662,-0.2998157441370189,9.804918145209275,0.1843252911187938
1789141122713704700,6.86570458984375,-5.594692814946174,-8.04818837559223,-0.3105676589716226,9.805123211980913,0.17301702604215116
1789141122723676700,6.8756767578125,-5.599392370939254,-8.044555572047829,-0.3198753663472831,9.80530178478982,0.16262359820110084
1789141122733649700,6.885649658203125,-5.606165810596942,-8.03939015210867,-0.330881767399609,9.805499240463313,0.15018822523366188
1789141122743622000,6.895621826171875,-5.60967703358829,-8.036454098656773,-0.3425181734511628,9.805679813524169,0.13796012023076992
1789141122753593600,6.905593505859375,-5.612311473745107,-8.0339985221982,-0.3566837691867723,9.805873973626811,0.1234149811143563
1789141122763566800,6.91556689453125,-5.613931183901429,-8.032239111310243,-0.3705313484817743,9.806040006821034,0.10936792800420618
1789141122773538800,6.925538818359375,-5.613053816545009,-8.03230223967433,-0.3822842935850843,9.806162234663457,0.0978566578715294
1789141122783510800,6.9355107421875,-5.61316429118216,-8.031797797283529,-0.3911505408035591,9.80624588818582,0.08904797729699034
1789141122793483800,6.94548388671875,-5.614259100681543,-8.030636352288722,-0.3992070425417274,9.806317211009906,0.0808362057028932
1789141122803455700,6.955455810546875,-5.615888747709989,-8.029102566850185,-0.407043581386283,9.806380014296462,0.07273202878092433
1789141122813428700,6.9654287109375,-5.619854144209623,-8.025859054884315,-0.4161788913371041,9.806447511407221,0.06297814437020788
1789141122823400700,6.975400634765625,-5.624031722155213,-8.022406868603825,-0.4261991674289107,9.806509238998151,0.0526027850114594
1789141122833373000,6.985373046875,-5.627758633723855,-8.019197258907557,-0.4372689891062676,9.806562134906622,0.041655489116663995
1789141122843345700,6.995345703125,-5.632701935344934,-8.015092161676288,-0.4487349704943597,9.806599616241996,0.03163057176446771
1789141122853317600,7.005317626953125,-5.635949538964033,-8.012176566490531,-0.4598694549057632,9.8066212415224,0.0236702185430937
1789141122863289900,7.015289794921875,-5.635624544793367,-8.0118609246701,-0.4692513965614139,9.806634741000652,0.017070908205664863
1789141122873262600,7.0252626953125,-5.634229291042685,-8.012341986185312,-0.4777210091451183,9.806641474385355,0.01281261390238285
1789141122883234800,7.03523486328125,-5.631746242055296,-8.013606307032704,-0.4857229676844551,9.8066420990337,0.012219730536811382
1789141122893207800,7.045207763671875,-5.627420195549727,-8.016340115910769,-0.4907292515391483,9.806641306174567,0.012976963749063118
1789141122903179500,7.055179443359375,-5.623121037051082,-8.019073924788833,-0.4953304251916706,9.806636156425908,0.01662330157534251
1789141122913151700,7.06515185546875,-5.6216082944005725,-8.019904530394077,-0.4990400568319484,9.806628996298745,0.020425464113650087
1789141122923124700,7.075124755859375,-5.621488467413187,-8.019780611753463,-0.5023738408971578,9.80662168677583,0.023753281708125476
1789141122933096700,7.0850966796875,-5.625149328008294,-8.017035112437606,-0.5052066897029057,9.80661414105132,0.026642903416589817
1789141122943068700,7.095068603515625,-5.632350637689233,-8.011797211784124,-0.5080598871769383,9.806599678437454,0.031557320209615713
1789141122953041700,7.105041748046875,-5.6399213652044535,-8.006256528791784,-0.5113918811438605,9.8065728283564,0.03882819532960985
1789141122963013600,7.115013671875,-5.64395515076518,-8.003200063830613,-0.514739218810387,9.806549956647835,0.04444566006954678
1789141122972986600,7.124986572265625,-5.647770325139165,-8.00033356848359,-0.5174361662767827,9.806525322221423,0.049478715920582776
1789141122982958800,7.134958740234375,-5.649511031326651,-7.998805043742061,-0.5220294123511761,9.806497788890006,0.054523799666444876
1789141122992930600,7.1449306640625,-5.648239696216583,-7.999582457855343,-0.5238921374831348,9.806495408312296,0.05515382498284242
1789141123002903800,7.15490380859375,-5.647609581619501,-7.999941354295611,-0.5252037680709735,9.806491587478417,0.055833693057758746
1789141123012875800,7.164875732421875,-5.648423236089944,-7.999230575677752,-0.5272680071244016,9.806477699763066,0.0581509436315063
1789141123022847700,7.17484765625,-5.650312410837412,-7.997793820872903,-0.5288208991222083,9.80646193468784,0.06076354271196464
1789141123032820700,7.18482080078125,-5.651400206074118,-7.99681007053256,-0.5320625479245558,9.8064395040843,0.06426819605675527
1789141123042792700,7.194792724609375,-5.6523132292658085,-7.995823982104659,-0.5371597979983315,9.806405520600618,0.06926332833902082
1789141123052764700,7.2047646484375,-5.651549843677878,-7.995957837617395,-0.5431639703165739,9.806370315356578,0.07406560115126773
1789141123062737700,7.214737548828125,-5.649237475082278,-7.997311590313911,-0.5472664737319574,9.806351595375356,0.07645720105677359
1789141123072710000,7.2247099609375,-5.646895880392194,-7.998643131178617,-0.5519535355696454,9.806326487253468,0.07961504104173545
1789141123082682600,7.2346826171875,-5.643661720776557,-8.000601864030957,-0.5566334370141849,9.806302079382009,0.0826324173949631
1789141123092654600,7.244654541015625,-5.640794640907645,-8.002277103766799,-0.5615897442473098,9.80626983744462,0.08635937951594337
1789141123102626800,7.254626708984375,-5.641887696841359,-8.001085263633728,-0.5675710836792365,9.806213995596096,0.09255369960605138
1789141123112599600,7.264599609375,-5.64406854801178,-7.999031838235258,-0.574771626175195,9.806136897594518,0.10030798397223298
1789141123122571800,7.27457177734375,-5.647348884856701,-7.996161251235008,-0.5824417954768986,9.806044984203758,0.10892380793510288
1789141123132543700,7.284543701171875,-5.653105840948224,-7.991573923444747,-0.589516884962283,9.805940360479894,0.11799672542936844
1789141123142516700,7.294516845703125,-5.656572640275955,-7.988630271208286,-0.5961179637277498,9.805843435866572,0.12577274241758502
1789141123152488700,7.30448876953125,-5.656570886710286,-7.988196555966138,-0.6019149230360984,9.805770737031928,0.13130209621144173
1789141123162461400,7.31446142578125,-5.653552415671944,-7.989838477954268,-0.6084422424456104,9.805701123143354,0.13638646020065998
1789141123172433700,7.32443359375,-5.648265415179729,-7.993157977765798,-0.6139266286734492,9.805651562341419,0.13992855742165483
1789141123182405600,7.334405517578125,-5.640995716437697,-7.997957487002014,-0.618241715393588,9.805618232694014,0.14223406790051507
1789141123192378600,7.344378662109375,-5.633476426848769,-8.002875654181837,-0.6231340174797922,9.805566985382546,0.14569655820744454
1789141123202350600,7.3543505859375,-5.626509510445595,-8.007313344368338,-0.6290433145888149,9.80548922736465,0.15084021247226687
1789141123212322600,7.364322509765625,-5.621448719924688,-8.01033356897235,-0.6358036755692213,9.805386938416401,0.1573623167996679
1789141123222295600,7.374295654296875,-5.618816033333539,-8.011615425476432,-0.642882966305688,9.80527105008326,0.16441862711708286
1789141123232267500,7.384267578125,-5.6165171087414025,-8.012731277763843,-0.6490474802847951,9.805166151143421,0.1706058104966641
1789141123242239500,7.394239501953125,-5.612956785911321,-8.014628635817767,-0.656382645478472,9.805034131315352,0.17804468990800637
1789141123252212500,7.40421240234375,-5.613934691032767,-8.013343272182345,-0.6636666650068015,9.80489936609613,0.18529699398574953
1789141123262184700,7.414184814453125,-5.616147106385231,-8.01118872449696,-0.6709099141333251,9.804759758403907,0.19250790355768974
1789141123272157700,7.42415771484375,-5.616987064340711,-8.010266348955035,-0.6748920425720513,9.804681540993696,0.19649379378712226
1789141123282129400,7.43412939453125,-5.616211403793097,-8.010470347094536,-0.6789037624314427,9.8045993924375,0.2005162991735163
1789141123292101600,7.4441015625,-5.614361392012238,-8.011419610643387,-0.6830018454000354,9.804514819575344,0.20464283878590805
1789141123302074600,7.45407470703125,-5.6106122686117885,-8.013664759221673,-0.6874594823960214,9.804418472831529,0.20921723500840667
1789141123312046600,7.464046630859375,-5.606929780706763,-8.016040840703248,-0.6897927476491779,9.80436370793382,0.21175137038149283
1789141123322018600,7.4740185546875,-5.600902775502204,-8.020128986799717,-0.6912432387184352,9.804321440834048,0.21372684765619948
1789141123331991600,7.483991455078125,-5.5986307389169925,-8.021721808949112,-0.6911654973071069,9.80431728907743,0.2139139328823975
1789141123341963500,7.493963623046875,-5.597321994405984,-8.022590992999076,-0.6916755657210946,9.804302470557356,0.21458775372649858
1789141123351936500,7.5039365234375,-5.5972845850050446,-8.022499223062395,-0.6930402051378041,9.804272587662958,0.21594504465254427
1789141123361908700,7.51390869140625,-5.599858819407224,-8.020548088994621,-0.6948164210300892,9.804239933728049,0.21739279195377795
1789141123371880400,7.52388037109375,-5.603679254478216,-8.017586901101469,-0.6981929117258637,9.80417405191613,0.2203756009681982
1789141123381853700,7.533853759765625,-5.604534994524717,-8.01656340327263,-0.70306300198026,9.80406553697609,0.22516179732229724
1789141123391825700,7.54382568359375,-5.602158913043141,-8.017912479794026,-0.7066034510660916,9.803979018307748,0.22888614258066775
1789141123401797600,7.553797607421875,-5.601418908330798,-8.018328074857592,-0.7077514520574361,9.80395055849552,0.23009664734633495
1789141123411770600,7.5637705078125,-5.600227068197727,-8.019253373008967,-0.7066981436122208,9.803972350077899,0.22916435364862922
1789141123421742600,7.57374267578125,-5.598683930408955,-8.020622907796502,-0.7033732369732111,9.804045079559108,0.2260255962330085
1789141123431715600,7.583715576171875,-5.598790897914767,-8.020974205452204,-0.6985016854140907,9.80415589093652,0.22117548201341364
1789141123441687600,7.5936875,-5.600103734079003,-8.02051477124691,-0.6932320744480938,9.804275794075224,0.21579131351777106
1789141123451659800,7.60365966796875,-5.603012315002084,-8.01880036854446,-0.6895465908683837,9.804361846255183,0.21182455312747767
1789141123461632500,7.613632568359375,-5.60479043059051,-8.017712573307753,-0.6877391761202365,9.804403724406374,0.20986534309685845
1789141123471604500,7.6236044921875,-5.606765530055761,-8.016422533497213,-0.686682287478447,9.80442981296162,0.20865893517732578
1789141123481576700,7.63357666015625,-5.609867003202438,-8.014487766042352,-0.6839372996192425,9.80449218458652,0.20573083836497047
1789141123491549400,7.643549560546875,-5.614014770531654,-8.01215786179006,-0.6771728469856083,9.804635216393866,0.1988134405307499
1789141123501521700,7.653521728515625,-5.616126063597202,-8.011465203350783,-0.6677811876535416,9.804821054673592,0.18937388185707918
1789141123511493600,7.66349365234375,-5.618332049208879,-8.010725198638438,-0.6580344312734902,9.805005142276126,0.17960149205572945
1789141123521466400,7.67346630859375,-5.619097188362479,-8.011164174577594,-0.6460543628834188,9.805218077131018,0.16759875895249912
1789141123531438600,7.6834384765625,-5.618882084307074,-8.012225081807374,-0.634667145819962,9.805406420554187,0.15618563515311054
1789141123541411600,7.69341162109375,-5.618258399450778,-8.013329828178883,-0.6261888019405305,9.805538310419593,0.14769304909176473
1789141123551383600,7.703383544921875,-5.616424754282832,-8.015355196526647,-0.6166416597858071,9.805677020394262,0.13817038504332219
1789141123561355500,7.71335546875,-5.615335205480456,-8.01683988212645,-0.6071866528939456,9.805804782303916,0.12876089608128555
1789141123571328500,7.72332861328125,-5.615189075008034,-8.01758807014525,-0.5986019990958273,9.805913757265476,0.12019379775263918
1789141123581300500,7.733300537109375,-5.6119812188774345,-8.020586667439341,-0.588425180735439,9.80602955294596,0.11032810617772572
1789141123591272700,7.743272705078125,-5.608583977654576,-8.02366709779799,-0.5787338078044355,9.806127362309603,0.10122699812004876
1789141123601245700,7.75324560546875,-5.608273012009263,-8.02439132041931,-0.5716619697220623,9.806196062850628,0.09433146352941474
1789141123611217400,7.763217529296875,-5.6041573933839794,-8.02784467574358,-0.5634790651252493,9.806260517119632,0.08737021746496827
1789141123621190700,7.773190673828125,-5.602242499673366,-8.029798732420801,-0.5546018215887248,9.806327019384012,0.07951275207034515
1789141123631162600,7.78316259765625,-5.603316266384721,-8.029611685416102,-0.5464017831940203,9.806389522887391,0.07138931141585353
1789141123641134600,7.793134521484375,-5.6014270916372535,-8.031527163648605,-0.5375513911318034,9.80644053629668,0.06402772476212032
1789141123651107600,7.803107666015625,-5.600223561066389,-8.033020032554864,-0.5277022338232025,9.806490384885247,0.05595315975013555
1789141123661079600,7.81307958984375,-5.603831230169535,-8.031081173446774,-0.5188331735931336,9.806540737719772,0.046215713539097744
1789141123671051500,7.823051513671875,-5.606516523730755,-8.029796394333243,-0.5096282324722037,9.806580636829565,0.03680779815915641
1789141123681024500,7.8330244140625,-5.610345142108201,-8.027765765288471,-0.4993794448541477,9.80661529479896,0.025924615187715133
1789141123690996700,7.842996826171875,-5.615168032220006,-8.024922066295147,-0.490807796668075,9.806637093991569,0.01572896039277012
1789141123700968400,7.852968505859375,-5.617252437278628,-8.023986831271648,-0.4821741160964593,9.806646141765397,0.008540548270134873
1789141123710941400,7.86294140625,-5.616884773010015,-8.02469118014872,-0.4746853312436491,9.806645721509227,0.009431146858349478
1789141123720913700,7.87291357421875,-5.6161669801294805,-8.025633429434896,-0.4671897147912532,9.806638731277562,0.015050454250173815
1789141123730886700,7.88288671875,-5.614352624183893,-8.027292302557825,-0.4604578857855871,9.806626226341347,0.02192306549926295
1789141123740858600,7.892858642578125,-5.611906400075554,-8.029406518232822,-0.4533521819662302,9.806605485397036,0.02965692032197478
1789141123750830600,7.90283056640625,-5.611305511572957,-8.030128987288474,-0.4479617210995406,9.806588571318537,0.034805073693291944
1789141123760803600,7.912803466796875,-5.609568897038698,-8.031651666811108,-0.4423818020753562,9.80656550482568,0.040821146285832874
1789141123770775600,7.922775634765625,-5.607927559572458,-8.033114140579103,-0.4365955102914944,9.806537766917584,0.046978448356964506
1789141123780747800,7.932747802734375,-5.608488700586557,-8.032905466264486,-0.4332186542695388,9.806524064439017,0.04979870012858003
1789141123790720800,7.942720703125,-5.609343856111169,-8.032528449645637,-0.4291107440266758,9.806505614354576,0.05324900684490912
1789141123800692500,7.9526923828125,-5.611676682972908,-8.031179957646131,-0.4238149026408791,9.806482113591954,0.057396287513139875
1789141123810665700,7.962665771484375,-5.616330061736703,-8.028223445928097,-0.4181482551813125,9.80645626147976,0.061632906085800306
1789141123820637700,7.9726376953125,-5.61902003147304,-8.026621271428466,-0.4127354728849604,9.806424404726549,0.06652904632070843
1789141123830609700,7.982609619140625,-5.620187321686744,-8.026084095811843,-0.407234208587557,9.806385959075946,0.07187187331844144
1789141123840582700,7.992582763671875,-5.619246825966239,-8.026978998824953,-0.4025619424602016,9.806350365183192,0.0766509719268023
1789141123850554600,8.0025546875,-5.617530669698119,-8.028420429804921,-0.3977469068612903,9.806309926756294,0.08169238046924628
1789141123860526600,8.012526611328125,-5.615164525088668,-8.030264011844992,-0.3939119683409109,9.806273458845764,0.08590828182664956
1789141123870499600,8.02249951171875,-5.612532423019409,-8.032328543159366,-0.3893115618733689,9.80622779359479,0.09100536816099039
1789141123880471800,8.032471923828124,-5.612006353318691,-8.03291423409283,-0.384780202054046,9.806183869966949,0.09560394486292365
1789141123890444500,8.042444580078126,-5.613263075381517,-8.032174813902378,-0.3818862707108258,9.806158600897689,0.09821004188444135
1789141123900416500,8.05241650390625,-5.615894008406997,-8.030450474327802,-0.3794784058514982,9.806139675405907,0.10014420218347769
1789141123910388700,8.062388671875,-5.617479231771826,-8.029351573175191,-0.3792465698570013,9.806138769525283,0.1001498806797663
1789141123920361500,8.072361572265624,-5.620433989924192,-8.027290548992157,-0.3791066499296575,9.806140926781113,0.0999688409621248
1789141123930333700,8.082333740234375,-5.622337777718902,-8.025839765661955,-0.3815825750565156,9.806167129020569,0.09735260730531871
1789141123940305700,8.0923056640625,-5.621038385558128,-8.026635299953817,-0.3839817451527342,9.806189664509716,0.0950421730390326
1789141123950278400,8.1022783203125,-5.617457019940018,-8.029006705260276,-0.3868156899370253,9.806213506951394,0.09260171733468565
1789141123960250600,8.112250732421876,-5.612822930398584,-8.032230928003788,-0.3871480271639302,9.806208944712678,0.09308413593490464
1789141123970223600,8.1222236328125,-5.608904295650124,-8.034889918079973,-0.3887461100103333,9.806214225032482,0.0924635292660938
1789141123980195600,8.132195556640625,-5.604042242571711,-8.038256764164567,-0.3892598682187497,9.806204424519237,0.09348418428071015
1789141123990167600,8.14216748046875,-5.598603850910068,-8.042026930353044,-0.3896558087337762,9.806188189309646,0.09522117974820594
1789141124000140500,8.152140625,-5.597116827222704,-8.042958073723316,-0.3917955972414463,9.806201360789366,0.09386167972714986
1789141124010112500,8.162112548828125,-5.596567376646399,-8.043141029074787,-0.3958737334005534,9.806234969158762,0.09030923193865913
1789141124020084700,8.172084716796874,-5.596843855500221,-8.042713159051537,-0.4006128907516598,9.80627496787941,0.08577904294987694
1789141124030057700,8.1820576171875,-5.599697491365671,-8.040429432028532,-0.4065450572796166,9.806333433714125,0.07887278780845788
1789141124040029400,8.192029541015625,-5.602810070428252,-8.038006588795781,-0.4115298234222456,9.806380378934394,0.07274108902887946
1789141124050001700,8.202001708984374,-5.605543879306316,-8.035944395568967,-0.414571456140466,9.806410187028595,0.06865309529085087
1789141124059974700,8.211974609375,-5.6073892149120566,-8.034508809807896,-0.4174365997806191,9.806434297701687,0.0651559827581778
1789141124069946600,8.221946533203125,-5.606836257204413,-8.03478236605227,-0.4195857406385243,9.806445818830305,0.06334888333130242
1789141124079919600,8.231919677734375,-5.604782831805944,-8.03608701891005,-0.4220233795816078,9.806454167197742,0.06201263391291745
1789141124089891600,8.2418916015625,-5.603885590705275,-8.036484493795037,-0.4263466496082022,9.806475726213167,0.05849811575046718
1789141124099863600,8.251863525390625,-5.60046438408494,-8.038634365305304,-0.4307514239057898,9.806486931639569,0.0566094095584622
1789141124109836500,8.26183642578125,-5.596183345764875,-8.041451176291703,-0.4338065006274729,9.806484574852652,0.05703878735593652
1789141124119808800,8.271808837890624,-5.590770088544487,-8.044948370757698,-0.4387325588528066,9.806480669181035,0.057685477348130405
1789141124129780500,8.281780517578126,-5.586351687580347,-8.04774472347796,-0.4436933230653405,9.806475839210803,0.05844391761928724
1789141124139753500,8.29175341796875,-5.584308783575892,-8.048885710206628,-0.4486940174294635,9.806481498994074,0.05755603752200319
1789141124149726700,8.301726806640625,-5.584910841122269,-8.04828131457269,-0.4520366423882543,9.806495672405347,0.055145035513716675
1789141124159699700,8.31169970703125,-5.586256410512328,-8.047124545753002,-0.4559790598710999,9.80651378456355,0.05175359945489131
1789141124169671400,8.32167138671875,-5.591139506378769,-8.04354610274434,-0.4592652054022997,9.806548112371399,0.0448724347599092
1789141124179643600,8.3316435546875,-5.594880446472764,-8.040787159425019,-0.461993863181211,9.806570408805152,0.039503167743822114
1789141124189616600,8.34161669921875,-5.597836958190799,-8.038672943750024,-0.4629840797949582,9.806585242524866,0.03579729462664289
1789141124199588600,8.351588623046876,-5.599332749706506,-8.037461814394593,-0.4659175394309684,9.806595792702295,0.03282943633552268
1789141124209560600,8.361560546875,-5.599276635605096,-8.037379981330037,-0.4679984738908708,9.806598276682292,0.03207206968757525
1789141124219533600,8.371533447265625,-5.598970346134901,-8.037545401024818,-0.4688110323827713,9.80659757378959,0.032137521079059775
1789141124229505500,8.381505615234374,-5.60039014980495,-8.036542361462116,-0.4690544492172077,9.806603399474572,0.03041051383352847
1789141124239478500,8.391478515625,-5.6008004841715096,-8.03629335513711,-0.4684066528329625,9.806603456251628,0.030172795171676633
1789141124249450800,8.40145068359375,-5.601672006309032,-8.035739228385687,-0.4674926432605832,9.806605471223623,0.02954176962418458
1789141124259422500,8.41142236328125,-5.604849467301368,-8.033536165383458,-0.4672780871944502,9.806615540836097,0.026102042763574237
1789141124269395700,8.421395751953124,-5.607229055914282,-8.031790783020854,-0.4687280302744358,9.80662359601291,0.02281403506381449
1789141124279367700,8.43136767578125,-5.609912011387944,-8.029889333313703,-0.4691953920578584,9.8066300262428,0.019680576753523134
1789141124289339600,8.441339599609375,-5.6128293601393695,-8.027832985305785,-0.4695024121804163,9.806636372821135,0.016475202908166925
1789141124299312600,8.451312744140624,-5.615542710751295,-8.025932120120524,-0.4695501237796619,9.806640225583969,0.01382525783607105
1789141124309284600,8.46128466796875,-5.618177150908112,-8.02411367252171,-0.4691106729164719,9.806642443577562,0.011980642847931901
1789141124319256600,8.471256591796875,-5.620986947631836,-8.022213391858338,-0.4679525889225304,9.806643219588713,0.01141749240298361
1789141124329229600,8.4812294921875,-5.623846428716182,-8.02026868753135,-0.4669356669649481,9.806643050196222,0.011810042410811974
1789141124339201800,8.491201904296876,-5.625106657910346,-8.019353910773992,-0.467471089015901,9.806643799808086,0.011342921351461574
1789141124349174800,8.5011748046875,-5.626029033452272,-8.01857591213882,-0.4697159818658605,9.806646107591396,0.009357780910145318
1789141124359146500,8.511146484375,-5.627616010382771,-8.0174547991544,-0.4698386949300766,9.806645350943029,0.009938655921374811
1789141124369118700,8.52111865234375,-5.629891554099321,-8.016015121740102,-0.4671384960606694,9.806641141999354,0.013609901994166401
1789141124379091700,8.531091796875,-5.630133546161651,-8.015968944510817,-0.4650092289470136,9.806638208921477,0.01557206806720616
1789141124389063700,8.541063720703125,-5.631397867009043,-8.015194453006982,-0.4630428973101079,9.806633899389018,0.01800955777889942
1789141124399035600,8.55103564453125,-5.632197492954135,-8.014796978121996,-0.4601835623562336,9.806627826257714,0.020947278656819446
1789141124409008600,8.561008544921876,-5.634346779942512,-8.013515706139803,-0.4561797335423528,9.806617114972749,0.025657724298581232
1789141124418980600,8.570980712890625,-5.636731629252433,-8.011881967458129,-0.4553983739063143,9.80661056155451,0.02780456184826895
1789141124428953600,8.58095361328125,-5.635245190086961,-8.01279148351848,-0.4577930139578878,9.80661882296386,0.024847846267045223
1789141124438925800,8.59092578125,-5.633129220846295,-8.014089122113585,-0.4611032344844192,9.806628165262051,0.020724311152398957
1789141124448897500,8.6008974609375,-5.632650497418641,-8.014238759717344,-0.4643357135996222,9.806633804343397,0.017765310571285477
1789141124458870500,8.61087060546875,-5.631638690027594,-8.014840232741832,-0.4662265688475221,9.806637746071273,0.015544202210381615
1789141124468842800,8.6208427734375,-5.629321645256876,-8.0164120121032,-0.4671914683569222,9.806641473842761,0.013213824678290543
1789141124478814700,8.630814697265626,-5.626989987438916,-8.01803230678141,-0.4674755459953099,9.806643260730674,0.011820922026257591
1789141124488787700,8.64078759765625,-5.625568430203199,-8.019088537836074,-0.4664636290064081,9.80664241249081,0.012411739404165166
1789141124498759700,8.650759765625,-5.625228238463402,-8.019287859800457,-0.4671396285718306,9.80664332600868,0.011688549127115044
1789141124508731600,8.660731689453126,-5.621358119031787,-8.021826438367366,-0.4701184617195278,9.80664536214844,0.009198847550549664
1789141124518704600,8.67070458984375,-5.620203103777766,-8.022436094698309,-0.4735150088226422,9.806647374583655,0.006896041133129198
1789141124528676900,8.6806767578125,-5.620353325903415,-8.022236772733926,-0.4751102421248331,9.806648394757161,0.005599069271473028
1789141124538649600,8.690649658203125,-5.620485427850484,-8.0220228377223,-0.4771449993554502,9.806648529610651,0.004338284565040139
1789141124548621600,8.70062158203125,-5.619307031720877,-8.022828893408178,-0.4774879675742238,9.806648678884732,0.005605154706570984
1789141124558593800,8.71059375,-5.61805147870183,-8.023743085643648,-0.4769001942815258,9.806647577260122,0.007253446215583469
1789141124568566500,8.72056640625,-5.618216898396611,-8.023597539693117,-0.4773944075392559,9.806647541193813,0.006929613681937912
1789141124578538800,8.730538818359374,-5.617805979508161,-8.023802122354507,-0.4787794686894863,9.806646811474634,0.007253739125945358
1789141124588510700,8.7405107421875,-5.616203805008531,-8.024889917591214,-0.4793590952083468,9.806645892360168,0.009211561422033497
1789141124598483500,8.7504833984375,-5.614164992657304,-8.026284586820006,-0.4798864435506984,9.80664297982813,0.011717435493710756
1789141124608455700,8.76045556640625,-5.613725432196259,-8.026581523939967,-0.4800677914669737,9.80664258913228,0.012263847781864299
1789141124618428700,8.7704287109375,-5.612065974551439,-8.027834738871455,-0.4784993365738541,9.806639234182878,0.014270355145400494
1789141124628400600,8.780400634765625,-5.609371913161874,-8.029795225289464,-0.4772057896319776,9.806634382259428,0.017665746411486303
1789141124638372600,8.79037255859375,-5.607537683472037,-8.031220874178409,-0.4747690640043467,9.806629428250504,0.020310650031652774
1789141124648345600,8.800345703125,-5.605638571852445,-8.032741215613484,-0.4714510620301589,9.806621683120383,0.0235053887016606
1789141124658317600,8.810317626953125,-5.603135064598917,-8.034728590038418,-0.4673346396872773,9.806610291682048,0.02796998830940754
1789141124668289500,8.82028955078125,-5.603089471891522,-8.035065274646877,-0.4620567358169704,9.806601828473188,0.030701836392521355
1789141124678262800,8.8302626953125,-5.605354494214057,-8.033788094317913,-0.4567513959504664,9.806597297617264,0.03195982287893548
1789141124688234500,8.840234375,-5.60702798038423,-8.032832401028275,-0.4530145109770819,9.806593014044996,0.03338801972273707
1789141124698206700,8.850206787109375,-5.608973853754997,-8.031599059841037,-0.4507965791992843,9.806592030953844,0.03378526893389
1789141124708179700,8.8601796875,-5.612962631130218,-8.028842454609274,-0.4502510010804981,9.806598527340338,0.031811113479990466
1789141124718151700,8.870151611328126,-5.615460877686739,-8.027243787240982,-0.4476032630506902,9.80659457298356,0.033094574363300225
1789141124728124700,8.880124755859375,-5.615231745105982,-8.027586317068337,-0.4443132450619712,9.806582678686098,0.03633256198072663
1789141124738096600,8.8900966796875,-5.61484303804934,-8.028066209539771,-0.4405433346018195,9.806568179453201,0.04010458930632755
1789141124748068600,8.900068603515624,-5.614459007167816,-8.02855077818632,-0.4365900303987786,9.806551233211312,0.044060255665164326
1789141124758041600,8.91004150390625,-5.613780961775779,-8.029146990513802,-0.4343382328839972,9.806540042131418,0.04647778706998206
1789141124768013800,8.920013916015625,-5.613091225945949,-8.029621037766336,-0.4344801621053367,9.806539097298344,0.046594692328490624
1789141124777985500,8.929985595703124,-5.613358936971426,-8.029343974390626,-0.4361556941021233,9.806547837841746,0.044883270592819685
1789141124787958500,8.93995849609375,-5.616695972439646,-8.026918793070315,-0.4378193529980257,9.806559462784655,0.042145534680656606
1789141124797930800,8.9499306640625,-5.620282014232874,-8.024284937435388,-0.4400746576441451,9.806572116957863,0.039085750180486545
1789141124807903500,8.959903564453125,-5.624523889586329,-8.021284002053736,-0.4405902424834668,9.806575750800839,0.038181562397827176
1789141124817875700,8.969875732421874,-5.627775000336766,-8.019051712957024,-0.4397142268339172,9.806571865107564,0.03922607876609498
1789141124827847700,8.97984765625,-5.631781897890567,-8.016260620933771,-0.4392976819222792,9.806566849253773,0.04038282556486266
1789141124837820400,8.9898203125,-5.635695856463909,-8.013492909786105,-0.4396015237070619,9.806562823606221,0.04137013495965724
1789141124847792600,8.999792724609375,-5.638235604074597,-8.011725315591692,-0.4392543907698243,9.806556832304793,0.042787546482600546
1789141124857764600,9.0097646484375,-5.6399049985915415,-8.010646872705221,-0.4374947606861591,9.806546343793713,0.045190540755949575
1789141124867737600,9.019737548828124,-5.640290198516845,-8.010494897013903,-0.4353010135015472,9.806535867944655,0.04736308310711933
1789141124877709600,9.02970947265625,-5.640550895279645,-8.01042358534336,-0.433222197933495,9.80652556985431,0.049377519592404925
1789141124887681800,9.039681884765624,-5.641268688160181,-8.010034293764829,-0.4310718880318105,9.806513872913511,0.05167622578398451
1789141124897654500,9.049654541015624,-5.642262959894538,-8.009346896022558,-0.4308253659248351,9.806509878957193,0.05237842364288231
1789141124907626800,9.059626708984377,-5.644376591047644,-8.007936444702745,-0.4293522246323525,9.806496620541024,0.05477744133550072
1789141124917599700,9.069599853515625,-5.646739228525758,-8.006293353670834,-0.4289393695151433,9.806487670527543,0.0564422759706866
1789141124927571500,9.079571533203126,-5.649447318440675,-8.004448602586985,-0.4277190339399501,9.806472493309698,0.05910368218688298
1789141124937543700,9.089543701171875,-5.650127117398381,-8.004038268220425,-0.4264093395808711,9.806462836095001,0.06063506466502701
1789141124947516700,9.0995166015625,-5.650268571695685,-8.004041775351762,-0.4244645621886476,9.806451885217635,0.0623799754222988
1789141124957488600,9.109488525390624,-5.649978064316511,-8.004355079084634,-0.4224235578803345,9.806441867140236,0.06396817941072731
1789141124967460600,9.119460693359375,-5.651261674386262,-8.003602214890718,-0.419494518691115,9.806419309307596,0.06725256754669329
1789141124977433600,9.12943359375,-5.6512154971569775,-8.003824917730688,-0.4158680718222632,9.806397918097408,0.07039910574578379
1789141124987405600,9.139405517578124,-5.649884540814161,-8.004965904459358,-0.4119705529270693,9.80637747156564,0.07317839665234607
1789141124997378600,9.149378662109376,-5.650100813913345,-8.004925572448968,-0.4097770980034023,9.806361436261074,0.07526804960552387
1789141125007350800,9.159350830078123,-5.651697727715969,-8.003843622431159,-0.4088810624791309,9.80634867258544,0.07687244459270692
1789141125017322500,9.169322509765625,-5.650886411333084,-8.004483089378475,-0.4075694684239104,9.806342325814573,0.0776519314883164
1789141125027295500,9.17929541015625,-5.648526696464419,-8.006140793457627,-0.4077316001830622,9.806352662536979,0.0763986981519847
1789141125037267700,9.189267822265624,-5.64518673838675,-8.008515121373534,-0.4073722288187593,9.806361445960981,0.07533315677047603
1789141125047239400,9.199239501953125,-5.641925690764189,-8.010887111201882,-0.4058915618069469,9.806358831560216,0.07557933019300299
1789141125057212700,9.209212646484374,-5.6386862704515455,-8.01326143911779,-0.4040461531359702,9.80635272614866,0.0764280867980255
1789141125067184600,9.2191845703125,-5.633896698087454,-8.016721224182843,-0.4022355600500479,9.80634702663215,0.07721806793735665
1789141125077157600,9.22915771484375,-5.630156342515349,-8.019384890434145,-0.4014858011286705,9.806343753497128,0.07750805664629076
1789141125087129600,9.239129638671876,-5.631881266611814,-8.018074976879358,-0.4034475296556949,9.806357482583238,0.07573486014396055
1789141125097101600,9.2491015625,-5.632818255200982,-8.017431418278813,-0.4031688953774049,9.8063549218618,0.07613374814314586
1789141125107074800,9.25907470703125,-5.631339414820075,-8.018495832639932,-0.4026544795818627,9.80635220237083,0.07646002847336236
1789141125117046500,9.269046630859377,-5.629776987808943,-8.01960233257711,-0.402466409663856,9.806351896776032,0.07649962512443506
1789141125127018800,9.279018798828124,-5.629952928897738,-8.019615192058682,-0.3997388113308697,9.806330156149052,0.07923254500864933
1789141125136991700,9.28899169921875,-5.628337310394644,-8.020856132030486,-0.3975787472201511,9.806313022713786,0.08128795179266168
1789141125146963700,9.298963623046877,-5.623316267362236,-8.02437436928451,-0.3976532737610861,9.806314409584585,0.08121383944624101
1789141125156934700,9.3089345703125,-5.614142780825495,-8.030819307640195,-0.3971485025767237,9.806299631181739,0.0828998917091636
1789141125166907600,9.31890771484375,-5.608785053184628,-8.034605255919695,-0.3962837389735504,9.806281016530598,0.0851164959696378
1789141125176879600,9.328879638671877,-5.602855078613758,-8.038703923410177,-0.3970515450082719,9.806269670566797,0.08643423924208125
1789141125186852600,9.3388525390625,-5.595238173869252,-8.044148160290717,-0.3941763548981398,9.806213468096109,0.09253250198452365
1789141125196824600,9.348824462890626,-5.592228470659256,-8.046379864865541,-0.3913390125803649,9.806174039978579,0.09667015145914298
1789141125206796500,9.358796630859375,-5.592983672940731,-8.045974791195988,-0.3888622472032904,9.80615495322875,0.09856767680200389
1789141125216769800,9.368769775390623,-5.591874834915996,-8.04694159040153,-0.3847894813390448,9.806110881923791,0.10288559211909205
1789141125226741500,9.378741455078124,-5.593873899778723,-8.045740982440114,-0.3808062569217756,9.806080994783931,0.10565080307398067
1789141125236713700,9.388713623046876,-5.596403125995397,-8.044098475930094,-0.3783326698824763,9.806067456996333,0.10688721649371954
1789141125246686700,9.398686767578123,-5.5971063058286905,-8.043780496022105,-0.3746643566332757,9.806031593011502,0.11009742923728061
1789141125256658400,9.408658447265625,-5.594977477106451,-8.04544813697338,-0.3706614046022295,9.805979134657075,0.11476838235633269
1789141125266631700,9.418631591796874,-5.591670252254605,-8.047896699169277,-0.3673959000002592,9.80592552842463,0.11925505765361914
1789141125276603600,9.428603759765624,-5.585969410264492,-8.051955619171261,-0.3651497650412842,9.805865946143248,0.12397960595264117
1789141125286575600,9.43857568359375,-5.581352856379747,-8.055308436730504,-0.3617900793498382,9.805796369174402,0.12939608217441956
1789141125296548600,9.448548583984374,-5.577209180703759,-8.05835321125388,-0.3578563200974837,9.805718035651658,0.1351801530607662
1789141125306520600,9.4585205078125,-5.57467235570252,-8.060382671254873,-0.3516219192199409,9.80561856149297,0.1422085830045337
1789141125316492500,9.468492431640623,-5.576121969988942,-8.059672477158903,-0.3448512195086106,9.805538558128916,0.14762320925177005
1789141125326465500,9.478465576171876,-5.580220052957534,-8.056991275250912,-0.3411949985560029,9.805517548780843,0.14900965233592858
1789141125336437800,9.488437744140626,-5.583572285994887,-8.054800487208366,-0.3380848306462168,9.805496527483745,0.1504312596490495
1789141125346409500,9.498409423828123,-5.58696192843318,-8.052618466994167,-0.3340354456575587,9.80545827968724,0.15289005528765473
1789141125356382700,9.5083828125,-5.58908666550219,-8.05125127029419,-0.3314415201742202,9.80543204965693,0.15457222507381413
1789141125366354700,9.518354736328124,-5.589163822391629,-8.051346547362208,-0.3278065246727317,9.805376762921583,0.15804149464054726
1789141125376327700,9.52832763671875,-5.588000623831152,-8.052343157184124,-0.3231102931478992,9.805295460720128,0.1629800064630565
1789141125386299600,9.538299560546877,-5.587746356809139,-8.052793239039183,-0.3162079664135351,9.805180765083197,0.1697231298757999
1789141125396271600,9.548271728515624,-5.587421362638473,-8.053256764897704,-0.3100866339890286,9.805074629841172,0.1757476283283476
1789141125406244600,9.55824462890625,-5.589018276441097,-8.052354847621917,-0.3046800074388273,9.804988900261858,0.18046179398278572
1789141125416216600,9.568216552734375,-5.590441587242484,-8.051536516976356,-0.300166877395939,9.804915588553047,0.18441225612489592
1789141125426188800,9.578188720703125,-5.59427137466371,-8.049041193029284,-0.2957054958065971,9.804853422915517,0.18768973295348781
1789141125436161500,9.58816162109375,-5.597574507862329,-8.046891321519016,-0.2916944335343316,9.80479372652156,0.19080339181115236
1789141125446133500,9.598133544921875,-5.601193867403269,-8.044495950815081,-0.2882824696663767,9.804743856846512,0.19337147375903901
1789141125456105700,9.608105712890625,-5.604107709023356,-8.042555338141321,-0.2857890636817552,9.804706130114733,0.19527588794099002
1789141125466078500,9.618078369140624,-5.606573806875944,-8.040923937547207,-0.2832930090823211,9.804664375921767,0.19732973899703604
1789141125476050700,9.62805078125,-5.608961578795314,-8.039376123583317,-0.279949982264731,9.804604713438074,0.20029192355527545
1789141125486023700,9.638023681640624,-5.611701817414164,-8.037548323634267,-0.2775112108104862,9.804562354466935,0.20236069732219022
1789141125495995600,9.64799560546875,-5.613819540220499,-8.036114491438866,-0.2761802544676698,9.804539263149985,0.20344856839855782
1789141125505967600,9.657967529296876,-5.614826671436429,-8.035460411444307,-0.2747575829870998,9.804512474301713,0.20476680598575206
1789141125515940600,9.667940673828124,-5.61415154865384,-8.035954332441092,-0.2740861317326314,9.804496455193508,0.20550453045407185
1789141125525912600,9.67791259765625,-5.614485310652852,-8.035798265096545,-0.2718322518586181,9.804450200074498,0.20772122730954048
1789141125535884500,9.687884521484374,-5.615657277041674,-8.035022604548931,-0.2705467603590339,9.80442520908302,0.2088941785726833
1789141125545857800,9.69785791015625,-5.615408855238557,-8.035277456092834,-0.2681188938912935,9.804372639373035,0.21134166049362982
1789141125555829500,9.70782958984375,-5.615864782312512,-8.03504072472751,-0.2656563945015892,9.804320292151584,0.2137606841582664
1789141125565802500,9.717802490234376,-5.615786456379294,-8.035138339883089,-0.2643418961032293,9.804291032947596,0.21508055237769275
1789141125575774700,9.727774658203124,-5.615481335952878,-8.03537974742353,-0.2634962755919434,9.804272194596596,0.21595217352512047
1789141125585746400,9.737746337890623,-5.615194920226931,-8.035589006260038,-0.2632179335745983,9.804265484944175,0.2162559847892985
1789141125595719700,9.7477197265625,-5.615358586356043,-8.035408973518013,-0.2652207612969912,9.804309886444114,0.21424081743098555
1789141125605691600,9.757691650390624,-5.618096486887335,-8.033464853712916,-0.2661337479560636,9.80433468499059,0.21310619021539876
1789141125615663600,9.76766357421875,-5.623115776354074,-8.02991096062362,-0.2673709068018943,9.804367166234853,0.21159570242673173
1789141125625636600,9.77763671875,-5.626845610532164,-8.027226251584292,-0.2695104943801649,9.804415044359969,0.20936657660194402
1789141125635608600,9.787608642578125,-5.629152718430757,-8.02553172262609,-0.2717997926274314,9.804464095820903,0.207071676781731
1789141125645581800,9.797581787109374,-5.631733967095613,-8.023556038638949,-0.2766258245443925,9.804564270043437,0.2022876731550555
1789141125655553500,9.807553466796875,-5.6348073831915855,-8.021141963234543,-0.2839136069323867,9.804708352623852,0.19512482215735583
1789141125665525800,9.81752587890625,-5.635738526561856,-8.020259919703006,-0.2903134640373289,9.80483343482416,0.1887886175692515
1789141125675498800,9.827498779296874,-5.634886293646693,-8.020746826437115,-0.293376139543578,9.804892401454426,0.18568185501866533
1789141125685470500,9.837470458984376,-5.632808902850747,-8.022087135130166,-0.2965892929038032,9.804954023127962,0.1823731138833661
1789141125695442700,9.847442626953123,-5.629861743482947,-8.02409496782124,-0.2982248582163825,9.804985737300848,0.18065453421411995
1789141125705415700,9.857415771484376,-5.624968126222491,-8.0273788117975,-0.3021767376473173,9.805057796646702,0.17671840398581898
1789141125715387600,9.8673876953125,-5.620258633357286,-8.030463918331264,-0.3077777359921485,9.805153426381283,0.17132212158178828
1789141125725359600,9.877359619140623,-5.616639858338236,-8.032789146408438,-0.3131137632578611,9.805240196807397,0.16628193102350616
1789141125735332600,9.88733251953125,-5.614517459356785,-8.034094383788108,-0.3176763949982821,9.805313204623006,0.1619571555153002
1789141125745304600,9.8973046875,-5.612659264269471,-8.035163474324346,-0.3234071937352418,9.805401634422848,0.15648347044801278
1789141125755277600,9.907277587890626,-5.613394008284807,-8.034476661103964,-0.3276896568274125,9.805470379292068,0.15211397729871132
1789141125765249800,9.917249755859377,-5.614485895174742,-8.033561884346604,-0.331397790630348,9.805529472310281,0.148272317145927
1789141125775221500,9.927221435546874,-5.614234550762176,-8.033554285562039,-0.3358200640520081,9.805595002525061,0.14389514209799287
1789141125785194800,9.93719482421875,-5.615180891701579,-8.03271432760656,-0.3400394718453288,9.805656774110592,0.13956355619631922
1789141125795166700,9.947166748046875,-5.61502950053215,-8.032644769501685,-0.3441780329547822,9.805715105033698,0.13545509267534103
1789141125805138700,9.957138671875,-5.619740746963024,-8.029118348941207,-0.3495164348406717,9.805793610765516,0.1296183847871322
1789141125815111700,9.967111572265624,-5.618254892319441,-8.029866536960006,-0.3561434882976114,9.80587688980933,0.12313099780926255
1789141125825083600,9.977083740234375,-5.611077548035979,-8.03459473452568,-0.362595112122409,9.805942503807358,0.11777361971416848
1789141125835055600,9.9870556640625,-5.609651314625144,-8.035259335914255,-0.3698774146176874,9.80602360539326,0.11086396793908235
1789141125845028600,9.997028564453124,-5.607963799929618,-8.036175281715392,-0.3755180873857811,9.80608027630202,0.10570992597144423
1789141125855000800,10.007000732421876,-5.602710117185116,-8.03953745162487,-0.3819117704782634,9.80612910547183,0.10105276114705174
1789141125864973600,10.0169736328125,-5.599433287471532,-8.041394477668405,-0.3907846666332334,9.806201742839152,0.09379936425253924
1789141125874945500,10.026945556640625,-5.601988817173242,-8.039205443191527,-0.3991038744281977,9.80628322075799,0.08483019767889463
1789141125884917800,10.036917724609374,-5.602621854379773,-8.038322815138102,-0.4078849641138687,9.806353116190014,0.07624977432219936
1789141125894890500,10.046890380859375,-5.603732445970177,-8.037017577758432,-0.4182335953772068,9.806427793794182,0.06604647318411859
1789141125904862700,10.05686279296875,-5.605754307186603,-8.03506176751554,-0.4285925288388505,9.806493530651979,0.055454029506034064
1789141125914834700,10.066834716796874,-5.609326320454478,-8.032022253689169,-0.4387109315428882,9.806550253294663,0.044301965678816044
1789141125924807400,10.076807373046876,-5.611680774626136,-8.029809838336705,-0.4489664046300575,9.806591823734731,0.033686663579213495
1789141125934779600,10.086779541015623,-5.613720171499252,-8.027780378335715,-0.459644815837033,9.806622983501224,0.02304306578766557
1789141125944751600,10.096751708984376,-5.6132087148457765,-8.027382903450727,-0.4726485281864181,9.806639435623033,0.014421023318498658
1789141125954724600,10.106724609375,-5.612873199281096,-8.026863848012685,-0.4852784387873485,9.806639109968703,0.014605332079669976
1789141125964696600,10.116696533203124,-5.609924286347628,-8.028176099655031,-0.4975143451020121,9.806618463187075,0.024835995769784618
1789141125974669600,10.126669677734377,-5.608317435672879,-8.028599293503165,-0.5086808686194941,9.806588185238015,0.034863536274662335
1789141125984641500,10.1366416015625,-5.6080017938524485,-8.028056857189535,-0.5205826110763475,9.806544589324034,0.04550268865435114
1789141125994613800,10.14661376953125,-5.608099409008026,-8.02743200328946,-0.5290975241065025,9.806505247792002,0.05331569933490619
1789141126004586800,10.156586669921875,-5.609002495327592,-8.026222627499699,-0.5377992284130305,9.806458924557038,0.061237487183833574
1789141126014558500,10.166558349609376,-5.612371094977855,-8.023232213512063,-0.5472099577717483,9.806404603435546,0.06951223837068153
1789141126024530700,10.17653076171875,-5.6151966737926005,-8.02053172238171,-0.5576970111250877,9.806328514669596,0.07943433576632772
1789141126034503700,10.186503662109375,-5.614677618354559,-8.020076379829645,-0.5693374357646331,9.806226735127565,0.09106168999872485
1789141126044475600,10.1964755859375,-5.61502950053215,-8.01909613662064,-0.579600763364695,9.806127929332225,0.10124830207865833
1789141126054448600,10.20644873046875,-5.614924871113896,-8.018588771620392,-0.5875683447103947,9.806041968722877,0.10920010971293462
1789141126064420600,10.216420654296876,-5.612412596032023,-8.019801070019602,-0.594971935497783,9.805954080228542,0.11679268498360762
1789141126074392600,10.226392578125,-5.610167447453737,-8.02084911776781,-0.6019834947602823,9.805865920896789,0.12400414438643446
1789141126084365600,10.236365478515625,-5.60870789629519,-8.02140850521624,-0.6080991280963643,9.805784921587229,0.13025089129663286
1789141126094337800,10.246337890625,-5.610901022425294,-8.01919024464488,-0.6170528709352016,9.805665650106402,0.1389167632562593
1789141126104309500,10.2563095703125,-5.615787625423073,-8.015009744089841,-0.6268406899780035,9.805527031460779,0.14839385975865976
1789141126114282500,10.266282470703125,-5.619786339670419,-8.011583861294389,-0.6347546779729426,9.805404875630995,0.15627922529696217
1789141126124254700,10.276254638671874,-5.6235909926503895,-8.008200064074993,-0.643688729730621,9.805255645657105,0.16535060617056546
1789141126134226700,10.286226806640624,-5.6289522274225945,-8.003696907436847,-0.6527851324431598,9.805091597572748,0.17485581793885313
1789141126144199700,10.29619970703125,-5.634335674026608,-7.999276168385148,-0.660474956293404,9.80493902166987,0.18318202676491457
1789141126154171600,10.306171630859374,-5.637509043365717,-7.996475724011659,-0.6672677582386881,9.804800297140758,0.1904458272355243
1789141126164144600,10.31614453125,-5.638476427093148,-7.995311940929293,-0.6730075439997018,9.804683539485806,0.19633974755064368
1789141126174116600,10.32611669921875,-5.640377292278409,-7.993288326147198,-0.6810785491872579,9.804512751515668,0.20472410630077742
1789141126184088800,10.3360888671875,-5.64378856202662,-7.989937262153625,-0.6920543359056115,9.80426437021261,0.2163010606509644
1789141126194061800,10.346061767578124,-5.644605723628401,-7.988754189848899,-0.6990154801551253,9.804105314246888,0.22340302079260893
1789141126204033500,10.356033447265624,-5.644174346473813,-7.98860455224514,-0.7041932481192051,9.803988327251817,0.22849016467155844
1789141126214005800,10.366005859375,-5.646533476820588,-7.986464033085108,-0.7095420618012547,9.803851847168108,0.2342796467072864
1789141126223978800,10.375978759765625,-5.6464247557491065,-7.986196322059631,-0.7134042901873588,9.803759113453381,0.23811161973460906
1789141126233950700,10.38595068359375,-5.646241215875745,-7.9860455154120915,-0.7165334550585597,9.803683289759938,0.24119906381971398
1789141126243922700,10.395922607421875,-5.6458454945564265,-7.985808784046768,-0.7222763826247304,9.803543116125118,0.24685790839042315
1789141126253895700,10.405895751953125,-5.644338012602925,-7.986300951477885,-0.7285781861826777,9.803388747603943,0.25288282825164615
1789141126263867600,10.41586767578125,-5.643498054647445,-7.986339529922604,-0.7346387283306568,9.803234467462303,0.2587999558274382
1789141126273840600,10.425840576171876,-5.643089473846555,-7.986120918735861,-0.740131918919459,9.803089546295112,0.2642285814048323
1789141126283812900,10.435812744140623,-5.644156226295232,-7.985107357779145,-0.742920088333264,9.803008532648423,0.26719466416300824
1789141126293784600,10.44578466796875,-5.646302006152272,-7.983331580278277,-0.7456949598740786,9.80292232949657,0.2703409706033834
1789141126303757600,10.455757568359376,-5.648475258538126,-7.98166686193645,-0.7470714358590543,9.802874437210281,0.27211604108825393
1789141126313729800,10.465729736328123,-5.650441590175032,-7.980095667096972,-0.7489784385241568,9.802810263439987,0.2744023694674871
1789141126323701500,10.475701416015625,-5.653468244519829,-7.977911893317103,-0.7494070391997695,9.802781022139428,0.27545691443464426
1789141126333674800,10.4856748046875,-5.653333219963312,-7.977946964630484,-0.750051182322204,9.802763716032896,0.2760698645802852
1789141126343646700,10.495646728515624,-5.651721693113446,-7.978949419671297,-0.7515298035074025,9.802731530525437,0.27720664509417686
1789141126353619700,10.50561962890625,-5.652522488102316,-7.978354960909486,-0.751818338125199,9.80271870785388,0.277660060153177
1789141126363591700,10.515591796875,-5.651879514023661,-7.979027745604514,-0.7495009280283004,9.80278704490998,0.27521555084578675
1789141126373563600,10.525563720703126,-5.652510213142633,-7.978943574452399,-0.7456381151203065,9.802891324267923,0.27149614599440625
1789141126383537000,10.535536865234375,-5.655196091225743,-7.977433754411339,-0.7414169902939349,9.802990819187213,0.26788484216925684
1789141126393508600,10.545508544921876,-5.658385827177763,-7.975574390280246,-0.7370662477385252,9.803087081554295,0.26432432562846836
