time,seconds_elapsed,z,y,x
1789997782257251300,1.576251220703125,0.11279903423832391,-9.804968128762933,-0.14233293263094918
1789997782267322400,1.586322265625,0.11656148999704496,-9.80490495826754,-0.1436619451908772
1789997782277394200,1.596394287109375,0.12215214752225564,-9.80482112057189,-0.14471355317526094
1789997782287465200,1.60646533203125,0.12732128099189854,-9.804734428848418,-0.1461204975228999
1789997782297536300,1.616536376953125,0.12957977970445075,-9.804677155207122,-0.14801170947863912
1789997782307607300,1.626607177734375,0.13328822810960672,-9.804608337335218,-0.14924118207785167
1789997782317678300,1.63667822265625,0.13860060966735152,-9.804558899541618,-0.14766353929393414
1789997782327750100,1.646750244140625,0.1415804236577868,-9.80460776376457,-0.14144012488291813
1789997782337821200,1.6568212890625,0.14311400249836156,-9.804732524859245,-0.13083553450042856
1789997782347892200,1.666892333984375,0.14618850783873422,-9.804839429302858,-0.11892548199067021
1789997782357963300,1.67696337890625,0.15024046945040537,-9.804925236507462,-0.10608392264896373
1789997782368034300,1.687034423828125,0.15603881215444018,-9.804979503630648,-0.09169205039353599
1789997782378106400,1.6971064453125,0.1605742823388852,-9.805047283587529,-0.075168137746615
1789997782388177400,1.707177490234375,0.1637788561316179,-9.805104765643726,-0.05894792399419006
1789997782398248200,1.717248291015625,0.16855873817750713,-9.805102124000284,-0.044041193272427705
1789997782408319200,1.7273193359375,0.17300310079309547,-9.805076856137106,-0.030274367605885862
1789997782418390300,1.737390380859375,0.17777052725503104,-9.805023422884226,-0.016984569742801527
1789997782428462300,1.74746240234375,0.1800947749064797,-9.804995625913998,-0.0045656950451745375
1789997782438533400,1.757533447265625,0.1819748422734182,-9.804959709449696,0.006182500840054761
1789997782448604400,1.7676044921875,0.18222884085902194,-9.804942326441573,0.017095757512638674
1789997782458675500,1.777675537109375,0.1811194929292508,-9.804932595880416,0.029575723574330855
1789997782468746500,1.78774658203125,0.17693909385555118,-9.804962980029877,0.042177523082678664
1789997782478818300,1.797818359375,0.17280998259622493,-9.80497765349313,0.05419742301317739
1789997782488889300,1.807889404296875,0.17000167564336705,-9.804975097399728,0.06280324893304834
1789997782498960400,1.81796044921875,0.16978993479228832,-9.804952239215266,0.06679877707173247
1789997782509031200,1.82803125,0.17261347372407332,-9.804908093746333,0.06608869334805603
1789997782519103200,1.838103271484375,0.17573064254809506,-9.804875792625309,0.06259786149489596
1789997782529174300,1.84817431640625,0.1791406027202123,-9.80483750882191,0.05886776160561066
1789997782539245300,1.858245361328125,0.18028269407677594,-9.804844415573395,0.05390918099671387
1789997782549316400,1.86831640625,0.18053195071232792,-9.804875810344681,0.04690231840257129
1789997782559387100,1.87838720703125,0.1778289345416662,-9.804961280502633,0.03854437155100335
1789997782569459200,1.888459228515625,0.17463844301411652,-9.805045907320803,0.03096809874055946
1789997782579530200,1.8985302734375,0.16731778077781626,-9.80518990991531,0.025065793403243962
1789997782589601300,1.908601318359375,0.1593329178024899,-9.805334234867225,0.020236431636106354
1789997782599672300,1.91867236328125,0.15331046725502626,-9.8054436492912,0.01294122944741969
1789997782609743400,1.928743408203125,0.14939586294699708,-9.80551220673841,0.0033803352538193856
1789997782619815400,1.9388154296875,0.14625127328718804,-9.80555809692723,-0.00480633703274121
1789997782629886500,1.948886474609375,0.14118994247168082,-9.805626935882987,-0.011688459999555298
1789997782639957500,1.95895751953125,0.13616902334153233,-9.805683881251534,-0.02029052888288041
1789997782650028300,1.9690283203125,0.1343226336199602,-9.805679312776205,-0.031492468858545154
1789997782660099300,1.979099365234375,0.13562135306979117,-9.80561049374791,-0.04459476580782786
1789997782670171100,1.989171142578125,0.1354018560423967,-9.805556748468197,-0.05576958662076448
1789997782680242200,1.9992421875,0.1306227234505276,-9.80555791718144,-0.06605107204455227
1789997782690313200,2.009313232421875,0.12455511947451264,-9.805558105082666,-0.07682408856933857
1789997782700384500,2.019384521484375,0.12013069414763893,-9.805528305452942,-0.08700147537259202
1789997782710455600,2.02945556640625,0.11572860643606958,-9.80549738506808,-0.09599911092557609
1789997782720527600,2.039527587890625,0.109907166510172,-9.805480406239973,-0.10424086749286507
1789997782730598700,2.0495986328125,0.1033816571584077,-9.805474957554631,-0.11123148204848635
1789997782740669700,2.059669677734375,0.10125940337292846,-9.80543713807576,-0.11637886981802795
1789997782750740500,2.069740478515625,0.10435262009215622,-9.805353343094273,-0.12061773257288451
1789997782760812800,2.079812744140625,0.1085203383580151,-9.805257278808769,-0.12463031694847529
1789997782770883600,2.089883544921875,0.10810154938263118,-9.805243685727417,-0.12604989227003638
1789997782780954600,2.09995458984375,0.10472302371794351,-9.805293767489609,-0.12503318258392276
1789997782791025700,2.110025634765625,0.10345747447862522,-9.805322166098277,-0.12385689215385907
1789997782801096700,2.1200966796875,0.10157300902510681,-9.805374229759302,-0.12126299843434979
1789997782811168800,2.130168701171875,0.09924296966576654,-9.805487892645617,-0.11380030489643647
1789997782821239800,2.14023974609375,0.09723523796329413,-9.805616570332116,-0.10399441890606845
1789997782831310800,2.150310791015625,0.09833420222129136,-9.805708630158644,-0.09379697787142328
1789997782841381600,2.160381591796875,0.0970125064916367,-9.805825872716575,-0.08211029562531375
1789997782851452700,2.17045263671875,0.0969190598622436,-9.805936938790838,-0.0676911023163799
1789997782861524500,2.1805244140625,0.09899731918369566,-9.8059987539052,-0.05446262471707212
1789997782871595500,2.190595458984375,0.10137376097213441,-9.806030236644832,-0.04323953167251981
1789997782881666600,2.20066650390625,0.10535714841763012,-9.806031431710089,-0.03198574538814543
1789997782891737600,2.210737548828125,0.1103249956345984,-9.806006686258444,-0.021220726994890707
1789997782901808600,2.22080859375,0.11625461283954028,-9.805953532827495,-0.012064701274995957
1789997782911880700,2.230880615234375,0.12516557111912577,-9.805851079276,-0.0031655085014229913
1789997782921951500,2.240951416015625,0.1336003734405072,-9.805737497333343,0.00736128271135578
1789997782932022500,2.2510224609375,0.1412107611203628,-9.805614877669276,0.019100540627918907
1789997782942093600,2.261093505859375,0.1511584913267396,-9.805432608382098,0.03210407441881169
1789997782952164600,2.27116455078125,0.1594758231304966,-9.80523847797017,0.04742442310838366
1789997782962236700,2.281236572265625,0.16683826906086882,-9.805027415591425,0.06311001270223981
1789997782972307700,2.2913076171875,0.17092674070992062,-9.804846696426456,0.07843765944008765
1789997782982378800,2.301378662109375,0.17272872237022394,-9.804670898441202,0.09481467533562912
1789997782992449800,2.31144970703125,0.17153297917201,-9.804497072331314,0.11315417816043123
1789997783002520600,2.3215205078125,0.16955075657969254,-9.804312140122613,0.13082391454719638
1789997783012592600,2.331592529296875,0.16839798473017226,-9.80408447209273,0.14814436688336938
1789997783022663700,2.34166357421875,0.17024025524014447,-9.803769862841301,0.16582288530579598
1789997783032734700,2.351734619140625,0.17251540708212626,-9.803412831546941,0.18360474169876295
1789997783042805800,2.3618056640625,0.17261906689586887,-9.803071760980616,0.20093360609702252
1789997783052877600,2.371877685546875,0.17244939010002996,-9.802704240024662,0.21826854693807135
1789997783062948600,2.381948486328125,0.17259234251577926,-9.8022800161713,0.23643645235893848
1789997783073019600,2.39201953125,0.17455899150724166,-9.801736201806605,0.25668098493695857
1789997783083090400,2.40209033203125,0.17757619818977433,-9.801035440087142,0.28026728238440524
1789997783093161500,2.412161376953125,0.1791169783233108,-9.800288058470576,0.30440567683593434
1789997783103233500,2.422233642578125,0.18324431195055527,-9.799438268823499,0.3283448156508138
1789997783113304600,2.4323046875,0.18960258838372226,-9.798529791500872,0.35105168023718314
1789997783123375600,2.442375732421875,0.19334063571920676,-9.7977505224851,0.3702530441309795
1789997783133446700,2.45244677734375,0.19675689747772507,-9.79696258586381,0.3888195725357965
1789997783143517700,2.462517578125,0.19760678117557554,-9.796202539297045,0.4071225105279349
1789997783153589800,2.47258984375,0.19665562890629543,-9.795593092304667,0.42197044870796363
1789997783163660800,2.482660888671875,0.19349305867783131,-9.795018807545267,0.4365086887458896
1789997783173731600,2.492731689453125,0.19081489034411941,-9.794382254626106,0.45172289402120414
1789997783183802600,2.502802734375,0.1877407511801623,-9.793759112577513,0.46628424672323443
1789997783193873700,2.512873779296875,0.18353387926104708,-9.793151716091408,0.48049590754403354
1789997783203945700,2.52294580078125,0.18159756784821132,-9.792458858456357,0.49512963034961555
1789997783214016800,2.533016845703125,0.18075398251877245,-9.791824764868293,0.5078167472709542
1789997783224087800,2.543087890625,0.17977636597737334,-9.791229933157448,0.5195142253380922
1789997783234158800,2.553158935546875,0.17749014426435364,-9.79065946291796,0.5309099309347918
1789997783244229600,2.563229736328125,0.17556935077592764,-9.790211577271112,0.5397310080926396
1789997783254301400,2.573301513671875,0.1731080136858562,-9.789806924143091,0.5478131893869066
1789997783264372500,2.58337255859375,0.16921756936009563,-9.789488794014671,0.5546645958491558
1789997783274443500,2.593443603515625,0.1643655677019171,-9.789167933480444,0.5617465585991055
1789997783284514600,2.6035146484375,0.1598048844398379,-9.788899414642229,0.5677043362855335
1789997783294585600,2.613585693359375,0.15733307785869446,-9.788639823792085,0.572851471341361
1789997783304657700,2.62365771484375,0.15559458696271733,-9.788366257203286,0.5779874509849362
1789997783314728700,2.633728759765625,0.1549614732697776,-9.788021396053608,0.5839656286257152
1789997783324799500,2.643799560546875,0.1556506794175284,-9.787538240909138,0.5918198962575598
1789997783334870500,2.65387060546875,0.15695746440731875,-9.78696173384284,0.6009349036727559
1789997783344942600,2.663942626953125,0.15738369512139525,-9.786277222477883,0.6118784213374006
1789997783355013600,2.674013671875,0.15722846841518295,-9.785479670035587,0.6245398770531772
1789997783365084700,2.684084716796875,0.1575259707077987,-9.78459250935753,0.6382218047359746
1789997783375155700,2.69415576171875,0.15640912499830625,-9.783835815075175,0.6499914645471039
1789997783385226800,2.704226806640625,0.15283175582464145,-9.783217118435685,0.6600750858430514
1789997783395298800,2.714298828125,0.14973788913429048,-9.782729215597268,0.6679679282160577
1789997783405369900,2.724369873046875,0.1475888182477999,-9.782373250473643,0.6736237623696912
1789997783415440600,2.734440673828125,0.14613311461826553,-9.781899672540632,0.680778460559027
1789997783425511700,2.74451171875,0.1444097760233366,-9.781342531819998,0.6891123836508831
1789997783435582700,2.754582763671875,0.1428991891401654,-9.780772783956646,0.6974659700646045
1789997783445654500,2.764654541015625,0.143620683821952,-9.780268381399319,0.7043467293829021
1789997783455725600,2.7747255859375,0.14492851319283295,-9.779989157402994,0.7079481670677238
1789997783465796600,2.784796630859375,0.14456152534563718,-9.779852037490981,0.7099208177984647
1789997783475867600,2.79486767578125,0.1433469552724047,-9.779931820900094,0.709065022606102
1789997783485938400,2.8049384765625,0.14314994437803427,-9.780210026421583,0.705256881568701
1789997783496010500,2.815010498046875,0.14198146521320015,-9.780720434865993,0.6983771401936676
1789997783506081500,2.82508154296875,0.14067608160230738,-9.781397827584843,0.6890943401491264
1789997783516152600,2.835152587890625,0.14220398683134008,-9.782194677083664,0.6773697087192038
1789997783526223600,2.8452236328125,0.1405539903094965,-9.783191844152736,0.6631566543277388
1789997783536295700,2.855295654296875,0.13865401999592605,-9.7842124345953,0.6483378211100093
1789997783546366700,2.86536669921875,0.13799187545692163,-9.785322489395588,0.6315017075153329
1789997783556437800,2.875437744140625,0.13615222593680587,-9.786508760946012,0.613268272786548
1789997783566508500,2.885508544921875,0.13464600051370648,-9.787865144610848,0.591571259264149
1789997783576579600,2.89557958984375,0.1348847212786053,-9.789259150000175,0.5679839195818083
1789997783586651600,2.905651611328125,0.13591096829167543,-9.790688622775908,0.5425281297873492
1789997783596722700,2.91572265625,0.13609241493416277,-9.792099880845791,0.5163804467866316
1789997783606793700,2.925793701171875,0.13622481964072294,-9.79350000174009,0.489073768240709
1789997783616864800,2.93586474609375,0.13795188941764214,-9.794850892171057,0.46070810768511206
1789997783626935800,2.945935791015625,0.13735489783976682,-9.7962963735693,0.42907521080859046
1789997783637007600,2.956007568359375,0.1387525293397207,-9.797670155561882,0.395963532914597
1789997783647078700,2.96607861328125,0.14071485930092176,-9.79896135228789,0.3618680150618484
1789997783657149400,2.9761494140625,0.1429179080380195,-9.800141200251524,0.32740385202633215
1789997783667220500,2.986220458984375,0.14703116612306774,-9.801180619991118,0.29262487409056104
1789997783677291500,2.99629150390625,0.15234738267002193,-9.80204239580097,0.25912152759549173
1789997783687363600,3.006363525390625,0.15576834911695359,-9.802747166122668,0.22861082045156786
1789997783697434600,3.0164345703125,0.15746386798811132,-9.803360371023171,0.1993063692176638
1789997783707505400,3.02650537109375,0.16026921555833273,-9.803865368532485,0.170062073426705
1789997783717576400,3.036576416015625,0.1623356088482955,-9.804261900080595,0.14312422681105963
1789997783727648500,3.0466484375,0.16099094229737673,-9.804590528042562,0.12025351083532887
1789997783737719600,3.056719482421875,0.1577269729561615,-9.804867854435901,0.1004222141492444
1789997783747790600,3.06679052734375,0.15344234957979316,-9.805110884502664,0.0815555520891865
1789997783757861600,3.076861572265625,0.15020140480422342,-9.805298480228451,0.06292075656600338
1789997783767932400,3.086932373046875,0.14965813821177112,-9.805401394318485,0.0457278608759206
1789997783778004500,3.09700439453125,0.14721359826196284,-9.805489257158085,0.03288335123446871
1789997783788075500,3.107075439453125,0.14305523336058992,-9.805577290726779,0.024136263402205427
1789997783798146600,3.117146484375,0.1421927262027996,-9.805606689233928,0.015818923487436323
1789997783808217600,3.127217529296875,0.14563398344571674,-9.80556545758016,0.007616934431531264
1789997783818288600,3.13728857421875,0.1488052114537327,-9.80552030277441,0.002803423354805854
1789997783828360400,3.1473603515625,0.15009277555069422,-9.805500723532656,0.0036726101086018495
1789997783838431500,3.157431396484375,0.1501602282633215,-9.805497999597764,0.007046764305356821
1789997783848502500,3.16750244140625,0.15154591774700024,-9.805471951681884,0.012181916700350221
1789997783858573300,3.1775732421875,0.15191565848540184,-9.805455915580499,0.018177636635820765
1789997783868644400,3.187644287109375,0.15089637178410564,-9.805459189124885,0.02412123949803329
1789997783878716400,3.19771630859375,0.15092785771341735,-9.805438116479744,0.031340023111138385
1789997783888787500,3.207787353515625,0.1531491693826746,-9.80537050641026,0.04043857407929792
1789997783898858500,3.2178583984375,0.15692699374825025,-9.805256278810207,0.052045447357549596
1789997783908929500,3.227929443359375,0.16000999127990073,-9.805137827495193,0.06364082084111637
1789997783919001600,3.238001708984375,0.15982152105174555,-9.805065496620285,0.07443490127144463
1789997783929072600,3.24807275390625,0.15972275390033064,-9.804994526818657,0.0834275761553647
1789997783939143400,3.258143310546875,0.1585249204818051,-9.804945536165986,0.09111947748158221
1789997783949214500,3.26821435546875,0.15649871093771395,-9.804920460495659,0.0971249766490418
1789997783959285500,3.278285400390625,0.1559847335520656,-9.804874871533046,0.10240927716911187
1789997783969357600,3.288357666015625,0.15639924242989112,-9.804822197133257,0.10672257140427743
1789997783979428600,3.2984287109375,0.15646639883115815,-9.80479622592039,0.10898431352131396
1789997783989499600,3.308499755859375,0.15686527639873865,-9.804804496514654,0.1076744895990392
1789997783999570700,3.31857080078125,0.1600623961068584,-9.804805314209293,0.10279346995356434
1789997784009641500,3.328641357421875,0.16143533498994864,-9.804844441197952,0.09670881183340675
1789997784019713300,3.33871337890625,0.15962572226453317,-9.804923889317662,0.09149630609961637
1789997784029784300,3.348784423828125,0.1604505933380177,-9.804976854442588,0.08401243590405787
1789997784039855400,3.35885546875,0.1617275184786675,-9.805028814323679,0.07505260793484496
1789997784049926400,3.368926513671875,0.16405591730789057,-9.805062654363303,0.06505001598516502
1789997784059998500,3.37899853515625,0.1653526824380233,-9.805116166540927,0.052460241593496354
1789997784070069500,3.389069580078125,0.1679740598930983,-9.80513797924437,0.03801324658739031
1789997784080140500,3.399140625,0.16978829480115637,-9.805153551017296,0.022799880735007078
1789997784090211600,3.409211669921875,0.1676212279954851,-9.805213700908523,0.00867002724828308
1789997784100282400,3.419282470703125,0.16096666723359418,-9.805326061102763,-0.006869013057913722
1789997784110354400,3.4293544921875,0.1549648909373978,-9.805396875719401,-0.023984428335894377
1789997784120425500,3.439425537109375,0.14901730975052205,-9.805410470785905,-0.045983222566066184
1789997784130496500,3.44949658203125,0.1478202967009301,-9.80528905535733,-0.06950781448137604
1789997784140567600,3.459567626953125,0.14960504105983016,-9.80506003603555,-0.09386093943913566
1789997784150638600,3.469638671875,0.14891421817055359,-9.804815444396247,-0.11748713669477785
1789997784160710700,3.479710693359375,0.14598791292923402,-9.804576017898173,-0.13912251487471203
1789997784170781700,3.48978173828125,0.14115837311146642,-9.804320224840026,-0.16049535205413337
1789997784180852500,3.4998525390625,0.13673759826009266,-9.803946340477394,-0.18525792370187932
1789997784190923500,3.509923583984375,0.13316156877885746,-9.803388588007246,-0.21499685349451203
1789997784200994600,3.51999462890625,0.13217491592088926,-9.802600236338812,-0.2488649308712924
1789997784211066400,3.53006640625,0.1308588823533592,-9.801606814713784,-0.28596037535298374
1789997784221137400,3.540137451171875,0.12873114825267676,-9.800499263690936,-0.32255120289781425
1789997784231208400,3.55020849609375,0.12516424657922234,-9.799453426855811,-0.35416613689880777
1789997784241279500,3.560279541015625,0.11865620195648521,-9.798572121036544,-0.37984977838249795
1789997784251351600,3.5703515625,0.11290665860754463,-9.797807239818091,-0.4007645308356914
1789997784261422600,3.580422607421875,0.1075925501691277,-9.797021841943952,-0.4209263320453869
1789997784271493400,3.590493408203125,0.10239761664236677,-9.79626397755545,-0.43945700681957384
1789997784281564400,3.600564453125,0.10133300649456556,-9.79535853313092,-0.4594106861268207
1789997784291635500,3.610635498046875,0.09839508441686008,-9.794403606684783,-0.47995678481852483
1789997784301707500,3.62070751953125,0.09143607727875004,-9.793503397270793,-0.499309665687179
1789997784311778600,3.630778564453125,0.08735238146956735,-9.792537248572346,-0.5186210256838715
1789997784321849600,3.640849609375,0.08420318083944855,-9.791716168047733,-0.5344055743281839
1789997784331920600,3.650920654296875,0.07884639287100055,-9.791068391458493,-0.5469395139044347
1789997784341991400,3.660991455078125,0.07546939224077313,-9.790510896119917,-0.5572991446200944
1789997784352063500,3.6710634765625,0.07543827235414247,-9.789942163292988,-0.5672151690651689
1789997784362134500,3.681134521484375,0.0767413027272106,-9.789346120042662,-0.57724156511091
1789997784372205600,3.69120556640625,0.07846657464085632,-9.788728173721688,-0.5873853073950688
1789997784382276600,3.701276611328125,0.07980954878972701,-9.788259649753172,-0.5949723246384275
1789997784392348400,3.711348388671875,0.07892439765762486,-9.788024290324184,-0.5989396567438282
1789997784402419500,3.72141943359375,0.07870269003941789,-9.787834205384977,-0.602066376353903
1789997784412490500,3.731490478515625,0.07852085475699505,-9.787753035804592,-0.6034186473721671
1789997784422561300,3.741561279296875,0.08073953527077027,-9.787650771684437,-0.6047749834565146
1789997784432632300,3.75163232421875,0.08266018314140018,-9.787527700644368,-0.6065074366309832
1789997784442704400,3.761704345703125,0.08354616652771046,-9.787596423081062,-0.605281539703703
1789997784452775400,3.771775390625,0.08262508891851186,-9.787825438661773,-0.6016915410121666
1789997784462846500,3.781846435546875,0.07989842446600347,-9.788251012195591,-0.5950964999901344
1789997784472917500,3.79191748046875,0.07665591943911826,-9.788833040361029,-0.5858897274789852
1789997784482988500,3.801988525390625,0.07369864313894428,-9.78944314348089,-0.5759774211134342
1789997784493060600,3.812060546875,0.07275630898952014,-9.790061811487478,-0.5654923767999691
1789997784503131600,3.822131591796875,0.07536775255313619,-9.790633811916184,-0.55515381666096
1789997784513202400,3.832202392578125,0.07918472753360438,-9.791156281986954,-0.5453250669876969
1789997784523273500,3.8422734375,0.08282270503960339,-9.791742986576539,-0.5341402022753144
1789997784533345500,3.852345458984375,0.08554661452219642,-9.792430965716298,-0.520935161141655
1789997784543416600,3.86241650390625,0.08621151176930801,-9.793168291069765,-0.5067603657669186
1789997784553487600,3.872487548828125,0.08415391255968185,-9.793849627582631,-0.4937749180706314
1789997784563558700,3.88255859375,0.08274360096035299,-9.794396036089994,-0.4830631070263876
1789997784573629700,3.892629638671875,0.08237045189883571,-9.794793532061277,-0.47498640220642746
1789997784583701500,3.902701416015625,0.08172450252205492,-9.795229821435852,-0.46602745513587623
1789997784593772300,3.912772216796875,0.07857384719526676,-9.795683328674704,-0.45695159765177124
1789997784603843300,3.92284326171875,0.07922027044172743,-9.79602672116346,-0.44940457253596905
1789997784613914400,3.932914306640625,0.08264080478816706,-9.79624600946457,-0.4439972654303922
1789997784623986400,3.942986328125,0.08606644722809402,-9.796401573335599,-0.43987743840736354
1789997784634057500,3.953057373046875,0.08974064542040242,-9.796490467382224,-0.43716282911970633
1789997784644128500,3.96312841796875,0.09188619014064674,-9.796549728926578,-0.43538013151807003
1789997784654199600,3.973199462890625,0.08909928930342002,-9.79671641772743,-0.43218477075715434
1789997784664270600,3.9832705078125,0.08634304639545728,-9.796785946014385,-0.4311868126777105
1789997784674342700,3.9933427734375,0.08952397987963001,-9.79664273671093,-0.4337748384030308
1789997784684413400,4.003413330078125,0.09562914409598214,-9.796403928553977,-0.437853489872305
1789997784694484500,4.013484375,0.09426881807518024,-9.796329714009094,-0.43980550194237017
1789997784704555000,4.023554931640625,0.09038312291991868,-9.796374111960366,-0.4396260800764848
1789997784714626000,4.0336259765625,0.08746326998692093,-9.796430708345897,-0.4389493758285338
1789997784724698000,4.043697998046875,0.08365835943614655,-9.796489087437388,-0.43839355769868904
1789997784734769200,4.05376904296875,0.08364937760762854,-9.796452520583856,-0.4392145243752154
1789997784744840200,4.063840087890625,0.08841280178275303,-9.796194444953963,-0.44401014892177587
1789997784754911200,4.0739111328125,0.09424990155168726,-9.795801234437418,-0.4514147089355081
1789997784764983300,4.0839833984375,0.0979626458405463,-9.795482509570997,-0.45749901428993467
1789997784775054300,4.094054443359375,0.09882967756340015,-9.795336282545982,-0.460444458557539
1789997784785125400,4.10412548828125,0.10021860134400498,-9.795180103795035,-0.4634533158182785
1789997784795196200,4.114196044921875,0.10085799417667653,-9.794931046006122,-0.46855701945317085
1789997784805267200,4.12426708984375,0.10095423745608616,-9.794724623556093,-0.4728294499873717
1789997784815339000,4.134339111328125,0.0986241329378518,-9.794629333280694,-0.47529415009083414
1789997784825410000,4.14441015625,0.09634176186451675,-9.794671774868707,-0.47488088840811443
1789997784835481000,4.154481201171875,0.09275157497071011,-9.79474909659835,-0.47399090744840633
1789997784845552000,4.16455224609375,0.09399691506175609,-9.79468779208154,-0.47501721106220685
1789997784855623200,4.174623046875,0.10144166466680876,-9.794450715798437,-0.4783598056101113
1789997784865695200,4.1846953125,0.10896295943714078,-9.794338860981926,-0.4790044962104405
1789997784875766000,4.19476611328125,0.11500794804832194,-9.79451145695812,-0.47402382891176964
1789997784885837000,4.204837158203125,0.11847170566004839,-9.794813627162426,-0.46688051191295904
1789997784895908000,4.214908203125,0.12036120542067805,-9.795184915413856,-0.4585246598542601
1789997784905980200,4.224980224609375,0.12221985464362486,-9.795484013644355,-0.45160729282473716
1789997784916051200,4.23505126953125,0.12327806641086587,-9.79578350768587,-0.44475704840467994
1789997784926122200,4.245122314453125,0.1234034237020198,-9.796132404068748,-0.43698749557499034
1789997784936193300,4.255193359375,0.12259199460916963,-9.796485122910044,-0.429218324081621
1789997784946264000,4.26526416015625,0.12213391125879355,-9.796834422427011,-0.4213091215669532
1789997784956336400,4.27533642578125,0.12111566192218665,-9.797159430331646,-0.41399413891441167
1789997784966407200,4.2854072265625,0.1173607294208468,-9.797413463914221,-0.4090322542490073
1789997784976478200,4.295478271484375,0.11296081614219296,-9.797600378922443,-0.4057824416830139
1789997784986549200,4.30554931640625,0.11218251094994174,-9.797632460946808,-0.4052049218408896
1789997784996621000,4.31562109375,0.11550328560948012,-9.797534391881186,-0.4066544523212186
1789997785006692000,4.325692138671875,0.12144452012514535,-9.797404546509581,-0.4080363699870349
1789997785016763100,4.33576318359375,0.12632101182202385,-9.79730719526956,-0.40890351834950117
1789997785026834200,4.345834228515625,0.12640998878447618,-9.797274748847405,-0.40965443596822626
1789997785036905000,4.355905029296875,0.12366302635614505,-9.797268763373712,-0.41064658132019133
1789997785046977000,4.36597705078125,0.11885351214799487,-9.797286243788161,-0.41163532881071857
1789997785057048000,4.376048095703125,0.11279549894144826,-9.79717454445699,-0.415978886857452
1789997785067119000,4.386119140625,0.10934122177301274,-9.796965679244897,-0.42177269769556064
1789997785077190100,4.396190185546875,0.10880567723951634,-9.796610052501888,-0.43009313101178887
1789997785087261200,4.40626123046875,0.1090729615490471,-9.796142230040383,-0.4405400913638925
1789997785097333200,4.416333251953125,0.10931225173341806,-9.795678521638145,-0.4506745113676361
1789997785107404300,4.426404296875,0.1098192061257392,-9.795147882835202,-0.46196164858454497
1789997785117475000,4.43647509765625,0.1083472685535587,-9.794700262430483,-0.47168421497150753
1789997785127546000,4.446546142578125,0.10504212796711011,-9.794361230668727,-0.4794160602227851
1789997785137618200,4.4566181640625,0.10010175711324303,-9.794143330277405,-0.48489877577316215
1789997785147689200,4.466689208984375,0.09625862080700534,-9.793988169501425,-0.4887860624880731
1789997785157760300,4.47676025390625,0.09370085269804308,-9.793774864549077,-0.4935419267719765
1789997785167831300,4.486831298828125,0.09230686023865568,-9.79351258100589,-0.49897924523872694
1789997785177902300,4.49690234375,0.0912320712944149,-9.79326995371156,-0.5039207589745068
1789997785187974100,4.50697412109375,0.08984886285922673,-9.793092860492333,-0.5075829581375894
1789997785198045200,4.517045166015625,0.08843274671745646,-9.792928265784422,-0.5109991218236918
1789997785208116000,4.527115966796875,0.08986192341687618,-9.792782813177187,-0.5135314573214128
1789997785218187000,4.53718701171875,0.09190499302870278,-9.79277381655399,-0.5133523152634912
1789997785228259000,4.547259033203125,0.0933197821431495,-9.792934787460112,-0.5100061571982744
1789997785238330000,4.557330078125,0.09410505360283743,-9.793235339304596,-0.5040602601262805
1789997785248401200,4.567401123046875,0.09422786928200041,-9.793600328145398,-0.4968924124344759
1789997785258472200,4.57747216796875,0.09524091102083725,-9.794042823410237,-0.48790296064400623
1789997785268543200,4.587543212890625,0.09619304400660077,-9.794601798740635,-0.4763511384782685
1789997785278615300,4.597615234375,0.09871379491116981,-9.795233147105908,-0.46265514035904165
1789997785288686000,4.60768603515625,0.10007849386442343,-9.795962809892666,-0.4466445378278341
1789997785298757000,4.617757080078125,0.10158656608142021,-9.79685126707684,-0.4263528906549217
1789997785308828200,4.627828125,0.10231880151873711,-9.797904258788215,-0.4012241520846218
1789997785318899200,4.637899169921875,0.10327733047180881,-9.799020199341992,-0.3727316601262307
1789997785328971300,4.64797119140625,0.10486259495162605,-9.800180906270649,-0.3403783309574042
1789997785339042300,4.658042236328125,0.10627194033212771,-9.801311307281239,-0.30558552970570846
1789997785349113300,4.66811328125,0.10760823123071311,-9.802446189678728,-0.2661757098509179
1789997785359184400,4.678184326171875,0.10845503163603779,-9.80351432890678,-0.2229880098148004
1789997785369256200,4.688256103515625,0.10910657787426317,-9.804408940545223,-0.17902922394896584
1789997785379327000,4.698326904296875,0.11172953779308137,-9.805097104841666,-0.13407255807646154
1789997785389398000,4.70839794921875,0.11564590870592881,-9.805575353665336,-0.08780138583909876
1789997785399469000,4.718468994140625,0.12051361139491414,-9.805816909160232,-0.04255677192216263
1789997785409540000,4.7285400390625,0.12560090232175433,-9.805845173678694,0.002780092104990466
1789997785419612200,4.738612060546875,0.13206479388628306,-9.805642341040217,0.04828139309977536
1789997785429683200,4.74868310546875,0.13767938576904892,-9.805271681281626,0.08992052244069247
1789997785439754200,4.758754150390625,0.14409952417163302,-9.804758896329544,0.1277726218793137
1789997785449825000,4.768824951171875,0.14956700806054984,-9.804144899899677,0.16353637016175432
1789997785459897000,4.77889697265625,0.15041850329074033,-9.803517639449726,0.1970020071137825
1789997785469968100,4.788968017578125,0.15104849444928192,-9.802898471668916,0.22530696366418654
1789997785480039200,4.7990390625,0.14909385452655996,-9.80232507632571,0.250164171655886
1789997785490110200,4.809110107421875,0.14788856052508093,-9.80173682773441,0.2728880473782063
1789997785500181200,4.81918115234375,0.14486477492392522,-9.80130142858824,0.28962286618690236
1789997785510253300,4.82925341796875,0.14236903487982447,-9.800985436745588,0.3013207747204563
1789997785520324400,4.839324462890625,0.14398363572187595,-9.80076275714242,0.3077434799219313
1789997785530395100,4.84939501953125,0.1477704648937313,-9.800648553143622,0.3095785972755796
1789997785540466200,4.859466064453125,0.15064016258086252,-9.800589613695847,0.3100580197553288
1789997785550538000,4.8695380859375,0.1524236056409681,-9.800612081932352,0.30845144577468214
1789997785560609000,4.879609130859375,0.15333381613620586,-9.800745511934934,0.3037364327759601
1789997785570680000,4.88968017578125,0.15524108292723102,-9.800893784835484,0.297916992774962
1789997785580751000,4.899751220703125,0.1572651671660527,-9.801154338930155,0.2881530663110964
1789997785590823200,4.9098232421875,0.1592880560854411,-9.801482024684962,0.2756105855302363
1789997785600894200,4.919894287109375,0.16070272674765676,-9.801792919672511,0.2634667865409964
1789997785610965200,4.92996533203125,0.15912633100383894,-9.802136273362606,0.25137171069712305
1789997785621036000,4.9400361328125,0.15563445255252706,-9.802467628447086,0.24042551100995838
1789997785631107000,4.950107177734375,0.1521814262063596,-9.802763944437842,0.23029720271698922
1789997785641179100,4.96017919921875,0.15021180508827406,-9.803064255497747,0.2185385160657751
1789997785651250200,4.970250244140625,0.15212322512511964,-9.80332767435422,0.2049857991373924
1789997785661321200,4.9803212890625,0.15428955112855483,-9.80355556141852,0.19203025671919202
1789997785671392300,4.990392333984375,0.1538967069716575,-9.803729354413312,0.18327888733069003
1789997785681464300,5.00046435546875,0.15361380905565444,-9.803811887998341,0.17902539242069845
1789997785691535400,5.010535400390625,0.1549149295586814,-9.803789325279112,0.1791358605292639
1789997785701606000,5.02060595703125,0.15722209850997948,-9.803678845485134,0.1831378498078747
1789997785711677000,5.030677001953125,0.16082041773809586,-9.80345901947556,0.19158946575709865
1789997785721748000,5.040748046875,0.16259816303141258,-9.803180363955994,0.20394386657782096
1789997785731819800,5.05081982421875,0.1611490614940695,-9.802883658198335,0.2188200995894171
1789997785741890800,5.060890869140625,0.16018018756231542,-9.80251300244331,0.23550817002937743
1789997785751961600,5.070961669921875,0.1619209204416474,-9.802036054076675,0.25349431983877324
1789997785762032600,5.08103271484375,0.16310479990825474,-9.801493915843924,0.27294069415478905
1789997785772104700,5.091104736328125,0.16424422710223552,-9.800828991061193,0.2952244827384655
1789997785782175700,5.10117578125,0.16465078800207536,-9.800015849153592,0.32088380968338387
1789997785792246800,5.111246826171875,0.16529062414654214,-9.799020155994352,0.3496798977945098
1789997785802317800,5.12131787109375,0.16668838789165405,-9.797803571556214,0.3816236483587517
1789997785812388900,5.131388916015625,0.16719270692414082,-9.796474100433944,0.4141352823522647
1789997785822461000,5.1414609375,0.16484054882991514,-9.795104728901618,0.4462511539960279
1789997785832532000,5.151531982421875,0.15824210190433513,-9.793710711571265,0.4780966172239483
1789997785842602800,5.161602783203125,0.1528500939977066,-9.792148914289035,0.5107256843698894
1789997785852673800,5.171673828125,0.14884532413126547,-9.790523326926305,0.5421109180621465
1789997785862745900,5.181745849609375,0.1442808107851389,-9.789048671492104,0.5692895276787845
1789997785872817000,5.19181689453125,0.14141547351673756,-9.787666932295071,0.5932657299096932
1789997785882888000,5.201887939453125,0.14029437264232797,-9.786477080081246,0.612842780905785
1789997785892959000,5.211958984375,0.14015810551386165,-9.785632259755374,0.6262183953448384
1789997785903030000,5.222030029296875,0.1414914824686682,-9.785031340768407,0.6352410137442883
1789997785913101800,5.232101806640625,0.14656734804732172,-9.784641109003912,0.6400722748719854
1789997785923172600,5.242172607421875,0.14926774225713985,-9.78451397051354,0.6414054465010165
1789997785933243600,5.25224365234375,0.15049682585137936,-9.784605376427152,0.6397248332273904
1789997785943314700,5.262314697265625,0.153167868453965,-9.784909669293537,0.6344064677638985
1789997785953386800,5.27238671875,0.1545461270504249,-9.785501536482485,0.6248670436645545
1789997785963457800,5.282457763671875,0.1572205126037532,-9.786377751279755,0.61030451608084
1789997785973528800,5.29252880859375,0.1581421917879387,-9.787467695017218,0.5923196048287869
1789997785983599900,5.302599853515625,0.15625067184406752,-9.788672366173865,0.5725986672342102
1789997785993670700,5.312670654296875,0.15477989021321123,-9.790144426586568,0.5472651319353581
1789997786003742700,5.32274267578125,0.15542881510517956,-9.791887586643545,0.5149531525892984
1789997786013813800,5.332813720703125,0.1550374010132489,-9.79370363535064,0.4792951074522376
1789997786023884800,5.342884765625,0.15579216901370269,-9.795383393049914,0.4433577393006816
1789997786033955800,5.352955810546875,0.15545044523105606,-9.797052286787395,0.4049399761393287
1789997786044028000,5.36302783203125,0.15716012634811688,-9.798664505148395,0.3631159991930748
1789997786054099000,5.373098876953125,0.16061200770654097,-9.800185380623244,0.31773468533068194
1789997786064170000,5.383169921875,0.16310005135924133,-9.801513875183845,0.27221312405131515
1789997786074241000,5.393240966796875,0.16341341137565707,-9.802650901434514,0.22740305512442097
1789997786084311800,5.403311767578125,0.1557824903167417,-9.80367263210127,0.18472011041183004
1789997786094383600,5.413383544921875,0.14698797779212053,-9.804514603294807,0.14239763204754557
1789997786104454700,5.42345458984375,0.145198620808404,-9.805087421782169,0.0978374350016792
1789997786114525700,5.433525634765625,0.14606606552115436,-9.805425169165305,0.05179756595780733
1789997786124596700,5.4435966796875,0.15190062473156432,-9.805473027891235,0.0032731123306055146
1789997786134668800,5.453668701171875,0.16554971458969414,-9.805156961182824,-0.043358111536214834
1789997786144739800,5.46373974609375,0.18317653695546657,-9.804563292675516,-0.08584041569683233
1789997786154811000,5.473810791015625,0.20546333857033242,-9.803655427966202,-0.12850548078547425
1789997786164881700,5.483881591796875,0.22725620601626575,-9.802494191452228,-0.17273104887388616
1789997786174952700,5.49395263671875,0.24186536280979748,-9.801318669705873,-0.21455476565451026
1789997786185024800,5.504024658203125,0.24376215062723663,-9.800502215703464,-0.2472208392179768
1789997786195095800,5.514095703125,0.23546661378633893,-9.800117160173523,-0.2695044542342694
1789997786205166800,5.524166748046875,0.24309546508513233,-9.799163997012673,-0.2961255526302944
1789997786215238000,5.53423779296875,0.27777797111296687,-9.797072720977392,-0.33256341187209737
1789997786225310000,5.54431005859375,0.3274543395011246,-9.794186225687666,-0.37024430136103875
1789997786235381000,5.554381103515625,0.36130854843116855,-9.791838300870468,-0.39969137418990974
1789997786245452000,5.5644521484375,0.37915465147050376,-9.790183628104026,-0.4230150195133188
1789997786255522800,5.574522705078125,0.3935841597218993,-9.789035935050936,-0.43618731997722116
1789997786265593900,5.58459375,0.41540639414955544,-9.788001933115952,-0.4391454099341168
1789997786275665700,5.594665771484375,0.44123187598337693,-9.786572682088785,-0.4457609182722283
1789997786285736700,5.60473681640625,0.4645569953854119,-9.785098115378137,-0.454359673314875
1789997786295807700,5.614807861328125,0.48773660332730434,-9.783623757250679,-0.46174970465994136
1789997786305878800,5.624878662109375,0.5126450380185494,-9.782011909602101,-0.4688452144783103
1789997786315950800,5.634950927734375,0.5399523456630553,-9.78018610537914,-0.47622079663490396
1789997786326022000,5.64502197265625,0.5652931767955293,-9.77835895089144,-0.4842679435539224
1789997786336092700,5.6550927734375,0.5884137134333617,-9.776700704416834,-0.4901768855955333
1789997786346163700,5.665163818359375,0.6146366107106246,-9.774983734471894,-0.4922273861369561
1789997786356235800,5.67523583984375,0.6407359478197858,-9.773335478282581,-0.49169465367702436
1789997786366306800,5.685306884765625,0.6631628700890944,-9.772044534660553,-0.48758433766810005
1789997786376377900,5.6953779296875,0.6796142904367081,-9.77114487822573,-0.48295648218812604
1789997786386449000,5.705448974609375,0.6893988819852275,-9.770550832246768,-0.48109435537392015
1789997786396520000,5.71552001953125,0.6877531558558413,-9.770732226787024,-0.4797681522746681
1789997786406592000,5.725592041015625,0.6808715045076202,-9.771407209884828,-0.47580578251467115
1789997786416662800,5.735662841796875,0.6728644730448882,-9.772216089817906,-0.47056876813302606
1789997786426733800,5.74573388671875,0.6632642267614415,-9.773030317931223,-0.4672657701602176
1789997786436804900,5.755804931640625,0.6554215807548223,-9.77356515498011,-0.46715510698132084
1789997786446876700,5.765876708984375,0.6552863512190374,-9.77341617626942,-0.47044141209118123
1789997786456947700,5.77594775390625,0.6458665555824794,-9.774130153262261,-0.4686329284085131
1789997786467018800,5.786018798828125,0.6182087372462819,-9.776466705129486,-0.4570612599886202
1789997786477089800,5.79608984375,0.5913575959135415,-9.778833232432689,-0.44171169554048306
1789997786487160800,5.806160888671875,0.5680970424236504,-9.780601701866575,-0.4329888280032648
1789997786497233000,5.81623291015625,0.5410187133373331,-9.782401100461106,-0.4269764735520534
1789997786507303700,5.8263037109375,0.5167230803029165,-9.784095164537355,-0.41815917633072236
1789997786517374700,5.836374755859375,0.49016283958943874,-9.785910099799578,-0.40753036911185864
1789997786527445800,5.84644580078125,0.4556211588861373,-9.788046625199254,-0.3961537534477686
1789997786537517800,5.856517822265625,0.42712043442939335,-9.78980195710881,-0.38435006139407835
1789997786547588900,5.8665888671875,0.40689618948682776,-9.79112867292399,-0.37232728094245104
1789997786557660000,5.876659912109375,0.3731538044568637,-9.793056123200728,-0.35663587864397595
1789997786567731000,5.88673095703125,0.3239518393509162,-9.795588845688991,-0.33449426500952106
1789997786577803000,5.896802978515625,0.2678067151593965,-9.79796181016017,-0.31402692412307287
1789997786587873800,5.906873779296875,0.21362368927671344,-9.799746539756347,-0.2995244542078843
1789997786597944800,5.91694482421875,0.16963627468381093,-9.800886338886123,-0.29023095049897696
1789997786608016000,5.927015869140625,0.13053476774559206,-9.801763275355432,-0.2806649747740258
1789997786618087000,5.9370869140625,0.08753410384106439,-9.802719471449121,-0.2634775813641055
1789997786628158700,5.94715869140625,0.044565386805919364,-9.803586805913628,-0.2410235543207301
1789997786638229800,5.957229736328125,0.005522237149761263,-9.804244300989097,-0.21713688800770858
1789997786648300800,5.96730078125,-0.03331082809024369,-9.804685950556218,-0.19342342546995908
1789997786658371800,5.977371826171875,-0.0703742697185453,-9.804871370265642,-0.17301209726497863
1789997786668444000,5.98744384765625,-0.10003392957404546,-9.80487030874191,-0.15779714060759809
1789997786678514700,5.9975146484375,-0.12305133134265829,-9.804784402406165,-0.146463684049216
1789997786688585700,6.007585693359375,-0.14715361905002886,-9.804597644208553,-0.1364009463627032
1789997786698656800,6.01765673828125,-0.17794051419466742,-9.804218216645246,-0.126619492864743
1789997786708727800,6.027727783203125,-0.2110403812294953,-9.803655357327361,-0.11916509939404285
1789997786718800000,6.0377998046875,-0.24484593037717092,-9.802938851622246,-0.11323337364594091
1789997786728871000,6.047870849609375,-0.27729640990120813,-9.802152075685393,-0.1063447618477955
1789997786738941700,6.057941650390625,-0.30292346530259645,-9.801471353047212,-0.09889010893760015
1789997786749012700,6.0680126953125,-0.3205610776749993,-9.80096861849274,-0.0929165127543773
1789997786759084800,6.078084716796875,-0.33592821093730585,-9.800488124398745,-0.08918698894150554
1789997786769155800,6.08815576171875,-0.35928731487805315,-9.799695130786562,-0.08530772012825968
1789997786779227000,6.098226806640625,-0.3867002394191967,-9.798681367510069,-0.08170299897848368
1789997786789298000,6.1082978515625,-0.4133175347275696,-9.797626977423382,-0.07787194927600705
1789997786799369000,6.118368896484375,-0.4425529232819457,-9.796390001730446,-0.07266760383754887
1789997786809440800,6.128440673828125,-0.4679795544974896,-9.795251801871908,-0.06645541170583363
1789997786819511600,6.138511474609375,-0.4853585705310248,-9.794445092570593,-0.06039413159804981
1789997786829582600,6.14858251953125,-0.49569072049280183,-9.793946777903649,-0.057290435067785896
1789997786839653600,6.158653564453125,-0.497742790143086,-9.793833806540995,-0.05873210214286859
1789997786849725700,6.1687255859375,-0.48841454630339404,-9.794267778800748,-0.06443205204864741
1789997786859796700,6.178796630859375,-0.47420791478815916,-9.794929808634672,-0.06978458798137628
1789997786869867800,6.18886767578125,-0.45658214929011576,-9.795763706893768,-0.07027580330848915
1789997786879938800,6.198938720703125,-0.45639911608015776,-9.795810626436785,-0.06467198223999879
1789997786890011000,6.209010986328125,-0.46641837277979437,-9.795399590275439,-0.054618283740917456
1789997786900082000,6.21908203125,-0.4693146706273173,-9.795287011934153,-0.0497792891374579
1789997786910152700,6.229152587890625,-0.44508099725152334,-9.796364496420262,-0.05937077955088574
1789997786920223700,6.2392236328125,-0.407115225790049,-9.797924661745126,-0.07291691001614684
1789997786930294800,6.249294677734375,-0.3747857480848901,-9.799174365563914,-0.07816249113816309
1789997786940366800,6.259366943359375,-0.36063032009427587,-9.799734356268646,-0.07434303524250627
1789997786950438000,6.26943798828125,-0.3475887479932944,-9.800246466430316,-0.06888301214727162
1789997786960509000,6.279509033203125,-0.32683503755502535,-9.80099744401876,-0.06334985304229808
1789997786970580000,6.289580078125,-0.29992709428978326,-9.801857005686102,-0.06341814344235888
1789997786980651800,6.29965185546875,-0.27490518393082325,-9.802552053537008,-0.06916258318260127
1789997786990722600,6.30972265625,-0.25047033877464053,-9.803177202601903,-0.0732220460268694
1789997787000793600,6.319793701171875,-0.21666863732214992,-9.804002047550702,-0.07064249971560739
1789997787010864600,6.32986474609375,-0.18168997904521708,-9.804772669013925,-0.06162127882263969
1789997787020936700,6.339936767578125,-0.15500779799512368,-9.805301167973614,-0.049298755797864635
1789997787031007700,6.3500078125,-0.1385492401335612,-9.80559446064333,-0.038811235422925555
1789997787041078800,6.360078857421875,-0.11795042146138168,-9.805882687840086,-0.03366086831190383
1789997787051149800,6.37014990234375,-0.08931898534789266,-9.806186460791338,-0.03341979082048867
1789997787061220900,6.380220947265625,-0.05654890073789143,-9.806426088357997,-0.03451853584921281
1789997787071293000,6.39029296875,-0.018110012712318765,-9.806575984452833,-0.03343508192443024
1789997787081363700,6.40036376953125,0.012662413544119677,-9.806599395635924,-0.028738426388595268
1789997787091434800,6.410434814453125,0.0350811067016921,-9.806563513796632,-0.02158840785163216
1789997787101505800,6.420505859375,0.05497841093628728,-9.806484033131769,-0.015358392076892597
1789997787111577900,6.430577880859375,0.07427365079955742,-9.806360520403564,-0.01304919359466402
1789997787121649000,6.44064892578125,0.08658086878665808,-9.806254315335273,-0.016560098627850465
1789997787131720000,6.450719970703125,0.10012209232989726,-9.80610764842496,-0.02460944957722465
1789997787141791000,6.460791015625,0.11978907850788642,-9.805852088414099,-0.036177381416386614
1789997787151862800,6.47086279296875,0.13820906370890126,-9.805556280614706,-0.048415925454786235
1789997787161933600,6.48093359375,0.15083912080173972,-9.805305123636568,-0.06023642689154593
1789997787172004600,6.491004638671875,0.15186850558057663,-9.80521708031776,-0.07104054973533197
1789997787182075600,6.50107568359375,0.14749180384031274,-9.805156067248383,-0.08678531937800332
1789997787192146700,6.511146728515625,0.1414694892500011,-9.805031614405983,-0.10826167165172798
1789997787202218800,6.52121875,0.13405163983698723,-9.804823076289669,-0.13362034631148673
1789997787212289800,6.531289794921875,0.1341836775180714,-9.804457974400906,-0.1580773986325216
1789997787222360800,6.54136083984375,0.13676026414571277,-9.80404130158265,-0.18016969758222826
1789997787232431900,6.551431884765625,0.13731187419893334,-9.803712535873595,-0.19688576248958697
1789997787242504000,6.56150390625,0.14134340652776942,-9.803326650375055,-0.2125967052296198
1789997787252574700,6.57157470703125,0.14411547768003052,-9.802883736386008,-0.23041260830933294
1789997787262645800,6.581645751953125,0.14356036512950357,-9.802461545087787,-0.24803009796963185
1789997787272716800,6.591716796875,0.1404315174111111,-9.802114764583465,-0.26306780941220365
1789997787282788900,6.601788818359375,0.13623106885721414,-9.801875325871983,-0.27396402300531275
1789997787292860000,6.61185986328125,0.1315085757173412,-9.801732934324065,-0.28127803332148515
1789997787302931000,6.621930908203125,0.1262427976624913,-9.80171769843357,-0.28420771134896017
1789997787313002000,6.632001953125,0.12125333849498016,-9.801825361923406,-0.2826719871508163
1789997787323072800,6.64207275390625,0.11691371222596267,-9.80200500604909,-0.2782237590162402
1789997787333144600,6.65214453125,0.11620073154250535,-9.802171671160767,-0.2726276519906332
1789997787343215600,6.662215576171875,0.11671601188259133,-9.802368217522474,-0.2652059574356123
1789997787353286700,6.67228662109375,0.11438729671108798,-9.80269373680898,-0.25395924484962906
1789997787363357700,6.682357666015625,0.10938828771861123,-9.80315914974551,-0.23766886639540563
1789997787373429800,6.6924296875,0.1037117003812325,-9.803624080891879,-0.22041093576235307
1789997787383500800,6.702500732421875,0.09955923943189303,-9.804040014424988,-0.20315703644604022
1789997787393571800,6.71257177734375,0.10010540677765703,-9.804334555549413,-0.18810938346492592
1789997787403642600,6.722642578125,0.1026832307207689,-9.804548799991517,-0.17510223987489662
1789997787413713700,6.732713623046875,0.10792819318526402,-9.804714255568278,-0.16223342241693492
1789997787423785700,6.74278564453125,0.11733916200924624,-9.804818363926506,-0.14883404493077884
1789997787433856800,6.752856689453125,0.12479570657949948,-9.804937035279904,-0.13425496390421496
1789997787443927800,6.762927734375,0.13078662785819828,-9.80504959476612,-0.11950120058652029
1789997787453998800,6.772998779296875,0.1350585663831584,-9.805155797306556,-0.1051539548249773
1789997787464071000,6.78307080078125,0.14009865654950257,-9.805204948986935,-0.09329740963975923
1789997787474142000,6.793141845703125,0.14557614175105935,-9.80519996585524,-0.08506639023969556
1789997787484213000,6.803212890625,0.15024706852111377,-9.805175557188706,-0.07959122737921438
1789997787494283800,6.81328369140625,0.15189194190816757,-9.805182162745472,-0.0756368804180645
1789997787504355600,6.82335546875,0.15036605294830854,-9.805229072728686,-0.07247249501824825
1789997787514426600,6.833426513671875,0.14723385626942842,-9.805294556325807,-0.07002988348199442
1789997787524497700,6.84349755859375,0.14261113100825562,-9.8053741950946,-0.06844966166915777
1789997787534568700,6.853568603515625,0.14018184441923268,-9.8053989055331,-0.06983223168620607
1789997787544640800,6.863640869140625,0.1403030865936571,-9.805368792776212,-0.07375650373731422
1789997787554711800,6.8737119140625,0.14353253203509603,-9.805281339110376,-0.07901842672946648
1789997787564782800,6.883782958984375,0.14784918495196225,-9.805155651417857,-0.08628603176967525
1789997787574853600,6.893853515625,0.14668204129809925,-9.805099261630058,-0.09430466228712478
1789997787584924700,6.903924560546875,0.14311910878109352,-9.805068781788002,-0.1026036675410669
1789997787594996700,6.913996826171875,0.1402725904806634,-9.805020553555499,-0.11083308695165345
1789997787605067800,6.92406787109375,0.13781639622042371,-9.804935867841088,-0.12097153507615138
1789997787615138800,6.934138916015625,0.1338259562796385,-9.804831543483042,-0.13329509130795295
1789997787625209900,6.9442099609375,0.13308727930788627,-9.804615091090348,-0.14894481369735177
1789997787635282000,6.954281982421875,0.13179740620534708,-9.804347104716086,-0.16667999718575865
1789997787645353000,6.96435302734375,0.13005340872293175,-9.804071453243191,-0.1834261102046565
1789997787655424000,6.974424072265625,0.13179818951569436,-9.803740661121203,-0.19923033400354515
1789997787665494800,6.984494873046875,0.1342313002908898,-9.803448341276015,-0.2115902161239372
1789997787675566600,6.994566650390625,0.13527957425259834,-9.80323953280623,-0.2204080764785763
1789997787685637600,7.0046376953125,0.1391308720639666,-9.803043586893383,-0.22663944660949661
1789997787695708700,7.014708740234375,0.14487930297816645,-9.802846856601166,-0.23149755505379777
1789997787705780500,7.024780517578125,0.14865220530097556,-9.802784519631444,-0.23175576853040586
1789997787715851300,7.034851318359375,0.1514934754144141,-9.802816133080816,-0.22855110025114347
1789997787725923300,7.04492333984375,0.15664015091422862,-9.802857308892754,-0.22324175661021733
1789997787735994400,7.054994384765625,0.1594237127380964,-9.803008761538548,-0.21445419334265667
1789997787746065400,7.0650654296875,0.16287468020743237,-9.803232835897685,-0.20118143676836797
1789997787756136400,7.075136474609375,0.16731652336307795,-9.803510700319295,-0.18320995306611082
1789997787766208500,7.08520849609375,0.17086848920409764,-9.803827126254728,-0.1617099906063147
1789997787776279600,7.095279541015625,0.17353275526491838,-9.80415914112304,-0.13687623824674755
1789997787786350600,7.1053505859375,0.17600681191409473,-9.80445278109128,-0.11003648663848206
1789997787796421400,7.11542138671875,0.17838641981238945,-9.80469117108266,-0.08115158161210549
1789997787806493200,7.1254931640625,0.17600911270248226,-9.804949105072415,-0.04882984268505607
1789997787816564200,7.135564208984375,0.17222121765386175,-9.80512464769484,-0.015732375591733575
1789997787826635300,7.14563525390625,0.17174102845216563,-9.805132148103343,0.01619137821099702
1789997787836706300,7.155706298828125,0.17495875204193911,-9.804976088102833,0.04702453155891491
1789997787846778400,7.1657783203125,0.17878069842368755,-9.80472300122791,0.07633987827552581
1789997787856849400,7.175849365234375,0.18477501756032622,-9.804363964157348,0.1034351818776759
1789997787866920400,7.18592041015625,0.18789132919175602,-9.803948162325062,0.13298999232674635
1789997787876991500,7.195991455078125,0.18995705790508907,-9.803481564867216,0.16138746109755028
1789997787887062300,7.206062255859375,0.19406812929985345,-9.802977302702226,0.18538402740598994
1789997787897134300,7.21613427734375,0.19601574594573667,-9.802514283444616,0.20659507951523534
1789997787907205400,7.226205322265625,0.19797846949538078,-9.802089773036595,0.2241013401666
1789997787917276400,7.2362763671875,0.19991593713697747,-9.801697675286748,0.239017106494873
1789997787927347500,7.246347412109375,0.2012159760461345,-9.801407337356336,0.24962144154854862
1789997787937419500,7.25641943359375,0.20466964245340385,-9.801194273512667,0.25511722839764955
1789997787947490600,7.266490478515625,0.21084852377422986,-9.80092242310377,0.2604770479038895
1789997787957561600,7.2765615234375,0.21641500177952253,-9.800658310906883,0.26577639976550393
1789997787967632400,7.28663232421875,0.21831762353316359,-9.800466567848312,0.2712445198865251
1789997787977704200,7.2967041015625,0.21818599603240477,-9.800374338445401,0.2746503567969318
1789997787987775200,7.306775146484375,0.2160917133349378,-9.800471049238162,0.27284676516597
1789997787997846300,7.31684619140625,0.21107314819451115,-9.800732552491365,0.2673637884758816
1789997788007917300,7.326917236328125,0.201239203591199,-9.801125591591147,0.260443794437579
1789997788017989400,7.3369892578125,0.19131224068006827,-9.801562431338107,0.25132245474690423
1789997788028060400,7.347060302734375,0.1865454647588301,-9.801961306789838,0.23906002842659055
1789997788038131500,7.35713134765625,0.18935676176173544,-9.802247875985694,0.22466665261749283
1789997788048202500,7.367202392578125,0.19425370194719513,-9.802466776776113,0.21046540581592166
1789997788058273300,7.377273193359375,0.19746020613969767,-9.802665137039792,0.19785790049340027
1789997788068345300,7.387345458984375,0.19651080619999195,-9.802911740118894,0.18626628608793652
1789997788078416400,7.39741650390625,0.19373956205897694,-9.803192374058199,0.17398190417257384
1789997788088487400,7.4074873046875,0.1927517015959233,-9.803447594219174,0.16011569250757915
1789997788098558500,7.417558349609375,0.1895899207427054,-9.803731321835452,0.14591698415280904
1789997788108630500,7.427630615234375,0.18452925944591586,-9.804016792000471,0.13257185354312495
1789997788118701600,7.43770166015625,0.17914883038819043,-9.804254543017514,0.12201755209199193
1789997788128772600,7.447772705078125,0.17234680799100083,-9.804479179234924,0.11341309481131376
1789997788138843400,7.457843505859375,0.16499606619467513,-9.804674303734307,0.10732459771764698
1789997788148915200,7.467915283203125,0.15851664466894827,-9.804842254729754,0.1015951826312731
1789997788158986200,7.477986328125,0.15502067137886955,-9.804969105121579,0.09455809789789793
1789997788169057300,7.488057373046875,0.152701076645709,-9.805086807849879,0.08574604604384163
1789997788179128300,7.49812841796875,0.1504685301245988,-9.805207775128784,0.07510971763743812
1789997788189199400,7.508199462890625,0.14950482507819468,-9.805287986145258,0.06597422562811188
1789997788199271400,7.518271484375,0.14863460138108547,-9.80535373998688,0.057612231215975376
1789997788209342500,7.528342529296875,0.1487761641928733,-9.80539370902017,0.050026396593432054
1789997788219413200,7.538413330078125,0.1483852927434653,-9.805431581858572,0.043282300857400195
1789997788229484300,7.548484375,0.14625243293574386,-9.805483541316212,0.038707251316901954
1789997788239556400,7.558556396484375,0.14270452603975398,-9.805549893975417,0.034693667825484
1789997788249627400,7.56862744140625,0.1413545679454996,-9.805582334648129,0.031109213007152754
1789997788259698400,7.578698486328125,0.1418198477523026,-9.80559189441917,0.025499951502257298
1789997788269769500,7.58876953125,0.14397987072849402,-9.805574651447955,0.018926861528753915
1789997788279841500,7.598841552734375,0.1492114994004216,-9.805507607651217,0.012247390734175058
1789997788289912600,7.60891259765625,0.1514491193583534,-9.805478817404142,0.0068077106229896805
1789997788299983600,7.618983642578125,0.15333309333126657,-9.805451075710858,0.003597223856517746
1789997788310054400,7.629054443359375,0.15436033920148431,-9.805435585645833,4.8935227233761604e-05
1789997788320126200,7.639126220703125,0.15148191533923716,-9.805478375725912,-0.0048977777691836255
1789997788330197200,7.649197265625,0.1508075013578045,-9.805482561628725,-0.011931926688378175
1789997788340268300,7.659268310546875,0.15214057847715184,-9.805447942361864,-0.02057887918824329
1789997788350339300,7.66933935546875,0.15542973072001187,-9.805368445131542,-0.03122474272024982
1789997788360410400,7.679410400390625,0.15785029866822647,-9.805287966788836,-0.04224695796266566
1789997788370482400,7.689482421875,0.15826798808579004,-9.805247226722315,-0.04973534849139571
1789997788380553500,7.699553466796875,0.15727897416697398,-9.805232096576617,-0.05547868459269034
1789997788390624300,7.709624267578125,0.16053764812815918,-9.805138500280497,-0.06225948362020053
1789997788400695300,7.7196953125,0.16409485101618318,-9.805010558004563,-0.07233115096349724
1789997788410767400,7.729767333984375,0.16890848218593404,-9.80485625981764,-0.08154631570899694
1789997788420838400,7.73983837890625,0.17332750075207629,-9.804732605663704,-0.08698071997956501
1789997788430909400,7.749909423828125,0.17643280423832852,-9.804647880086147,-0.09018521349432028
1789997788440980500,7.75998046875,0.17753335056252406,-9.804589626749149,-0.09437141598452149
1789997788451052500,7.770052490234375,0.17561045774310485,-9.80459543873862,-0.09723575399834956
1789997788461123600,7.78012353515625,0.17310403977507036,-9.804608018280096,-0.1004451617710742
1789997788471194600,7.790194580078125,0.17431444104399807,-9.804557343367996,-0.10317003583201265
1789997788481265400,7.800265380859375,0.1778867852618052,-9.804480129525643,-0.1045195410369602
1789997788491337200,7.810337158203125,0.18296978097915773,-9.804398401919682,-0.10329655643286723
1789997788501408300,7.820408203125,0.18849424885810023,-9.804343525936726,-0.09852891036430682
1789997788511479300,7.830479248046875,0.18804109938151925,-9.804414930325077,-0.09204818612771674
1789997788521550300,7.84055029296875,0.1840424903342363,-9.80455988200733,-0.08444829517214802
1789997788531622400,7.850622314453125,0.17943438885177623,-9.804707429232263,-0.07676996632517095
1789997788541693400,7.860693359375,0.17488404697878412,-9.80485176110378,-0.06848429361663307
1789997788551764500,7.870764404296875,0.17271299444100913,-9.804945983298305,-0.05987722449708532
1789997788561835300,7.880835205078125,0.17382144587778176,-9.804978265014277,-0.05063151255203839
1789997788571906300,7.89090625,0.17390542957250157,-9.805023311348517,-0.04073272211918206
1789997788581978400,7.900978271484375,0.17431707929918233,-9.805055543478584,-0.02982529881120151
1789997788592049400,7.91104931640625,0.17298432748711162,-9.805111328941729,-0.015971788664396455
1789997788602120400,7.921120361328125,0.16893382258373463,-9.805194699480333,0.0006227532947217037
1789997788612191500,7.93119140625,0.16585265911421268,-9.805231637015138,0.01747887693688086
1789997788622263600,7.941263671875,0.16666463157915207,-9.805176072903128,0.03358281813226331
1789997788632334600,7.95133447265625,0.1721886666555787,-9.805019352691186,0.048293613133561626
1789997788642405600,7.961405517578125,0.17771174753493257,-9.804842492045646,0.06228086138466439
1789997788652476400,7.971476318359375,0.17767105078036466,-9.804737054237817,0.07715426172377039
1789997788662548200,7.98154833984375,0.17715139850511694,-9.80463750153421,0.0899187210704814
1789997788672619300,7.991619384765625,0.17931369598059618,-9.804499969762313,0.1000442325660377
1789997788682690300,8.001690185546876,0.18467166438901614,-9.804325346808552,0.10720212041260682
1789997788692761300,8.01176123046875,0.19110540612346505,-9.804138180738656,0.11286453415244686
1789997788702833400,8.02183349609375,0.19734244565753462,-9.803952880246849,0.11806076507012533
1789997788712904400,8.031904541015624,0.20020908512443253,-9.80384094922357,0.12247374189705307
1789997788722975500,8.0419755859375,0.20197607606896728,-9.80379444095178,0.12332242189789773
1789997788733046500,8.052046630859374,0.2029665974430834,-9.803822683569958,0.11932507795099875
1789997788743118600,8.06211865234375,0.20292533324617437,-9.80389764164461,0.11310219209311774
1789997788753189600,8.072189697265625,0.20231648237263408,-9.803988681695008,0.10615901886102865
1789997788763260700,8.0822607421875,0.19940976598641882,-9.804133620305427,0.09795268422128295
1789997788773331500,8.09233154296875,0.19965056475590515,-9.804229826094112,0.08724876123825907
1789997788783403500,8.102403564453125,0.20111876267323847,-9.804305818863279,0.0742494932684881
1789997788793474600,8.112474609375,0.1997080457514074,-9.80442123190741,0.06194753552549293
1789997788803545600,8.122545654296875,0.19561549759709618,-9.804561753009894,0.05185723223695075
1789997788813616600,8.13261669921875,0.19550384676668903,-9.804609423230339,0.042427715383358315
1789997788823687700,8.142687744140625,0.19778098196015512,-9.804602383178095,0.03221931800617637
1789997788833759500,8.152759521484375,0.19875064938288065,-9.804611182937478,0.02166385606917247
1789997788843830500,8.16283056640625,0.19731966708620233,-9.804658915131565,0.010920141361040471
1789997788853901600,8.172901611328125,0.1971645072664404,-9.804668003997234,0.001349856013083795
1789997788863972400,8.182972412109375,0.1977193268870236,-9.804654893420448,-0.0058914168293458516
1789997788874044400,8.19304443359375,0.19942914570940537,-9.80461340902063,-0.013380834593598893
1789997788884115500,8.203115478515626,0.19740934470524552,-9.80464680676741,-0.018016369568850724
1789997788894186500,8.2131865234375,0.192402717998753,-9.804743997585156,-0.01919958867614956
1789997788904257500,8.223257568359376,0.18961857387561287,-9.804798366628951,-0.01899605346557213
1789997788914329600,8.23332958984375,0.19110498247239294,-9.804772276819884,-0.017343903966489174
1789997788924400600,8.243400634765624,0.19519613905112412,-9.80469837428012,-0.01314061790874525
1789997788934471700,8.2534716796875,0.2006563210102906,-9.804595919360537,-0.004084922007647312
1789997788944542500,8.26354248046875,0.2024530541188884,-9.804554837322392,0.009806113008612678
1789997788954614500,8.273614501953125,0.20151788527371478,-9.804541696147206,0.027081510430920223
1789997788964685600,8.283685546875,0.20271429181500264,-9.804433686680436,0.04863352182210345
1789997788974756400,8.29375634765625,0.20972201211324684,-9.804130819934139,0.07366105598090682
1789997788984827400,8.303827392578125,0.21233385309470695,-9.803842668394125,0.09984973015351865
1789997788994898400,8.3138984375,0.21125857450676364,-9.803556940870354,0.12658775852728016
1789997789004970500,8.323970458984375,0.2057534702994208,-9.803321959391369,0.15144180856416106
1789997789015041500,8.33404150390625,0.1999046865142465,-9.80302750526683,0.1763108259047536
1789997789025112600,8.344112548828125,0.19334396235745743,-9.80268552176323,0.2008982001793626
1789997789035183400,8.354183349609375,0.19402816716696197,-9.802201093265452,0.22266998211450462
1789997789045255400,8.36425537109375,0.19732195096125651,-9.801581368474228,0.2458568609950323
1789997789055326500,8.374326416015625,0.1999839754820482,-9.800764556343184,0.2745875015366371
1789997789065397500,8.3843974609375,0.20097516945594496,-9.799766581869989,0.30753038195545934
1789997789075468500,8.394468505859376,0.20131703058043285,-9.798787806779153,0.33705292556708116
1789997789085540600,8.40454052734375,0.19795337213274702,-9.797962817690976,0.36209650712753044
1789997789095611600,8.414611572265626,0.19514552939258942,-9.797182446260203,0.3840907361210391
1789997789105682700,8.4246826171875,0.1922689250124848,-9.796446057355707,0.4038262467619895
1789997789115753500,8.43475341796875,0.19001085175548163,-9.79579088678491,0.4204264090703088
1789997789125825300,8.4448251953125,0.18832030118895884,-9.79514320512809,0.4359854395901662
1789997789135896300,8.454896240234374,0.1897567263758992,-9.794510288300193,0.44937576237410787
1789997789145967400,8.46496728515625,0.19062852846216324,-9.793941650478578,0.4612391240986417
1789997789156038400,8.475038330078124,0.18777515048962518,-9.7935466964614,0.47071822272637837
1789997789166110500,8.4851103515625,0.18647276887151387,-9.793409506236467,0.4740551464460841
1789997789176181500,8.495181396484375,0.18932101550822988,-9.793415850794057,0.4728165489509678
1789997789186252500,8.50525244140625,0.1886049036371399,-9.793678038603966,0.46764089239008866
1789997789196323600,8.515323486328125,0.18681604766080445,-9.794146663674946,0.45846247528479245
1789997789206395600,8.525395751953125,0.18590070114969176,-9.79478952806213,0.44489010156903247
1789997789216466400,8.535466552734375,0.18635978244460885,-9.795615890888657,0.42611580339640504
1789997789226537500,8.545537353515625,0.18859580834958864,-9.796553132913264,0.4029418255119022
1789997789236608500,8.5556083984375,0.18857572391163155,-9.797484411881126,0.37964746083712764
1789997789246679600,8.565679443359375,0.18705361348525112,-9.798445305244854,0.3547677118400742
1789997789256751600,8.575751708984376,0.1861578397484763,-9.799470761518066,0.32573444539250634
1789997789266822700,8.58582275390625,0.18752543001154526,-9.800483736354133,0.29281250295669115
1789997789276893700,8.595893798828126,0.18891429529023904,-9.801472186489608,0.2566038250392422
1789997789286964500,8.605964599609376,0.18723768948429395,-9.80243566309123,0.218153994809792
1789997789297036300,8.616036376953126,0.18512026499075995,-9.8032434444094,0.18038670095470755
1789997789307107300,8.626107421875,0.18266160985064295,-9.803873659700491,0.1452419776397064
1789997789317178400,8.636178466796874,0.1800691992246128,-9.804367519419866,0.11105352334707351
1789997789327249400,8.64624951171875,0.1783491851273627,-9.804725584594129,0.07706217435295187
1789997789337321500,8.656321533203124,0.17580643213436153,-9.804976703652292,0.04360100059227608
1789997789347392500,8.666392578125,0.1729479896232455,-9.805118831193925,0.01132120506611554
1789997789357463600,8.676463623046875,0.17033100567410941,-9.805153249921743,-0.018608046522069755
1789997789367534600,8.68653466796875,0.16764496802125475,-9.805107763809328,-0.04635648117335962
1789997789377606700,8.696606689453125,0.16300205908705734,-9.805038381459626,-0.07099987762889148
1789997789387677400,8.706677490234375,0.160956425180065,-9.804880725315527,-0.0937025822063854
1789997789397748500,8.71674853515625,0.1609989921602264,-9.804629460762921,-0.11705746184242624
1789997789407819500,8.726819580078125,0.16222868845846125,-9.804310072758511,-0.13990736620182648
1789997789417891600,8.7368916015625,0.16614090263871364,-9.803921655825357,-0.16091848055315774
1789997789427962600,8.746962646484375,0.16615285971112706,-9.803641926232576,-0.1771419669200518
1789997789438033700,8.75703369140625,0.16324897315189013,-9.80344479652954,-0.19030285616942025
1789997789448104700,8.767104736328125,0.16067545836571182,-9.80325630675527,-0.20185767639759597
1789997789458176500,8.777176513671876,0.15883437601945116,-9.80306281216646,-0.21238457769283103
1789997789468247300,8.787247314453126,0.16016827473594716,-9.80275706537371,-0.2251340074474895
1789997789478318300,8.797318359375,0.1610266930782893,-9.802444377766852,-0.23780517736060422
1789997789488389400,8.807389404296876,0.15644360288321418,-9.802261248083328,-0.24818417552045083
1789997789498461400,8.81746142578125,0.1507330957237253,-9.802080737566058,-0.2586164861009151
1789997789508532500,8.827532470703124,0.14497535571575104,-9.801761993475024,-0.2735588535095945
1789997789518603500,8.837603515625,0.1377159873634467,-9.801356666313731,-0.2912308460739255
1789997789528674600,8.847674560546874,0.1327915040025697,-9.800868992523677,-0.3093685640890007
1789997789538746600,8.85774658203125,0.1299207483993619,-9.800345557663046,-0.32671045973838214
1789997789548817700,8.867817626953125,0.12798711306824628,-9.799777025618413,-0.34405750071208613
1789997789558888400,8.877888427734375,0.12799627547709966,-9.799082179757969,-0.3633139993744775
1789997789568959500,8.88795947265625,0.12346358658846415,-9.798378905563629,-0.3832775192519732
1789997789579030500,8.898030517578125,0.11568618317254903,-9.797736521882953,-0.4016905270334646
1789997789589102600,8.9081025390625,0.1107521169525848,-9.796938878364953,-0.4220453761960651
1789997789599173600,8.918173583984375,0.10310519361148875,-9.796128945913022,-0.442288054145626
1789997789609244700,8.92824462890625,0.09599477856252688,-9.795281947197129,-0.46219476863547543
1789997789619315700,8.938315673828125,0.09149056521837305,-9.79427778555704,-0.4838614793135986
1789997789629387500,8.948387451171875,0.08455253496401133,-9.793304887382892,-0.504395926684425
1789997789639458300,8.958458251953125,0.07534378462102774,-9.792356636717841,-0.5238833105582841
1789997789649529300,8.968529296875,0.06914604544348718,-9.79133986184616,-0.54338696848382
1789997789659600400,8.978600341796875,0.06719876926892299,-9.790322540562306,-0.5616523162882312
1789997789669672400,8.98867236328125,0.0646472441929361,-9.789438272013802,-0.5771468353048216
1789997789679743500,8.998743408203126,0.061339341012715334,-9.788669624146022,-0.5903923193664173
1789997789689814500,9.008814453125,0.0577355899636117,-9.788103239279083,-0.6000784219500094
1789997789699885600,9.018885498046876,0.05398748497101564,-9.787684117590462,-0.607208428957579
1789997789709956900,9.028956787109376,0.05116827798442445,-9.787495243296505,-0.6104944813345755
1789997789720028000,9.03902783203125,0.05243119429331326,-9.787511420625057,-0.6101306218829082
1789997789730099000,9.049098876953124,0.050216852112477284,-9.787782095966348,-0.6059600839756911
1789997789740170000,9.059169921875,0.046564422922271746,-9.78816185323936,-0.6000830681628181
1789997789750242000,9.069241943359376,0.04582673819539722,-9.788647954411045,-0.592162594183842
1789997789760312800,9.079312744140625,0.047147460919935665,-9.789181918062125,-0.5831623416501974
1789997789770384000,9.0893837890625,0.04727778744004586,-9.789825157362971,-0.5722491870596051
1789997789780455000,9.099454833984376,0.04717232710127948,-9.790581854914766,-0.5591614525225175
1789997789790527000,9.10952685546875,0.04874569360424545,-9.791480487831235,-0.5430584553963029
1789997789800598000,9.119597900390623,0.04873619122530165,-9.792511658045113,-0.5241454277862154
1789997789810669000,9.1296689453125,0.051201683103364475,-9.793579283270322,-0.5035480381540335
1789997789820740000,9.139739990234377,0.05535554658771189,-9.794635368875177,-0.4821197059551993
1789997789830812000,9.14981201171875,0.0584632519195134,-9.795670205208028,-0.460237213209891
1789997789840882700,9.159882568359375,0.05998737413704111,-9.79674756121132,-0.43649960946572425
1789997789850953700,9.16995361328125,0.06440901070842768,-9.797811287608654,-0.411259814038295
1789997789861024800,9.180024658203124,0.06921956030459056,-9.798814982458637,-0.38576465425260453
1789997789871096800,9.190096923828126,0.07558439619391234,-9.799740324079321,-0.3602413529303423
1789997789881168000,9.20016796875,0.08385297495994022,-9.80061520030611,-0.3336115693649943
1789997789891239000,9.210239013671876,0.09259668302356022,-9.801442542493266,-0.3058400572642028
1789997789901310000,9.22031005859375,0.09815706612839678,-9.802242760909124,-0.2771078408690291
1789997789911382000,9.230382080078124,0.1037247924204644,-9.802969907810775,-0.24781408999424875
1789997789921453000,9.240453125,0.10545712072911106,-9.803617077580427,-0.2199113610344632
1789997789931523800,9.25052392578125,0.10614927120777173,-9.804221591161387,-0.19065861037017973
1789997789941595000,9.260594970703124,0.10727906627470078,-9.804732727871563,-0.1615299429538596
1789997789951666000,9.270666015625,0.10932350120672599,-9.80509169085902,-0.1363913155007947
1789997789961738000,9.280738037109376,0.11674850369279781,-9.805285685302078,-0.11461858861198103
1789997789971809000,9.29080908203125,0.12141820088856735,-9.805449989704117,-0.09379150764553346
1789997789981880000,9.300880126953125,0.12451106573594022,-9.805585600754483,-0.07330131017723165
1789997789991951000,9.310951171875,0.12817947579565342,-9.805655950745876,-0.0553497888246273
1789997790002023000,9.32102294921875,0.12857573968640054,-9.80572437206134,-0.040320418317195364
1789997790012093700,9.33109375,0.13119242456362745,-9.805729421035235,-0.028948864911975066
1789997790022164700,9.341164794921877,0.13374806638918704,-9.805720175109387,-0.0187459609277356
1789997790032235800,9.35123583984375,0.13675074996691441,-9.805691799205412,-0.009563582312120764
1789997790042307800,9.361307861328124,0.1397822745729542,-9.805653226368268,-0.0025020495486384126
1789997790052379000,9.37137890625,0.1403399681479421,-9.805645893069777,0.0022358660274841985
1789997790062450000,9.381449951171875,0.13658998655566393,-9.805697671665023,0.004880135326325222
1789997790072521000,9.39152099609375,0.13292742439576752,-9.805748220828997,0.005517361438623069
1789997790082593000,9.401593017578126,0.1324901451834111,-9.805751443426582,0.007909892442928697
1789997790092664000,9.4116640625,0.13204013656136057,-9.805754925123342,0.011464494731148946
1789997790102734800,9.42173486328125,0.13267430203865835,-9.805744138417998,0.013319583999477814
1789997790112806000,9.431805908203126,0.13373147704522284,-9.805724632276378,0.01623748289528322
1789997790122878000,9.4418779296875,0.1344091818021336,-9.805707152579226,0.020788614845133346
1789997790132949000,9.451948974609374,0.13214274949457708,-9.805728838266665,0.024711383760906373
1789997790143020000,9.46202001953125,0.1331092782590261,-9.805712139298143,0.025996938233390627
1789997790153091000,9.472091064453124,0.13713123487289158,-9.805651336584107,0.02799806862862135
1789997790163163000,9.482162841796876,0.13958516123165535,-9.805607152727154,0.031209061183082865
1789997790173234000,9.49223388671875,0.1431329965451304,-9.805542056878194,0.03524357316637924
1789997790183304700,9.5023046875,0.1482040811976047,-9.805465049909632,0.03579463802639316
1789997790193375700,9.512375732421877,0.15434671268013664,-9.805379835023796,0.03299752859032194
1789997790203447800,9.52244775390625,0.15947769191662683,-9.805307629632704,0.029913805050271882
1789997790213518800,9.532518798828123,0.16065231145794517,-9.805290803106796,0.029144980513126778
1789997790223590000,9.54258984375,0.1595617611551882,-9.80531252570461,0.027741571021650566
1789997790233661000,9.552660888671875,0.15872992965025506,-9.805333940492952,0.024903941902672477
1789997790243733000,9.56273291015625,0.15688810725279895,-9.805373019621467,0.020701544819543827
1789997790253804000,9.572803955078124,0.15392685613157955,-9.805429246493931,0.015544490768708567
1789997790263875000,9.582875,0.15171430534288177,-9.805473241300334,0.008024840557919662
1789997790273945900,9.59294580078125,0.14878122559655912,-9.805521133210855,-0.0026909566361293783
1789997790284018000,9.603017822265626,0.14685494297884635,-9.805536123218484,-0.016819685647748044
1789997790294089000,9.6130888671875,0.14563705778930564,-9.805513672694744,-0.032912397546573775
1789997790304160000,9.623159912109376,0.14323842313907467,-9.805484751857444,-0.048451877679354216
1789997790314231000,9.63323095703125,0.13972862705265335,-9.80544187655686,-0.06454367331523672
1789997790324302000,9.643302001953124,0.1362066950383728,-9.805368614632934,-0.08117365260534043
1789997790334374000,9.653373779296874,0.13493678702776135,-9.805228087636905,-0.09839384932726106
1789997790344445000,9.66344482421875,0.1354428276173856,-9.805039551668944,-0.11507014513871847
1789997790354515700,9.673515625,0.1362529439317621,-9.804820436947992,-0.13155172546436963
1789997790364586800,9.683586669921874,0.13791090869774678,-9.804583872360382,-0.14665155682999736
1789997790374658800,9.693658935546877,0.13944458336514068,-9.804357780240563,-0.15972264700821318
1789997790384729900,9.703729736328125,0.13827183315360767,-9.804174561139176,-0.17153266250590726
1789997790394801000,9.71380078125,0.1358018317275526,-9.804005513252749,-0.1828008894101453
1789997790404872000,9.723871826171877,0.13236418438524566,-9.80388580299445,-0.1915690636049056
1789997790414944000,9.733944091796875,0.13008266572922908,-9.803742956170115,-0.20023668313872625
1789997790425015000,9.74401513671875,0.1306609247701922,-9.803555963171993,-0.20879584083706051
1789997790435086000,9.754086181640623,0.13385235720075286,-9.803407959948489,-0.21366342333358962
1789997790445156900,9.764156982421875,0.13731991997955995,-9.803338175785994,-0.21466872469315187
1789997790455229000,9.77422900390625,0.13771364133855812,-9.803351615542182,-0.2138356734045715
1789997790465300000,9.784300048828126,0.13555558470898474,-9.803417215449246,-0.21216955012809038
1789997790475371000,9.79437109375,0.1336187304658104,-9.803435059463553,-0.21257429716157988
1789997790485442000,9.804442138671876,0.1324679529970055,-9.803412341187888,-0.21433633889881434
1789997790495513900,9.814513916015626,0.13530318802395316,-9.80331920176734,-0.2168373861058949
1789997790505585000,9.8245849609375,0.13839805931126348,-9.803216933642743,-0.21949596595672186
1789997790515656000,9.834656005859374,0.1430005812063152,-9.803119821387018,-0.2208852496794204
1789997790525726700,9.844726806640624,0.14513781799108796,-9.803069616213609,-0.2216794751892016
1789997790535798800,9.854798828125,0.14350036701995267,-9.803070368253314,-0.22272818486274204
1789997790545869800,9.864869873046874,0.1407216143175756,-9.803080145496113,-0.22407960558762915
1789997790555940900,9.87494091796875,0.1354482996935589,-9.803062287912178,-0.2280489211610089
1789997790566012000,9.885011962890625,0.1315060437442142,-9.802995675077186,-0.2331867800497703
1789997790576084000,9.895083984375,0.13316252186084668,-9.802835563052046,-0.23892774309951112
1789997790586155000,9.905155029296877,0.13409155555173968,-9.802700607773554,-0.24384199913113985
1789997790596226000,9.91522607421875,0.13446009867958747,-9.802582413255786,-0.24833442202259798
1789997790606296800,9.925296875,0.13557550953478753,-9.802461247174701,-0.2524924346686415
1789997790616369000,9.935368896484375,0.1390211346459568,-9.802259633208612,-0.25840474710797984
1789997790626440000,9.94543994140625,0.14023827922708113,-9.802045303213935,-0.2657731545203118
1789997790636511000,9.955510986328123,0.14225419254697963,-9.801785677005176,-0.27414552466525727
1789997790646582000,9.96558203125,0.14480843689632597,-9.80153044737734,-0.2817916192422632
1789997790656653800,9.97565380859375,0.14632961273896417,-9.801312141851177,-0.2885386542722935
1789997790666724900,9.985724853515626,0.15092367942994925,-9.800987928500897,-0.2970552345524256
1789997790676796000,9.9957958984375,0.15271887816496557,-9.800777213476852,-0.3030219566954543
1789997790686867000,10.005866943359376,0.1485942020156393,-9.800708054677113,-0.30728332163251604
1789997790696939000,10.01593896484375,0.1445571833391423,-9.800625630063164,-0.31180896649853523
1789997790707010600,10.026010498046874,0.1409694772261278,-9.800509310446909,-0.3170661304262574
1789997790717081600,10.03608154296875,0.1397296278030087,-9.800342203176779,-0.32273878536422623
1789997790727152600,10.046152587890624,0.13927922693160183,-9.80016020530697,-0.32840188318027036
1789997790737224700,10.056224609375,0.1378928484653071,-9.800001369713238,-0.33367427038985353
1789997790747295700,10.066295654296876,0.13442343278945956,-9.799885551347481,-0.33847692554786457
1789997790757366500,10.076366455078125,0.13056530179811854,-9.799819371081968,-0.34186663779470106
1789997790767437600,10.0864375,0.12919226343585122,-9.799730273844078,-0.3449496845795168
1789997790777509400,10.09650927734375,0.12980621969387102,-9.79956024250359,-0.3495045883898035
1789997790787580400,10.106580322265623,0.12972472944109886,-9.79938041132834,-0.3545380980886455
1789997790797651500,10.1166513671875,0.12753297452804044,-9.799263895489656,-0.3585415626925719
1789997790807722500,10.126722412109377,0.12565455147699012,-9.799118205475436,-0.36316747761342694
1789997790817794600,10.136794677734375,0.1261483015073428,-9.798834145305664,-0.37056015659685443
1789997790827865600,10.146865478515624,0.1279674249133827,-9.798506663717479,-0.3785338535202188
1789997790837936400,10.156936279296875,0.13042387934062055,-9.798280086762496,-0.3835232044491523
1789997790848007400,10.16700732421875,0.13131817734593557,-9.798135766002725,-0.38688436658494296
1789997790858079500,10.17707958984375,0.13324027435231206,-9.798046033669722,-0.3884885045366422
1789997790868150500,10.187150634765626,0.1352002448449373,-9.797956490368257,-0.3900770159426527
1789997790878221600,10.1972216796875,0.13781185996391843,-9.797812922518457,-0.3927521439837947
1789997790888292600,10.207292724609376,0.13845778545669635,-9.797761866034154,-0.3937889955775387
1789997790898364400,10.217364501953124,0.137280001111802,-9.797806555810611,-0.3930925605908216
1789997790908435500,10.227435546875,0.1343645284848324,-9.797905752761311,-0.3916215543050852
1789997790918506500,10.237506591796874,0.13250353728127312,-9.797994649536971,-0.3900197010012321
1789997790928577500,10.24757763671875,0.13419432894451347,-9.798054925255855,-0.38794311391458963
1789997790938649300,10.2576494140625,0.1367769537007947,-9.798172229001812,-0.38405925001461494
1789997790948720400,10.267720458984376,0.1398901529990303,-9.798249147166885,-0.3809644095485486
1789997790958791400,10.27779150390625,0.14570174366129796,-9.798283054901498,-0.37790511445152936
1789997790968862500,10.287862548828125,0.15087481022794433,-9.798414315545157,-0.3724189611074329
1789997790978934500,10.2979345703125,0.15050404511799573,-9.798775278927144,-0.3629688090551146
1789997790989005600,10.308005615234377,0.14679587929862598,-9.799194445721328,-0.3530253385866057
1789997790999076600,10.31807666015625,0.14321137594154099,-9.79955827777362,-0.34428836888978587
1789997791009147400,10.3281474609375,0.14307219536515825,-9.799895295016562,-0.33461281209535393
1789997791019219700,10.3382197265625,0.1442503892834277,-9.800176050415903,-0.32577208751427644
1789997791029290500,10.34829052734375,0.14532709220901663,-9.800424036508835,-0.31772544741587067
1789997791039361500,10.358361572265624,0.14390363231944217,-9.80071850704487,-0.3091721804803242
1789997791049432600,10.3684326171875,0.1418887810886533,-9.801022887946775,-0.30031423284809
1789997791059504400,10.37850439453125,0.14409948610332488,-9.801280159867353,-0.2907530452050093
1789997791069575400,10.388575439453126,0.14436174178256372,-9.80154536519282,-0.28152769646489595
1789997791079646500,10.398646484375,0.14923214897332376,-9.801639153604999,-0.27564619771483706
1789997791089717500,10.408717529296876,0.15755747361381245,-9.801611078480391,-0.27198008231106496
1789997791099788500,10.41878857421875,0.16385965071668163,-9.80152865657161,-0.27122171166415315
1789997791109860400,10.4288603515625,0.1651185797240741,-9.801531692419386,-0.270368088955468
1789997791119931400,10.438931396484374,0.16269784079658436,-9.801639773064856,-0.26789204744477985
1789997791130002400,10.44900244140625,0.16274443861010754,-9.801666786948587,-0.2668800399145265
1789997791140073500,10.459073486328125,0.16359652122273377,-9.80160624338878,-0.26858019557286766
1789997791150145500,10.4691455078125,0.16693448843273773,-9.80147359141462,-0.2713670527967558
1789997791160216600,10.479216552734377,0.1698178970504712,-9.801332380021572,-0.27462857805568186
1789997791170287600,10.48928759765625,0.17033069816756485,-9.801259519172367,-0.2769193896055706
1789997791180358400,10.4993583984375,0.168959367346966,-9.801184007530214,-0.2803911470311923
1789997791190430500,10.509430419921877,0.16463903380053857,-9.801037379618972,-0.2880122312783011
1789997791200501500,10.51950146484375,0.16102476151638415,-9.800769950442987,-0.2989303219363907
1789997791210572500,10.529572509765623,0.15742685821558133,-9.800464611594988,-0.31064229619767836
1789997791220643600,10.5396435546875,0.15422059455552894,-9.800120598730137,-0.3228564593963322
1789997791230715400,10.54971533203125,0.1507102411287406,-9.799759841294033,-0.3352228088929377
1789997791240786400,10.559786376953124,0.14625194579109985,-9.799308477414536,-0.3500575931132593
1789997791250857500,10.569857421875,0.14145002098214926,-9.798774239932964,-0.36660506270492293
1789997791260928500,10.579928466796876,0.13870494624004717,-9.798106420976088,-0.3850475962797392
1789997791271000600,10.59000048828125,0.1368495353560045,-9.797395739849453,-0.403359561810246
1789997791281071400,10.6000712890625,0.13645785291571313,-9.79665535882431,-0.4210887851521899
1789997791291142400,10.610142333984374,0.13516733675734655,-9.795940488205382,-0.43778478280482536
1789997791301213400,10.62021337890625,0.13369043946777215,-9.795141748967572,-0.4557523424450438
1789997791311285500,10.630285400390624,0.13166360550614564,-9.794240314735653,-0.47528706415972694
1789997791321356500,10.6403564453125,0.12731619375282774,-9.793390326009705,-0.4936461033812161
1789997791331427600,10.650427490234376,0.12143812842764055,-9.792601581502419,-0.5104817681579549
1789997791341498600,10.66049853515625,0.11345305292642226,-9.791862214355511,-0.5262633270295712
1789997791351570700,10.67057080078125,0.10574308732032613,-9.791105090848081,-0.5417319352474146
1789997791361641500,10.680641357421877,0.0981433468254128,-9.790294189082632,-0.5575792532605955
1789997791371712500,10.69071240234375,0.09372992132871662,-9.78935218859153,-0.5746254791775149
1789997791381783600,10.700783447265623,0.0914775454617603,-9.788200118223283,-0.5942614565377002
1789997791391855400,10.71085546875,0.08655191256490895,-9.787146265590854,-0.6120951483352431
1789997791401926400,10.720926513671875,0.08154941732674956,-9.786259600013386,-0.6267942411598202
1789997791411997400,10.73099755859375,0.07663237140603534,-9.785351991924902,-0.6414152585353814
1789997791422068500,10.741068359375,0.07180631378149016,-9.784356356572868,-0.6569551101489927
1789997791432140500,10.751140625,0.0664046448465093,-9.783424478063603,-0.6712538512309687
1789997791442211600,10.761211669921876,0.06291508920345505,-9.7826523861418,-0.6827428712648271
1789997791452282400,10.771282470703126,0.0573258622531457,-9.78195847249831,-0.6931011971069494
1789997791462353400,10.781353515625,0.049843445161951314,-9.781359211903707,-0.7020778168970889
1789997791472425500,10.791425537109374,0.04629951875471492,-9.780761889603715,-0.7105878875705052
1789997791482496500,10.80149658203125,0.04713762606913145,-9.780167961990731,-0.7186612113986597
1789997791492567600,10.811567626953124,0.0483844985332545,-9.779590425526616,-0.726403487864793
1789997791502639600,10.8216396484375,0.046628831745131126,-9.77931296121084,-0.730237877583565
1789997791512710700,10.831710693359376,0.04356672592635985,-9.77922640283972,-0.7315914552514259
1789997791522781700,10.84178173828125,0.039850076802724385,-9.77913702600382,-0.7329882115457502
1789997791532852500,10.8518525390625,0.036770755931918274,-9.779068366988087,-0.7340714666707453
1789997791542923500,10.861923583984376,0.035300508544317266,-9.779067959074686,-0.7341501711354752
1789997791552995300,10.871995361328125,0.029844320971274353,-9.779212115519854,-0.7324697415856019
1789997791563066400,10.88206640625,0.03100024272649254,-9.779295377205974,-0.7313035970878158
1789997791573137400,10.892137451171877,0.03705535837541276,-9.779290166397143,-0.7310862592512254
1789997791583208400,10.90220849609375,0.04265751745143626,-9.779457978841124,-0.7285325559128379
1789997791593280500,10.912280517578123,0.050106893747758126,-9.779912813017608,-0.7219294153412009
1789997791603351600,10.9223515625,0.051701233404928784,-9.78074288011928,-0.7104705366935057
1789997791613422600,10.932422607421875,0.050389358036295115,-9.78178461395142,-0.6960864598662495
1789997791623493400,10.942493408203124,0.05148745836491565,-9.782608819206896,-0.6843241894636517
1789997791633565400,10.9525654296875,0.05307109895532251,-9.783249654152222,-0.6749759622244266
1789997791643636500,10.962636474609376,0.059447949475190165,-9.783841173841259,-0.6658119278956592
1789997791653707500,10.97270751953125,0.06412730021594201,-9.78461340244257,-0.6539232444338113
1789997791663778600,10.982778564453126,0.06729955405367959,-9.785759807602282,-0.6362119625747992
1789997791673850600,10.9928505859375,0.07065052752398207,-9.786949772728885,-0.6172560049053409
1789997791683921700,11.002921630859374,0.07303684202668295,-9.787946383546846,-0.6009610889337987
1789997791693992700,11.01299267578125,0.07401959196564777,-9.788921222883998,-0.5847513411105775
1789997791704063500,11.0230634765625,0.07576621281582172,-9.789775843857372,-0.5700355441923725
1789997791714135300,11.03313525390625,0.07645311838973483,-9.790573842910607,-0.5560588863684571
1789997791724206300,11.043206298828125,0.07607390200841356,-9.791481714910187,-0.5398856353673848
1789997791734277400,11.05327734375,0.07441543722294786,-9.792373638183275,-0.5237017461580223
1789997791744348200,11.06334814453125,0.07353683879675416,-9.79319615569877,-0.5082105709822144
1789997791754420000,11.073419921875,0.07572095838238112,-9.793879263606701,-0.49454703759930363
1789997791764491000,11.083490966796877,0.07784547867927431,-9.794493528549543,-0.4818951857035203
1789997791774562000,11.09356201171875,0.07925775326538169,-9.795109418643504,-0.4689847048663623
1789997791784633000,11.103633056640623,0.0791575707310198,-9.795713868718346,-0.4561983792199005
1789997791794705200,11.113705078125,0.08027460810364605,-9.796249023323316,-0.44435959464430647
1789997791804776200,11.123776123046875,0.08306442304649089,-9.796755513476157,-0.43251307630589186
1789997791814847200,11.13384716796875,0.08536007682972803,-9.797212633757994,-0.42157930752599976
1789997791824918000,11.14391796875,0.08561581909048827,-9.79772304401122,-0.40948878780795156
1789997791834990300,11.153990234375,0.08497277753053974,-9.79830106052205,-0.3955353550097515
1789997791845061000,11.16406103515625,0.0849939560812635,-9.798773729425584,-0.38367071023536925
1789997791855132200,11.174132080078126,0.08700621097084023,-9.799102147424396,-0.3747171496989326
1789997791865203200,11.184203125,0.09532819633667737,-9.799319252416629,-0.3669381894986176
1789997791875275000,11.19427490234375,0.10197813361088727,-9.799591462453659,-0.3577723655162061
1789997791885346000,11.204345947265624,0.10365986779010654,-9.80008093190866,-0.34358108805175813
1789997791895417000,11.2144169921875,0.10381213035913239,-9.800613942650578,-0.3279852367826382
1789997791905488100,11.224488037109374,0.10266939454302466,-9.801119532564115,-0.312898892897104
1789997791915560200,11.234560302734376,0.09899698213682505,-9.801575222023038,-0.2995294772209758
1789997791925631000,11.244630859375,0.09657194298375826,-9.801906280843918,-0.28929265779001
1789997791935702000,11.254701904296876,0.09513968642248738,-9.802159983678926,-0.2810456023635402
1789997791945774000,11.264774169921877,0.09521667227030878,-9.802426549399664,-0.27158515674793776
1789997791955845000,11.27484521484375,0.09956447576477623,-9.802643193587494,-0.2620068540198028
1789997791965916200,11.284916259765623,0.10508773825391744,-9.802823751718847,-0.25294550228581525
1789997791975987200,11.2949873046875,0.10731578320887264,-9.803064221523993,-0.242496110605633
1789997791986058200,11.305058349609377,0.10847149043759058,-9.803342042415997,-0.23042333413691912
1789997791996130300,11.31513037109375,0.10636042978026884,-9.803639059392767,-0.21848023227923744
1789997792006201000,11.325201171875,0.10362012272577457,-9.803974598510012,-0.20427448317502872
1789997792016272100,11.335272216796875,0.10401111651959706,-9.80424535827949,-0.1906288083932209
1789997792026344000,11.345343994140626,0.10717367557226842,-9.804444894357315,-0.1782238794584143
1789997792036415000,11.3554150390625,0.10783176497492884,-9.804662263914615,-0.16539668672359273
1789997792046486000,11.365486083984376,0.11241379305195102,-9.804809714379882,-0.15318221082097283
1789997792056557000,11.37555712890625,0.11787071542832435,-9.80491878114548,-0.14164819823618902
1789997792066629000,11.385629150390624,0.11682702103148647,-9.80512027248675,-0.12790711266914995
1789997792076700200,11.3957001953125,0.11700195452635952,-9.805296588434874,-0.11338162592402487
1789997792086771200,11.405771240234374,0.11730909469853046,-9.805441209440984,-0.0997756580548249
1789997792096842000,11.415842041015624,0.11997983192937799,-9.80553574814304,-0.08631162922378113
1789997792106914000,11.4259140625,0.12601741888638696,-9.805563091010809,-0.07380252988912205
1789997792116985000,11.435985107421876,0.13046120712301273,-9.805597094052189,-0.060355078550406074
1789997792127056100,11.44605615234375,0.13272137298384082,-9.805655096832588,-0.043629015780343366
1789997792137127200,11.456127197265625,0.132470103477608,-9.805721129382743,-0.02593386595828811
1789997792147199200,11.46619921875,0.13409764231676433,-9.80572734588751,-0.010987713841069885
1789997792157270300,11.476270263671877,0.13646776812657269,-9.805700473162412,0.003594266232493802
1789997792167341300,11.48634130859375,0.1404680821883488,-9.805630151721093,0.016203342597420258
1789997792177412000,11.496412109375,0.14598735209200434,-9.805527158784598,0.026698310194411164
1789997792187484200,11.506484130859375,0.15024050602159988,-9.805433199064495,0.03615182941727449
1789997792197555000,11.516554931640623,0.14965428620158402,-9.805406241013923,0.044632448119019855
1789997792207626000,11.5266259765625,0.14654070398184424,-9.805404669801066,0.05428380274425877
1789997792217697000,11.536697021484375,0.14497952639298703,-9.805375401252652,0.06311456107897527
1789997792227769000,11.54676904296875,0.1444520899500323,-9.805356541366958,0.0671568620801153
1789997792237840100,11.556840087890626,0.14615035560308298,-9.805318881192067,0.06889618576715478
1789997792247911200,11.5669111328125,0.1456316134157119,-9.805316064807794,0.07040703249818286
1789997792257982200,11.576982177734376,0.14918638625247327,-9.805268550968476,0.06958976411996107
1789997792268054300,11.58705419921875,0.1560487348978892,-9.8051727639707,0.06799962979805133
1789997792278125000,11.597125,0.15982774856519602,-9.805125433412165,0.06600051050449578
1789997792288196000,11.607196044921874,0.16165173359321577,-9.80510223155004,0.0650082935132172
1789997792298267100,11.61726708984375,0.15959798810628267,-9.805131099871003,0.0657153453013173
1789997792308339200,11.627339111328125,0.15655677122732878,-9.805187796264498,0.06458973756286036
1789997792318410200,11.63741015625,0.15728249814193987,-9.805206789225979,0.05976852600916699
1789997792328481300,11.647481201171876,0.1583073832086071,-9.805227773947362,0.053170132101116534
1789997792338552300,11.65755224609375,0.15610701561781357,-9.80529418680664,0.04714216802912678
1789997792348624100,11.6676240234375,0.15590548846296887,-9.805329499335096,0.03998918916046278
1789997792358695000,11.67769482421875,0.156354167986426,-9.805351956173867,0.03170193311257513
1789997792368766000,11.687765869140623,0.1550252991914098,-9.80539922418254,0.021967961003102103
1789997792378837000,11.6978369140625,0.15164966136208388,-9.805466058310575,0.014596400254502059
1789997792388909000,11.707908935546875,0.14700751227709727,-9.805544623676328,0.009084631824010118
1789997792398980000,11.71797998046875,0.14226470780591588,-9.805618211806173,0.0008786255184908836
1789997792409051100,11.728051025390624,0.14019942455750828,-9.805641803512428,-0.01094952904775312
1789997792419122200,11.7381220703125,0.13827500260778658,-9.805649812529081,-0.022232769944556995
1789997792429194200,11.7481943359375,0.13660392478402864,-9.805644613117293,-0.03266330057559773
1789997792439265300,11.758265380859376,0.13677558310058371,-9.805604920214629,-0.042246267558888106
1789997792449336000,11.768336181640626,0.13830477850177625,-9.80554159420216,-0.05111620115617127
1789997792459407000,11.778406982421876,0.1429322793429822,-9.805436141583307,-0.058071222441167476
1789997792469479200,11.788479248046874,0.14432878587600617,-9.805385858560458,-0.0629450430467076
1789997792479550200,11.79855029296875,0.14375023641091014,-9.805392846870827,-0.06319916493915238
1789997792489621200,11.808621337890624,0.14209927156526284,-9.80542705266945,-0.06154780152552338
1789997792499692300,11.8186923828125,0.1414959812567058,-9.805435571235803,-0.06156524023995773
1789997792509764000,11.82876416015625,0.14092026367087895,-9.80543271938426,-0.06339822861765934
1789997792519835100,11.838835205078125,0.14180628662831177,-9.80540972955522,-0.06481358102310492
1789997792529906000,11.848906005859376,0.14179629564685864,-9.805409329575719,-0.06503939131126012
1789997792539977000,11.85897705078125,0.14304660758417467,-9.805398498877866,-0.06382664237990704
1789997792550049000,11.869049072265623,0.1471076623527584,-9.805354574533895,-0.061360315160784606
1789997792560120000,11.8791201171875,0.14976319672850918,-9.80532677208103,-0.059349832457786855
1789997792570191000,11.889191162109377,0.15226174550754218,-9.805302357514657,-0.05707187250028359
1789997792580262100,11.89926220703125,0.15501287520265394,-9.805265474882482,-0.05601428726035859
1789997792590334200,11.909334228515624,0.15651289363946955,-9.805245015593593,-0.05541733377906774
1789997792600405200,11.9194052734375,0.15706139737549946,-9.805243146168936,-0.05412219543781094
1789997792610476300,11.929476318359375,0.1565472616402967,-9.805250489781027,-0.05433773486602837
1789997792620547000,11.939547119140624,0.1540327871227216,-9.805295580373105,-0.053239298212346686
1789997792630619100,11.949619140625,0.15282523084885408,-9.805314751338075,-0.053299225089599014
1789997792640690200,11.959690185546876,0.15156104220714042,-9.805320466289553,-0.05569397252197573
1789997792650761200,11.96976123046875,0.1541253527539444,-9.805251230824668,-0.06071989935323516
1789997792660832300,11.979832275390624,0.15699454430748636,-9.805160952809208,-0.06756922705520177
1789997792670904000,11.989904052734374,0.15563626171091638,-9.805146318512042,-0.07255777455755122
1789997792680975000,11.99997509765625,0.15057841970391242,-9.80518295850367,-0.07807935090231449
1789997792691046100,12.010046142578124,0.14451075621564297,-9.805211603154897,-0.08558739149403458
1789997792701117000,12.020116943359374,0.1374921566297622,-9.805232392989366,-0.09432327455117799
1789997792711188700,12.030188720703125,0.1308400784053738,-9.80521387988353,-0.10512983098898439
1789997792721259800,12.040259765625,0.1230838531125784,-9.805196581269604,-0.11554879686376271
1789997792731330800,12.050330810546876,0.12083205971060731,-9.805074170226945,-0.12767978076225964
1789997792741401900,12.06040185546875,0.12553659901522454,-9.804822346967859,-0.1417575371668578
1789997792751474000,12.070473876953123,0.12838232053256868,-9.804570390929964,-0.15588076284878472
1789997792761545000,12.080544921875,0.12948443008358168,-9.804368322157618,-0.1672958651412781
1789997792771616000,12.090615966796875,0.12621106042061775,-9.804229514453453,-0.17757827897673117
1789997792781686800,12.100686767578123,0.12193770992710971,-9.80410109436604,-0.18738030829380517
1789997792791759000,12.110759033203124,0.1194460532182697,-9.803860675994844,-0.2010816646838476
1789997792801830000,12.120829833984375,0.11715515784987346,-9.803571765397248,-0.2159720309963346
1789997792811901000,12.13090087890625,0.1143717474035752,-9.803315942676653,-0.2286780845282088
1789997792821972000,12.140971923828126,0.1124559462793715,-9.803047069211933,-0.2408411110219564
1789997792832043800,12.151043701171876,0.10973925833914361,-9.802810517535175,-0.25149984651393903
1789997792842114800,12.16111474609375,0.10922432395706286,-9.802550457892039,-0.26166813473211364
1789997792852185900,12.171185791015626,0.1074425632919668,-9.802286929103921,-0.27204449791275515
1789997792862257000,12.1812568359375,0.10259623563972861,-9.802086216413446,-0.28099839715782293
1789997792872329000,12.191328857421874,0.10159613487686987,-9.801806375013332,-0.2909504974806184
1789997792882399700,12.201399658203124,0.10005682795830796,-9.801526636817227,-0.3007525867910495
1789997792892470800,12.211470703125,0.09573150189521275,-9.80136464575921,-0.30735863278735337
1789997792902541800,12.221541748046874,0.09243983905513907,-9.801181828436064,-0.31410105064933846
1789997792912614000,12.23161376953125,0.0903377505536073,-9.80096648756888,-0.32137784123151253
1789997792922685000,12.241684814453125,0.09070498679545048,-9.800603857535515,-0.33213980358641676
1789997792932756000,12.251755859375,0.09018547407521364,-9.800183682583805,-0.3444599022545505
1789997792942828000,12.261828125,0.08590390055588076,-9.799887677854555,-0.35383521191279566
1789997792952899000,12.271899169921875,0.07941490894879825,-9.799709169694786,-0.36025438314761443
1789997792962969900,12.281969970703123,0.07339306505539647,-9.799581542242636,-0.3649621743884347
1789997792973041000,12.292041015625,0.06955691050081071,-9.799360945107107,-0.371563783748051
1789997792983112700,12.30211279296875,0.06647553933857848,-9.798993725445444,-0.3816935267171728
1789997792993183700,12.312183837890624,0.06609212308066562,-9.798518773304023,-0.39375297132589904
1789997793003254800,12.3222548828125,0.06895455833196625,-9.798048340083769,-0.4048221757576324
1789997793013325800,12.332325927734376,0.0725920139129033,-9.797706923225812,-0.4123717862890691
1789997793023398000,12.34239794921875,0.07681578045155613,-9.7975072920822,-0.41632916322341434
1789997793033469000,12.352468994140626,0.08091077902705508,-9.797401004597091,-0.4180604486476466
1789997793043540000,12.3625400390625,0.08310415141258554,-9.797372675796257,-0.4182769898182707
1789997793053610800,12.37261083984375,0.08353460122303212,-9.797422265212262,-0.4170312433182696
1789997793063682800,12.382682861328124,0.08564634617478221,-9.797490709668093,-0.4149832763497454
1789997793073753900,12.39275390625,0.0898915652439852,-9.797423059645432,-0.4157061307830476
1789997793083825000,12.402824951171874,0.0918730043225966,-9.797334217438035,-0.41736092320219326
1789997793093896000,12.41289599609375,0.08927935231469841,-9.797406198272682,-0.41623382495888883
1789997793103968000,12.422968017578125,0.08571644484615998,-9.797467691388528,-0.41553809864450014
1789997793114039000,12.4330390625,0.08356635866488837,-9.797356416687355,-0.41858929907689446
1789997793124110000,12.443110107421877,0.08406406635728836,-9.797081763025913,-0.42486847698801816
1789997793134180900,12.453180908203125,0.08568984305990297,-9.796739047780187,-0.4323796164129796
1789997793144252700,12.463252685546877,0.08580474366303689,-9.796469071904157,-0.4384374226901416
1789997793154323700,12.47332373046875,0.08147205134321855,-9.796417533072797,-0.440410488604011
1789997793164394800,12.483394775390623,0.07940134238009125,-9.796466326357667,-0.43970917499845324
1789997793174465800,12.4934658203125,0.0787214429709223,-9.796543659942357,-0.43808861328126864
1789997793184537900,12.503537841796875,0.08010160929799255,-9.79659453214698,-0.4367098693131537
1789997793194609000,12.51360888671875,0.08299087135793551,-9.796547035323966,-0.43722956880091635
1789997793204680000,12.523679931640626,0.08625338686715044,-9.796505917597676,-0.43751772345307205
1789997793214751000,12.5337509765625,0.09325168703281472,-9.796412932174508,-0.4381493398216567
1789997793224823000,12.543822998046876,0.09971430614625983,-9.796392542107476,-0.4371971623784616
1789997793234893800,12.553893798828126,0.10532208353791771,-9.796533631371885,-0.43269226867139776
1789997793244964900,12.56396484375,0.10953909141679949,-9.796692007838988,-0.42804166743363903
1789997793255036000,12.574035888671874,0.10899057377743268,-9.796881673755676,-0.4238032887409854
1789997793265108000,12.58410791015625,0.1080777239117979,-9.796977120171634,-0.42182274631418337
1789997793275179000,12.594178955078124,0.10532477975641459,-9.7969804817938,-0.42245962249063346
1789997793285250000,12.60425,0.09875436862572606,-9.796943800691684,-0.42486630757059246
1789997793295321000,12.614321044921876,0.0951069078402267,-9.796904254018486,-0.426632440512699
1789997793305393000,12.624392822265625,0.09563745105218711,-9.796863348177409,-0.4274402070119018
1789997793315463700,12.634463623046877,0.09779845189903696,-9.796930686127247,-0.4254033383888899
1789997793325534700,12.64453466796875,0.1004100484912411,-9.797122775532884,-0.4203337294291628
1789997793335605800,12.654605712890625,0.09944040025981908,-9.797362448584813,-0.41495674559023765
1789997793345677800,12.664677734375,0.09665292176992689,-9.797616950514175,-0.4095767884176888
1789997793355748900,12.674748779296875,0.09480297719759523,-9.79783612381346,-0.4047304678287893
1789997793365820000,12.68481982421875,0.09076710249268798,-9.797994951652727,-0.40181469316394064
1789997793375891000,12.694890869140623,0.08619264139663317,-9.798175326219901,-0.39838033165111086
1789997793385963000,12.704962890625,0.0834914130063977,-9.798379027539585,-0.39392619497131
1789997793396034000,12.715033935546876,0.08168517259361269,-9.798530116407422,-0.3905536704366397
1789997793406104800,12.725104736328126,0.08082272238323909,-9.798597661777737,-0.3890248795894974
1789997793416175900,12.73517578125,0.07751240827962354,-9.798734835607473,-0.38622851454792323
1789997793426248000,12.745248046875,0.07171605279482428,-9.799039133366783,-0.37957572152861363
1789997793436319000,12.755319091796874,0.06459846160127822,-9.799470198227294,-0.36959350513862266
1789997793446390000,12.76539013671875,0.06195657466324621,-9.799844182076532,-0.36000571689547683
1789997793456461800,12.7754619140625,0.06382603022178214,-9.800112830696253,-0.35230163752195914
1789997793466532900,12.785532958984374,0.06812176724830343,-9.800384684668456,-0.34380145318262934
1789997793476604000,12.79560400390625,0.0701233221506093,-9.800762575963809,-0.33242569485939044
1789997793486674700,12.8056748046875,0.06976351673967597,-9.801344886152476,-0.3149035045302182
1789997793496746800,12.815746826171877,0.07073813335240202,-9.802054978112693,-0.2917034419732014
1789997793506817800,12.82581787109375,0.07323085064834488,-9.802705238751454,-0.26830608964240127
1789997793516888800,12.835888916015625,0.07591368304443967,-9.803251610969735,-0.24673695654989675
1789997793526959900,12.8459599609375,0.08331800547492452,-9.803661304727461,-0.2273035570493425
1789997793537032000,12.856031982421875,0.08878370802988479,-9.804036146259802,-0.20824760853653343
1789997793547103000,12.86610302734375,0.09031224837148599,-9.804493079130985,-0.18480654696965326
1789997793557174000,12.876174072265623,0.09199140472813717,-9.804923294283912,-0.1593790458493504
1789997793567245000,12.8862451171875,0.09251344279418847,-9.805301894047242,-0.13373314949221718
1789997793577317000,12.896317138671876,0.09296345017277513,-9.805619810452601,-0.10750894048841068
1789997793587388000,12.906387939453126,0.094288132613019,-9.805854513503132,-0.08192319021255301
1789997793597459000,12.916458984375,0.09725888070728393,-9.805995639097791,-0.058031808007923895
1789997793607530000,12.926530029296876,0.10075229754571059,-9.80607192081406,-0.03430673168135874
1789997793617601800,12.936601806640626,0.10292992260762922,-9.806103861358862,-0.01075544670357406
1789997793627672800,12.9466728515625,0.10106938956805457,-9.806121614350381,0.011887489248086858
1789997793637743900,12.956743896484374,0.09990404515042538,-9.806087472088613,0.03247081743837703
1789997793647815000,12.96681494140625,0.09867559266167425,-9.806025565348252,0.05008983273113263
1789997793657887000,12.976886962890624,0.10122159181007488,-9.80591102754579,0.0651839609110421
1789997793667957800,12.986957763671874,0.10386066028227488,-9.805778743383359,0.07941439353156168
1789997793678028800,12.99702880859375,0.10788432001161846,-9.80561036991942,0.09356319686290981
1789997793688099800,13.007099853515625,0.11174550091373758,-9.805442502437346,0.10581805419660816
1789997793698172000,13.017171875,0.11702561517106717,-9.805249356025046,0.11739420106873816
1789997793708243000,13.027242919921877,0.12073086371414202,-9.805075617133737,0.12769876883002917
1789997793718314500,13.037314453125,0.12399413563258695,-9.80487928373442,0.13912599987707125
1789997793728385500,13.047385498046877,0.12697007320235282,-9.804672317637959,0.1505697379130691
1789997793738457300,13.057457275390624,0.12885145481876117,-9.804456866063024,0.16249051383276167
1789997793748528400,13.0675283203125,0.1281306547396233,-9.804271752941965,0.17384432325921936
1789997793758599200,13.07759912109375,0.12682526176546174,-9.804090060467152,0.18474444033380508
1789997793768670200,13.087670166015624,0.1283578505463314,-9.803898928260866,0.19360290263486715
1789997793778742300,13.0977421875,0.1306758373281724,-9.803658982012026,0.20391246555471412
1789997793788813300,13.107813232421876,0.13621459001036998,-9.80334109357792,0.21524828653997866
1789997793798884400,13.11788427734375,0.1428545468338168,-9.802958620128416,0.22799248057620636
1789997793808955400,13.127955322265626,0.14576845288691254,-9.802534932974124,0.24380831012398776
1789997793819027500,13.13802734375,0.147097825430441,-9.802111501401889,0.25952952080320374
1789997793829098500,13.148098388671874,0.14421568647540364,-9.80174552937181,0.2745475543824735
1789997793839169500,13.15816943359375,0.13680876341214868,-9.801378335017166,0.2909559035744148
1789997793849241600,13.16824169921875,0.132568354242727,-9.800955136106888,0.30674246278567247
1789997793859312400,13.1783125,0.12852685218063886,-9.800559898728265,0.3207571105019702
1789997793869383400,13.188383544921876,0.1280735484231944,-9.800062648134015,0.3357850411320297
1789997793879454500,13.198454345703125,0.1285922465291772,-9.799426471768435,0.35368625359720673
1789997793889526300,13.2085263671875,0.12405096032632171,-9.798696230178331,0.37490972728852157
1789997793899597300,13.218597412109377,0.11931466127142809,-9.797875283669125,0.39723101206001366
1789997793909668400,13.22866845703125,0.11494357134838266,-9.797043205279605,0.4184529862987121
1789997793919739400,13.238739501953123,0.11508887306931971,-9.796194085967645,0.4378488903020016
1789997793929811500,13.2488115234375,0.11689712312085819,-9.79524873673393,0.4580721898079582
1789997793939882200,13.25888232421875,0.11769788863337928,-9.79428036159414,0.4781335653896991
1789997793949953300,13.268953369140624,0.11835736958294817,-9.793352411197802,0.49661400871126654
1789997793960024300,13.2790244140625,0.11884982661448384,-9.792389203631936,0.5151372535808051
1789997793970096400,13.289096435546876,0.11674934053545255,-9.791505276159446,0.532142750287271
1789997793980167400,13.29916748046875,0.11152800819123551,-9.790829793325202,0.5455305404805629
1789997793990238500,13.309238525390626,0.10741728558280829,-9.790366701656504,0.5545850109981522
1789997794000309500,13.3193095703125,0.1062725591291408,-9.7899687308488,0.5617814234438812
1789997794010381600,13.329381591796874,0.10556996434307137,-9.789653473522716,0.5673766350441112
1789997794020452600,13.33945263671875,0.10275244313323817,-9.78945990561705,0.5712272776611368
1789997794030523400,13.3495234375,0.10045825090366338,-9.789421784180044,0.5722879897275093
1789997794040594400,13.359594482421874,0.09645297953748765,-9.789549137405688,0.5707913471100793
1789997794050666200,13.369666259765625,0.09154239588023619,-9.789902251446312,0.565532004654379
1789997794060737300,13.3797373046875,0.09090161557667446,-9.790535678395495,0.5545584541292646
1789997794070808300,13.389808349609376,0.09509520872643033,-9.791373267199171,0.5388373694550995
1789997794080879400,13.39987939453125,0.09839554895067483,-9.7921877192413,0.5232231543774364
1789997794090951400,13.409951416015623,0.09868443268083321,-9.792804314301312,0.5114894010482224
1789997794101022500,13.4200224609375,0.09811185244343447,-9.79330050251291,0.5020102614370092
1789997794111093200,13.43009326171875,0.0982603216885795,-9.79386876874119,0.4907687521463065
1789997794121164300,13.440164306640623,0.09914803623992559,-9.79471339839917,0.47344396766250835
1789997794131236400,13.450236328125,0.10198519006462857,-9.795753994296405,0.4507694570483701
1789997794141307400,13.460307373046875,0.10484479872084336,-9.796775513263277,0.4273108132983914
1789997794151378400,13.47037841796875,0.10616574497658213,-9.79763487747442,0.40679077186502394
1789997794161450500,13.480450439453126,0.10681269230689366,-9.79839058817865,0.38796776225825613
1789997794171521500,13.490521484375,0.1063384324430493,-9.799084914798199,0.3701545260479871
1789997794181592600,13.500592529296876,0.10498776349963415,-9.79968197417368,0.35439433176443585
1789997794191663600,13.51066357421875,0.09839121075025058,-9.800204743106121,0.34158772900970535
1789997794201735400,13.5207353515625,0.09363404281241731,-9.80073031964518,0.32757056750305236
1789997794211806200,13.53080615234375,0.0916745537558752,-9.801324598133059,0.30988021198066573
1789997794221877200,13.540877197265624,0.09613944518520287,-9.801816771120837,0.2924560465680778
1789997794231948300,13.5509482421875,0.10281267821841732,-9.802199739289382,0.27692030226761943
1789997794242020400,13.561020263671876,0.10910183612290253,-9.802470420984154,0.26468923695110275
1789997794252091400,13.57109130859375,0.11579816769803208,-9.802690662249624,0.2534480561273584
1789997794262162400,13.581162353515625,0.12117826630756426,-9.802910148664022,0.2421712622835236
1789997794272233500,13.5912333984375,0.12264816417709083,-9.803149418294602,0.2315138950272076
1789997794282305500,13.601305419921877,0.12137278581644281,-9.803365188374558,0.2228844590167162
1789997794292376300,13.611376220703123,0.11810171037672905,-9.803574549081953,0.2153159235629165
1789997794302447400,13.621447265625,0.11675284858285542,-9.803740385215796,0.20839577280285093
1789997794312518400,13.631518310546875,0.11867524184069446,-9.803862805583464,0.20142649771222443
1789997794322590500,13.641590576171875,0.11859066823204692,-9.803969148641727,0.19623354913795535
1789997794332661500,13.65166162109375,0.11991434236210823,-9.804031694631272,0.1922578104048209
1789997794342732500,13.661732666015626,0.12119152726272238,-9.804079421396203,0.18901935544627044
1789997794352803600,13.671803466796876,0.11727514618625438,-9.804112983492573,0.18970848186642808
1789997794362875400,13.68187548828125,0.113244759626004,-9.804075299123415,0.1940829115502456
1789997794372946400,13.691946533203126,0.1115590121788501,-9.804000350583598,0.19879816269739348
1789997794383017200,13.702017333984376,0.10757621636422696,-9.803929235494566,0.20441754635058665
1789997794393088300,13.712088134765626,0.10300692992084903,-9.803850441434326,0.2104526673735598
1789997794403160300,13.722160400390624,0.1021124763366814,-9.803724914001187,0.21664556312187402
1789997794413231400,13.7322314453125,0.10173422584392686,-9.803567067094834,0.22386197406476238
1789997794423302400,13.742302490234374,0.10143168666117414,-9.803354454015752,0.23309580604058772
1789997794433373400,13.75237353515625,0.1024073580872127,-9.803035895872881,0.24571145114351245
1789997794443445500,13.762445556640625,0.10469094427649867,-9.802672877192407,0.2588775598305715
1789997794453516500,13.7725166015625,0.10596252968508918,-9.802318887999414,0.2714739336252808
1789997794463587300,13.78258740234375,0.10419749952367066,-9.80193235608487,0.28575488757439554
1789997794473659400,13.792659423828123,0.10268956072236983,-9.801491501798672,0.301014782709016
1789997794483730400,13.80273046875,0.10021105604872939,-9.801067179416718,0.3153050783996937
1789997794493801500,13.812801513671875,0.09988392834680948,-9.800696726253555,0.32671981109106357
1789997794503872500,13.82287255859375,0.1033410155138888,-9.800245315047311,0.3389689228730123
1789997794513944300,13.8329443359375,0.10676667053129263,-9.799672109893859,0.354133811306445
1789997794524015400,13.843015380859375,0.11094155643183072,-9.79895505605035,0.3722391993289712
1789997794534086400,13.85308642578125,0.11420877803649247,-9.7982048121857,0.39053912304447763
1789997794544157400,13.863157470703126,0.11642609597493123,-9.797513365404651,0.4068926314645825
1789997794554229500,13.8732294921875,0.11708822949454535,-9.796846245374741,0.42246910456836967
1789997794564300300,13.88330029296875,0.1150713342662018,-9.796247471538157,0.43665972792450264
1789997794574371300,13.893371337890626,0.11291726586472056,-9.795696576320417,0.44939668692133833
1789997794584442400,13.9034423828125,0.11369923563007621,-9.795254537261911,0.45874060158954516
1789997794594514400,13.913514404296874,0.11730257759496934,-9.79490141886849,0.4653226231444624
1789997794604585500,13.92358544921875,0.12124862955280756,-9.794550879573448,0.4716633830648377
1789997794614656500,13.933656494140624,0.12567593012795658,-9.794161173173908,0.47853794520949466
1789997794624727600,13.9437275390625,0.13191965366440722,-9.793797420284985,0.484260219366919
1789997794634799400,13.95379931640625,0.13735979081284536,-9.793462587079214,0.4894946447956232
1789997794644870400,13.963870361328125,0.1407262966061106,-9.7931250699402,0.49526337325637443
1789997794654941400,13.97394140625,0.14093929087125312,-9.79266385305693,0.5042465353386836
1789997794665012500,13.984012451171877,0.1390328667899643,-9.792108108937262,0.5154490371631263
1789997794675084300,13.994084228515623,0.13745096308568555,-9.791728684118059,0.5230082570327171
1789997794685155300,14.0041552734375,0.1396271285563528,-9.791527091123138,0.5261985900144102
1789997794695226400,14.014226318359375,0.14500235632743386,-9.791383563883011,0.5274102235846858
1789997794705297400,14.02429736328125,0.14843421854169617,-9.791213882886623,0.5296132283524072
1789997794715368700,14.03436865234375,0.15293470870507936,-9.790983802648967,0.5325737264177712
1789997794725439500,14.044439453125,0.15871727358890403,-9.790692811028604,0.5362153241547021
1789997794735510500,14.054510498046875,0.16187500113388087,-9.790382806966885,0.5409160885436123
1789997794745582600,14.06458251953125,0.16330329498872223,-9.789891957550921,0.5493051734321597
1789997794755653600,14.074653564453126,0.16182022853664704,-9.789291182321838,0.5603469189431747
1789997794765724700,14.084724609375,0.15634667581482536,-9.78872652378535,0.5716433392965267
1789997794775795700,14.094795654296876,0.15408496435662503,-9.788145086722361,0.5821255290280773
1789997794785867800,14.10486767578125,0.15152379842302147,-9.787669017849614,0.5907223017993695
1789997794795938800,14.114938720703124,0.15081900693591488,-9.787086484145012,0.6004894421576945
1789997794806009600,14.125009521484374,0.14803994908024254,-9.78649007093759,0.6108104744532792
