time,seconds_elapsed,z,y,x,vertical,horizontal
1789139607785900800,1.55990087890625,1.552242886248231,-1.1085954481512308,0.1275660572052002,-0.002950790240503154,1.9117285992937658
1789139607795872800,1.569872802734375,0.8545318397551774,0.1145978545606136,-0.5518745155166834,-0.5505608281605696,0.8630211983475178
1789139607805845800,1.579845703125,1.090819552963972,0.134332482600212,0.3215858235269784,-0.7605039544860693,0.8561446665807312
1789139607815818800,1.58981884765625,0.8479963005065917,0.1184013384968042,0.4553132529061287,-0.6160728494103203,0.7489198923263487
1789139607825791500,1.59979150390625,1.0060042577266692,0.0175543613910675,0.4632159157894551,-0.625803660518451,0.913942823862853
1789139607835764700,1.6097646484375,0.8331956217378378,0.5434352615386248,-0.0829124572906643,-0.9179861982528291,0.39206203967988207
1789139607845737700,1.61973779296875,0.024644027391076,0.8210171081662178,0.5279969424534589,-0.7169659905446206,0.6628853291710739
1789139607855710700,1.629710693359375,-0.4751870702207088,0.7199988661468029,-0.3765573307730257,-0.2866166654013024,0.8965753897083983
1789139607865683700,1.63968359375,-0.3952209685802459,-0.1814654051750898,-0.0830875215966254,0.38139570630690295,0.22487809750305954
1789139607875656700,1.64965673828125,-1.467304256892204,0.4281324735790491,0.2417986586499959,0.48328253945971517,1.470096519146006
1789139607885629700,1.659629638671875,-1.849438949406147,0.4147831626623868,0.081105334803462,0.7254298381592587,1.7529401372695355
1789139607895601700,1.6696015625,-0.6084411099344491,-0.7052122159034013,-0.1624392176657915,0.9359222578490953,0.1340182092708892
1789139607905575000,1.679574951171875,-0.9079851975232364,-0.6046580842643976,0.2635977449387311,0.9991255307095486,0.5111560063314812
1789139607915547600,1.689547607421875,-1.1405676264733076,0.0246042799025773,-0.451475428308919,0.6684542475650921,1.0288337389624171
1789139607925520600,1.699520751953125,0.7468710909813642,-0.1431850666195154,-0.1098688532773405,-0.30767499722635133,0.7040778727163429
1789139607935493600,1.70949365234375,1.0132827242970466,-0.044305005672574,-0.2751979471657425,-0.5311466096917107,0.9068197185900467
1789139607945467000,1.719466796875,0.7793705080479383,0.0741746587574481,-0.3750757139131426,-0.4858752389819057,0.7193937114879548
1789139607955439900,1.72943994140625,0.6869336318910122,0.5922995379507542,-0.0474743564236909,-0.8755919073246323,0.24143152989017325
1789139607965412600,1.73941259765625,-0.0621142186075448,0.5104588746100663,0.1113916789304465,-0.3867845097786337,0.35669635259089344
1789139607975385600,1.749385498046875,0.0080243165016174,-0.3287789499014615,-0.068063847726956,0.267353580727718,0.20326027106419908
1789139607985358600,1.759358642578125,-0.9747148009717465,0.3552285654097795,-0.0630289953649044,0.27811055505061494,1.0014406873812494
1789139607995330800,1.769330810546875,-1.6530658979564905,0.4927402625679969,0.0231840743737295,0.5523786059433735,1.6342690128442436
1789139608005303600,1.779303466796875,-0.7871534170091151,-0.2333165884435176,-0.498356495014578,0.6772605239603174,0.6809732088417716
1789139608015276500,1.789276611328125,-0.5467915862292051,-0.6579623889505862,0.1090453350000083,0.844025513907142,0.17722122052299924
1789139608025249800,1.799249755859375,-0.3268769156724214,-0.5683458309113979,0.1170162408139556,0.6435591159318148,0.17143502101138278
1789139608035222800,1.809222900390625,-0.4240285453915596,-0.5004349087238311,0.0038321620414033,0.6518566613199315,0.07302659608015957
1789139608045195800,1.81919580078125,-0.4921405431091785,0.5536854373961687,0.1743161544749513,-0.17770438433578317,0.7399845614978459
1789139608055168500,1.82916845703125,0.518880081474781,0.2568020934492349,0.7202239070743321,-0.5559936323338288,0.7380903815094981
1789139608065141800,1.839141845703125,0.3647299687266349,0.0927408275395631,0.0073037106094881,-0.28661137578017554,0.24400015295511027
1789139608075114800,1.84911474609375,0.1567921516895294,-0.0406125808954238,-0.2740569239044562,-0.039508716358507015,0.31587880497129855
1789139608085087700,1.859087646484375,-0.8175707671046256,1.002549148836732,0.5581225430607796,-0.38018035189371713,1.3566467588005005
1789139608095059700,1.869059814453125,-0.6960989351212978,0.945015243756771,-0.1678879845909774,-0.3558171130310272,1.1310119786518442
1789139608105032700,1.87903271484375,-0.0974403835326433,0.2166758347660303,0.0286222468396648,-0.12189970749904475,0.20591925611836967
1789139608115005700,1.889005615234375,0.4394003020465373,-0.3886947816818952,0.0036652810418978,0.06222390476363354,0.5833505624462932
1789139608124978700,1.898978759765625,-0.661504591602087,0.7742454201191663,0.3022729280307888,-0.26774892602691064,1.0279706858261526
1789139608134952000,1.908951904296875,0.5701929200828075,0.0372474883764982,-0.2368237928468733,-0.3440918500348969,0.5139977131280421
1789139608144924700,1.918924560546875,0.5818284128189086,0.3989864585936069,0.1725435187792405,-0.6720499073748656,0.27538097968922093
1789139608154897700,1.928897705078125,0.930287630224228,-0.3473345972895622,-0.0545124748995527,-0.25114721069211315,0.9622749533806635
1789139608164871000,1.938870849609375,0.4242401423156261,0.1616255631953477,-0.3998753702573478,-0.35027424990314854,0.49326542816564156
1789139608174844000,1.948843994140625,0.6143143858820199,-0.1848620618760585,-0.4812966391421854,-0.17278772817405985,0.7831647352024229
1789139608184817200,1.958817138671875,0.8649941970586776,-0.5079764101445675,-0.6066924761688336,-0.04643554444208586,1.1713985210255244
1789139608194788900,1.968788818359375,0.0641875177502632,-0.4116343432426452,-0.9992688119918108,0.36352823715499344,1.0197785295750503
1789139608204761900,1.978761962890625,0.2397194412231445,-0.0317816241860389,-0.6294452464532106,-0.07123767207958602,0.6705236718382609
1789139608214735000,1.988735107421875,0.5004752407342196,0.2759825947374105,-0.5148977338403463,-0.4797972438060929,0.6012953852608296
1789139608224708000,1.9987080078125,0.1935766987293958,-0.7584674207508564,-0.2363032578377984,0.5208551235025329,0.6303125705690361
1789139608234680800,2.008680908203125,0.4775280803889036,-0.8774012586891651,-0.1133022252595052,0.44553053104712775,0.9012247091945839
1789139608244653800,2.01865380859375,-0.2705500482946634,0.1609954485982656,-0.3765496589232236,0.050023049143413156,0.48826652894827144
1789139608254627000,2.028626953125,0.2144640039354562,0.1163648642331361,0.2765855108003132,-0.23673547333982423,0.2828275995359419
1789139608264600000,2.03860009765625,0.965060252919793,-0.9318290144473312,-0.7573214655861258,0.25053794559132636,1.520004323674079
1789139608274572800,2.04857275390625,0.1779448298335075,-0.0837251619130372,-0.6805954418454319,0.010070076768154176,0.7083664406340142
1789139608284545800,2.0585458984375,-0.688034286609292,0.5524696318656206,-0.3817901899252087,-0.027017758600307917,0.9610658996796392
1789139608294519000,2.06851904296875,0.4651870697319507,-0.9727215813279152,0.1217135683173313,0.5147722550161872,0.9552015508807373
1789139608304491000,2.078490966796875,0.7680553333073854,-1.1455676267176866,0.3100652624074369,0.4680926334998764,1.3338905261753886
1789139608314463700,2.088463623046875,-0.3208072403699159,-0.3000912000775337,0.7314324065700173,0.381404916618526,0.7632140386534813
1789139608324437000,2.09843701171875,-0.9554413607031106,0.0736246236592531,0.4898345311891287,0.45977469005106075,0.9730538943372575
1789139608334410000,2.108409912109375,0.177421682742238,-0.6755085670351981,0.1241885801287367,0.43899436574609296,0.5572226017693568
1789139608344383000,2.118383056640625,0.8213982164382934,-0.1719920589089393,0.4049654599379748,-0.3611182451034973,0.8589918131693057
1789139608354356000,2.12835595703125,-0.852953046131134,0.4767442365348339,0.189299386736378,0.09232395411453848,0.9910219529803501
1789139608364329000,2.138328857421875,0.1902607060492038,-0.4413742324680089,0.3346343248661607,0.2272414438689687,0.5397701426718998
1789139608374302000,2.148302001953125,0.4289227471739053,0.1163216096132993,0.6776706404399127,-0.38693299691695693,0.7120574363893283
1789139608384275000,2.15827490234375,-0.9980927539497614,0.4813146131902933,0.7879854108538478,0.13309373879494613,1.3531666441239343
1789139608394248000,2.168248046875,0.277210675227642,-0.6528238570183515,0.6296461027875542,0.3296789527234001,0.8892641618997359
1789139608404221200,2.17822119140625,-0.4724006543725729,-0.0318231252402067,0.055370005044341,0.2951176034432071,0.3743614926087314
1789139608414193000,2.18819287109375,-1.0224643941402434,-0.0266460148632526,1.070531455760077,0.5419110499203724,1.37786554465182
1789139608424166000,2.198165771484375,-1.1281342613577845,-0.4207183979302644,0.4752912247149273,0.9627083311090967,0.8653238119400364
1789139608434139100,2.20813916015625,-0.0657832625091075,-0.8308587032228708,0.4032039301581681,0.687537749168302,0.6200958596145523
1789139608444112100,2.218112060546875,-0.1152379060298204,-0.5155278484374285,0.0665667958359234,0.48165384776809156,0.2269128615542
1789139608454084900,2.2280849609375,-0.3099859866261482,-0.0937707551091909,-0.34291853441298,0.2778852995520578,0.38112615753204815
1789139608464057900,2.238057861328125,0.7227145548462868,-0.4286135350942611,-0.4673304384361952,-0.03798695415901293,0.9607188039459585
1789139608474030800,2.24803076171875,1.3250772216498852,-0.4013894280821085,-0.4989597946699708,-0.4059900582934354,1.4145939578463684
1789139608484004000,2.258004150390625,0.7367191148012876,0.3450122918218374,-0.6629057636369019,-0.6626938590728646,0.8136764935967413
1789139608493977000,2.26797705078125,1.0322738404929637,0.2078010389149188,-1.1347639086306094,-0.690754922029357,1.3853942830700028
1789139608503949800,2.27794970703125,0.611212912735343,0.0838490805536508,-0.4788747092248872,-0.3897958434506599,0.6767511215860108
1789139608513922000,2.287922119140625,0.6049018298923969,0.0213087454885244,0.146812518135365,-0.37638381514588715,0.496235252293646
1789139608523895000,2.29789501953125,-0.5529682290375232,0.90587039732635,-0.4450511674150824,-0.38842494441918657,1.0833151172431654
1789139608533868000,2.307867919921875,-0.3505962294340133,0.0097416418135166,0.1217445845101028,0.18658033121600973,0.32097062099113033
1789139608543840800,2.3178408203125,-0.0241805015325546,-0.8257061427652835,0.7782209726866334,0.6346690670609262,0.9408498225009302
1789139608553814000,2.32781396484375,-0.6939958253622055,-0.284234290254116,0.2514414614652283,0.6156050282462182,0.4966614491967065
1789139608563787000,2.337787109375,-2.083779620200396,1.05374683663249,-0.2778651022820733,0.3644775048189228,2.3231196837060906
1789139608573760000,2.347760009765625,-1.4695757089555264,-0.2521142278939485,0.3820199435604736,1.0288709833463838,1.144804824048402
1789139608583733000,2.35773291015625,1.6684294713050123,-1.9954349817931647,0.452293685889244,0.6301864065406715,2.563757464853032
1789139608593706000,2.3677060546875,1.1582920837342738,-0.6093237379878759,0.6350402169160545,-0.2149911742477731,1.438739323509772
1789139608603679000,2.377678955078125,-1.8308406319200992,1.7781372157365083,0.8231324198197573,-0.44338977950374003,2.644749867467002
1789139608613652000,2.38765185546875,0.9257476487070322,-0.1847515872389078,0.5149448974503203,-0.41823736608244555,0.9906500951882222
1789139608623624000,2.3976240234375,3.922174613022804,-1.3419026842445134,0.7375811384581029,-1.222102956267154,4.029224095172102
1789139608633597000,2.407596923828125,0.70786302267313,1.0738988133013248,0.5695503113303333,-1.3200913545256223,0.4858755940784852
1789139608643570000,2.41756982421875,-0.7906956196606159,1.810663520810008,0.5058610984910279,-1.0498020662480179,1.7485745683872111
1789139608653543000,2.42754296875,0.6751221980661153,-0.3159527860760688,0.9867295022837818,-0.19772570192521574,1.2207193792294089
1789139608663516200,2.43751611328125,0.4850456164121627,-0.215279411971569,1.0346841165050864,-0.17300142097855487,1.1498939970739874
1789139608673489000,2.447489013671875,-1.326856506282091,0.6989905649095773,-0.1749338845144957,0.20915888586668308,1.4953228489226216
1789139608683462000,2.4574619140625,-1.7274714428603648,-0.0081394673138856,0.4008779348960146,0.9780814167006562,1.4792848602678104
1789139608693435000,2.467434814453125,-0.8102379399985075,-0.6062357088446617,1.3697650891602038,0.8712522381501129,1.463278234339558
1789139608703408000,2.477408203125,-1.2563082213282584,0.1389040282994508,0.6877281432695687,0.5674373123501473,1.3223424562694177
1789139608713381000,2.487381103515625,-0.3960813848018646,-0.7135983514547347,0.3796074025260284,0.784461471383455,0.4413899076246995
1789139608723353900,2.497353759765625,-0.0344037893831729,-0.4089157319337129,0.9433133352097124,0.29059723814313,0.986807473682107
1789139608733326000,2.507326171875,-1.3392325882524252,0.5660270325750112,0.2282511582801118,0.297997702035068,1.4412586471140405
1789139608743299000,2.517299072265625,0.7647258966237306,-0.8547171331942081,-0.1385572241557762,0.26284479923219406,1.1249256822675158
1789139608753272000,2.52727197265625,1.2454869675844906,-1.3273913438111542,-0.0875772707639262,0.3663997846757201,1.7851124732608967
1789139608763244800,2.537244873046875,-0.6345277373492717,0.5943073706418276,-0.4041700352439656,-0.09049469175022029,0.9544583953315776
1789139608773217800,2.5472177734375,-0.3868699043422937,0.6614046383589506,-0.5705812618132681,-0.2772023178920552,0.9142462850984098
1789139608783191000,2.55719091796875,0.2141565454214811,-0.4784714987188577,-0.6234627379775047,0.30658967987385843,0.7546565807533812
1789139608793164000,2.5671640625,0.3610533260405063,-0.0919032076716423,-0.3122897700564935,-0.11324599696143939,0.47276415735480243
1789139608803137000,2.577136962890625,0.0009936872124671,0.3770335699826478,-0.2515748603202402,-0.2908188624887037,0.34766305508935114
1789139608813109800,2.58710986328125,-0.0818611216068267,-0.1719499733328819,-0.0538564586762338,0.1907325965347969,0.052816960534905096
1789139608823083000,2.5970830078125,-0.5318482841193676,0.0466775800228118,0.6121138436304405,0.2289928539564038,0.7792862273891629
1789139608833056000,2.607055908203125,0.0495633645921945,-0.0136269588142633,0.0749991268828511,-0.022469458226508462,0.08810342556576116
1789139608843028000,2.617028076171875,0.1682218927204608,-0.2555868724405765,0.5298675586309284,0.0759722209645559,0.6071335156994899
1789139608853001000,2.6270009765625,0.777220636537671,-0.9214332926392554,0.1555872694117948,0.2905810645563605,1.1802039120289143
1789139608862974000,2.636973876953125,0.0384738153010606,-0.074033204460144,1.1889279719512909,-0.04012095090129193,1.1911763856009918
1789139608872947000,2.646947021484375,-0.049107437518239,0.7546750427305698,0.541579112277925,-0.6212789447647068,0.6922906674134737
1789139608882920000,2.656919921875,1.2614929304897784,0.2057452754288911,1.0002196829758585,-0.9617922556038576,1.30732192030493
1789139608892893200,2.66689306640625,1.67759126740396,-0.3254693869620561,0.5981359524866565,-0.7434799416287136,1.6508322072131878
1789139608902866000,2.676865966796875,0.4305512251585722,-0.2378969019711017,0.7367880883842707,-0.10354421996255889,0.8798321289600014
1789139608912839000,2.6868388671875,-0.3458446509927511,0.5127496158957481,0.3618156887151301,-0.24122078423084906,0.6747175831983283
1789139608922812000,2.69681201171875,-0.2560661803901195,0.3627192134261131,-0.0283043765295296,-0.14536482949426094,0.4204822476691177
1789139608932785200,2.70678515625,0.1248725803375244,-0.7390338214844465,-0.7419190215319394,0.5779558896431909,0.8821422644651566
1789139608942758000,2.7167578125,-1.4106938963979485,-0.0535246694386005,-0.2459413844779133,0.8745447884473568,1.1351567015929642
1789139608952729900,2.726729736328125,-1.5656377898722886,0.7584604064881801,0.2175821359559893,0.27289674319473156,1.7318640912979515
1789139608962703000,2.736703125,-0.0909872618705034,-0.4602700715959071,-0.3135158412527293,0.44766420115308403,0.3435348109754974
1789139608972676000,2.746676025390625,1.0187456658780574,-1.2671902653485536,0.7048692476846278,0.39630486752785266,1.727251287058339
1789139608982648800,2.75664892578125,0.4413222100198268,-0.1208574994772672,0.871180265282467,-0.21382854601846552,0.9605228970524025
1789139608992621800,2.766621826171875,0.3976572558164596,0.5505097299695014,0.0926784663604572,-0.683711057976965,0.04817409284580551
1789139609002595000,2.776594970703125,1.57160342027843,-0.3167570881962776,-0.8288818501919507,-0.5955657739359221,1.7037073968399565
1789139609012568000,2.786568115234375,1.529113355073333,-0.4073515513569116,0.1944004362024366,-0.5645596991157451,1.4910354840802897
1789139609022541000,2.796541015625,0.7904980512619018,-0.1542144101560115,0.1089120274765416,-0.33827843410837805,0.7389849687881787
1789139609032513800,2.806513671875,-0.1885556556969881,1.075019341763854,-0.3256964006509631,-0.7443874496478112,0.8620819512468239
1789139609042486800,2.81648681640625,-0.031138065585494,0.4850286652773618,-1.1890705952923744,-0.2985187875633112,1.2493989752396302
1789139609052460000,2.8264599609375,0.4735445637106895,-1.0113169771820305,0.4068128413703292,0.522611852041795,1.0674174544974389
1789139609062432000,2.836431884765625,0.0374210913777351,-0.9810521872997284,0.6085960082352161,0.7366344916124479,0.889731678255974
1789139609072404700,2.84640478515625,-1.1460007574379445,0.4014309291362762,0.5824835887920111,0.2970308122258661,1.3135921569178233
1789139609082378000,2.8563779296875,-0.3622586101770401,-0.7009726786375046,0.7575919530905783,0.7298109636210716,0.814810113836174
1789139609092351000,2.86635107421875,-0.3782552207320928,-0.9805535901278256,0.8778576241545378,0.9586316352175628,0.9778659168669309
1789139609102324000,2.876323974609375,0.0487432803809642,-1.289880236062407,0.5828397818185389,0.9830694219615822,1.0195310949849008
1789139609112297000,2.886296875,0.3262619986444711,-0.5346937366783618,0.340373306909576,0.22423926455835883,0.6766941880121633
1789139609122270000,2.89627001953125,0.7825234191209077,-0.844765648022294,0.6611470103360713,0.19191115491377658,1.3138711426343102
1789139609132243000,2.906242919921875,1.5942214947998523,-0.7774924392163753,0.9551829289626328,-0.3509952793822184,1.9837372328898648
1789139609142216000,2.9162158203125,2.572097390151024,-1.2663193277329206,1.1222231376178562,-0.5290632687636596,3.0329402322600494
1789139609152189000,2.92618896484375,1.2546370732456444,0.114188689237833,0.8581712191708385,-0.874000606728008,1.2488931191917458
1789139609162162200,2.936162109375,1.9753174919158216,-0.7322954531401396,-0.0329176424786448,-0.5429573067632127,2.0357840648696324
1789139609172134100,2.946134033203125,1.2871797449320554,0.117749012067914,1.0925921886596828,-0.9111005912755533,1.4263063937681182
1789139609182107000,2.95610693359375,-0.3446878821730613,0.8327613219738006,0.2359848578047007,-0.4940011301240912,0.7899068882100775
1789139609192080100,2.966080078125,-0.2399438976287841,0.0463806429028511,-0.3869797213923185,0.12628795955891697,0.43991919040284666
1789139609202053000,2.97605322265625,-1.4662918649792671,-0.2890846528947353,0.7741147064115852,1.0312872602717886,1.3301435769598144
1789139609212026000,2.986026123046875,-2.672139480614662,0.0219599028736352,2.081008694182336,1.3888221083712433,3.0891069871008905
1789139609221999000,2.9959990234375,-1.6739818447351456,-0.0492728572130203,0.4936561353038996,0.9745566620363002,1.4486472045893928
1789139609231972000,3.00597216796875,-0.6192588565468787,-0.4683195225387811,0.0378049030635505,0.7362597902342132,0.24930992475755276
1789139609241945000,3.015945068359375,0.6670329996347427,-1.4125690426200628,0.8284688854768871,0.7096239373420798,1.6195921969819203
1789139609251918000,3.02591796875,0.2252519399315118,0.0527507624566555,0.7663401268873363,-0.22339284522710118,0.7686962379000609
1789139609261891000,3.03589111328125,0.5195931981801987,-0.136022335383296,0.5657309722378849,-0.22662546863352806,0.7464392790000466
1789139609271864000,3.045864013671875,1.9120482580542564,-0.8446364686846732,1.746810934102535,-0.5319681690918487,2.6716469849015736
1789139609281837000,3.055837158203125,2.336056345179677,0.2123907047927379,0.389249931346625,-1.5477248028706017,1.8050851788680489
1789139609291809000,3.06580908203125,0.2560655958682298,1.318673199826479,-0.5167804788470268,-1.1868991751404812,0.8141259169785496
1789139609301782000,3.075781982421875,-0.2557166363000869,0.4800064532011747,0.3177890615925192,-0.26374426726108435,0.5720367491255872
1789139609311755300,3.08575537109375,-0.6441776092261076,0.1532850203514099,0.7232578679427504,0.1998284325136498,0.9600164742298053
1789139609321728000,3.09572802734375,-0.7571908249437809,0.9173790488123892,0.0584592762965708,-0.3129188017486691,1.1490959816639614
1789139609331701000,3.105700927734375,-0.4128443035542964,0.9011655806362628,0.0923131767120212,-0.5008492669025164,0.8603554830060663
1789139609341674000,3.115674072265625,-0.8296113335102796,-0.1586164445072412,1.1969028963532298,0.5295916253585261,1.3658416433853846
1789139609351647200,3.125647216796875,-1.214234335708618,-1.0963093825519084,1.6467504311993717,1.4851559853149818,1.783916468398534
1789139609361620200,3.1356201171875,-0.3610813830912113,-0.5028554138690233,0.5310276153862477,0.5828200245272877,0.5705738162457732
1789139609371593000,3.145593017578125,0.0505570518046617,-0.3730038760751485,0.7038281411338597,0.22804181079960142,0.7648914248659394
1789139609381566000,3.15556591796875,0.6405448056817055,-0.2220762325048446,0.8942755288615822,-0.24806130422478984,1.0944449789716788
1789139609391539200,3.165539306640625,-0.235341372269392,0.2777595412820577,0.3095655692569911,-0.11041188662442841,0.46494728866431617
1789139609401512200,3.17551220703125,-0.8218868767380714,0.3162175744920968,1.0737756253130732,0.14686681181004457,1.3809112301944542
1789139609411484000,3.18548388671875,-0.2522925070703029,-0.4806342297106981,1.0612732866145669,0.4670542712546926,1.0967324507270892
1789139609421457200,3.19545703125,-1.0062982722371816,0.4760258591324091,0.8788320221446454,0.13616616258140019,1.4117511574583488
1789139609431430100,3.20543017578125,-0.2092231806725263,-0.3284247296363115,1.0521490460470315,0.31892937423378187,1.075610901634945
1789139609441403100,3.215403076171875,0.432405328592658,-0.9684890583246946,1.5510796876877546,0.43632569190311,1.8276798167164818
1789139609451376000,3.225376220703125,-0.0871533827960491,-0.2893675614893436,1.0169864011205731,0.21895217512461967,1.0380995052727156
1789139609461349000,3.23534912109375,0.6401356403589248,-0.1455629016667604,1.0079086300432682,-0.31754900699122096,1.1601743968360811
1789139609471322000,3.245322021484375,0.7000351055264472,-0.5184545495390892,1.579453987648338,-0.08630117247577795,1.801685676147409
1789139609481295000,3.255295166015625,-0.1055056165665388,0.1675678127259016,1.7134399948984385,-0.18800977310309053,1.7145668106912932
1789139609491268000,3.26526806640625,0.6823989110708236,-0.0407657256305217,0.8868395336419344,-0.4192736494769462,1.038279386052403
1789139609501241000,3.275240966796875,0.3746656718075275,-0.2089560541689396,1.0769843582265075,-0.11716994384653663,1.15334448900942
1789139609511214000,3.285214111328125,-0.4858434887915849,0.2953425442457199,1.0683828263588249,-0.02989545270937527,1.2098839777468275
1789139609521187000,3.29518701171875,-0.019890110862255,-0.1525479382485151,1.050027377717942,0.06660370484909492,1.0591449053040751
1789139609531159000,3.305158935546875,-0.0999836382746696,0.0317938991457223,0.8683031754761934,-0.025182786180107823,0.8742561476865783
1789139609541132000,3.315132080078125,0.670436086076498,-0.4955500592917203,1.2682314449645578,-0.06738752644267487,1.5162204081380874
1789139609551105000,3.32510498046875,0.0468728103339672,-0.6856634658247232,1.0520518692828715,0.46168426839575616,1.1687566986729252
1789139609561078000,3.335078125,-0.4012269309967756,-0.1045364792734384,0.8971551759511232,0.25784913673141985,0.9541028026783748
1789139609571051000,3.345051025390625,-0.5449947659403085,0.3926946649730205,0.1627307479582727,-0.015421601853911948,0.6909933902201401
1789139609581024300,3.355024169921875,-0.243226572561264,0.5223258380144834,0.0156536423362791,-0.28553607565949646,0.5006971466593341
1789139609590997000,3.3649970703125,0.0979740520179271,0.3212164056926965,-0.2564231771342456,-0.3011006556131993,0.29642897145162567
1789139609600970000,3.374969970703125,-0.4470440947979688,0.6164326932102442,0.2489982878305018,-0.2597157689298061,0.7578822828539347
1789139609610943000,3.38494287109375,-0.0738999334692954,0.4372083449602126,0.3893549991562962,-0.3386434162270017,0.4832497171067145
1789139609620916200,3.394916259765625,-0.3449497479796409,0.3291132964223623,0.8387732757396995,-0.12366515466401978,0.9568455612742537
1789139609630889200,3.40488916015625,0.850910726648569,-0.6822066033691168,0.213736128052324,0.04954544634528274,1.1102627146703925
1789139609640862000,3.414862060546875,1.2695254302978516,-0.9067343206793068,-0.0305909530967473,0.006496631569457345,1.5603703235643542
1789139609650834200,3.424834228515625,0.1365448979526758,0.0283960734009742,-0.0390082144387066,-0.09941088588204784,0.10530889185317041
1789139609660807200,3.43480712890625,0.1327484282791614,-0.4173077127039432,-0.2205295875847339,0.27736435521619085,0.4043144639369014
1789139609670780200,3.4447802734375,0.8047697377204894,-0.94585637075603,-0.3791714587941766,0.3296848760850467,1.255936894312515
1789139609680753000,3.4547529296875,-0.4291524642765522,0.0575116932481527,-0.3782508368179202,0.2259460768889729,0.5286790125840501
1789139609690726100,3.46472607421875,-0.4481617006510496,-0.0917804580748081,-0.1974155462399125,0.34651506353444483,0.3580122498683324
1789139609700699100,3.47469921875,-0.1377706403553485,-0.7284849549412727,-0.254930308227986,0.6890731003417618,0.3739502685629724
1789139609710672100,3.484672119140625,-0.2164379343569278,-0.364271119043231,0.1582100556634366,0.4110131376633451,0.18877883880049007
1789139609720645000,3.49464501953125,-0.7755442277580499,0.2225549559324979,0.8953095480844377,0.20803744919746944,1.1871390669342479
1789139609730618000,3.5046181640625,0.716268447446823,-1.203206745737791,0.7825634588703513,0.5138515521169691,1.5195753062428061
1789139609740591000,3.514591064453125,0.9112170190513134,-1.256665364202857,0.2760407546654343,0.4780332887178299,1.5024004015274153
1789139609750564000,3.524564208984375,0.3631611119747162,0.0166354929804801,0.957493178666383,-0.2862274090272095,0.9833767286201359
1789139609760537000,3.534537109375,1.122483688250184,-0.1291641400516033,0.866145997442305,-0.600184370430241,1.2909843592544363
1789139609770509000,3.544509033203125,1.437597100892663,-1.0665198089659214,0.424160062816739,0.009542204612837724,1.8395571838438514
1789139609780482000,3.55448193359375,0.4822480946481227,-0.3317909911990165,0.9948835826449096,-0.07396866625500612,1.1519420411033694
1789139609790455000,3.564455078125,0.1714694963395595,0.1461427473813295,1.6822434771239756,-0.3285102677745355,1.6651677426253404
1789139609800428000,3.574427978515625,-0.594146042600274,0.0563221912026405,1.387507812730223,0.20617038145987665,1.4962798579662595
1789139609810401300,3.5844013671875,0.2522311322718858,-0.3665490008473396,1.829927316467464,0.03229370855071276,1.8829683518453506
1789139609820374000,3.5943740234375,-0.4252724079728126,0.4745230533540248,1.4248282202124596,-0.23410004416958313,1.5431660233367717
1789139609830347000,3.604346923828125,-1.0081821862876414,0.26949323271811,0.8457980598099529,0.30747333015841877,1.3076285529339586
1789139609840320000,3.614320068359375,0.1036310548663139,-0.6949538567394018,0.4770597322247922,0.47424781802034566,0.7045390363514327
1789139609850293200,3.624293212890625,0.2029004073917865,-0.7028700366914272,1.145081158374995,0.3794476944776498,1.3047701599206574
1789139609860266000,3.634265869140625,0.1604021588802337,-0.2809153749644756,0.26479579561688,0.11851833125664375,0.40088965937947146
1789139609870239000,3.644239013671875,-0.0866740748465061,-0.0968798270404338,0.6942012848064303,0.08326852076613295,0.7013414813157716
1789139609880212000,3.6542119140625,0.1617161640882492,-0.1099462293624877,1.030162912753597,-0.07165179867728486,1.0461079952078232
1789139609890184200,3.66418408203125,0.9835603707283734,0.0967810428410768,0.819318999011442,-0.7007067453887528,1.0756631685748819
1789139609900157000,3.674156982421875,0.4619406351566314,0.0889069484651088,0.4274022596083581,-0.36725053935767216,0.5187420637986848
1789139609910130000,3.6841298828125,0.1369762751072645,-0.1095452473461627,0.845271990109235,-0.04553705407434698,0.8620752723097037
1789139609920103200,3.694103271484375,-0.0481499906629323,0.2971311812281608,0.3578300531450659,-0.23746937427816528,0.4028101335277204
1789139609930076200,3.704076171875,1.0418085615575312,-0.3782721718668937,-0.5727776028137653,-0.2563296945543994,1.2209931141977013
1789139609940049200,3.714049072265625,0.3673486267924308,-0.3124807260513305,-1.107531545246765,0.1148567937426131,1.2025070720821998
1789139609950022000,3.72402197265625,-0.460548304015398,-0.0163847330898046,-0.619228096082434,0.3200444228425715,0.7024159751850217
1789139609959995100,3.7339951171875,-0.0102747257769107,-0.3905716814696788,-0.6546783257786184,0.3667539931637107,0.6683913726991174
1789139609969968000,3.743968017578125,0.3980354414790868,-0.410816012597084,-1.098703145820647,0.17656340125903583,1.2260407729156668
1789139609979941000,3.753941162109375,0.1475292333036661,0.2073304987937211,-0.1265114335857331,-0.24559721380023997,0.1429613997227828
1789139609989914000,3.7639140625,-0.2391699906468391,-0.0500736522018909,-0.3292703866802156,0.20052961029314093,0.3576541877443416
1789139609999887000,3.77388720703125,-0.2250783369302749,-0.574824671536684,-0.6747309337262064,0.6420643905084068,0.6512286941855844
1789139610009860000,3.783860107421875,-0.2624070738494396,-0.0682481913179159,-0.1745148553848266,0.2185690155606166,0.23706182360566197
1789139610019832000,3.79383203125,-0.419061278373003,0.4722048395395278,0.3632343233413994,-0.16603358639364396,0.70919798882873
1789139610029805000,3.80380517578125,0.0220317990660667,-0.4007791872292757,-0.8408200522016733,0.36863211473924595,0.8556857374372571
1789139610039778000,3.813778076171875,-0.2846095533072948,-0.2686386617153883,-0.1585476170547306,0.3933943841420468,0.1534520570121037
1789139610049751000,3.8237509765625,-0.94667703948915,0.3793804253697395,0.4312714291919022,0.20977882689371563,1.0872510352600215
1789139610059724000,3.83372412109375,-0.3379284710407257,0.3855535610467195,0.183759434396401,-0.13059665321589914,0.5287336227952791
1789139610069697000,3.843697021484375,-0.0164683197200298,0.0091559508800506,0.2299878093469888,-0.013052370276162661,0.2303889430274809
1789139610079670300,3.853670166015625,-0.2348100418716669,-0.1412310099422931,0.5140404594238848,0.21676036979996352,0.5406796555651004
1789139610089643000,3.86364306640625,-0.0449064786970615,-0.222008427965641,0.1895081341162323,0.19412407064186296,0.22256125451298508
1789139610099616000,3.873615966796875,-0.0588742137730121,-0.0653168140411376,0.6645712126310914,0.04347667135297089,0.6689522665705677
1789139610109589000,3.883589111328125,-0.6948883902877568,0.2179220354348421,1.109441543586552,0.15114676295480894,1.3184745288282091
1789139610119562200,3.893562255859375,0.0001630816072225,0.1888613606452941,0.6352547364495694,-0.19551261376892962,0.6332393214095724
1789139610129535200,3.90353515625,1.1876052719801664,-0.4708469951897859,0.2370654926482588,-0.31844134582922246,1.2597215295395132
1789139610139507000,3.9135068359375,0.3779945239692926,-0.0149848031640052,0.4646965828012674,-0.23668052618604768,0.5504812867556053
1789139610149480200,3.923480224609375,-0.4911743284255266,0.5587754540115595,0.6216344996370374,-0.21180174584625572,0.9460717205928731
1789139610159453200,3.933453125,-0.2042956611424684,-0.1478174025952816,-0.1593891093801707,0.24875178190387826,0.1646637205346194
1789139610169426200,3.94342626953125,0.0642763650774955,-0.6307265915006399,0.1210007804054766,0.4681202529965052,0.44435582805541435
1789139610179399000,3.95339892578125,-0.3581494212925434,0.006691606593132,0.301847396095097,0.18158849505796845,0.4318023327437608
1789139610189372200,3.9633720703125,-1.7770786465942858,1.3046680553495884,0.252285967731662,-0.05168279906128581,2.2183652423860565
1789139610199345200,3.97334521484375,-1.5859049173533917,0.1934469348698854,0.5053808406934142,0.7254198471265421,1.510527048096494
1789139610209318100,3.983318115234375,0.2540770523995161,-0.9830009832799436,0.425672841999866,0.6250992565278599,0.9062529280448819
1789139610219291000,3.993290771484375,1.284841657373309,0.2084212166398763,0.0315287088708952,-0.913793769677178,0.9274871934693633
1789139610229264100,4.00326416015625,-0.7189981646716594,1.431011877283454,0.1565020096365362,-0.7593467774068446,1.4186749819425324
1789139610239237000,4.013237060546875,2.16786426307559,-1.670573497596383,0.0171146182669326,0.10598007803777865,2.7348697239922073
1789139610249210000,4.023210205078125,1.8137094643771647,-0.2858300350129604,-0.3296151815298944,-0.7933845276777391,1.688321056322928
1789139610259183000,4.03318310546875,-1.284420217090845,2.6426228787511588,0.5011102507021278,-1.4412444926051136,2.609045183446414
1789139610269156000,4.043156005859375,1.189881400218606,0.1860281830459833,-0.3893926277529448,-0.8130605152740018,0.970043013749544
1789139610279128000,4.053128173828125,1.555868675529957,-0.663149436199665,-0.7781143705070018,-0.30796693389835617,1.8360590544538673
1789139610289101000,4.06310107421875,-2.1455536470681427,2.1896248439848423,-0.0242046861257404,-0.540733964883086,3.017623246181557
1789139610299074000,4.073073974609375,-1.6079022296279668,0.4131014931857585,-0.0538317260937765,0.5961522432121977,1.550323444111644
1789139610309047000,4.083047119140625,0.4939350253105163,-1.936649030825496,-0.97571550244689,1.3546024235038292,1.7639881784690543
1789139610319020000,4.09302001953125,-0.951902665182948,-0.3060240972578525,-0.2580033589977771,0.8157847402996175,0.6331116985440284
1789139610328993000,4.102992919921875,-1.8736223735481496,0.8346464050680399,-0.4844254386872053,0.4349377325008811,2.0621815135063857
1789139610338966000,4.112966064453125,-0.1838864948421716,-0.963329483604431,-0.596960515499115,0.9292726166837793,0.6742641899979346
1789139610348939300,4.122939208984375,-0.5907166526734828,-0.1418546947985887,-0.3964262892493977,0.4826787170881825,0.5415200615492637
1789139610358912000,4.132912109375,-0.4704921904027461,0.49256665956676,-0.0135489982072263,-0.1281321034664149,0.6691416552273679
1789139610368885000,4.142885009765625,0.6693646574527025,-0.4912777888000011,-0.4773291237507015,0.04447317870599787,0.9566964718087911
1789139610378858000,4.15285791015625,0.9506295765072108,-1.0787930150836706,-0.3366025196665898,0.3508028563375476,1.434478850786902
1789139610388831200,4.162831298828125,0.3214285871386528,0.1136176113516092,-0.0448691240950487,-0.2751579572032546,0.2062198708271941
1789139610398804200,4.17280419921875,1.382829153394699,-0.2038788970351219,0.2557130378372035,-0.6496522060776079,1.2637738092684887
1789139610408776000,4.18277587890625,1.2965648283928632,-0.9027946431428192,-0.8920933625169097,0.04429067476692006,1.8138322484420115
1789139610418749200,4.192749267578125,0.8136825274944305,-0.438324781769514,-0.1338508913620375,-0.10454548882020037,0.9280054804519067
1789139610428722200,4.20272216796875,-0.5712111572146416,0.5861883615940809,-0.4143587267052382,-0.11979122424651711,0.9095285583120246
1789139610438695200,4.212695068359375,-0.0449310286164283,-0.6644616878420114,-0.7369782041288911,0.615034786881007,0.7799982155297952
1789139610448668000,4.22266796875,0.1938730513274669,-0.7393751822680235,-0.7124693474248052,0.5364428713224483,0.8967184825864529
1789139610458641200,4.23264111328125,-0.9126455905497074,0.3625508711218834,1.135349088107422,0.1575436240375111,1.4928371198803112
1789139610468614100,4.2426142578125,-0.8576438342958688,0.2417670214027166,-0.2794980737787671,0.3170350403825749,0.8784145920687575
1789139610478587100,4.252587158203125,-0.2891688240468502,-0.6909206557005644,0.2439214046913199,0.7131729971815285,0.3344725534809072
1789139610488560000,4.26256005859375,-0.1262806935697794,-0.7812263650476932,0.8834969452157616,0.6505328439086862,0.9917839070159161
1789139610498533000,4.272533203125,-0.0186766434192657,-0.545732432565093,1.0709865791164337,0.38444514022255105,1.1390289249047227
1789139610508506000,4.282506103515625,-0.2735457229793072,0.0111737204432487,0.0811920815051533,0.1435750862467292,0.24684096762328467
1789139610518479000,4.29247900390625,0.2286877595990896,0.0895510915875434,0.8021258721482009,-0.2576723190413652,0.7983284913895584
1789139610528452000,4.3024521484375,0.4442231921583414,0.0118330611348152,0.637694457751885,-0.3081249584450125,0.7135737503705535
1789139610538424000,4.312424072265625,0.1413444071888923,-0.2921802808225154,0.8206945982135831,0.10215851251073814,0.8766132669562169
1789139610548397000,4.32239697265625,-0.7559937241137027,0.4841378539174795,0.4329411525024101,0.014291286227802402,0.9965690007035128
1789139610558370000,4.3323701171875,0.6196662683039903,0.5895318268030881,0.5505781190305948,-0.87378957557775,0.520732274450607
1789139610568343000,4.342343017578125,0.7035048274636269,0.0980453636884689,0.6184766931932419,-0.526773343781525,0.7807401615838079
1789139610578316000,4.35231591796875,1.2798685451358556,-0.6139028824716806,0.5308237633772194,-0.2746399446505114,1.4903982724438216
1789139610588289000,4.3622890625,1.15725455738008,-0.1532943727016449,0.1330640883659012,-0.5524564245960158,1.0369354974221832
1789139610598262000,4.372261962890625,0.4084726643413305,0.3028834611445665,0.3343137876749038,-0.5043539866373401,0.34055994089378705
1789139610608235000,4.382235107421875,1.0396931768387556,0.2631611070871353,-0.0614243001146242,-0.8106246047912489,0.7048945772241361
1789139610618208300,4.392208251953125,0.9395067094683648,0.3166355076432228,-0.0916026172898709,-0.7942827687841859,0.6003639100940678
1789139610628181000,4.402180908203125,0.4805237550735473,-0.4817722938299179,-0.0438000883577391,0.11732377031517344,0.6716853451961724
1789139610638154000,4.412154052734375,-0.7657809586346149,-0.1189461128979921,-0.6781787360925227,0.5836744248235858,0.8484216040836062
1789139610648127000,4.422126953125,-1.318022042441368,0.1886065091013908,0.0440732427433133,0.6049436529120987,1.1869035964070567
1789139610658100200,4.432100341796875,-0.4920458505630493,-0.6851344735145568,0.6846987124457955,0.7966809030253855,0.7386678762704995
1789139610668072000,4.442072021484375,0.1622995169341564,-1.1436948185831308,-0.2100945201469585,0.8506440773320705,0.809273335991377
1789139610678045000,4.452044921875,-0.8358785772114992,-0.1780219867229461,0.3539000202197581,0.6044032691017432,0.7002333441136432
1789139610688018200,4.46201806640625,-1.3773726415544747,0.2949035683065653,0.2383000028792768,0.5399705633669096,1.322627003494251
1789139610697991200,4.4719912109375,0.2075888574689626,-0.3522539335131645,-0.179073797330819,0.1784794562874138,0.40913136764930963
1789139610707964200,4.481964111328125,0.5184785149365663,-0.4494400500237941,-0.1652810900282114,0.0770768897536045,0.7015649084746486
1789139610717937000,4.49193701171875,0.5332791937053203,-0.1743997045725584,0.4161275264760479,-0.193472456600491,0.6712171647254241
1789139610727910100,4.50191015625,0.103310152348876,0.3787275144189596,0.0957518824564293,-0.3741224177353849,0.15267074801051844
1789139610737883100,4.511883056640625,0.2956862431168556,0.300913037854433,0.1148761965779587,-0.4231827818094003,0.10996310490168512
1789139610747856100,4.521856201171875,1.015956327420473,-0.9112468296676872,0.848119415429607,0.0988835325100127,1.603766389980818
1789139610757829000,4.5318291015625,-0.2302735674858093,0.0095814828157424,0.3960248323090374,0.09918544442778063,0.44734286192433514
1789139610767802000,4.541802001953125,-0.8470242406040429,0.5891881279319524,0.3265215263634919,-0.011610268347643227,1.0821618285240218
1789139610777775000,4.551775146484375,0.0629939240515232,-0.523048307070136,0.2058389450617134,0.3756715843554896,0.42283365288053854
1789139610787748000,4.561748046875,0.8993576544314622,-1.3037971177339551,0.0736687550619244,0.5365326127420244,1.4920760556125885
1789139610797720300,4.57172021484375,-1.68178813457191,1.0964029060542584,0.1036333929538726,0.0725036077161717,2.0089782898265374
1789139610807693000,4.581693115234375,-1.2193985866039991,0.5961743335574865,0.7122497863899916,0.1724423368174589,1.52312840814229
1789139610817666000,4.591666015625,1.026204749712348,-0.893638107740879,0.1234163901798427,0.12626376819520457,1.360505171671557
1789139610827639000,4.60163916015625,1.0085966123074293,-0.6349246277123689,0.4888176822967827,-0.09808538554330731,1.284413637775048
1789139610837612000,4.611612060546875,-1.5110235716313123,1.2718828070789574,1.1778854036070403,-0.23951292326202533,2.2871217048048615
1789139610847585300,4.621585205078125,-0.9920102191656828,0.4550321709424257,0.6941781231265515,0.1571304690725005,1.28387376086525
1789139610857558000,4.63155810546875,1.996611624357104,-0.864389216902852,0.0404754374470561,-0.4526005446563631,2.128477790541666
1789139610867531000,4.641531005859375,1.2485177135825156,-0.0466290647059679,0.6234352654486894,-0.7241876871324168,1.1938150923889113
1789139610877504000,4.65150390625,-1.2123416538298128,0.9211071294248104,0.9555911444373428,-0.11201206221068105,1.7941065639293563
1789139610887477200,4.661477294921875,0.4882803605496883,-0.1444926420867443,1.3370578745618462,-0.2523384018051956,1.408312793742208
1789139610897450000,4.671449951171875,0.3427180434048175,-0.2531932553023099,0.8514635382257402,-0.04790129692314862,0.9509248679505566
1789139610907423000,4.681423095703125,-1.3159060732007026,0.4033627739816904,1.0612782550506292,0.36213157434636056,1.6998478103716907
1789139610917396000,4.69139599609375,-0.9250012142539024,1.1076777487844227,0.8341592791382223,-0.42180786356908695,1.612599476226816
1789139610927369200,4.701369140625,-0.5856371574521064,0.8364233516126871,0.2264421726293861,-0.35717900390591734,0.9829924313164763
1789139610937341000,4.7113408203125,-0.7835135992020368,0.2740314606696367,0.3676767627682537,0.2054320564005205,0.8842910570926636
1789139610947314000,4.72131396484375,0.1628518901199102,-0.1511655439794063,0.4776927694313228,-0.002460892392616029,0.5268359192175643
1789139610957287200,4.731287109375,0.1933773767650127,-0.4525584743052721,0.3326720118172466,0.2346703943798301,0.545714628682595
1789139610967260200,4.74126025390625,0.2940811460077762,-0.1897837361872196,-0.0566090453200042,-0.011723730325142484,0.3543567765934959
1789139610977233200,4.751233154296875,0.341049817931652,-0.146723762139678,0.3106746995426714,-0.09802745349493258,0.4740804024475824
1789139610987206000,4.761205810546875,-0.1198831014871597,0.2423988895654678,0.1012839802835136,-0.13464180084848082,0.25545882214380794
1789139610997179100,4.77117919921875,-0.1147054065883159,0.1121264960110187,-0.8738816331956535,0.0324531391686092,0.8878882722522612
1789139611007152000,4.781152099609375,-0.8207482280969619,0.4736024313777685,-0.2644845377106219,0.10610113399130516,0.9780703129044439
1789139611017125000,4.791125,-1.1891583466410636,-0.1080015250355005,-0.7649737339049577,0.8250202628060108,1.1533812389319047
1789139611027098000,4.80109814453125,0.0768184512645006,-1.317566699889302,-1.078354404470697,1.0985538682007823,1.3030390260519107
1789139611037071000,4.811071044921875,0.0023848493099212,-0.5719073227852582,-0.8307777469411491,0.5185610833159887,0.8650836612977919
1789139611047044000,4.821044189453125,-0.0605336714178323,0.190735922345519,-0.6129155154021456,-0.07994924548731952,0.6397797000647989
1789139611057017000,4.83101708984375,1.6521557973742484,-0.4438561124116182,-1.0988702460158617,-0.5209341968862315,1.9653931941003437
1789139611066990000,4.840989990234375,2.534494512465596,-1.0723942539572715,-1.0474146379362792,-0.5225448621595141,2.897881322696407
1789139611076963000,4.850963134765625,1.61815415905118,-0.4557739292204379,-0.7884953331373632,-0.5119952319272003,1.7848637286568636
1789139611086935000,4.86093505859375,2.005652424424887,-0.7724252189546823,-0.8314350418061017,-0.4753484759393267,2.25490807387882
1789139611096908000,4.870907958984375,1.808787790066004,-0.7002484560161829,-0.4891780765743926,-0.4428582184818176,1.9507006327391807
1789139611106881000,4.880881103515625,1.547434609183669,-0.9465274018853902,-0.4646497845174744,-0.09312194680033026,1.8702127465867548
1789139611116854300,4.890854248046875,-0.0725643009513616,-0.382984587341547,-0.4360232633614912,0.3821897328447066,0.44270765321398153
1789139611126827000,4.900826904296875,-0.8224702295839786,-0.4999211139827966,-0.4604146676983684,0.9120926361473687,0.5535766325227842
1789139611136800000,4.910800048828125,-1.1998474984377625,-0.040341947260499,-0.2866672895547002,0.744708066209423,0.9843015408092102
1789139611146773000,4.92077294921875,-1.4863941572874784,0.4960720373392104,-0.2006601541843265,0.46810746264264763,1.5088389436728389
1789139611156746200,4.930746337890625,-1.01657767418921,-0.8793377797096967,0.1233608606003224,1.294562730329197,0.38208681952586393
1789139611166719500,4.940719482421875,0.2154255424439907,-1.3037082704067229,0.0875134848127141,0.9305962761777267,0.9421850133877051
1789139611176692500,4.9506923828125,0.8519844933599233,-0.5701835677325725,0.5902781151257455,-0.06697009479122384,1.1810716055506827
1789139611186665500,4.96066552734375,1.121685231348872,-0.0984814170181751,1.011711164131388,-0.6342551037423207,1.3744658201384954
1789139611196638500,4.970638427734375,1.6882944477260111,-0.0774631789088249,1.530061303447932,-1.012701765336367,2.042513503774829
1789139611206611500,4.980611572265625,1.618752124944329,0.2093079363465309,0.3093441815912723,-1.1256431883335904,1.2217976466960423
1789139611216584400,4.99058447265625,1.4809066657871006,0.2027501852661371,0.834046174152568,-1.0751698621786165,1.3318539628951331
1789139611226556400,5.000556396484375,0.5597381615638732,0.1249479836612939,0.5612291673066094,-0.4618596949030196,0.6561879369446587
1789139611236529400,5.010529296875,0.0925181246995925,0.4663163660228252,0.290560935992375,-0.4519594965276646,0.32583558375642124
1789139611246502400,5.02050244140625,-0.0347843131333589,0.5161690689504146,-0.837968681358546,-0.3448248571706175,0.9224574705623783
1789139611256475400,5.030475341796875,0.4327759154707193,-0.4293289898872375,0.5472716978963464,0.06338703032247536,0.8167660437814261
1789139611266448400,5.040448486328125,-0.6605863077133893,-0.919705445933342,0.7304001409128308,1.0818898003025537,0.8032628480545081
1789139611276421600,5.050421630859375,-0.9430272848099468,-0.7173667640775442,0.1032000795705243,1.1216144087470001,0.3956600922680823
1789139611286394400,5.060394287109375,-0.6091209088921546,-0.4755944819778204,0.8334517153907567,0.6840335692968088,0.9077214500606553
1789139611296367400,5.070367431640625,-0.3005681699395179,-0.4290437432050705,1.4854561457850035,0.4250842332158079,1.5166750192727432
1789139611306340400,5.08034033203125,0.0501209984749555,-0.6156728147536515,0.2089947056788951,0.4582648749485244,0.4639366559187061
1789139611316313600,5.090313720703125,1.0316957483440636,-1.1256091267943382,0.6377678883142769,0.27803529484275225,1.631207000248738
1789139611326286600,5.10028662109375,-0.7787380553632974,0.8574684777289628,0.5868199009632692,-0.28644967658955656,1.2664870027434605
1789139611336259300,5.11025927734375,0.2235597490608692,0.0064022682577371,0.2707728241998702,-0.15213472936780262,0.3165326158302839
1789139611346232300,5.120232421875,1.591208284458518,-0.96288407792449,0.1769566590463742,-0.14726351718506692,1.8624491047373761
1789139611356205600,5.13020556640625,0.8240992920905351,-0.6560919189035892,0.7243524582464248,0.0102257889001523,1.2783497824475596
1789139611366177500,5.140177490234375,-0.5484130499511957,0.3702753278940915,0.1877764514854177,0.003148622771727283,0.6878304832667321
1789139611376150300,5.150150390625,-0.2530301736950874,-0.886929550012946,-0.0792396505294367,0.8730223051206778,0.30786242457328017
1789139611386123500,5.16012353515625,-0.9116291069835424,-0.0052379006534814,0.0158198292160406,0.5297880346864536,0.7420714046521106
1789139611396096500,5.170096435546875,-0.5217892469197511,0.1138385606259107,-0.2545817870512604,0.2254953640539319,0.5469798562788745
1789139611406069500,5.180069580078125,0.2519534843742847,-0.8784148196458816,-0.3979256974942982,0.5953547252621174,0.7993689795684108
1789139611416042500,5.19004248046875,0.0355360082834959,-0.9078636169701814,-0.1237603813119232,0.7263028546936762,0.5597141682584015
1789139611426015500,5.200015380859375,-2.0117928268760443,1.953285692849755,0.0738027567051351,-0.432136063676998,2.7715231634479407
1789139611435988500,5.209988525390625,-0.0272106630086898,0.7661573907315731,0.2250747567337006,-0.6224688716435156,0.5009278565897167
1789139611445961500,5.21996142578125,2.0794430523008107,-0.8136375193089246,0.2649196777248755,-0.5564900221175612,2.1786671869559933
1789139611455934500,5.2299345703125,1.2918471522212027,-0.4983008193045854,0.3262870965531095,-0.36217793263929765,1.3756682687726118
1789139611465907500,5.239907470703125,-0.8881751661598681,0.4917693717092275,0.4987658064678311,0.08010509675151128,1.1282919586305376
1789139611475880400,5.24988037109375,0.5265560229301453,-0.7586018607854843,0.946060807286948,0.2509275995750099,1.2980001615281742
1789139611485853400,5.259853515625,1.9889035341978072,-1.0359639271825551,0.5017000698214397,-0.3388558632388463,2.272848035125869
1789139611495826400,5.269826416015625,0.2700514511227607,0.6207406195372343,0.5186581823524087,-0.695144336320353,0.4939912598415264
1789139611505799400,5.27979931640625,-0.2558902393013239,1.1491349638104438,0.2842380165811627,-0.8058843151683791,0.9040645442980852
1789139611515771400,5.289771484375,0.4767535888850688,0.5741168155282735,0.1707022017614916,-0.7537337968471649,0.13389812382440855
1789139611525744400,5.299744384765625,0.5834995609015226,-0.0509434207737445,0.1586312036849558,-0.30600944531721713,0.524012450092159
1789139611535717400,5.30971728515625,0.0910381152749061,0.0978483798116445,1.6017150654256342,-0.23746465054257027,1.5896427065283285
1789139611545690600,5.319690673828125,-0.4960100780189037,0.5903074873507023,1.2359455245181918,-0.27503747278760865,1.430526006494734
1789139611555663400,5.329663330078125,0.4364642485946416,-0.6016448739230632,0.8003229874446988,0.18483321948897663,1.076490204240118
1789139611565636400,5.33963623046875,-0.0114981300920248,-0.8886106349676847,1.4614666367799043,0.633623859599095,1.5887626010643616
1789139611575609300,5.349609375,-0.8824608801662921,-0.2747685427725315,1.7004374515928329,0.6215345036069563,1.8328713388360869
1789139611585582600,5.35958251953125,-0.6482990730702877,0.0907744959026575,0.4362839235916733,0.27193144043886897,0.7381928277459505
1789139611595555600,5.3695556640625,0.1521744287610054,-0.7410054138183594,0.4504493731968104,0.4854279840303055,0.7345137100221678
1789139611605528300,5.3795283203125,0.2478372812271118,-0.8378449088484048,1.0659209662899374,0.46851821404073885,1.296181159690955
1789139611615501300,5.389501220703125,-0.950171895867586,0.3645008361458778,0.4123181607883423,0.22515007160919648,1.0747098223324758
1789139611625474600,5.399474609375,-0.4348293408691883,0.0023281506866216,0.7124153522152453,0.20244746913462563,0.8097114500112428
1789139611635447600,5.409447509765625,-0.0540238511323928,-0.5810001453012228,0.1174095509804785,0.4962270388748039,0.32866924693709687
1789139611645420500,5.419420654296875,0.3650298284560442,-0.7186895371139049,-0.1555515039786696,0.3841493325413185,0.7255253180404758
1789139611655393300,5.429393310546875,-0.0483925672471523,-0.0320475816458463,-0.2409243600334972,0.0698614763803482,0.23776629161768406
1789139611665365500,5.439365478515625,0.638947307357192,-0.4018775038599967,0.0492166700463742,-0.04530371805603778,0.7550688997889533
1789139611675338500,5.44933837890625,1.0134954902648925,-0.6708306383520365,-0.8947653582051396,0.019229285336465174,1.5091130292222967
1789139611685311500,5.4593115234375,0.8468442078620195,0.1894306849658489,0.0660886021312326,-0.6476215634991486,0.5813631486589605
1789139611695284500,5.469284423828125,0.4742413138031959,0.5221323612689972,-0.6502233921963722,-0.6560337115580974,0.6999551810371748
1789139611705257500,5.479257568359375,0.8192062593519687,-0.1227712241441011,-0.6298712167803198,-0.3318919949942856,0.9862845036936958
1789139611715230500,5.48923046875,0.0478618213713169,0.5383762245833873,-0.2642685568723827,-0.44833471594440394,0.40121511159489515
1789139611725203500,5.499203369140625,0.2635591664940118,0.663617638233304,-0.3358138900395482,-0.670125984869963,0.4165980522793193
1789139611735176400,5.509176513671875,0.2257815167635679,-0.3413186980009078,-0.527787683616951,0.18199103408548137,0.6425845075998456
1789139611745149400,5.5191494140625,-0.3140338007122278,-0.7598585828483104,0.2292371371101587,0.7845925567851684,0.3361048627821144
1789139611755122400,5.529122314453125,-1.427919756487012,1.0679197388917208,0.5529503280546516,-0.08048657970046336,1.8651228848159995
1789139611765095400,5.539095458984375,-0.2163718833833932,0.1992886466354131,0.5405998189169913,-0.07270350536143128,0.6111424720291458
1789139611775068400,5.549068359375,0.9688087917983532,-1.6250304745614528,-0.0653182753458619,0.7669269561999101,1.7307235594592525
1789139611785041700,5.559041748046875,-0.6004980419754982,-0.1968897688001394,0.7885281394284218,0.45523350073578195,0.9021654870104892
1789139611795014400,5.569014404296875,0.7848556614607572,-0.4113040883749723,0.9461704782065004,-0.18085942923418458,1.283626855097529
1789139611804987400,5.5789873046875,1.0419137754976748,-0.8740355816483497,0.7655217231765389,0.05904114286287643,1.5595063852590703
1789139611814959600,5.588959716796875,1.6207377458035943,-0.7624731492608785,1.2433572620794175,-0.397470749993462,2.1438541060626255
1789139611824932600,5.5989326171875,0.8472165483057499,0.3331412367641925,1.0372633193433285,-0.8285941124138652,1.1036783742939351
1789139611834905300,5.6089052734375,-0.1071335100293159,0.7160358077347279,0.8704585999444127,-0.5779371151708576,0.9735870439024441
1789139611844878300,5.61887841796875,1.0205939240932465,-0.291638429030776,0.4511721345134079,-0.3818604601494634,1.088303181617795
1789139611854851600,5.6288515625,1.0310036744266748,-0.0169201551407575,0.7696517356533557,-0.6323318430578215,1.1206137170232273
1789139611864824600,5.638824462890625,-0.7805635172247887,1.0740016891539097,-0.0972773749906569,-0.4166216040390955,1.264376668347193
1789139611874797300,5.64879736328125,0.2868143698751926,-0.0701835432946682,0.4002273985654115,-0.13486388937360277,0.47872947937406124
1789139611884770300,5.658770263671875,1.6586802307069302,-2.509344289118052,-0.0607519903436303,1.087684090152187,2.805113722013405
1789139611894743600,5.66874365234375,-0.7434557295799255,-0.1940045687526464,0.3572380055360495,0.5638040028408466,0.6325410923585381
1789139611904716500,5.678716552734375,-2.2418881151854992,1.472715176025033,1.1556957105655223,0.020689915630270228,2.9206432191411524
1789139611914689500,5.688689453125,1.097878239303827,-1.2132184366643428,0.6952545201864093,0.3073141087004382,1.7510489684279056
1789139611924662300,5.698662353515625,2.0914111379921434,-2.39563724591732,-0.120464408506453,0.7491395640943306,3.0929565062201054
1789139611934635500,5.708635498046875,-2.039397457638383,1.1486299368977546,0.7552435633335262,0.19374326774845174,2.4518052753672164
1789139611944608500,5.7186083984375,-1.8199369605898856,1.0092226352512836,-0.3024132863495499,0.2499204336205716,2.0879881323044764
1789139611954581500,5.72858154296875,2.432197921073437,-1.9348831901967525,-1.107277205159515,0.24225237281251033,3.290400626658171
1789139611964553500,5.738553466796875,1.2083511228889223,-0.8050543998807668,-0.7995715845555067,0.009635601598581678,1.6575424268973444
1789139611974526500,5.7485263671875,-1.2840256648153066,0.9840110371053218,-0.853665286053717,-0.00288516931174998,1.8291352397952148
1789139611984499500,5.75849951171875,-0.088481416529417,0.2669955706834793,-0.584652384198457,-0.12771348103263885,0.6361000494789439
1789139611994472400,5.768472412109375,1.7645967661619186,-1.6699796233564614,-0.4623172864492982,0.369936292677743,2.445305318827197
1789139612004445400,5.778445556640625,0.972536872410774,-0.58081894351542,-0.1352745857559144,-0.0802654701008666,1.1379961692403977
1789139612014418400,5.78841845703125,-0.9816969149440526,0.5193243181109428,-0.5895464398503303,0.18322746691113656,1.243953086053326
1789139612024391400,5.798391357421875,-0.502613421806693,-0.8788087873995304,-0.7159161999430507,1.0524187515087073,0.6556492304613935
1789139612034364400,5.808364501953125,1.801909136468172,-1.5962725821107624,-0.4698781501576304,0.28890849196462587,2.4356272399019345
1789139612044337400,5.81833740234375,-0.8020347597986459,0.5256114355564118,-0.8601344090025872,0.09212027319265698,1.2848627140399411
1789139612054310700,5.828310546875,-1.3660633120328187,0.0632692338615655,-0.1294726214788854,0.7460805071724879,1.1533685468944268
1789139612064283400,5.838283447265625,1.2121855864852666,-1.2201567114949226,-0.4207404636316001,0.3202775482812986,1.7414422547109014
1789139612074256400,5.84825634765625,-0.4656967728197574,0.1684738216549158,0.066014587046951,0.12757154657076655,0.4830531430456398
1789139612084229400,5.8582294921875,-0.6207984872043132,0.7736345947444438,-0.0562732374943792,-0.26720055086836597,0.9569074097185705
1789139612094202600,5.86820263671875,0.8019196089863777,-0.0330120427638292,-0.2358257947854697,-0.4208374240425785,0.7229623242297701
1789139612104175600,5.878175537109375,-0.2104372326374053,0.0646656566560268,1.1114175198346377,-0.004107704275581395,1.13300375382953
1789139612114148400,5.8881484375,-0.4263689710378646,-0.2921738510817289,1.5607029638186096,0.3814367815849878,1.599204734124463
1789139612124120600,5.89812060546875,1.0758914484232664,-0.717743780696392,0.9466696599002928,-0.09965860934545534,1.5996718882563796
1789139612134093600,5.908093505859375,-0.1771405277132988,-0.1407411805987358,1.2587567835241555,0.134108676508903,1.2718767037051901
1789139612144066600,5.918066650390625,-0.6674111852973699,0.0535042111724615,1.7600746125623583,0.22629688163873424,1.8694792734931158
1789139612154039300,5.928039306640625,1.5127859051287174,-0.4764461303710937,0.9682676706589758,-0.5497675442823771,1.7750549397691289
1789139612164012300,5.93801220703125,0.2505547234922647,0.3715659522265195,1.3373422444611789,-0.5349423785072258,1.3050516682552384
1789139612173985000,5.947985107421875,0.6557739389955997,-0.4933627783805132,1.0827325464896858,-0.04850727312703096,1.357719817134214
1789139612183958000,5.9579580078125,1.0343927323430775,-0.7394716283798217,0.3369191478677094,-0.017936667227159475,1.3152868136157865
1789139612193931000,5.967930908203125,-2.4239099851995705,2.3250591503471134,0.4474634892538189,-0.5211485366665729,3.3481140132779994
1789139612203904300,5.977904296875,-0.7490916896402835,0.554928715455532,0.5731647024352103,-0.05651079448302243,1.092889996728766
1789139612213877200,5.987877197265625,0.1139361757814884,-1.2275456527024506,-0.1119118303470313,0.9403530024842244,0.805052961059658
1789139612223850000,5.99785009765625,-2.0290064120054243,0.691878102555871,0.1964503544695675,0.596107312231682,2.068528738700668
1789139612233823000,6.007822998046875,-3.286100815275311,1.1310896040320395,1.4919465307176112,0.8797071288853779,3.6782933649195217
1789139612243796200,6.017796142578125,-0.4428583335459232,-1.9026345330208536,0.771134156230837,1.7532242707185608,1.156284659287569
1789139612253769200,6.027769287109375,0.9449451011300086,-2.1785575065255163,1.1104419528007508,1.153824653128014,2.3538912578456634
1789139612263742000,6.037741943359375,-0.3195259683877229,-0.1848281596064567,1.5923957406774163,0.2302971337877887,1.6183157041054532
1789139612273714200,6.047714111328125,-0.2112888810306787,0.4227583793252706,1.121490074102953,-0.2956446472986979,1.1805515098342814
1789139612283687200,6.057687255859375,1.6206442223012447,0.2124199308872222,0.6064443100940435,-1.1487935819210173,1.3113572852960622
1789139612293660200,6.06766015625,1.762549770504236,0.3631447453618049,0.4318267980523407,-1.3419230086927891,1.2744303911338015
1789139612303633000,6.0776328125,1.259427230131626,0.7377718387246132,0.4483640913553535,-1.3572216792362872,0.6996026771247096
1789139612313606100,6.087606201171875,0.5293184733808041,1.6072253532797096,-0.4919173288125544,-1.5811509830792319,0.778007461134487
1789139612323579100,6.0975791015625,1.4535136319488289,0.7108440843105316,-1.0092341064933688,-1.351624569483445,1.3452381556209718
1789139612333552000,6.10755224609375,0.510752304598689,0.2314016947329044,-0.731161261478439,-0.43524672213223237,0.8121402231991848
1789139612343525000,6.117525146484375,-0.7904705787330866,-0.233612356519699,-0.890450344550237,0.7051855642567362,0.9874378993308147
1789139612353497900,6.127497802734375,-0.571616815406084,-0.0581067365318536,-1.1875099218469112,0.4554937474898757,1.238074083796225
1789139612363471000,6.13747119140625,-0.5294084897518158,-0.8554021928489207,-0.9896522578626872,1.066840656899231,0.9237147096542159
1789139612373444000,6.147444091796875,-0.497094950646162,-1.732601791486144,-0.5787405298061669,1.734916069938402,0.7576405407109089
1789139612383417000,6.1574169921875,-1.3633335948079823,-0.4951707045853137,-0.514359389179945,1.2241805747876973,0.9326414203548978
1789139612393390000,6.16739013671875,-0.0725344903349876,-0.5625643249005079,0.2431401363868266,0.4836554151772514,0.3833202802237912
1789139612403363000,6.177363037109375,0.7558715590387582,-1.2657242844492196,0.0803884187057614,0.587991493184904,1.354299848561009
1789139612413336000,6.187336181640625,0.5075573079496621,0.2020470054328441,0.6058630761399865,-0.4973855045008425,0.6466182337359019
1789139612423309000,6.19730908203125,1.3529045552521943,1.048614734441042,-0.6812087514381855,-1.589901148386772,0.9307004342447625
1789139612433281300,6.20728125,1.6229297028899192,-0.012032967621088,0.8370101385246962,-0.9826373759695993,1.539173600401476
1789139612443254000,6.21725390625,2.0151134957313537,-0.4244347881048917,0.7543108125280589,-0.8681753388204567,2.013972113261007
1789139612453227000,6.22722705078125,1.848621203282476,0.5121311917364597,0.5553809162024408,-1.520983465024327,1.294115903611191
1789139612463200000,6.237199951171875,1.1984534137308598,0.408253468632698,0.4786243511930108,-1.0558743162158104,0.846860187660576
1789139612473173200,6.24717333984375,-0.2280266653418541,-0.3297878346830606,1.2415987279742955,0.3184489481482772,1.2652722413546074
1789139612483146200,6.257146240234375,-2.357223636370897,0.4695458494633436,1.3321008366763591,0.8919575458274578,2.5992077547070385
1789139612493119000,6.267118896484375,-2.3880232637822627,0.6798322754532098,2.033666805031896,0.6925385386279213,3.133850359783779
1789139612503092000,6.277092041015625,-1.2982470823913812,-0.6895762553542852,1.5800705121114849,1.2071209526675466,1.7889781238912388
1789139612513065200,6.287065185546875,-1.55420278814435,-1.3990560655742883,0.8036493553884327,1.983267420983191,1.041828586946434
1789139612523038200,6.2970380859375,-0.8575976570665835,-0.5210165089815855,0.7495205095116049,0.8700303355662629,0.9009773323510664
1789139612533011200,6.30701123046875,-0.7563508669883012,0.1925835960388183,0.95156788027063,0.217640481681598,1.2113088487059525
1789139612542984000,6.31698388671875,1.2470219220668075,-0.9176362384438514,0.0519680145811289,0.02293960125984218,1.5489655869173207
1789139612552957200,6.326957275390625,2.7038977239251136,-1.312548579466343,0.1873247256625443,-0.5061359678424477,2.968629921328568
1789139612562930200,6.33693017578125,0.934644071868062,0.6442617803782225,0.0130999392654746,-1.064932566336637,0.3933484718397309
1789139612572903200,6.346903076171875,1.2937182067900896,0.2805687534838915,-0.081348276713863,-0.9702064900117756,0.9042911770414522
1789139612582875100,6.356875244140625,1.8644038788259027,-0.2820323962956667,-0.8728464449290185,-0.790055020660923,1.9217747205890294
1789139612592848100,6.36684814453125,0.9324269803404808,0.2615951729446649,0.0928656229630112,-0.7575323798709439,0.6104267569087946
1789139612602821000,6.376821044921875,1.008735143995285,-0.4199345540761947,0.1494770794358104,-0.250793506600684,1.0739355822217425
1789139612612794000,6.386794189453125,0.0891875189721584,-1.0993939045637846,-0.1773123040836304,0.854673807426418,0.7194398564237938
1789139612622766800,6.396766845703125,-0.1819125644207,-0.8868810346961021,-0.0203601395267993,0.8280350540223317,0.36663692584016794
1789139612632740000,6.406739990234375,-0.7526911754369735,0.2125683994472026,-0.1190662321463227,0.2696276507436346,0.7437788835509037
1789139612642713000,6.416713134765625,-0.5671645121723413,-0.4437848007410764,0.5007588069159538,0.6557813150906817,0.5825210577466811
1789139612652686000,6.42668603515625,0.3663900108933448,-0.81480247143507,0.1514304419932887,0.44139242661231304,0.791358712614387
1789139612662659000,6.4366591796875,-0.5452203913897276,-0.558673747202754,0.0666658905625343,0.7651156273109353,0.1685943320809575
1789139612672632000,6.446632080078125,0.408294385164976,-0.5162088164389134,0.3116021165858954,0.1637068999583393,0.709557451580455
1789139612682605000,6.45660498046875,1.20195879150331,-0.6949637936115265,0.3289464519554749,-0.15041487600611814,1.418894197688179
1789139612692578000,6.466578125,1.8935960710406303,-1.3737152880907058,0.3886806800913065,-0.001561849159052553,2.371470009234375
1789139612702551000,6.476551025390625,0.3305401143550872,0.0955763432264328,1.2840205502487718,-0.3530758134724199,1.2815763137575378
1789139612712524300,6.486524169921875,-0.8555629363685846,1.249080023640394,0.8193720443729311,-0.5759981095065719,1.6222778949643166
1789139612722497000,6.4964970703125,1.5201947200804948,-0.4618494497418403,0.6300930428374558,-0.5436989354671504,1.6204029163734266
1789139612732470000,6.506469970703125,0.1976210056841373,0.2236912664860486,0.6821732856214046,-0.3409895245873192,0.6619504364580167
1789139612742442200,6.516442138671875,-1.9838222854107617,1.2328916899055242,0.6628747109115123,0.09915228464818537,2.4259316737998917
1789139612752415200,6.526415283203125,-0.9570032031923532,-0.2762497212409973,-0.1166080618718639,0.7852120627342145,0.623865767642644
1789139612762388000,6.536387939453125,-0.2342705281674861,-0.9293056334495544,-0.1937978306667879,0.9041951639905192,0.3721294738612646
1789139612772361000,6.54636083984375,-0.9329495429098604,0.5145452671408653,0.3373801529755815,0.09804154736141829,1.1132676695950474
1789139612782334200,6.556334228515625,-0.681038728633523,-0.0043862522602081,0.3469369032088667,0.3741428643719604,0.6664948018967282
1789139612792307200,6.56630712890625,-0.74059391040802,-0.4911749129474163,0.7936975779555737,0.7752635131296608,0.9047952617607725
1789139612802280200,6.5762802734375,-0.9703875854223966,0.069171151381731,0.1310834907416254,0.4956084759246623,0.8473439881547674
1789139612812253000,6.5862529296875,-1.0900795482516288,0.7986252436161041,-0.1516029490159824,-0.010208169207611806,1.3597628281024334
1789139612822226000,6.596225830078125,0.8920318415880203,-0.4274135116547345,0.0572674361634999,-0.17123918631006657,0.9758892440582352
1789139612832199200,6.60619921875,-0.6768681649506092,-0.0496656559228897,-0.1298230788843706,0.4399087017573171,0.5328710500966114
1789139612842172200,6.616172119140625,-0.3385983331263065,0.4838806642860174,0.0855353166075423,-0.2037596098966496,0.5608811284289287
1789139612852145200,6.626145263671875,0.4786801730334759,-0.1473848563969135,-0.1734752101387828,-0.14516790207083777,0.5097812596511798
1789139612862118000,6.636117919921875,1.1761819606900217,-0.8891314439713954,-0.1484000978540629,0.053832314357061484,1.4809062766715997
1789139612872091100,6.646091064453125,-0.5659586435139179,0.8199655532866716,0.067144394794479,-0.3446853681270743,0.9372049196927275
1789139612882064100,6.656064208984375,0.3525222290605306,0.5690273834347724,0.0322060601431876,-0.6687335236035973,0.04355215033832811
1789139612892037000,6.666037109375,0.8619768950641155,-0.4133218579381704,-0.4546560311064124,-0.13170147073994942,1.0503361152984332
1789139612902009000,6.676009033203125,0.3541699962675571,-0.4037199168562889,0.3093252576950937,0.10359122136028703,0.6110459323388303
1789139612911982000,6.685982177734375,-0.5388718991458415,0.2953624179899692,-0.2735493762411177,0.08890972179248724,0.666742982162253
1789139612921955000,6.695955078125,-1.040742393630743,-0.2094949833512306,0.83330105487369,0.7168368428189729,1.1434896006437978
1789139612931928000,6.705927978515625,0.4276397216260433,-1.5037252313166856,0.9368003731191158,0.9149507299679529,1.5762377370238423
1789139612941901300,6.7159013671875,-0.3123521312355995,0.1050900215029716,0.7488201792225241,0.045697362723706975,0.8168544413528444
1789139612951874000,6.7258740234375,-1.839171822413802,0.986864088448882,1.1204266095899045,0.1857141409355899,2.3616349774604526
1789139612961847000,6.735846923828125,-0.075528995975852,-0.3951140010744333,0.3295904124148189,0.3434553907778825,0.3904970391431284
1789139612971820000,6.745820068359375,1.8130910402178764,-0.2704576938360929,0.6362677128843963,-0.8690129350258584,1.7349638628773694
1789139612981793300,6.755793212890625,0.7750146509259939,0.9858972892433404,0.3994577658997848,-1.276096717791955,0.3221565576944755
1789139612991766000,6.76576611328125,0.2767956646859645,0.8532727796047925,0.4759062148081138,-0.8854330836660633,0.49717728834493885
1789139613001739000,6.775739013671875,1.9467875630021088,-0.1569283452898263,-0.3323516207564622,-0.9749544618568907,1.7246824977774546
1789139613011712000,6.7857119140625,1.51061732891798,-0.6602969693779945,-0.0905498933665454,-0.32933691754420336,1.617928700570032
1789139613021685200,6.795685302734375,-0.9319681306570768,1.0240595543771982,0.1767657761167734,-0.3065428307073912,1.3618150388432846
1789139613031658200,6.805658203125,-1.65737499332726,1.652589512616396,-0.0184040370229631,-0.38612598883379623,2.3085037134564237
1789139613041631000,6.815630859375,0.7076631161868572,0.5035971721470356,-1.0457744695138185,-0.7497834401851229,1.1339604189374757
1789139613051604000,6.82560400390625,1.2898574397087097,-1.5977274570941924,-0.9238638807870448,0.6156941893282172,2.165850959178621
1789139613061577000,6.835576904296875,-1.6962889536112546,0.1723836885750293,-0.3473747831694782,0.8623601235871775,1.511329417254573
1789139613071549200,6.845549072265625,-0.9168465493708848,-0.0785182409197092,-0.5811084645139053,0.6316572559816431,0.8862668152119166
1789139613081522000,6.85552197265625,1.2131588154315949,-1.634036203315854,-0.1796290931260213,0.6406281334873544,1.9400234098814546
1789139613091495000,6.865494873046875,1.4211299502164123,-1.7058435484200716,0.5011452124176546,0.5341885817743771,2.2125328540203646
1789139613101468200,6.87546826171875,-0.3490834867835045,-0.0505611434578895,-0.0963206953203305,0.249103941469236,0.2676576407730252
1789139613111441200,6.885441162109375,0.3850818518817424,0.0345125104546546,0.3633922903820872,-0.2743906760467161,0.4541396917626999
1789139613121414100,6.8954140625,0.4032219042062759,0.2283393845528364,0.092937299959734,-0.42480408607451975,0.2071366909745853
1789139613131387000,6.905386962890625,0.7907353671491145,-0.411910822096467,0.1996800936384126,-0.13470267058396784,0.9036925785650917
1789139613141360000,6.915360107421875,0.9656798461228608,-0.6535761366903782,-0.2271052396479994,-0.011069829932846775,1.187919854367215
1789139613151333000,6.9253330078125,-0.5860925000041723,0.1359223821401596,-0.0821511175293475,0.233336630462224,0.5606087187367429
1789139613161306000,6.93530615234375,-0.3005319295823574,-0.3365139280676841,0.2698368950566276,0.4296655368332022,0.3029200238902592
1789139613171278800,6.94527880859375,-0.2744388724267482,-0.4243120385080575,0.7612240259826183,0.45373812928563584,0.7930580864522382
1789139613181252000,6.955252197265625,-0.6108177759379149,-0.6559352670371532,0.716625736451894,0.8394281584602283,0.7824718799254908
1789139613191225000,6.96522509765625,-0.7644441570729017,-1.2278221315562723,0.7602789271522313,1.390618702973376,0.8579776955344937
1789139613201197800,6.97519775390625,-1.06646603295207,-0.4850841948568821,0.7041572269577533,0.9644192027943308,0.9687050516534204
1789139613211170800,6.9851708984375,-0.546642533147335,0.4996195006877184,1.065503179269284,-0.160800740999273,1.2875860558580994
1789139613221144000,6.99514404296875,0.9746750534832476,-0.2041635591953992,0.5544483845926821,-0.4332996659185582,1.0542004693027818
1789139613231116000,7.005115966796875,1.5350661259979008,-0.2454021630346775,0.5999115473244339,-0.7264204872340437,1.4996190760150234
1789139613241088800,7.0150888671875,0.6377110435605049,0.587963554573059,0.5473768022386357,-0.8827259773271634,0.5222956338760772
1789139613251062000,7.02506201171875,0.7627227401077747,1.1085849267572163,0.4979542708892375,-1.3752963935694726,0.4089312947702204
1789139613261035000,7.035034912109375,1.04179219494462,0.0686556030750274,0.6458575251370668,-0.700057508315999,1.0085117734105522
1789139613271008000,7.045008056640625,0.2518897714883089,0.8865028490334749,0.0855523042749613,-0.8724312736494683,0.30906088049124325
1789139613280981000,7.05498095703125,-0.5679302358478308,0.8976368219882249,0.236952606858313,-0.41790459080964115,1.0048875100509853
1789139613290954000,7.0649541015625,-0.6638479398578405,0.3397258758515119,0.4317514677938073,0.0786478949703735,0.8580976614205472
1789139613300927000,7.074927001953125,0.4779337385803461,-0.762225896501541,0.1051919475074857,0.3372228465765234,0.8406872625050344
1789139613310900000,7.08489990234375,0.0462321743428707,-0.2598229025751352,0.1121880169399082,0.1773312174297411,0.22535559703906358
1789139613320873000,7.094873046875,0.025259528940916,-0.1250888534367084,0.4165167815219611,0.0598166246100527,0.43150140876490817
1789139613330846000,7.104845947265625,0.7167617839217185,-0.3071621613770723,-0.8123452875413,-0.11069476428342284,1.1206014383460667
1789139613340819000,7.11481884765625,1.1288777732014657,-0.5502554629474878,0.5410239626131952,-0.23988413205379677,1.3462201278551493
1789139613350792000,7.1247919921875,0.1622223600447177,0.2885907318979501,0.0081987962856888,-0.32905571346294565,0.03728622176888638
1789139613360765000,7.134764892578125,-0.0703887104779481,0.0108703535825014,-1.0357377902764826,0.09988095616159767,1.03336794025788
1789139613370738000,7.144738037109375,-0.414835185110569,-0.3900304141998291,-0.5388275485474616,0.5923779347356912,0.5134544423009256
1789139613380711200,7.154711181640625,-0.3096270901858806,-0.4867623572021722,0.3912416896857321,0.5491919101035534,0.4292607983393636
1789139613390683000,7.164682861328125,-0.7749731498718261,-0.2937795327126979,-0.5980513064105063,0.7259734912642413,0.7193869973415371
1789139613400656000,7.17465576171875,-0.3985258553445339,-0.256999661847949,-0.3529077943120151,0.4624966467525823,0.3681201523916357
1789139613410629000,7.184629150390625,0.1731441515535116,-0.7665449287444352,-0.2621300835389644,0.540926868571299,0.6274395019081838
1789139613420601900,7.194601806640625,-0.510163106533885,-0.2045528507739305,0.3875977802254259,0.43563942736905853,0.512404715615774
1789139613430574800,7.204574951171875,0.0966623848974704,0.0522808068573474,0.1490909296624362,-0.10817034218849966,0.15034687159417173
1789139613440547800,7.2145478515625,1.043105031108856,-0.685863372310996,0.2327315550971776,-0.05974084876996588,1.2684918916290377
1789139613450521000,7.22452099609375,0.6268833600759506,-0.4944534962266683,-0.0298153656143695,0.042184195609458686,0.7978574162959138
1789139613460494000,7.234494140625,-0.3217185099959373,0.3763169461458921,0.5685698489256202,-0.15773388321503237,0.7372305872817442
1789139613470466800,7.244466796875,0.6797504423886537,-0.2781365579009056,-0.5699256474487483,-0.12886551061736856,0.9206679817185639
1789139613480439800,7.254439697265625,2.095579948109388,-1.7351684271037575,0.6893045257408171,0.1561144834331225,2.802326495361498
1789139613490413000,7.2644130859375,0.3947469213277101,-0.7346358787864447,-0.0579048572842031,0.3735420779894876,0.7478865520695211
1789139613500386000,7.274385986328125,-3.985521588295698,3.33476167806983,0.9121947780422864,-0.4712464565591712,5.255001795486107
1789139613510359000,7.284359130859375,-0.9417781615316868,0.5821569141209125,-0.2375891511961817,0.08591484167985669,1.1291235640717248
1789139613520331800,7.294331787109375,3.1070541616797445,-2.567469730350375,-0.7990564015749841,0.34690505555668216,4.094366177469234
1789139613530305000,7.304304931640625,-3.2387650636047125,2.476980481129885,-0.0981028660293668,-0.1382385836597051,4.076217082962561
1789139613540278000,7.314278076171875,-4.5026165399193765,2.231805697110296,0.6117100486025214,0.7446152006436575,5.007419471318657
1789139613550251000,7.3242509765625,1.7583166629791258,-3.10976692776978,-0.7452998961418866,1.5636633727158957,3.2973863322905617
1789139613560224000,7.33422412109375,1.5428239005178213,-1.3366232825368642,0.3071822543170303,0.1762232266765168,2.0567386074014498
1789139613570196000,7.344196044921875,-0.5362970802217721,1.271779931226373,0.6701972358193248,-0.7690754991385134,1.3276769046907706
1789139613580169000,7.3541689453125,1.1584534117758274,0.1030775126367807,0.6780185770947486,-0.7975636239550038,1.0845463279619683
1789139613590142000,7.364141845703125,1.9351029704272744,0.1956628573536872,0.7926843823250382,-1.3290330678802094,1.6263231826322886
1789139613600115000,7.374114990234375,1.4206711005330086,0.8402829496502876,0.8139910819869488,-1.5577961915778888,0.9799154649368315
1789139613610088000,7.384087890625,0.8677344356775283,0.8902928889662027,0.7093877480223775,-1.2722313372122558,0.6559290210562126
1789139613620061000,7.39406103515625,0.0031739538609981,1.2479922284036875,0.6930164589360356,-1.0628237033879973,0.9529807259393956
1789139613630034000,7.404033935546875,0.2398988894432783,0.9625736968010664,1.0047345300517976,-0.9878098221296792,1.0088720583463135
1789139613640007000,7.4140068359375,-0.4119353720158338,0.4716688329666852,0.9376028486084192,-0.20746087949609507,1.1082514714212237
1789139613649980200,7.423980224609375,-0.9840765035569669,-0.0820668733119964,0.192488538166508,0.6225366217636003,0.7903426652008327
1789139613659953000,7.433952880859375,-1.062600005173683,0.0673018503785133,0.9180695152945816,0.4986716212555618,1.3144681658857549
1789139613669926000,7.44392578125,-0.4997597859412431,-0.8297995495587587,1.042460741855949,0.8953331292776016,1.106087755117463
1789139613679899000,7.45389892578125,0.0645054976582527,-0.6948702701091766,0.4401193370360881,0.499206826675758,0.6568890519282112
1789139613689872100,7.4638720703125,-0.2981570171445608,0.2769447177678346,0.801658766093105,-0.10580627293941955,0.8927809324983571
1789139613699845000,7.47384521484375,-0.486531471055746,0.4414619107514619,0.068633281645365,-0.08268661146567768,0.6553433776317085
1789139613709817900,7.48381787109375,1.32967448631227,-0.3724667004585266,-0.6060928663078695,-0.425138071824857,1.4468489433851044
1789139613719790800,7.493790771484375,1.4524749365508556,-0.5547194566190242,-0.5359172505913302,-0.35238836332828133,1.6063707099335145
1789139613729764000,7.50376416015625,1.112680087116361,0.0224912332713603,-0.5295264901082962,-0.6261946972341278,1.0615278313457495
1789139613739737000,7.513737060546875,1.1833236491382122,-0.7393471252173185,-0.5823591221621259,-0.043647059095947904,1.5113325615411732
1789139613749708800,7.523708740234375,0.7796674451678991,-0.484866168192029,-0.301730272521451,-0.03599601780625916,0.9657753207500285
1789139613759682000,7.53368212890625,0.9118827894836664,-0.4728478136181831,-0.1095195283830165,-0.13477584486662908,1.0241802943514065
1789139613769655000,7.543655029296875,-0.2266010164529085,-0.4237801235884428,-0.6156069099105894,0.5161588802842068,0.5860797655947061
1789139613779628000,7.5536279296875,-0.6538403405845165,-0.4904080202281475,-0.5699362053753808,0.8141476618604686,0.5744545936491307
1789139613789600800,7.563600830078125,-1.292839085868001,0.0188894093871116,-0.8273208844855428,0.7857582188095311,1.3186483910482794
1789139613799574000,7.573573974609375,-0.8862976818501949,0.0180137955963611,-0.3353255220007151,0.5193145358512741,0.7928453167191217
1789139613809547000,7.583547119140625,0.2315489942491054,-1.1762772377580404,0.2510139019692316,0.806852035456993,0.9215426461462238
1789139613819520000,7.59352001953125,0.5040390706956386,-0.421017673137784,0.8354790564998984,-0.003478825684904374,1.062696766487925
1789139613829493000,7.603492919921875,-0.1047556749820709,0.2226385425627231,0.2682157601282,-0.13827201685799725,0.3366930581561975
1789139613839466000,7.613466064453125,-0.0612438655138015,0.0339203897804021,0.432366859745793,-0.02063982106497947,0.43751171767024805
1789139613849439000,7.62343896484375,0.9673328740268944,-0.5627659849524498,-0.2976677723228931,-0.08127615906635499,1.1551790907213162
1789139613859412000,7.633411865234375,0.0881353795707225,0.335258959570527,0.409645288317278,-0.35061759131739717,0.4062548239759376
1789139613869385000,7.643385009765625,-0.6028028117865324,0.9669032504379748,1.3419322025999425,-0.5267405250571564,1.6797617632398096
1789139613879358000,7.65335791015625,0.4658808972150087,-0.0804214441925287,0.4066647381365299,-0.23038731161364479,0.5794916004283093
1789139613889331000,7.6633310546875,-0.1539829394876956,0.3860480665653943,0.6866894478715956,-0.27030023841336986,0.7557936453053986
1789139613899304000,7.673303955078125,-0.4572048388063907,0.4682300906896591,0.8535626293968409,-0.17299170466597136,1.061564277316656
1789139613909277000,7.68327685546875,0.6126502520620822,-0.4121048833638429,-0.4030503104990348,0.007930290175195864,0.8411643296854456
1789139613919249200,7.693249267578125,0.6198024619042873,-0.2979331452608108,-0.1964346089111641,-0.10267700431108867,0.7077875664289375
1789139613929222000,7.703221923828125,0.4385165049493312,0.1961719759196042,0.4254200362825766,-0.4408678760147708,0.4662594689848905
1789139613939195000,7.71319482421875,0.2499859836935996,0.0524018028885126,0.2360583979649469,-0.20254548310854628,0.28273279878946833
1789139613949167900,7.72316796875,-0.1852671355456113,-0.3836000888913869,0.1123340378144756,0.4117508207198439,0.15669440768258078
1789139613959141000,7.73314111328125,-0.9472492864191532,0.2022293762624263,0.8604647369354963,0.3260441328037402,1.2539029939428388
1789139613969114000,7.743114013671875,-0.9760387430518864,0.3536082707315683,0.6339093131899833,0.23439095069317506,1.1935628750301437
1789139613979086800,7.7530869140625,0.0858031372308731,-0.990804935029149,0.7458114989258349,0.7076062194707894,1.0220493274461042
1789139613989059800,7.763059814453125,-0.7570733360439539,-0.7175596563011407,0.8432406304121017,0.9657271770348752,0.9308478268835257
1789139613999033000,7.773033203125,-0.2530716747492552,-0.5509755939155817,0.9056780896246432,0.5349642079434846,0.9495712063329238
1789139614009006000,7.783006103515625,1.5828466988265513,-1.5718822372198105,0.5121192821029573,0.33105880413385735,2.2647038806387862
1789139614018979000,7.79297900390625,1.0177987404167652,-0.8633890999495982,0.6428076360471546,0.07237232496356083,1.47963472433085
1789139614028951800,7.802951904296875,0.7952595665752887,-0.0074438862651586,0.2835761916715651,-0.4719294237931022,0.7001366046090602
1789139614038925000,7.812925048828125,1.1189672045618295,-0.0496229858249425,0.4367909963309764,-0.6346557729250051,1.021052628406523
1789139614048898000,7.82289794921875,1.1401046851366758,-0.0825555336117744,-0.5872764856243505,-0.552767392667447,1.1601706725182481
1789139614058871000,7.83287109375,0.6643827773869038,0.5387608399868011,0.558487284719944,-0.8588275675942229,0.5531645089172533
1789139614068844000,7.842843994140625,-0.0353425315380096,0.3261006706029176,-0.1011030342260375,-0.2382774701536879,0.24705548496250276
1789139614078816800,7.852816650390625,-0.6138415076732635,-0.1403635794579982,0.1972737996816635,0.455804694845665,0.47713977320942164
1789139614088789000,7.8627890625,-0.8260919272124767,-0.6127116268604993,-0.0484616138953715,0.9788845572838812,0.31933831813321034
1789139614098762000,7.872761962890625,-0.7489052271574735,-0.5646142431676388,-0.4899799310091882,0.9241822250466618,0.5153793074533772
1789139614108734700,7.882734619140625,-1.6481640973895788,0.0062689972668886,-0.5330205062365159,0.9819247767808192,1.4270314590307067
1789139614118708000,7.8927080078125,-1.3167472001999616,-0.206894445464015,-0.3395714890073985,0.951224977249704,0.9935332604403849
1789139614128681000,7.902680908203125,-0.1277484280347824,-0.7397866856783628,-0.4734380711289122,0.7068402798570187,0.5367722302227
1789139614138654000,7.912654052734375,-0.7806921120405197,-0.1211222878932952,-0.3179915253620594,0.5703864660405311,0.6323991397738273
1789139614148627000,7.922626953125,0.4043237279683351,-0.6299807415693998,0.0366404258614406,0.27664287566063134,0.6965376170028919
1789139614158600000,7.932599853515625,1.541585883155465,-0.5465566084295511,0.0620891572315245,-0.4498024291704845,1.57376745407963
1789139614168573000,7.942572998046875,0.8635796540856361,0.1294078856796026,-0.1896528032839298,-0.5916424785951666,0.6696593037821194
1789139614178546000,7.9525458984375,0.3437164067924022,0.6093225689440965,-0.1330511740854009,-0.685573222407443,0.19263159908564229
1789139614188519000,7.962518798828125,1.621201271662116,0.4566659096240997,-0.4455679943634197,-1.278711201221486,1.1833282797784448
1789139614198492200,7.9724921875,0.9794505973219872,0.650500967028737,0.3975472195707261,-1.121155675813403,0.5324741524989983
1789139614208465200,7.982465087890625,0.0579436549246311,0.2436906829416751,1.34073904729262,-0.31986418242333486,1.3258999637364723
1789139614218438000,7.99243798828125,-0.935880335664749,0.4060276092767715,1.150351426928118,0.13460286154472806,1.5316399372171328
1789139614228411000,8.002410888671875,-1.3132657878249885,0.2152063467353582,1.3258145960137246,0.49631719811179387,1.8117489845473242
1789139614238384000,8.012384033203125,-1.0194996991157532,-0.3261246360003948,1.5243025937907395,0.7540515843117406,1.7031269830337465
1789139614248357000,8.022357177734374,-1.08742932600379,-0.6170633923292159,-0.0744142396669834,1.1350820516583229,0.5295242999846603
1789139614258330000,8.032330078125,-0.9622738370716571,-0.5417892478972673,0.3909714213769882,0.9709581305398367,0.6554429706098194
1789139614268302800,8.042302734375,-0.7890367465376853,0.2053916396856308,0.2411897329714149,0.2727846933918646,0.8053109408057588
1789139614278275000,8.052275146484375,0.2508662736594677,-0.189493813329935,-0.0658714887818321,0.01361042665134976,0.3209292786126103
1789139614288248000,8.062248046875,0.9577917232215404,-0.5538631320506334,0.0474286906510591,-0.10568871948746589,1.1023650617588525
1789139614298221000,8.072220947265626,0.552929650592804,0.4801332944512367,0.4475519712548703,-0.7394574235337741,0.4356198626098117
1789139614308194000,8.082194091796875,0.3266968829303979,0.3126145815640688,-0.053321073157899,-0.43956204083205563,0.11868900128143398
1789139614318167000,8.0921669921875,0.6683721392840146,-0.3613502631604671,0.5459148033946752,-0.12791825457039574,0.9267983717995729
1789139614328140000,8.10214013671875,0.8379746727079153,-0.1788233662337064,0.3740368358520791,-0.363101957947379,0.8615334416725255
1789139614338113000,8.112113037109374,0.3568219720810651,-0.3106330523580312,0.0548022150937467,0.043045274881039486,0.4743049652561997
1789139614348086000,8.1220859375,-0.6180056416153907,0.0685316844344139,-0.0784264344504103,0.3063585208228062,0.546738262041112
1789139614358059000,8.13205908203125,-0.0541506923824548,0.2478887191534042,0.7817009237568825,-0.22179326968005866,0.7913565532021624
1789139614368032000,8.142031982421875,-0.0129413146376609,-0.0960486369132995,-0.0352430532189086,0.0879424463218681,0.053861091824896665
1789139614378005000,8.1520048828125,-0.5049655378907919,-0.0358744464576244,0.406111305504851,0.2941731322775465,0.5785030086964538
1789139614387978000,8.16197802734375,0.134595517450571,-0.915889687037468,0.1199517097439616,0.6595989098882,0.6605206755917454
1789139614397951000,8.171950927734375,-0.2944283520102501,-0.3293371683061122,0.6262297915380448,0.3968784877466552,0.6555930465380725
1789139614407924000,8.181924072265625,0.1034726494342088,-0.2844645918786525,0.0475408457886427,0.1685672049127096,0.2558748183386538
1789139614417897000,8.19189697265625,0.8953612782716751,-0.8767179526001214,-0.2539919679319486,0.21287615021062667,1.260754477083101
1789139614427870000,8.201869873046874,0.2484913612216711,0.1274970836222171,0.2501439507342874,-0.26371014728701936,0.2665190748160173
1789139614437843200,8.21184326171875,0.3238186971455812,0.1753501371651887,0.1628481637928635,-0.3404191516521932,0.21503614780780578
1789139614447816000,8.22181591796875,1.3677443969875571,-0.3211661368101835,-0.4830380759820342,-0.49695615215127015,1.4000831363215054
1789139614457788000,8.231787841796875,0.6402806017875671,0.2814344304025173,0.4049509199559688,-0.6254384774358916,0.5118364447333713
1789139614467761200,8.24176123046875,0.33754736276865,0.5226572619259358,-0.597161883290112,-0.5809922463412353,0.6373061745361844
1789139614477734100,8.251734130859376,-0.3275678205460309,0.4222556905001401,0.0344478477206081,-0.15663150106413848,0.5121071882955792
1789139614487707000,8.261706787109375,0.604590279725194,-0.5040864169687033,0.9248436125393956,0.0001587777806990598,1.2144826901010446
1789139614497680000,8.271679931640625,0.1749544158458709,-0.585205195775628,-0.0593338671740144,0.37900401933997474,0.48264959329178836
1789139614507653000,8.281653076171875,-1.4421855977267026,0.364330740275979,-0.0912169789731502,0.5425726320728231,1.3880099649422286
1789139614517626000,8.291626220703124,-0.567948356026411,-0.2148591407328844,0.979958985235542,0.4384726922379467,1.0662040594440898
1789139614527599000,8.30159912109375,0.2645768191039562,-0.5997288111686706,0.5317416088744997,0.30020917334339686,0.7888593860770564
1789139614537571800,8.31157177734375,-0.2432546296119689,-0.106765845760703,0.1002826212212443,0.22078712196455197,0.1785536657206119
1789139614547544800,8.321544921875,-0.6921545814096928,0.0675292293936014,0.6716377900164574,0.3007092001910721,0.9188631341432506
1789139614557518000,8.33151806640625,-0.6509183156579732,-0.4931470898032188,0.442078142953664,0.7481790929609464,0.5500453028377684
1789139614567491000,8.341490966796876,0.8712298765778541,-0.8706868557423353,0.2269753296580165,0.1902982881608637,1.237918196166753
1789139614577464000,8.351464111328125,0.5936895310044288,-0.4917430682241916,0.1882724548414349,0.04481919299600695,0.7922854672162095
1789139614587436800,8.361436767578125,0.7227893736481666,-0.5633177736163139,0.359667278509587,0.01722353238257396,0.9842841530236627
1789139614597410000,8.37141015625,1.1075082374364138,-0.4328700234949588,-0.5996271043598651,-0.24808965276385458,1.3084170366150636
1789139614607383000,8.381383056640624,0.7976724729359149,0.151654788801074,-0.5963024899818002,-0.5449503710650044,0.8472817132929313
1789139614617356000,8.39135595703125,0.6352946300685406,0.1497246975213289,-0.9660361122146248,-0.4252900594248503,1.0855279303172867
1789139614627329000,8.4013291015625,0.6872890211999416,0.171347331264615,0.2256764489538967,-0.5512352713686174,0.49879418782207857
1789139614637302000,8.411302001953125,0.4615227020055055,0.1888175215035676,-0.6380605145853012,-0.3782806176137821,0.7160169380006367
1789139614647274000,8.42127392578125,-0.8703004867732524,0.3325309959113597,0.0875058494955301,0.22637488031990205,0.9079710831164423
1789139614657247000,8.4312470703125,-1.0353484256327152,-0.1010275943696498,0.5524235277015715,0.6439245406571004,0.9862483851353329
1789139614667220200,8.44122021484375,-0.0117278471946716,-0.6322101080566644,0.6287157631348819,0.47986114038661526,0.7515610154139016
1789139614677193000,8.45119287109375,-1.0573206034660338,-0.0694072982251644,1.118459985692054,0.5936877635008564,1.4217003237758354
1789139614687166000,8.461166015625,-0.4760504090517759,-0.1280477032423019,0.8948284865692258,0.3203510333899983,0.9701100154341894
1789139614697139000,8.471138916015626,-0.1832213089317083,-0.1447416484117507,0.5969903991807252,0.1843672343871877,0.6139433625587793
1789139614707112200,8.4811123046875,-0.6210948398023843,-0.117515787833929,0.4536273456458002,0.4245563573300855,0.6519957274305112
1789139614717085200,8.491085205078125,0.667539780113101,-0.4289695089250803,1.1648591140996665,-0.11309512350399836,1.4048951727305306
1789139614727058000,8.501057861328125,0.250623112553358,0.2281406471103429,0.9273666282109916,-0.3913384302841388,0.9064894900174127
1789139614737031000,8.511031005859374,-0.0820399853050708,-0.0031453122884035,0.494656836779043,0.017437530412295885,0.5011205153290144
1789139614747004200,8.521004150390626,-0.222782334947586,0.2439478725731372,0.3077520900942385,-0.0900356139168228,0.4424335774798869
1789139614756977200,8.53097705078125,0.5187631770968437,0.3727969553261995,0.3083596275333315,-0.623239195972513,0.33874971336980647
1789139614766950000,8.540949951171875,0.4974257900357246,0.1485363645195961,-0.4214753537774086,-0.38047724219653994,0.5498854518803624
1789139614776923000,8.5509228515625,-0.0052525137007236,-0.097862408336997,0.6881741334713996,0.03743423036785455,0.6941087495786028
1789139614786896000,8.560895751953124,-0.8122340822517872,0.6478817244410514,-0.1029640423249453,-0.051236486351968424,1.0428093544432324
1789139614796869000,8.570869140625,-0.438489032420516,0.3486380811035633,0.434785940118879,-0.0589725575427284,0.7066697915791945
1789139614806842000,8.580842041015625,-0.1096031150132417,-0.2699135039567947,0.5785878234624863,0.24490180727088445,0.5997108609099491
1789139614816814800,8.59081494140625,-0.7815992900133133,-0.1223041911542415,0.5887015865240246,0.5122843716631261,0.8426090705949162
1789139614826787800,8.600787841796874,-0.2344289335995912,-0.2780003643006086,0.5388561170548201,0.3261935563383891,0.5623209102911119
1789139614836760000,8.610760009765626,-1.6266536918491123,0.6592711334615945,0.1439192991781979,0.39368790172469115,1.7164973816856337
1789139614846733000,8.620733154296875,0.270685072851181,-0.1704956828713417,-0.0913820333417504,-0.011618635331133859,0.3324979246144691
1789139614856705800,8.630705810546875,-0.1002139398992061,-0.167423435819149,0.4423988262753933,0.16503644861797181,0.4544811687287203
1789139614866679000,8.640678955078124,0.4483727130532264,-0.0877139392882585,0.5434167029686272,-0.22332810141817133,0.6739125292932484
1789139614876652000,8.650652099609376,0.269676188069582,-0.0390343717932701,0.9758964119717478,-0.18814254312150228,0.9956028922015749
1789139614886625000,8.660625,0.3940443260163068,-0.5782967315614224,1.174191371394694,0.16576726829821367,1.3568141471914896
1789139614896598000,8.670597900390625,0.9632821373313664,-0.2698661576837301,0.7941971249755472,-0.3890154735659095,1.2166167242851715
1789139614906571000,8.680571044921875,0.3047311348378658,-0.1710848809361457,0.182899237370491,-0.048830294089563825,0.39140622687221344
1789139614916544000,8.6905439453125,-0.4103331975162029,0.061757660254836,0.8527459061864763,0.1307201428124621,0.9392950369106116
1789139614926517000,8.70051708984375,0.1080985556691885,0.5456254650592803,0.5606019387863576,-0.5432368674499283,0.5732021331721757
1789139614936490000,8.710489990234375,-0.5642489169865846,0.4167167610734701,1.117179736623168,-0.08657238539469303,1.3162923251651135
1789139614946463200,8.720463134765625,0.5090279650241136,-0.2939163108348846,1.3731979862183332,-0.14511699212552945,1.48664388301365
1789139614956436000,8.73043603515625,0.6077098730504512,-0.4825023616701364,0.8332491785559802,-0.013185707668997793,1.1385298193274247
1789139614966409000,8.740408935546874,0.0855120453298091,-0.0637847821682691,1.0703394403193145,-0.0678358303433795,1.073501572405662
1789139614976382000,8.7503818359375,0.536370145457983,-0.1542348684221506,0.6975030297655612,-0.2301571705811959,0.8631451100122224
1789139614986355000,8.76035498046875,1.4424410337924956,-0.9489256951987742,-0.631271073640883,-0.01957490418308261,1.838264426713082
1789139614996328200,8.770328125,0.715188835516572,-0.15442249994874,0.5378332037478685,-0.32279843204736003,0.8487679931874381
1789139615006301000,8.780301025390624,0.2822317182600498,-0.413514750161767,0.769702077601105,0.12285725709016135,0.9099431707733775
1789139615016274000,8.79027392578125,0.5410580110132694,-0.4139887974143028,0.4279403120078146,-0.0037970666417270205,0.8045178609530307
1789139615026247000,8.800246826171875,0.3070364891707897,-0.5044464824527501,1.1372935732387006,0.15835952321086846,1.2716511284466958
1789139615036219100,8.81021923828125,-0.0969166519194841,-0.0397761300712823,0.1354010616797953,0.07944583417356836,0.1516469085712321
1789139615046191900,8.82019189453125,-0.2302589544385671,-0.6446043102055787,0.4197553250517696,0.6299043914871134,0.4979446689435667
1789139615056164900,8.830164794921876,-0.6520259846389294,-0.2817886506676674,-0.185185229415819,0.6180679663309415,0.396015512926948
1789139615066138000,8.84013818359375,-0.3537450488537549,0.0366162047356367,0.0723943512119352,0.16977556638997812,0.3207701750196652
1789139615076111000,8.850111083984375,-0.8941068942964077,-0.2988923456817865,-0.1411775261893868,0.7689207180407822,0.5634321574103939
1789139615086083800,8.860083740234375,-0.235762812551856,-0.3145382431030273,1.416473941104114,0.2990166116922178,1.4392726989406237
1789139615096056800,8.870056884765624,0.3653834641993045,-0.6804138747334479,0.3718672001954168,0.3181396756610463,0.7959525602644488
1789139615106030000,8.880030029296876,-0.0428711734771728,-0.1904687958419323,1.1023202403392642,0.10729591829715124,1.1143221248288888
1789139615116003000,8.890003173828125,0.9803501765102148,-0.7605249378025531,0.371440645346418,0.028140393836344924,1.2948594212706204
1789139615125976000,8.89997607421875,0.970282371482253,-0.1742290241807699,0.9314339507151396,-0.4798944871566315,1.268492853356965
1789139615135948800,8.90994873046875,1.6384288853168487,-0.0865279443740844,0.7507383608687669,-0.9253062570393009,1.5489844139183773
1789139615145922000,8.919922119140624,1.3739438361495733,0.2997995236545801,1.5127806444317102,-1.13695892173138,1.7243639719443098
1789139615155895000,8.92989501953125,1.0451590410292149,0.4690659569919109,1.0841890289083125,-1.0566085228140878,1.1710783803723925
1789139615165868000,8.939867919921875,0.6332090559661389,0.0083984105110168,1.4090480288870633,-0.46518364184527206,1.4731071817511203
1789139615175841300,8.94984130859375,-0.1434755739986896,-0.1118307279348373,0.957179582672566,0.11095971560229571,0.967973164423154
1789139615185814000,8.95981396484375,-0.1307680681169033,-0.0434019193530082,1.0512193639814853,0.041761445596262166,1.059387628356071
1789139615195787300,8.969787353515626,-0.1160854627698659,-0.3226601747602224,0.7598734881564975,0.2796500313103012,0.7853591541670991
1789139615205760300,8.97976025390625,-1.1026917770653963,-1.139997717630863,0.7359612091060728,1.516132470295629,0.8709220316626315
1789139615215733200,8.989733154296875,-0.7897253133237362,-0.7548503992974758,1.275658818486333,0.986510913684352,1.3592523070377494
1789139615225705200,8.999705322265624,-0.436758263105154,0.0901017112076282,0.8600967804059386,0.12243790550450365,0.9610679110830334
1789139615235678200,9.00967822265625,-1.264091714811325,0.071138652062416,0.6547907731771468,0.6292359714532615,1.2789846051220046
1789139615245651200,9.019651123046875,0.7054372568309306,-0.8971464081227779,0.8961313127961009,0.2636140318157911,1.4269100787843068
1789139615255624200,9.029624267578123,-0.3865852421820163,0.4504840061187743,0.8564674109276383,-0.19953383407772116,1.022793558975165
1789139615265597200,9.03959716796875,-0.4260159198164939,0.1787725128293037,0.6299624021951109,0.059209252337460355,0.7789711598624628
1789139615275570200,9.049570068359374,1.2336270184427498,-0.8137941711753607,0.8726772258419543,-0.10775275757194003,1.7129073113889708
1789139615285543200,9.059543212890626,1.1522820296645164,-0.3219499806642532,1.6615557861432433,-0.5128076580027786,1.9822213807487012
1789139615295516200,9.06951611328125,-0.3687649233311414,0.5100397724151611,0.9939159797217696,-0.26731846609110854,1.1456604866005085
1789139615305489400,9.079489501953123,-0.0134153618901967,0.2476554949194192,0.7617953230645507,-0.2438244324946805,0.7631480698135176
1789139615315462100,9.089462158203125,0.623081629705429,0.1220031623810529,0.5078414586532861,-0.49254277059332274,0.6468539674228656
1789139615325435100,9.09943505859375,0.1198901157498359,0.5067962604492903,0.4107658898450434,-0.5086066825689909,0.42575104012350923
1789139615335408000,9.109408203125,-0.555171292039752,-0.0263520003527402,0.9388005339603872,0.2804161277756712,1.0543352546867077
1789139615345381400,9.11938134765625,-1.2184592599272728,-0.2068646348476409,0.5975148614462464,0.8328434523413446,1.0912523717245441
1789139615355354400,9.129354248046877,-0.2050689836025238,-0.7659311807602643,-0.5475532913167029,0.7776450421918636,0.5690225451445258
1789139615365327000,9.1393271484375,-0.2975157966315746,-0.4800269114673137,0.367938190183416,0.538247427663996,0.4057212138731564
1789139615375300000,9.149300048828126,-0.698806440514326,0.1851993310064077,-0.3241840233266353,0.2742528265403387,0.7433100978894358
1789139615385273300,9.1592734375,-0.4062064729750156,0.3360544938623905,-0.3750654117148369,-0.014157142763020852,0.6468461640185532
1789139615395246300,9.169246337890623,-0.8752221610844135,1.036651909446716,0.3645847150370478,-0.36190922829211414,1.357425776066023
1789139615405219300,9.17921923828125,-0.1189595569014549,0.5891074639111757,0.0588644230313599,-0.4144914740502454,0.43915921765632726
1789139615415192000,9.189192138671874,0.5552642310202122,-0.1709568706423044,0.0097879651732742,-0.1822679488705469,0.5517416215467472
1789139615425164300,9.199164306640624,0.2302121926873922,-0.4043763349384069,-0.0311811740748584,0.19810259674622113,0.4221913081758628
1789139615435137300,9.20913720703125,-0.1159533608227968,-0.3189005299657583,0.8661527925092727,0.2695299801702423,0.8903465503159897
1789139615445110300,9.2191103515625,-0.702564331743121,-0.3343067734122276,0.7457589650209993,0.6288099353177251,0.8752783318132942
1789139615455083000,9.2290830078125,0.7427887901037931,-0.979536522039771,1.29831459466964,0.28264579704551096,1.765491185154524
1789139615465056300,9.23905615234375,1.184657528090477,-0.9739724581718444,0.9781670603174716,0.043930905632900696,1.818492969895441
1789139615475029200,9.249029296875,-1.1604735194265845,0.3140361387997865,1.33114806599617,0.3272982132321568,1.7635613227169005
1789139615485002200,9.259002197265623,0.4450210645377636,-0.1321200672477483,1.1426628451868892,-0.22464290452255392,1.2127297321621753
1789139615494975200,9.268975341796876,-0.45683308288455,0.3914151465564966,0.8575861127592622,-0.11096935855694573,1.0416535051688962
1789139615504948200,9.2789482421875,0.6576297959953546,-0.2014537157148122,1.1990805326532572,-0.2947412926022317,1.3505488670830763
1789139615514921200,9.288921142578126,0.0785047969162464,-0.0740139152377843,0.5136036754418164,-0.018876699334501618,0.5244744688135586
1789139615524894200,9.298894287109375,-0.6401824021100998,0.5055225872516632,0.7650942915447055,-0.09183149372547933,1.1145953731769729
1789139615534867200,9.3088671875,-0.1014694929182529,-0.4199859920024871,0.0158553754534572,0.39929492749434814,0.1658289639340904
1789139615544840200,9.318840087890624,0.272210674983263,-0.2565057408511638,-0.0425735057048499,0.054275696786253574,0.3725057030312632
1789139615554813200,9.328813232421876,-0.9869342310756444,0.4097749791115522,0.061534811284393,0.23259988494876815,1.0448150728700139
1789139615564786200,9.3387861328125,-1.0871031627893448,-0.0514238977670669,0.2733299613367766,0.6517998683845502,0.9134023774582599
1789139615574759200,9.34875927734375,0.6392208636015653,-0.6546838056713342,0.1066013759139925,0.15646616003554825,0.9077975501081278
1789139615584732400,9.358732421875,0.1384165370434522,0.925097075843811,1.5736515849798918,-0.9360884392062692,1.5732391688347858
1789139615594705200,9.368705078125,0.8834604125976562,-0.1616062739729881,-0.5606593680620193,-0.34195575837491,1.00201001727757
1789139615604678100,9.37867822265625,2.9614503434807062,-1.3373404908955095,-1.1343258094742894,-0.5478698825057804,3.3978230323801797
1789139615614651100,9.388651123046875,0.5913228018730878,0.7503677009254693,-0.5951894141733646,-0.9129846555187666,0.6583492994896596
1789139615624624000,9.3986240234375,0.4271089757502079,1.2304279301404952,-0.8885320167735219,-1.1894620917894236,1.034912578657621
1789139615634596000,9.40859619140625,0.7437754630535841,0.0599906505823135,-1.5522320725932717,-0.3764116168783842,1.6806366411167128
1789139615644569000,9.418569091796876,-1.6517735200583934,1.3914993665844202,0.479260749400407,-0.20962846062378981,2.2023562434772623
1789139615654542000,9.4285419921875,-2.701431041550636,0.7460767257332801,0.282185029574111,0.9347724063865352,2.657101633755908
1789139615664515300,9.438515380859377,-0.3052320700973272,-1.3378858498185873,0.4089825135596096,1.2380153048383766,0.7195067512846427
1789139615674488300,9.44848828125,-2.2593530447274444,-0.7618909654587507,0.6660653236463665,1.881173222174387,1.6093428309421873
1789139615684461000,9.4584609375,-0.9900713600575924,-1.0293430477380752,0.5037986130032688,1.376303880509419,0.6319723719370433
1789139615694434000,9.46843408203125,1.118967789083719,-1.746794567489624,0.1830543548669665,0.7629456126136706,1.9377314218042399
1789139615704407300,9.4784072265625,-0.1817383768975734,-0.4503372911244631,0.4467646933346986,0.44203544399286937,0.48993455775150013
1789139615714380300,9.48838037109375,1.299601419609785,-0.5323515574663877,0.9422675524838268,-0.3794331980093277,1.648108194051875
1789139615724353300,9.498353271484374,1.170842937749624,-0.2337590715140104,0.2827816072277724,-0.504673451973781,1.1183857262378
1789139615734326000,9.508325927734376,2.022065214565396,-0.5468032766669988,0.3933038829125463,-0.7488986430663299,1.9953897669519767
1789139615744299300,9.51829931640625,2.06269708468318,0.4835837271660566,0.4906229781530797,-1.6171518657018864,1.4539956101340232
1789139615754272300,9.528272216796877,0.1925549544662237,1.0393179137855768,-0.2329023085542023,-0.9415701145299489,0.5338055274714089
1789139615764245200,9.538245361328125,0.5474883363217115,-0.0930687443196773,-0.4637435929253697,-0.21003078818797327,0.6923513974637638
1789139615774218200,9.54821826171875,0.2597948455244303,0.1126297693580389,0.0271163357887417,-0.2434848144277983,0.14706892097372598
1789139615784191200,9.558191162109376,-1.029329019212723,0.663850862467289,-0.9597321166995912,0.11747284933239399,1.5516127296739983
1789139615794164200,9.568164306640623,-1.6545938381761311,-0.0378951386302709,-0.2325179854117333,1.001824403881385,1.337732891196844
1789139615804137200,9.57813720703125,-0.9145739282637834,-0.7848235127568245,0.14751257442981,1.157154340807974,0.3676237310076467
1789139615814110200,9.588110107421874,-0.092403558409214,-1.070635427591205,0.2206828784503042,0.9100066658531014,0.6126886953128162
1789139615824083500,9.59808349609375,-0.1052373210191726,-0.4924222826600074,-0.4599522378183901,0.49168002902388325,0.47261126555405225
1789139615834056200,9.60805615234375,0.3707031979173422,-0.1240770460456609,0.0868831144873052,-0.11887477922948723,0.382404807432799
1789139615844028200,9.618028076171877,0.957248117864132,-0.8265262269765138,-0.2761325246021151,0.13774562169572535,1.2871460204193037
1789139615854001400,9.62800146484375,0.9740250651419162,-0.3435264371782541,-0.958024801325053,-0.22013021820147788,1.3914343130574205
1789139615863974100,9.63797412109375,-0.0404775563389062,0.6901070012301206,-0.7412567582309245,-0.4894191874605456,0.8875903031706001
1789139615873947100,9.647947021484375,0.3218587952494621,0.9383844274401664,-0.5077743117012083,-0.9160668433839834,0.6346768530660185
1789139615883920100,9.657920166015623,1.698324843353033,0.2527478496223688,-0.7528644131120293,-1.1371424061673683,1.4906041465342983
1789139615893893000,9.66789306640625,0.2725181334972381,0.454591441437602,0.4138777747878804,-0.5544934765624168,0.3804619673846877
1789139615903866400,9.677866455078124,0.0400514398813247,0.0332394217789173,0.1995928172137588,-0.06329701281900871,0.19631545493994942
1789139615913839000,9.687839111328126,0.3573421965628862,-0.1466495278596878,-0.0823919405478984,-0.08166619977701976,0.3864176408331872
1789139615923812000,9.69781201171875,-0.1419359433412551,-0.0563110852867364,0.5744767714144662,0.0900472978577753,0.5875642904241578
1789139615933785000,9.70778515625,-0.4120329871714115,-0.3156926738351583,-0.3259824875833466,0.5162853175612785,0.3303741816671889
1789139615943758300,9.71775830078125,-0.9634311904132364,-0.1976765352636575,-0.1249964624455198,0.7255440996461268,0.6756371410361447
1789139615953731300,9.7277314453125,-3.711337567412853,1.7130343367069958,0.1536772710720077,0.7397718430412865,4.0230420706120595
1789139615963704000,9.7377041015625,-1.4319295766502618,-0.0084714757472276,0.3540182397719472,0.8107233214284976,1.2322948870178383
1789139615973677000,9.747677001953123,1.1445528967171907,-1.1984691958218812,0.2699516440100967,0.29630431080695774,1.652697005569571
1789139615983650300,9.757650390625,-0.825102916175127,0.4091483716458082,-0.0182413938071578,0.1448772759290946,0.9096925500786008
1789139615993623300,9.767623291015624,0.9218173235207796,-0.7041103921413421,0.0344354631630703,0.03819503366923349,1.1598472152791115
1789139616003596300,9.77759619140625,0.850459475749731,-0.6800473795086145,-0.029724399395287,0.0640494081928184,1.0874405599841315
1789139616013569000,9.787569091796875,1.344905957713723,-0.3636661388874054,0.8247315986447036,-0.5351302202332098,1.5280192907366534
1789139616023542300,9.797542236328123,0.5482493838220834,0.0384428356409072,-0.0341042949799448,-0.345712361189458,0.42860390190745673
1789139616033515300,9.807515380859376,-0.9110381553530692,1.083100356888771,0.5044374588960782,-0.38820606316011286,1.4514992614758593
1789139616043488300,9.81748828125,-0.5967343055278063,0.8392834172189235,0.6354865724440664,-0.3799786617025946,1.1488898494720194
1789139616053460200,9.827460205078124,-0.835697959947586,0.4404933579802513,0.7588345735628157,0.07442347438869157,1.2094281852096267
1789139616063433200,9.83743310546875,0.500009961310029,-0.932531025236845,0.439985883382149,0.4410398176923469,1.0576840413015642
1789139616073406200,9.84740625,-1.1557482444703575,-0.1146902090191841,0.5506526090389118,0.7247017974534913,1.0615712172295444
1789139616083379200,9.857379150390624,-1.272901628732681,0.7074076801210641,0.3369421634171158,0.1375048958772851,1.4883973284787102
1789139616093352200,9.867352294921876,0.8897948763161897,0.1801806260615587,0.1878623762032017,-0.6729068110198899,0.6377214721194779
1789139616103325200,9.8773251953125,0.7278098321586847,-0.3583680324792861,0.0995463428359478,-0.1353412940631017,0.8060564539678747
1789139616113298200,9.887298095703123,-0.1266810910642147,0.408576124715805,1.0915035897053778,-0.3310046405883058,1.1246326345832836
1789139616123271200,9.897271240234376,0.4392985952377319,0.042436289191246,0.6410143228895961,-0.3303993672454899,0.7046415505003626
1789139616133244200,9.907244140625,1.7288994298368692,-0.9941121598809955,0.6585423807956278,-0.23303587121527392,2.0872768323690134
1789139616143217400,9.917217529296876,0.8015601280242204,0.1429424900352954,1.08116478571631,-0.6503499851418959,1.1869681482645715
1789139616153190100,9.927190185546875,0.2823708344697952,0.8421580958724021,0.6569616144102066,-0.8915086846643814,0.6525138884185133
1789139616163163100,9.9371630859375,0.5163701444804668,-0.3624187691748142,0.5766376392427831,-0.04127012327638391,0.8536938762092695
1789139616173136000,9.947135986328124,-0.2002934397637844,0.5663870980590582,0.5342600214362144,-0.38026844690422185,0.7083371271183272
1789139616183109000,9.957109130859376,-0.0071031100034713,0.5056897605121136,0.3040653644055128,-0.4273414983638378,0.40694910942982476
1789139616193081900,9.967081787109375,-0.1518055954486131,-0.2731675373166799,-0.3786099524538964,0.33483297801012807,0.3590234187169112
1789139616203054800,9.977054931640623,-0.7526186947226524,0.6073246731251478,1.0022737659614531,-0.12530722364096392,1.3871297559603224
1789139616213027800,9.98702783203125,-0.6038789165854453,-0.1404775612264871,0.4469162306345999,0.43373647823038697,0.6292936323859416
1789139616223001000,9.9970009765625,0.1558726987570524,-1.0306482851177454,0.6833707517776638,0.7036560291894328,1.028783729850198
1789139616232974000,10.00697412109375,-0.2656681214720011,-1.0820224985241889,0.3118743576560169,1.0133581084878907,0.5583217683416863
1789139616242946800,10.01694677734375,-0.3979565310239791,-0.8959194966763258,0.3348511094219982,0.9368339717178742,0.44216345396906837
1789139616252919800,10.026919921875,0.8191746951699257,-1.623539943742752,0.2986412204649299,0.828224899681892,1.6462561235247273
1789139616262892000,10.03689208984375,1.4579279412597417,-1.5979355468869207,0.6459612777724861,0.4156156331208991,2.218891955863928
1789139616272865000,10.046864990234376,-2.107916867113113,2.3779408457070588,0.5963678103029728,-0.7564830971603118,3.143454162735361
1789139616282837800,10.056837646484375,0.5991115560531616,-0.3301192585945129,0.7807501989033073,-0.1287575439840472,1.0300027909895106
1789139616292811000,10.06681103515625,2.168304408058524,-1.397133573079109,0.5202586032863706,-0.14982873880818937,2.6271175440683
1789139616302784000,10.076783935546874,-0.1961965258389711,0.6158084238320589,1.8210761937528848,-0.5074165833146143,1.8645535674913243
1789139616312757000,10.086757080078126,-0.1278325991868972,0.2971037086993455,0.6516060787264257,-0.2107284969343347,0.6962727695025911
1789139616322730000,10.09672998046875,2.3224983599483964,-2.8234552467197176,-0.3698009153153747,0.980147499778468,3.5414632227143343
1789139616332703000,10.106702880859377,1.2670967418462038,-0.7654255693256855,0.6685815442509949,-0.15302780641403624,1.6170943779359226
1789139616342676000,10.116676025390625,-0.9351087667703628,1.1346131019830703,0.4787437397889793,-0.41452808490798854,1.4896769220512505
1789139616352649000,10.12664892578125,0.183399003586173,-0.6705009680062533,-0.0553518118005245,0.4432666803801854,0.5383170216034925
1789139616362622000,10.1366220703125,-0.1356874043405055,0.5416074615895747,0.7406058931067585,-0.41098426569144136,0.8314678204264389
1789139616372595000,10.146594970703124,-1.567043565016985,0.8937894989103078,1.143166045468673,0.10276715907749834,2.133249334126488
1789139616382568000,10.15656787109375,-1.3644728279709817,-0.7127402733206748,0.7414152367282658,1.319337619208108,1.0857391930290945
1789139616392541000,10.166541015625,0.5816928037405014,-1.3410013514906167,0.4411076904863119,0.7261425918325735,1.3431098516338813
1789139616402514000,10.176513916015624,-0.2434101124346256,-0.4805494740366935,1.441683493423462,0.43685423900051124,1.4757323432483755
1789139616412487000,10.18648681640625,0.0417699342370033,-1.162450956979394,0.5918728369712829,0.882819118974299,0.9612392070168329
1789139616422460200,10.196460205078123,0.0041448447197675,-0.0316670578956604,0.0115157388139516,0.022615406433322483,0.02532070152671287
1789139616432433000,10.206432861328125,0.4777636427104473,0.7778899141013622,-0.0619544249359518,-0.9048297347933851,0.13598646461856956
1789139616442406000,10.216406005859374,2.260866371899843,-0.2321557279706001,0.076937474534288,-1.1220581027035998,1.9779580437314717
1789139616452379000,10.22637890625,0.8258803302884101,-0.3471025420993566,0.6046062079466878,-0.23434655444082114,1.0550776529708692
1789139616462352100,10.23635205078125,-0.0983171663671731,0.1758119094580411,0.1662916553102433,-0.09719141074393284,0.24245172099446466
1789139616472324900,10.246324951171877,0.4981926827549934,0.2198492041051387,0.547692626722157,-0.5026384464484922,0.5863884610170486
1789139616482296800,10.256296875,0.0977215385615825,-0.0067097267717123,1.3387339910805225,-0.13896688557301318,1.3350997802114701
1789139616492270000,10.26627001953125,0.0650227995306253,-0.3434130399316549,0.7009634724177419,0.1957975435668756,0.7584019989761472
1789139616502243000,10.2762431640625,-0.2586912681967019,-0.4976373869597911,1.290470310910046,0.46952230196185585,1.3264337798933263
1789139616512215800,10.2862158203125,-2.194378175991773,-0.1540560047239065,0.1925841074954718,1.3801872517664033,1.723717094067876
1789139616522188800,10.296188720703125,-0.0711591103285551,-1.2429349450141192,-0.1257138534672558,1.060694606310906,0.6638387015055252
1789139616532162000,10.306162109375,-1.5342635774433613,-0.1961205379933118,0.7585504228591918,0.9959297783409383,1.405685103828633
1789139616542135000,10.316135009765626,0.9590648118972778,-0.720785632610321,0.6479702064421028,-0.010072874903735984,1.3634886017949752
1789139616552108000,10.32610791015625,-1.7207137852936982,0.0662473728895187,0.6383727954048664,0.8980441550882537,1.6019616620691577
1789139616562080800,10.336080810546877,-0.7085077503174543,-0.998942064255476,0.9849897459443658,1.15731001929299,1.06334697952197
1789139616572054000,10.346053955078125,0.9658487729489804,-1.4151783483356235,0.0427191247206181,0.5907875194674301,1.608846990942088
1789139616582027000,10.356027099609374,-0.8549252229869365,-0.0550736524462699,-0.8118074543375522,0.5919764054164409,1.02104139114988
1789139616592000000,10.366,0.7334253339529037,-0.0533598342657089,-0.12679938368164,-0.37188341746985204,0.6469472929920795
1789139616601973000,10.375972900390623,-1.2198317173242568,0.8504396020054816,-0.4135275365781038,0.03979215509629963,1.5429382823530675
1789139616611946000,10.385946044921877,-0.4628174179911613,-0.1779728868842124,0.3784002552259713,0.38726941775069,0.48896161617454975
1789139616621919000,10.3959189453125,1.011416930425167,-0.4194552461266517,0.3931622094195336,-0.26874748470729026,1.1319267745896777
1789139616631892000,10.40589208984375,-0.3164695034265518,0.1236935996860265,1.1279402000904082,0.008022827170375502,1.1779803828699862
1789139616641865000,10.415864990234375,-0.5540367350518703,-0.1966477767378091,0.6287627440817654,0.43869986089091606,0.740616008659266
1789139616651838000,10.425837890625,0.7202198154211044,-0.1740203498661518,0.0356444370940327,-0.27675453986214515,0.6882420469966872
1789139616661811000,10.43581103515625,-1.4091805692255497,1.143311956745386,0.7007355819460004,-0.16236682370059907,1.9384580154046118
1789139616671784000,10.445783935546874,0.7874246351659298,-0.5732055459022521,0.8019030231777579,-0.04112878422962746,1.2609357777494923
1789139616681757000,10.4557568359375,0.1610369496524334,-0.3431196099430322,0.9162367469094692,0.12595235162935547,0.9835088954285574
1789139616691730000,10.46572998046875,-0.299365223890543,-0.1573345880031585,1.759209958557039,0.18531857256510448,1.7818109930084758
1789139616701702000,10.475701904296876,0.9860872588574886,-0.6069499945938587,0.6608988807938992,-0.11915485125351838,1.3279103245610908
1789139616711675000,10.4856748046875,0.8584276781499385,-0.3800368434518575,0.5647407190915197,-0.2237288321661905,1.0724754404891075
1789139616721647900,10.49564794921875,-0.6580909837663174,0.5889437977820634,0.8509327923499047,-0.1550053939439252,1.2165518833182472
