time,seconds_elapsed,z,y,x,vertical,horizontal
1789139607785900800,1.55990087890625,0.1016469001770019,0.0695345401763916,0.0077108805999159,-0.11581139410449276,0.04259487373306356
1789139607795872800,1.569872802734375,0.053176037967205,0.0780760943889617,0.0314425751566886,-0.09632954732230883,0.025155941129020778
1789139607805845800,1.579845703125,0.0481719560921192,0.0677517130970954,0.0228143818676471,-0.08446556795778765,0.017230665422535815
1789139607815818800,1.58981884765625,0.0287694949656724,0.0623430982232093,-0.0096567422151565,-0.06669298305594278,0.018964293236455935
1789139607825791500,1.59979150390625,0.0349465906620025,0.0664280280470848,-0.0160940308123826,-0.07315676463107436,0.023260540097455908
1789139607835764700,1.6097646484375,0.0021716021001338,0.0709479451179504,-0.0496626421809196,-0.05565976622263043,0.06638294377754869
1789139607845737700,1.61973779296875,0.0038214232772588,0.0342898480594158,-0.041082639247179,-0.027365820650926714,0.046144252766915216
1789139607855710700,1.629710693359375,-0.0273455511778593,0.0609171949326992,-0.0117854699492454,-0.03296491889416065,0.05925280779773539
1789139607865683700,1.63968359375,-0.054757360368967,0.0597337894141674,-0.0174599718302488,-0.01578449469844595,0.08137686683438253
1789139607875656700,1.64965673828125,-0.0809423625469207,0.0227992013096809,-0.0057700257748365,0.02861193052163665,0.07928505700511175
1789139607885629700,1.659629638671875,-0.0867022424936294,0.0210534501820802,0.0366604253649711,0.030536213900536683,0.09149892374533558
1789139607895601700,1.6696015625,-0.0989048406481742,0.04107616096735,0.0243084151297807,0.022122871304746952,0.10756809989402868
1789139607905575000,1.679574951171875,-0.1099696457386016,0.0042386120185256,0.0387503653764724,0.057519867004795146,0.1015103173686198
1789139607915547600,1.689547607421875,-0.1301047354936599,0.0103210052475333,0.0438750870525836,0.06386645692756451,0.12198304919367342
1789139607925520600,1.699520751953125,-0.1209083944559097,0.0124388206750154,0.0376240201294422,0.0572456737437162,0.11363126259097767
1789139607935493600,1.70949365234375,-0.1085009947419166,0.0122294947504997,0.0160236544907093,0.05168393206770355,0.09750669244260388
1789139607945467000,1.719466796875,-0.1283537000417709,0.0246189851313829,-0.01030292827636,0.054830405034892046,0.11908208831763765
1789139607955439900,1.72943994140625,-0.1378390789031982,0.0308185555040836,0.0009534549899399,0.054519543292884436,0.13029936113348184
1789139607965412600,1.73941259765625,-0.1324634253978729,0.0100005446001887,-0.013390040025115,0.06930163222372775,0.11411900325291825
1789139607975385600,1.749385498046875,-0.1208978667855262,0.0054425438866019,-0.0623985975980758,0.06958791528506318,0.11703427919090154
1789139607985358600,1.759358642578125,-0.1347401291131973,0.0070708198472857,-0.0407977364957332,0.07482456999793605,0.11945977529927428
1789139607995330800,1.769330810546875,-0.1354290843009948,-0.0106458589434623,-0.0104957604780793,0.0876168936734688,0.10434467939610205
1789139608005303600,1.779303466796875,-0.1555318981409073,0.0031561567448079,0.003059486625716,0.08710441788293594,0.12892755139379308
1789139608015276500,1.789276611328125,-0.1520149260759353,-0.0001331134699285,0.0037385926116257,0.08770246140749238,0.1242208147085301
1789139608025249800,1.799249755859375,-0.1436718255281448,-0.003699853317812,-0.0182650983333587,0.08724713562968074,0.11565826173130202
1789139608035222800,1.809222900390625,-0.1680517345666885,-0.0141423745080828,-0.0181164946407079,0.10981951022357317,0.12926436013039677
1789139608045195800,1.81919580078125,-0.2043826878070831,-0.0292113814502954,-0.0037749039474874,0.14211648696758045,0.14980901813071384
1789139608055168500,1.82916845703125,-0.1787420362234115,-0.0473246052861213,-0.0093267960473895,0.14240300077214307,0.11830768476467263
1789139608065141800,1.839141845703125,-0.1676834821701049,-0.0579482540488243,0.0040394668467342,0.14376455663653614,0.10403758882012323
1789139608075114800,1.84911474609375,-0.1941627562046051,-0.0468492619693279,-0.0270635914057493,0.15210787833360323,0.132248480417231
1789139608085087700,1.859087646484375,-0.2253739386796951,-0.0857870727777481,-0.012541108764708,0.20084964916595444,0.13405048276949572
1789139608095059700,1.869059814453125,-0.2421662360429763,-0.0846048966050148,0.0034546363167464,0.2085269426524937,0.14943534758835456
1789139608105032700,1.87903271484375,-0.2812440395355224,-0.0925013422966003,-0.0102479634806513,0.23844351013470633,0.17579653389948355
1789139608115005700,1.889005615234375,-0.3087598085403442,-0.1268816888332367,-0.0285785011947155,0.2835293996507036,0.17849199588578826
1789139608124978700,1.898978759765625,-0.3050650358200073,-0.139461487531662,0.0097836386412382,0.28907363898844673,0.17042984894508878
1789139608134952000,1.908951904296875,-0.2949101328849792,-0.1144352331757545,2.23543611355e-05,0.2634984253469327,0.17503139549700733
1789139608144924700,1.918924560546875,-0.2946744263172149,-0.139594629406929,0.0126403672620654,0.28298750210427825,0.1624731689293299
1789139608154897700,1.928897705078125,-0.2969380915164947,-0.1740849614143371,-0.0021665417589247,0.31333619906580346,0.1424883301968192
1789139608164871000,1.938870849609375,-0.3083424270153045,-0.1678059846162796,-0.0091365026310086,0.3152827610948676,0.15464202859329854
1789139608174844000,1.948843994140625,-0.306063562631607,-0.1603390127420425,0.0087524829432368,0.30670145007247385,0.15935598469765105
1789139608184817200,1.958817138671875,-0.2861465215682983,-0.1598473787307739,-0.0215122569352388,0.2968067225319651,0.14071091980019484
1789139608194788900,1.968788818359375,-0.2776214778423309,-0.1586931645870208,0.0068948836997151,0.28905084383437196,0.13694653900655243
1789139608204761900,1.978761962890625,-0.259976178407669,-0.1342518329620361,-0.0245177168399095,0.26106412627793485,0.1343793451498521
1789139608214735000,1.988735107421875,-0.2646582722663879,-0.1288501471281051,-0.0028486417140811,0.2579336026888258,0.1418616680345398
1789139608224708000,1.9987080078125,-0.2569827139377594,-0.1342143714427948,-0.0058312080800533,0.25806009893806137,0.132259597339292
1789139608234680800,2.008680908203125,-0.2131111323833465,-0.1346751004457473,-0.0460167117416858,0.23575803929545192,0.10044611536971405
1789139608244653800,2.01865380859375,-0.2155858725309372,-0.1199282109737396,0.0038171124178916,0.2218757924131443,0.1079154637229411
1789139608254627000,2.028626953125,-0.1753843873739242,-0.1307584792375564,0.020112195983529,0.2063700043950646,0.07532187557613047
1789139608264600000,2.03860009765625,-0.1673667132854461,-0.1143930554389953,-0.0225714761763811,0.19126597437623177,0.07088149569057756
1789139608274572800,2.04857275390625,-0.1513427495956421,-0.0914328768849372,-0.0075006461702287,0.16232705788369453,0.07050379282293942
1789139608284545800,2.0585458984375,-0.1465801000595092,-0.0719426497817039,0.0445299446582794,0.14025809339432596,0.09472092588085587
1789139608294519000,2.06851904296875,-0.1231879591941833,-0.0737996697425842,0.0174695644527673,0.13005241187675584,0.06334998336030023
1789139608304491000,2.078490966796875,-0.1010208800435066,-0.0873028039932251,-0.0309619680047035,0.1314502563544053,0.03881328840654241
1789139608314463700,2.088463623046875,-0.0560219809412956,-0.0922917053103447,-0.0103043587878346,0.10813040111736305,0.008379581248784958
1789139608324437000,2.09843701171875,-0.0568851940333843,-0.0943719968199729,0.0313578508794307,0.10754836194686368,0.03947991563222715
1789139608334410000,2.108409912109375,-0.0666094571352005,-0.0964900106191635,-0.0078646540641784,0.117501053387228,0.0015802422514881193
1789139608344383000,2.118383056640625,-0.0799202844500541,-0.1126618608832359,-0.031305618584156,0.13990751793033335,0.0220425712148395
1789139608354356000,2.12835595703125,-0.0956246778368949,-0.1347874104976654,0.021395144984126,0.16347204464805692,0.03234761022937484
1789139608364329000,2.138328857421875,-0.1075058877468109,-0.1346730291843414,-0.008118312805891,0.17220904654514826,0.01021234452717044
1789139608374302000,2.148302001953125,-0.1102798357605934,-0.1495342552661895,-0.0383803471922874,0.18791461077283395,0.026139735692853133
1789139608384275000,2.15827490234375,-0.1580412238836288,-0.1742564737796783,0.0044404198415577,0.23277330795522366,0.034331494763771925
1789139608394248000,2.168248046875,-0.1828248649835586,-0.1800967901945114,-0.0073398067615926,0.25262943536828725,0.04573867338937784
1789139608404221200,2.17822119140625,-0.2071866244077682,-0.1590377390384674,-0.0199353359639644,0.2504155895258732,0.07686839346804908
1789139608414193000,2.18819287109375,-0.1774135529994964,-0.1791275441646576,-0.0103591401129961,0.24891502748720806,0.0413626249322939
1789139608424166000,2.198165771484375,-0.1855612248182296,-0.1996397972106933,0.0560498759150505,0.2658881475371338,0.08206155235999504
1789139608434139100,2.20813916015625,-0.1445171236991882,-0.1867791265249252,0.0291777830570936,0.23349796318385307,0.04584414205565753
1789139608444112100,2.218112060546875,-0.1279440969228744,-0.1908226907253265,0.0217396784573793,0.22770529436187692,0.0374953833433492
1789139608454084900,2.2280849609375,-0.1115281134843826,-0.1942666918039322,0.0543436929583549,0.2188505083357657,0.07235854895835189
1789139608464057900,2.238057861328125,-0.0780906230211258,-0.1607718467712402,0.0288401171565055,0.17398055102012647,0.050082455434980966
1789139608474030800,2.24803076171875,-0.0485782735049724,-0.1432929784059524,-0.0010155166964977,0.1446961332849621,0.044235580743491966
1789139608484004000,2.258004150390625,-0.0113674188032746,-0.1383271664381027,0.0144640048965811,0.11812395901706033,0.07429374757560545
1789139608493977000,2.26797705078125,0.0132990442216396,-0.0906014516949653,0.000677085656207,0.06596690103583143,0.06351625019755905
1789139608503949800,2.27794970703125,0.0223928801715374,-0.0794720202684402,-0.0289295651018619,0.05362966145222532,0.06912323948880555
1789139608513922000,2.287922119140625,0.0632132813334465,-0.0719818770885467,-0.0300137382000684,0.024020809547417275,0.09747376444747097
1789139608523895000,2.29789501953125,0.0780436843633651,-0.0325606763362884,0.0411534905433654,-0.021351833013980442,0.09158997392362905
1789139608533868000,2.307867919921875,0.0832488387823104,-0.0267137065529823,0.0212745890021324,-0.027792584575221713,0.08558137447038787
1789139608543840800,2.3178408203125,0.1008116826415062,-0.0485295355319976,-0.00946806371212,-0.018149801321292854,0.11080767174892513
1789139608553814000,2.32781396484375,0.1331560462713241,-0.0155550744384527,-0.0073644323274493,-0.06380230926600902,0.11813548660426693
1789139608563787000,2.337787109375,0.1119298487901687,0.0067602442577481,0.0857670307159423,-0.07588703623802993,0.11904256903079574
1789139608573760000,2.347760009765625,0.1187699064612388,-0.0178777240216732,0.1463344991207122,-0.06382995079442344,0.17822857995141445
1789139608583733000,2.35773291015625,0.151444137096405,-0.0064749075099825,0.0423775613307952,-0.08506699066389324,0.13242626586848982
1789139608593706000,2.3677060546875,0.1625473946332931,-0.0089836046099662,0.030319033190608,-0.08863986849350808,0.13987343615185305
1789139608603679000,2.377678955078125,0.167429119348526,-0.0242225751280784,0.1044996157288551,-0.08400254398399518,0.1802303677057607
1789139608613652000,2.38765185546875,0.1600556373596191,-0.0219881832599639,0.0520582534372806,-0.07806876243556035,0.1507203282121819
1789139608623624000,2.3976240234375,0.1280661225318908,-0.0198078081011772,-0.0233544185757637,-0.0563375230800828,0.11901593742999064
1789139608633597000,2.407596923828125,0.109898567199707,-0.0383239686489105,-0.0280628874897956,-0.030464473203666527,0.11578369130511948
1789139608643570000,2.41756982421875,0.0822787582874298,-0.0330308973789215,-0.0094099231064319,-0.02005115859400159,0.08687538166181083
1789139608653543000,2.42754296875,0.1053598374128341,-0.0389220751821994,-0.0307306572794914,-0.02717765682572184,0.11323149536432198
1789139608663516200,2.43751611328125,0.095721960067749,-0.0613926649093627,-0.0784436911344528,-0.00015459353751214738,0.13814898379474463
1789139608673489000,2.447489013671875,0.0402946546673774,-0.0644547641277313,-0.0381394065916538,0.03168266089148561,0.0789233751655572
1789139608683462000,2.4574619140625,-0.0125327035784721,-0.0527276881039142,-0.0220722910016775,0.05160092783796829,0.02760087006043514
1789139608693435000,2.467434814453125,-0.0152272898703813,-0.10557172447443,0.0170218497514724,0.09354027537683442,0.05401129156657213
1789139608703408000,2.477408203125,-0.0073863714933395,-0.096530757844448,0.0036909219343215,0.08254254209103229,0.05072570693185553
1789139608713381000,2.487381103515625,-0.0197221338748931,-0.0929679796099662,0.0035851944703608,0.08677986582805866,0.03891164740270886
1789139608723353900,2.497353759765625,0.0137969478964805,-0.1154100596904754,0.0010659273248165,0.08583309080883691,0.07838146702047008
1789139608733326000,2.507326171875,0.0049778907559812,-0.1122206598520279,0.0578389316797256,0.08455617084144319,0.09388211695785127
1789139608743299000,2.517299072265625,0.0330960787832737,-0.0888295844197273,0.0074463286437094,0.05263520340522159,0.07918982681993435
1789139608753272000,2.52727197265625,0.046267807483673,-0.0815341174602508,-0.0367323160171508,0.042030039934772494,0.09149459602858227
1789139608763244800,2.537244873046875,0.0604359358549118,-0.0816652625799179,0.0103996526449918,0.03081248681958182,0.09736765831648378
1789139608773217800,2.5472177734375,0.0543450228869915,-0.0726214349269867,0.0049369768239557,0.02733934048359874,0.0866267194664806
1789139608783191000,2.55719091796875,0.0775085538625717,-0.0470246151089668,-0.0116213727742433,-0.005764712986960907,0.09121795183706734
1789139608793164000,2.5671640625,0.0852559506893158,-0.0254703201353549,-0.0136935776099562,-0.02763635191751593,0.08567998865655632
1789139608803137000,2.577136962890625,0.0751398801803588,-0.0310480128973722,-0.0080685717985033,-0.017628096419437838,0.07977676833445106
1789139608813109800,2.58710986328125,0.085514485836029,-0.0375373363494873,-0.008101062849164,-0.018342443672826295,0.09192910794416666
1789139608823083000,2.5970830078125,0.1131999716162681,-0.0596425645053386,0.0292249452322721,-0.018844299255514223,0.1298863306283433
1789139608833056000,2.607055908203125,0.0681667178869247,-0.054462980479002,0.0335611030459404,0.0026767389063733424,0.09344570817656138
1789139608843028000,2.617028076171875,0.054004393517971,-0.0827699974179267,0.0130465868860483,0.03525143856193365,0.09324642888870804
1789139608853001000,2.6270009765625,0.0325544960796833,-0.0641619563102722,-0.0120766088366508,0.0341824790349328,0.06445117889211373
1789139608862974000,2.636973876953125,0.0214110314846038,-0.0862376987934112,-0.0170319527387619,0.05890846545360935,0.06866770037225758
1789139608872947000,2.646947021484375,-0.0440017990767955,-0.104813776910305,0.025205248966813,0.10900664307231989,0.04092606130304683
1789139608882920000,2.656919921875,-0.0489081367850303,-0.1300583183765411,-0.0565478540956974,0.13781761202293852,0.05925485331886359
1789139608892893200,2.66689306640625,-0.0601016730070114,-0.1398422420024871,-0.0552703328430652,0.1521592817992461,0.055411428437143875
1789139608902866000,2.676865966796875,-0.0428129062056541,-0.1469118893146515,-0.0639598444104194,0.14849778248432866,0.07386012763336261
1789139608912839000,2.6868388671875,-0.0519605986773967,-0.1554252207279205,-0.0481438599526882,0.1596560537669849,0.060701555168990305
1789139608922812000,2.69681201171875,-0.0676651522517204,-0.173379510641098,-0.0487894304096698,0.18337837941372265,0.05823921378840819
1789139608932785200,2.70678515625,-0.0696454793214798,-0.1461220532655716,-0.0540992394089698,0.162704415008783,0.051537833498741074
1789139608942758000,2.7167578125,-0.0903522968292236,-0.1381077319383621,-0.0507620945572853,0.16792889528812455,0.040174115231420955
1789139608952729900,2.726729736328125,-0.0644133761525154,-0.1708185374736786,0.0147543307393789,0.1751867515658371,0.05343545754822945
1789139608962703000,2.736703125,-0.0641299560666084,-0.1457542926073074,0.0229473002254962,0.15408992968192636,0.04625837477495024
1789139608972676000,2.746676025390625,-0.0119040329009294,-0.1500254720449447,-0.0192084088921546,0.13019087523180178,0.07790152270758592
1789139608982648800,2.75664892578125,-0.0083430856466293,-0.1596955507993698,-0.0107303410768508,0.13543468462669145,0.085702172918283
1789139608992621800,2.766621826171875,0.0235181748867034,-0.1458471119403839,0.019995879381895,0.10371371216055934,0.10708774772813359
1789139609002595000,2.776594970703125,0.0220455639064311,-0.109829731285572,0.0108630638569593,0.07587532979821864,0.08312350598107267
1789139609012568000,2.786568115234375,0.0505046360194683,-0.122522622346878,-0.0210365466773509,0.07187787863081338,0.11330762598279558
1789139609022541000,2.796541015625,0.101582184433937,-0.092827096581459,-0.0859414935111999,0.02252743503110821,0.1606681830107278
1789139609032513800,2.806513671875,0.1037398874759674,-0.0707803890109062,-0.0312843732535839,-0.0002905495116864651,0.1294235500707364
1789139609042486800,2.81648681640625,0.0686627030372619,-0.0430802702903747,-0.0008054961217567,-0.004581368409102601,0.08093291273750869
1789139609052460000,2.8264599609375,0.122642308473587,-0.0537654086947441,-0.0213198270648717,-0.025716999181703067,0.1331353671231189
1789139609062432000,2.836431884765625,0.1439178884029388,-0.0428489558398723,-0.0336069725453853,-0.04607308647873248,0.1468165212941568
1789139609072404700,2.84640478515625,0.1760784983634948,-0.0358967743813991,0.0016732525546103,-0.07266060565041742,0.16436377994423937
1789139609082378000,2.8563779296875,0.1931068450212478,-0.0347713343799114,-0.0084224436432123,-0.08274406280242946,0.1781113609978053
1789139609092351000,2.86635107421875,0.2227576822042465,-0.0320162959396839,0.0275334268808364,-0.10451222534277047,0.20119968324132576
1789139609102324000,2.876323974609375,0.2194000780582428,-0.0144251147285103,0.0112601602450013,-0.1157978699362186,0.18724882566753637
1789139609112297000,2.886296875,0.2162993550300598,-0.0153548242524266,0.0238513201475143,-0.11408790659784199,0.18594089559627291
1789139609122270000,2.89627001953125,0.278899610042572,0.0474604107439518,-0.0070724063552916,-0.19929879294600222,0.20091663229261097
1789139609132243000,2.906242919921875,0.3293044567108154,0.0583508722484111,-0.0052116559818387,-0.23740798667633933,0.23560742501482376
1789139609142216000,2.9162158203125,0.3672550022602081,0.046492863446474,-0.0685980468988418,-0.24547353562399277,0.2854579800657007
1789139609152189000,2.92618896484375,0.3629047274589538,0.0230906009674072,-0.0346970669925212,-0.22618027557565978,0.28684383637006333
1789139609162162200,2.936162109375,0.3595989942550659,0.1011755168437957,-0.1058880314230918,-0.28304735954686844,0.2657901227097569
1789139609172134100,2.946134033203125,0.3861823976039886,0.0889995470643043,-0.1070126891136169,-0.2884297694078779,0.29209201863019546
1789139609182107000,2.95610693359375,0.3514386713504791,0.101315289735794,-0.0502746328711509,-0.28214712797404495,0.23810599434110194
1789139609192080100,2.966080078125,0.343858540058136,0.1297083050012588,-0.0509729161858558,-0.3008158248585224,0.21718889855696893
1789139609202053000,2.97605322265625,0.3155888617038727,0.1064632534980773,-0.0216923188418149,-0.26752089868263174,0.1995842665184658
1789139609212026000,2.986026123046875,0.3563283085823059,0.0728429779410362,0.0023903800174593,-0.2653180687545042,0.24877298736288345
1789139609221999000,2.9959990234375,0.2476579248905182,0.1181710585951805,0.0921287015080452,-0.24536565288184625,0.15356510306058135
1789139609231972000,3.00597216796875,0.2570980191230774,0.0571937188506126,0.0426330603659153,-0.1979261821937701,0.1789226568977096
1789139609241945000,3.015945068359375,0.1929575949907302,0.0853248238563537,0.0349595062434673,-0.18323375756858606,0.11027473053609385
1789139609251918000,3.02591796875,0.1934143155813217,0.0693362727761268,0.0341198109090328,-0.17043639959898216,0.1197172142278661
1789139609261891000,3.03589111328125,0.1888601183891296,0.077513113617897,0.0439545214176178,-0.17511050713058285,0.11377494164454217
1789139609271864000,3.045864013671875,0.2696838676929474,0.1062768474221229,-0.0373163670301437,-0.23980278662384444,0.16706672788912724
1789139609281837000,3.055837158203125,0.2511760592460632,0.1267782300710678,-0.0294537525624036,-0.2463074430427576,0.13914847969015134
1789139609291809000,3.06580908203125,0.2333437949419021,0.1187048554420471,-0.0269280113279819,-0.2296040051737866,0.12863626217222526
1789139609301782000,3.075781982421875,0.2295689880847931,0.1158968433737754,-0.0513953939080238,-0.22351008492715935,0.13718136551695437
1789139609311755300,3.08575537109375,0.284982681274414,0.1375992149114608,-0.0348023027181625,-0.2742888633201766,0.16163382165752538
1789139609321728000,3.09572802734375,0.2896454036235809,0.2075544446706771,-0.0406883805990219,-0.33349438122048464,0.13194828287233287
1789139609331701000,3.105700927734375,0.3003659844398498,0.2023988366127014,-0.0186978597193956,-0.33695935541501465,0.13413804988547848
1789139609341674000,3.115674072265625,0.3588812053203583,0.2057583630084991,-0.0014468047302216,-0.37465375432223774,0.17541060713739684
1789139609351647200,3.125647216796875,0.4271276593208313,0.2302775532007217,-0.0225907061249017,-0.4326275551461217,0.2209287835401137
1789139609361620200,3.1356201171875,0.4435383081436157,0.2626360356807709,-0.0200931932777166,-0.46859780835888304,0.2156936448909874
1789139609371593000,3.145593017578125,0.4673597514629364,0.279846727848053,-0.0137226451188325,-0.4967867360025509,0.22389858931165496
1789139609381566000,3.15556591796875,0.4981655478477478,0.3015354871749878,-0.0449200831353664,-0.5301536773125695,0.24504582303959416
1789139609391539200,3.165539306640625,0.4605779647827148,0.3256394863128662,0.019390994682908,-0.5323205343271502,0.1875739750017174
1789139609401512200,3.17551220703125,0.4563240110874176,0.3010688126087188,0.0403621159493923,-0.5112719259286493,0.19774769576825754
1789139609411484000,3.18548388671875,0.4415120482444763,0.3011809289455414,0.0323372147977352,-0.5022697833858822,0.18550903175831066
1789139609421457200,3.19545703125,0.44013312458992,0.3080501556396484,0.0645613819360733,-0.5092053333334456,0.18300318656561074
1789139609431430100,3.20543017578125,0.3915362954139709,0.2840311229228973,0.06850366294384,-0.4618481349433124,0.15925891341286186
1789139609441403100,3.215403076171875,0.3997889161109924,0.2576141357421875,0.0459685251116752,-0.44362898265009354,0.17748986290259525
1789139609451376000,3.225376220703125,0.3734744787216186,0.2665077745914459,0.0797589793801307,-0.4379062953247214,0.15845867436277408
1789139609461349000,3.23534912109375,0.3262118995189667,0.2713118493556976,0.0353997722268104,-0.41155045475401525,0.1091040331704307
1789139609471322000,3.245322021484375,0.2678359448909759,0.2381480187177658,0.0275266673415899,-0.35031733888841204,0.08053602724194467
1789139609481295000,3.255295166015625,0.2193639725446701,0.1928630769252777,0.0662147104740142,-0.2880468485352923,0.08203730751132839
1789139609491268000,3.26526806640625,0.1722055077552795,0.190183937549591,0.0143760181963443,-0.2551663558980001,0.03035568678249811
1789139609501241000,3.275240966796875,0.1571036130189895,0.1850162297487259,0.0029228280764073,-0.24147378162733296,0.024728651492005913
1789139609511214000,3.285214111328125,0.138482004404068,0.1681549549102783,0.0345582515001297,-0.21910348777385258,0.02532368055250831
1789139609521187000,3.29518701171875,0.1211944594979286,0.1620355397462844,0.0291811451315879,-0.20377820073632996,0.016419418068847016
1789139609531159000,3.305158935546875,0.073269285261631,0.1528742611408233,0.0356417074799537,-0.16906231476294814,0.03777820696093638
1789139609541132000,3.315132080078125,0.0677453503012657,0.1437004655599594,0.0164349898695945,-0.15712974450929285,0.028628806682226813
1789139609551105000,3.32510498046875,0.0769937112927436,0.1289929002523422,0.002016901737079,-0.1495509166023587,0.014345421923123861
1789139609561078000,3.335078125,0.1091776043176651,0.1259746700525283,-0.0016424255445599,-0.16544998562961205,0.02045401173898663
1789139609571051000,3.345051025390625,0.0731128081679344,0.1324506849050521,0.0288931131362915,-0.15190979142943484,0.02543410907798275
1789139609581024300,3.355024169921875,0.0245894640684127,0.1195452660322189,0.0261270124465227,-0.11318857519448249,0.052599235723625196
1789139609590997000,3.3649970703125,-0.0065817693248391,0.1331686675548553,0.0157702453434467,-0.10556822577062554,0.08295338481108348
1789139609600970000,3.374969970703125,0.0017644655890762,0.1354682743549347,0.0466892160475254,-0.1143196476279712,0.08640409571813072
1789139609610943000,3.38494287109375,0.0027061593718826,0.1454878747463226,0.0489023029804229,-0.123161245406652,0.0916339885818532
1789139609620916200,3.394916259765625,0.007017464376986,0.1151983141899108,0.094307042658329,-0.10403657031409447,0.10672444298622522
1789139609630889200,3.40488916015625,0.0446207672357559,0.132221519947052,0.0513201691210269,-0.13675176026260907,0.058363165005891164
1789139609640862000,3.414862060546875,0.0278654340654611,0.1355901807546615,-0.0007426245138049,-0.12634443503640627,0.056558065377434553
1789139609650834200,3.424834228515625,0.0602755732834339,0.160451054573059,0.0340297371149063,-0.1676096108526731,0.04942395174587411
1789139609660807200,3.43480712890625,0.0342766642570495,0.1840913742780685,0.0421962179243564,-0.1723589713403078,0.08448330960496947
1789139609670780200,3.4447802734375,0.0734525620937347,0.186033084988594,-0.0063683879561722,-0.1933440767694699,0.05159662713617081
1789139609680753000,3.4547529296875,0.0833493992686271,0.2083873897790908,0.0256641134619712,-0.2193785105333498,0.05389009568874045
1789139609690726100,3.46472607421875,0.0998021438717842,0.2275027632713318,0.0505436323583126,-0.24609062285080752,0.06092650764954292
1789139609700699100,3.47469921875,0.0916863232851028,0.2312109023332595,0.0581724606454372,-0.24492487051176498,0.07253072602449637
1789139609710672100,3.484672119140625,0.1161554455757141,0.2590081691741943,0.0465629436075687,-0.28090264535860854,0.061960719684313895
1789139609720645000,3.49464501953125,0.1431303918361663,0.2769820392131805,0.0838967561721801,-0.3135955217676434,0.07682365220008798
1789139609730618000,3.5046181640625,0.1648018658161163,0.2813376486301422,0.0719298422336578,-0.32886498046368823,0.05772568182003067
1789139609740591000,3.514591064453125,0.1556882709264755,0.2787063717842102,0.0459820255637168,-0.3197312228111212,0.04245434267352973
1789139609750564000,3.524564208984375,0.1867583096027374,0.276958554983139,0.0704873651266098,-0.3378946371923909,0.048789242493964546
1789139609760537000,3.534537109375,0.1863601058721542,0.2952433824539184,0.0459758788347244,-0.35090629050925887,0.029619261624290173
1789139609770509000,3.544509033203125,0.1524183750152588,0.2748883068561554,0.0048683900386095,-0.31199951264113546,0.03840504682718005
1789139609780482000,3.55448193359375,0.109028935432434,0.2435788959264755,0.0003930092789232,-0.2611610420462613,0.054891273221659785
1789139609790455000,3.564455078125,0.0795402824878692,0.2374237924814224,-0.0119563350453972,-0.2382921528003536,0.0778236316037891
1789139609800428000,3.574427978515625,0.0243717730045318,0.2280328273773193,0.021133255213499,-0.20097622306627688,0.11246388717722558
1789139609810401300,3.5844013671875,0.0069195465184748,0.189019113779068,-0.0166053343564271,-0.15664497920320575,0.10730420829287904
1789139609820374000,3.5943740234375,-0.0013706972822546,0.1585089266300201,0.004194650799036,-0.12842126617048577,0.09301898796985364
1789139609830347000,3.604346923828125,-0.0241319350898265,0.1562937051057815,0.0315756760537624,-0.11528906101040567,0.11276315123507186
1789139609840320000,3.614320068359375,-0.1297122687101364,0.1226437836885452,0.0330234728753566,-0.027003519106719318,0.17952194865245796
1789139609850293200,3.624293212890625,-0.1618004292249679,0.0670702680945396,0.0502839535474777,0.03559457666187404,0.1787157012024521
1789139609860266000,3.634265869140625,-0.1822632402181625,0.0787806510925293,0.021634442731738,0.039800614876325524,0.19573001785409846
1789139609870239000,3.644239013671875,-0.2024739682674408,0.0514134801924228,0.0287743769586086,0.073265286653033,0.19773521768381647
1789139609880212000,3.6542119140625,-0.26238614320755,0.0203910730779171,0.0344777442514896,0.13274060670288898,0.2298497991937821
1789139609890184200,3.66418408203125,-0.2646631598472595,0.0033023674041032,0.0110139613971114,0.14951840306876912,0.2186848149740395
1789139609900157000,3.674156982421875,-0.2660579681396484,-0.0044586057774722,-0.0015780789544805,0.15747544125885102,0.21450104267717163
1789139609910130000,3.6841298828125,-0.2627646923065185,-0.0248863827437162,0.0269718058407306,0.17028847735387115,0.20345497870491216
1789139609920103200,3.694103271484375,-0.2626517117023468,-0.0452474541962146,0.0545028075575828,0.18495282857643996,0.19949000226739225
1789139609930076200,3.704076171875,-0.267861396074295,-0.0362843200564384,-0.0022124024108052,0.18444742085849297,0.19761154584665772
1789139609940049200,3.714049072265625,-0.3061185777187347,-0.0217551998794078,0.0235328059643507,0.1930227953428999,0.2397454186859527
1789139609950022000,3.72402197265625,-0.3344508707523346,-0.0209173671901226,0.0370062701404094,0.20781654257082446,0.2654744241179834
1789139609959995100,3.7339951171875,-0.3289810717105865,-0.0265101864933967,0.0027749200817197,0.21148349060674998,0.25340435851422394
1789139609969968000,3.743968017578125,-0.3300181031227112,-0.0062499223276972,0.0076290629804134,0.19527957977666233,0.2662237747497845
1789139609979941000,3.753941162109375,-0.3129061460494995,-0.0124778095632791,-0.0025117022451013,0.1911321421102126,0.24807411164322998
1789139609989914000,3.7639140625,-0.2788816094398498,-0.0014733613934367,-0.0080401580780744,0.16288754002528444,0.22651581914733546
1789139609999887000,3.77388720703125,-0.255822479724884,0.0155139937996864,0.0098566748201847,0.13455360790693358,0.21835362551133294
1789139610009860000,3.783860107421875,-0.2409130334854126,0.0180043168365955,-0.0089702764526009,0.125165497563897,0.2068267613417428
1789139610019832000,3.79383203125,-0.2119867354631424,0.0022805235348641,0.0084452601149678,0.12008107409339154,0.17491550778275852
1789139610029805000,3.80380517578125,-0.2221440374851226,0.0285387597978115,0.0359860770404338,0.10275851406248636,0.20223283543830997
1789139610039778000,3.813778076171875,-0.1989451944828033,0.0226008892059326,0.0042778244242072,0.096293330394182,0.17560149459529242
1789139610049751000,3.8237509765625,-0.1829127073287964,0.0159685537219047,0.0174628682434558,0.09154611235765095,0.16011344193979446
1789139610059724000,3.83372412109375,-0.1569995880126953,0.0229648910462856,0.0472124069929122,0.06890095550202714,0.15052550136736262
1789139610069697000,3.843697021484375,-0.1444907188415527,0.0331602692604064,0.0246977731585502,0.05487804980559837,0.13991265467175137
1789139610079670300,3.853670166015625,-0.1332805454730987,0.0257530696690082,0.0343601144850254,0.05378220093547355,0.1292865682464498
1789139610089643000,3.86364306640625,-0.1310655921697616,0.0305118709802627,-0.0085399495437741,0.051486766687684996,0.12462426455463868
1789139610099616000,3.873615966796875,-0.154778316617012,0.031740516424179,-0.0131074972450733,0.06449396007601557,0.14483136150507078
1789139610109589000,3.883589111328125,-0.1766077131032943,0.0055339466780424,0.0321297571063041,0.09541421153057665,0.15214913217997464
1789139610119562200,3.893562255859375,-0.1903689056634903,-0.013581839390099,0.0238973926752805,0.11946330420172611,0.15074611414764796
1789139610129535200,3.90353515625,-0.1939250230789184,0.0138082392513751,-0.0417607128620147,0.10360877825424239,0.16972554390777222
1789139610139507000,3.9135068359375,-0.179163321852684,-0.0041248793713748,-0.0004077424237038,0.10691332972940853,0.14382703746921746
1789139610149480200,3.923480224609375,-0.1596825718879699,-0.040159311145544,0.0115583734586834,0.12417085477710946,0.10874966141268523
1789139610159453200,3.933453125,-0.1913153827190399,-0.0248347055166959,-3.93880181945e-05,0.13075673849342792,0.14184856415561983
1789139610169426200,3.94342626953125,-0.1999418884515762,-0.031092869117856,-0.0422454327344894,0.14364133982133,0.1486451053644893
1789139610179399000,3.95339892578125,-0.2407867014408111,-0.063971146941185,-0.0354310125112533,0.1935340840117546,0.16084296131637432
1789139610189372200,3.9633720703125,-0.2917726635932922,-0.0578900836408138,0.0190332941710948,0.21442517367823222,0.2070426530556645
1789139610199345200,3.97334521484375,-0.2767354249954223,-0.1028402224183082,0.0769332200288772,0.23844530446850626,0.19031858531256765
1789139610209318100,3.983318115234375,-0.2574520111083984,-0.1365033686161041,0.0212766174226999,0.25838892512041844,0.13639122219325409
1789139610219291000,3.993290771484375,-0.2419188022613525,-0.143525093793869,-0.0090257711708545,0.2571414430767746,0.11438488638683345
1789139610229264100,4.00326416015625,-0.3108760416507721,-0.1564086675643921,0.0664452835917472,0.3024453776426716,0.18452466993844102
1789139610239237000,4.013237060546875,-0.3275733888149261,-0.1679839193820953,-0.0301373451948165,0.3279380578282761,0.16996414926058623
1789139610249210000,4.023210205078125,-0.3633526861667633,-0.1541908979415893,-0.0904478281736373,0.34140811888388134,0.21776435322185622
1789139610259183000,4.03318310546875,-0.3696672320365906,-0.1815761476755142,-0.0088548613712191,0.36190194634779826,0.19679722977179712
1789139610269156000,4.043156005859375,-0.3594867587089538,-0.1909821629524231,-0.0366108603775501,0.36551752551407407,0.18287211349111746
1789139610279128000,4.053128173828125,-0.3491047024726867,-0.1895568519830703,-0.0898913890123367,0.36190510532085274,0.18684498918500458
1789139610289101000,4.06310107421875,-0.3527186214923858,-0.1998291909694671,0.0064228950068354,0.3659385522744664,0.174563343948657
1789139610299074000,4.073073974609375,-0.3455100655555725,-0.2277975380420684,0.0179026797413826,0.38375892607674744,0.1559439525489451
1789139610309047000,4.083047119140625,-0.3125528991222381,-0.2167970836162567,-0.0498484037816524,0.36027584698597526,0.13181983026975486
1789139610319020000,4.09302001953125,-0.3322289884090423,-0.2296057045459747,-0.0166670177131891,0.3798560779099647,0.13813772060396676
1789139610328993000,4.102992919921875,-0.3443256020545959,-0.2194436192512512,0.0393033102154731,0.37485483176692835,0.16656598558898386
1789139610338966000,4.112966064453125,-0.3124094307422638,-0.1862849444150924,0.0002446065773256,0.3320396458527386,0.1484973614136124
1789139610348939300,4.122939208984375,-0.2926245331764221,-0.1973636895418167,0.0233318172395229,0.328081781180802,0.1322431923359703
1789139610358912000,4.132912109375,-0.2958661913871765,-0.2058295309543609,0.0467700138688087,0.3352812467234302,0.14027301526564703
1789139610368885000,4.142885009765625,-0.2888287901878357,-0.1829742789268493,0.0290386863052845,0.31380391955681497,0.13882363690411664
1789139610378858000,4.15285791015625,-0.2868987321853637,-0.1957369297742843,0.0137204090133309,0.3240895723105608,0.1256106163908253
1789139610388831200,4.162831298828125,-0.2609257400035858,-0.1840784102678299,0.016202475875616,0.2994324109434481,0.11211536212421717
1789139610398804200,4.17280419921875,-0.2017846554517746,-0.1859266012907028,0.0079055000096559,0.2673128626759843,0.06238652596255363
1789139610408776000,4.18277587890625,-0.2030190378427505,-0.1762904822826385,-0.0295699704438447,0.2626822958600511,0.06455585537953834
1789139610418749200,4.192749267578125,-0.1924924999475479,-0.1810227185487747,-0.057353276759386,0.2622979766975163,0.06566396989425437
1789139610428722200,4.20272216796875,-0.1818928569555282,-0.16726616024971,-0.0088600441813468,0.2417553772264457,0.05192126482589079
1789139610438695200,4.212695068359375,-0.1476480662822723,-0.1381268054246902,-0.0262007433921098,0.19941843852418195,0.042399660194401965
1789139610448668000,4.22266796875,-0.153536319732666,-0.0976904332637786,-0.0200784020125865,0.16952180862871793,0.06915432636461434
1789139610458641200,4.23264111328125,-0.0885501205921173,-0.149961307644844,0.007308991625905,0.1726642519537021,0.023874570222018412
1789139610468614100,4.2426142578125,-0.0750569477677345,-0.1352888941764831,0.0242778547108173,0.15180286537871934,0.038495903520686936
1789139610478587100,4.252587158203125,-0.071594625711441,-0.1268407702445984,0.0260750986635684,0.14281064937240595,0.03872209476708203
1789139610488560000,4.26256005859375,-0.0851370692253112,-0.1334097236394882,0.0256529878824949,0.1560076625633132,0.03696160070493275
1789139610498533000,4.272533203125,-0.0543733015656471,-0.1606587618589401,0.0267495959997177,0.16032246801336328,0.061481223324269085
1789139610508506000,4.282506103515625,-0.0573413893580436,-0.1470135301351547,0.0328695438802242,0.15053097418964007,0.05763545524000564
1789139610518479000,4.29247900390625,-0.0711293220520019,-0.1515713930130005,0.0083698322996497,0.16383657139373975,0.03550914814730336
1789139610528452000,4.3024521484375,-0.0558824613690376,-0.1488336622714996,-0.0081076780334115,0.15389586055059395,0.04069529533366707
1789139610538424000,4.312424072265625,-0.0418806299567222,-0.1457779705524444,-0.0121426340192556,0.14358779820751696,0.05035068649784444
1789139610548397000,4.32239697265625,-0.0415906086564064,-0.1422687172889709,0.0185676086694002,0.13852166640182573,0.0559166404250181
1789139610558370000,4.3323701171875,-0.0225353259593248,-0.1481737494468689,0.0439934208989143,0.1306213646303869,0.08565501226268687
1789139610568343000,4.342343017578125,0.034319169819355,-0.1444700807332992,0.0236878842115402,0.0961064323508992,0.11564635386979172
1789139610578316000,4.35231591796875,0.0397888869047164,-0.1415990591049194,0.0025734207592904,0.09201573133550744,0.11477446031984131
1789139610588289000,4.3622890625,0.049065738916397,-0.1295961886644363,-0.0051926230080425,0.07740857019351036,0.11505431519964923
1789139610598262000,4.372261962890625,0.0677430182695388,-0.1173091605305671,-0.0101165417581796,0.05694898941258209,0.12332766393102576
1789139610608235000,4.382235107421875,0.0926805958151817,-0.0975836589932441,-0.0169869661331176,0.026950809657524,0.13294538059059602
1789139610618208300,4.392208251953125,0.1273191720247268,-0.0770554170012474,-0.0427611470222473,-0.00804791449450308,0.15463329402572243
1789139610628181000,4.402180908203125,0.1730174273252487,-0.0706840753555297,-0.0614301711320877,-0.03839498561218405,0.1929527394785357
1789139610638154000,4.412154052734375,0.1760079711675644,-0.0303568989038467,-0.0420083254575729,-0.07421868049364576,0.16779938646822296
1789139610648127000,4.422126953125,0.1861562132835388,-0.002499968977645,-0.0140613792464137,-0.10460239820993292,0.15464943020909477
1789139610658100200,4.432100341796875,0.202814981341362,-0.0079510221257805,-0.0194397959858179,-0.10943682643066996,0.17204250084817793
1789139610668072000,4.442072021484375,0.2321113497018814,0.023994393646717,-0.0400950089097023,-0.15097617181705372,0.18238754033606372
1789139610678045000,4.452044921875,0.2662667632102966,0.0344858020544052,-0.004379479214549,-0.18162425119778575,0.19778541642107503
1789139610688018200,4.46201806640625,0.2971328198909759,0.0529953017830848,0.0263368878513574,-0.21656087601781476,0.21187598567920574
1789139610697991200,4.4719912109375,0.3112773895263672,0.0838276743888855,0.0230009313672781,-0.24959202020814605,0.2053133179216034
1789139610707964200,4.481964111328125,0.321746826171875,0.11114452034235,0.0115996729582548,-0.2771030446058555,0.19804691271693564
1789139610717937000,4.49193701171875,0.3297903537750244,0.1308598965406417,-0.0072536435909569,-0.2965330571372964,0.19495320293813273
1789139610727910100,4.50191015625,0.3586491644382477,0.1486926972866058,0.0147070493549108,-0.3291765690030439,0.20639240562271544
1789139610737883100,4.511883056640625,0.3677676618099212,0.1758361011743545,0.0126990051940083,-0.35639106596341796,0.19828782207616913
1789139610747856100,4.521856201171875,0.3958996832370758,0.1752912253141403,-0.0102193597704172,-0.37067873655036754,0.22397607560382443
1789139610757829000,4.5318291015625,0.4233508110046386,0.1830920577049255,-0.0027126902714371,-0.3933865683111013,0.24083807284944178
1789139610767802000,4.541802001953125,0.4061718285083771,0.2009349763393402,-0.0040397434495389,-0.39788499603714145,0.21691995861605665
1789139610777775000,4.551775146484375,0.3612180054187774,0.2088846415281295,0.00250501697883,-0.3788100963551678,0.17498693355364503
1789139610787748000,4.561748046875,0.3523832261562347,0.2318445593118667,-0.0485395267605781,-0.3889833963035815,0.17021704032517282
1789139610797720300,4.57172021484375,0.3194074928760528,0.2517422437667846,-0.0059121279045939,-0.3889505039937534,0.1189443672540505
1789139610807693000,4.581693115234375,0.3005605638027191,0.2267511188983917,0.0449270829558372,-0.361115222087804,0.11561557678132155
1789139610817666000,4.591666015625,0.3049021363258362,0.2212522029876709,0.0109923696145415,-0.3568924461520843,0.12110517797468699
1789139610827639000,4.60163916015625,0.3048930764198303,0.2228069603443145,-0.0421888269484043,-0.354612183647667,0.1365021097072758
1789139610837612000,4.611612060546875,0.2719464004039764,0.1870168596506118,-4.707602784e-06,-0.3092690862555473,0.11525095572305187
1789139610847585300,4.621585205078125,0.2063266485929489,0.1760808527469635,0.0158541500568389,-0.2635101946166706,0.0662486530489884
1789139610857558000,4.63155810546875,0.1449338942766189,0.1867673546075821,-0.00938599742949,-0.23504654657111246,0.027001784201061942
1789139610867531000,4.641531005859375,0.1314125061035156,0.187888815999031,-0.0567463226616382,-0.2249930600292009,0.07190077894042192
1789139610877504000,4.65150390625,0.1039790511131286,0.1725846081972122,-0.0057306629605591,-0.20008725131843752,0.024393081289000758
1789139610887477200,4.661477294921875,0.1199851781129837,0.1449937224388122,-0.0317577384412288,-0.18516123205958662,0.04629788987140932
1789139610897450000,4.671449951171875,0.0999985933303833,0.1149605736136436,-0.0508496761322021,-0.14791155515951543,0.06263795627793761
1789139610907423000,4.681423095703125,0.0578253120183944,0.0859811231493949,-0.0387357547879219,-0.10077525495568079,0.04562156217912345
1789139610917396000,4.69139599609375,-0.0034306021407246,0.0546188838779926,0.0131471753120422,-0.043320691893053175,0.03593267843785533
1789139610927369200,4.701369140625,-0.0340918414294719,0.0429968498647213,0.0386626534163951,-0.017847561222507358,0.06470894897884512
1789139610937341000,4.7113408203125,-0.0818424224853515,0.0067280670627951,0.0467756278812885,0.03870720524910319,0.08621577947316146
1789139610947314000,4.72131396484375,-0.0925246253609657,-0.0164366401731967,0.0310978610068559,0.06476610788128659,0.07485584591387287
1789139610957287200,4.731287109375,-0.1016501784324646,-0.0208455901592969,0.0237303730100393,0.07411607726461047,0.07640180036192315
1789139610967260200,4.74126025390625,-0.147789180278778,-0.0397630892693996,0.0391285046935081,0.11514082554510086,0.10814978154421727
1789139610977233200,4.751233154296875,-0.1688545942306518,-0.0466531552374362,0.0269228629767894,0.13373054742659593,0.11631582919902324
1789139610987206000,4.761205810546875,-0.1777969598770141,-0.0369182340800762,0.0254434775561094,0.1310778625365694,0.12822121295671915
1789139610997179100,4.77117919921875,-0.2190317660570144,-0.029711402952671,0.023535693064332,0.1491705285416998,0.1648021974067065
1789139611007152000,4.781152099609375,-0.2440156787633896,-0.0563741698861122,0.06145591288805,0.18277173711347028,0.18191486979940394
1789139611017125000,4.791125,-0.2552208304405212,-0.0545976944267749,0.082788772881031,0.18638180634285567,0.2005851034024958
1789139611027098000,4.80109814453125,-0.2617325186729431,-0.0759653002023696,0.0401579551398754,0.2103629206857092,0.177861578558476
1789139611037071000,4.811071044921875,-0.2615561485290527,-0.082751490175724,0.0556993037462234,0.21474659917162253,0.1795709846876476
1789139611047044000,4.821044189453125,-0.2741310596466064,-0.0985064879059791,0.108734555542469,0.23129853995013683,0.2077872830769374
1789139611057017000,4.83101708984375,-0.2861411869525909,-0.1114438846707344,0.0740324035286903,0.2510719546830606,0.1916773034164544
1789139611066990000,4.840989990234375,-0.2969134151935577,-0.1014021635055542,0.0232773460447788,0.2525068609957434,0.18767550419400456
1789139611076963000,4.850963134765625,-0.2925760149955749,-0.0830387026071548,0.0091214161366224,0.236005482564783,0.19204364897874576
1789139611086935000,4.86093505859375,-0.3234716057777405,-0.0869724601507186,-0.0103276493027806,0.2583530488958339,0.21344425744312348
1789139611096908000,4.870907958984375,-0.3268018960952759,-0.1044122725725174,0.0092161437496542,0.2731625362384462,0.20777046964527704
1789139611106881000,4.880881103515625,-0.304822027683258,-0.0854755938053131,-0.0348975211381912,0.2479940142643281,0.19984832140390504
1789139611116854300,4.890854248046875,-0.2615791261196136,-0.0941343158483505,-0.0382154546678066,0.23026976933407858,0.16037818725760417
1789139611126827000,4.900826904296875,-0.2574115693569183,-0.0974611341953277,-0.0283622927963733,0.22991179222528976,0.15396225565330496
1789139611136800000,4.910800048828125,-0.2549234926700592,-0.108632817864418,-0.0078709507361054,0.23619740849974968,0.14511999281890184
1789139611146773000,4.92077294921875,-0.2760940194129944,-0.1196047738194465,0.0842461884021759,0.2512245195269235,0.18578716458567646
1789139611156746200,4.930746337890625,-0.2726486325263977,-0.1212845668196678,0.0937143117189407,0.24996976042019342,0.18800189909566076
1789139611166719500,4.940719482421875,-0.2371140718460083,-0.1261839866638183,0.0325510837137699,0.23749208835996174,0.12962469893941375
1789139611176692500,4.9506923828125,-0.2232729494571685,-0.1369802206754684,0.0337446518242359,0.23819630369003617,0.11408599059808484
1789139611186665500,4.96066552734375,-0.2156030386686325,-0.1345253139734268,0.0434934198856353,0.23111844820503993,0.11427016607776222
1789139611196638500,4.970638427734375,-0.1652473956346511,-0.1576339602470398,0.0110873198136687,0.22297397381091666,0.050603387740540295
1789139611206611500,4.980611572265625,-0.1665371656417846,-0.1316825300455093,-0.0222527924925088,0.20482898621948792,0.06012644540630313
1789139611216584400,4.99058447265625,-0.1723578125238418,-0.1452901810407638,-0.0221156291663646,0.21925208260908952,0.05686895084193887
1789139611226556400,5.000556396484375,-0.1646873652935028,-0.1413849294185638,-0.0531438514590263,0.21370826173438556,0.0653044743365591
1789139611236529400,5.010529296875,-0.1428778022527694,-0.1578066498041153,-0.0422591194510459,0.21373869152493224,0.037664439740526925
1789139611246502400,5.02050244140625,-0.1639580577611923,-0.1321774572134018,-0.0349170491099357,0.20458413383537227,0.060972595496659614
1789139611256475400,5.030475341796875,-0.1813591569662094,-0.1464632451534271,-0.0268529728055,0.22572308642018457,0.06413108763934919
1789139611266448400,5.040448486328125,-0.1556668430566787,-0.1776185035705566,-0.0050933500751852,0.23477055132402974,0.026253176643522003
1789139611276421600,5.050421630859375,-0.1254741549491882,-0.159539982676506,-0.006654392927885,0.2027219615798937,0.012035650006190377
1789139611286394400,5.060394287109375,-0.107901819050312,-0.1622492223978042,-0.0194934923201799,0.1956259551912844,0.008837116124217519
1789139611296367400,5.070367431640625,-0.0829447507858276,-0.2025887966156005,0.0236952994018793,0.21114267518245847,0.062468312988424216
1789139611306340400,5.08034033203125,-0.0726324617862701,-0.1837775707244873,0.003651815932244,0.19121631039404346,0.049993283603097516
1789139611316313600,5.090313720703125,-0.0608727782964706,-0.1869815737009048,-0.0478387922048568,0.19045425285607448,0.06843487159228162
1789139611326286600,5.10028662109375,-0.0715728253126144,-0.1967604309320449,0.0072662704624235,0.20092391869456122,0.05932717831355607
1789139611336259300,5.11025927734375,-0.0740731656551361,-0.1774438470602035,0.0057424153201282,0.18675771397488827,0.046126828790637495
1789139611346232300,5.120232421875,-0.0718305185437202,-0.1598153114318847,-0.0274576172232627,0.17333216671603494,0.0375557969884
1789139611356205600,5.13020556640625,-0.0188345238566398,-0.1607582867145538,-0.0575097687542438,0.14547529383465596,0.09133607404630509
1789139611366177500,5.140177490234375,-0.0102466270327568,-0.1716399639844894,-0.0137883881106972,0.14645401238102496,0.09114061940943263
1789139611376150300,5.150150390625,0.0167653411626815,-0.1439715027809143,-0.0337062329053878,0.10966460229184848,0.10059152756638537
1789139611386123500,5.16012353515625,0.0339014492928981,-0.1438340842723846,-0.0042191813699901,0.0976879549483462,0.11096133115674635
1789139611396096500,5.170096435546875,0.0889002308249473,-0.1204830631613731,-0.0022694347426295,0.046782542743009164,0.1422531671985756
1789139611406069500,5.180069580078125,0.1181819513440132,-0.0802016854286193,-0.0408583730459213,-0.0003353127147192464,0.148554966872242
1789139611416042500,5.19004248046875,0.1597001701593399,-0.0691730380058288,-0.0449580438435077,-0.033024980934490786,0.17669077473481526
1789139611426015500,5.200015380859375,0.1841890066862106,-0.0528688952326774,0.0851996913552284,-0.06910133448610642,0.19800177586689008
1789139611435988500,5.209988525390625,0.2137113064527511,-0.0138278724625706,0.0665128231048584,-0.11667394766849602,0.19150686184941274
1789139611445961500,5.21996142578125,0.2194850444793701,0.003330341540277,0.0060321702621877,-0.12994161985211944,0.17702072882339306
1789139611455934500,5.2299345703125,0.2544907033443451,0.0156759042292833,0.0258332006633281,-0.16152996838446756,0.19896400587123747
1789139611465907500,5.239907470703125,0.2754798531532287,0.0419442579150199,0.0132678747177124,-0.1941895491742365,0.2002871083130361
1789139611475880400,5.24988037109375,0.2728002071380615,0.0460378602147102,-0.0050086276605725,-0.1947544389834315,0.19655847077907782
1789139611485853400,5.259853515625,0.3008669912815094,0.0574484393000602,-0.0641664937138557,-0.21631713265179697,0.22615372351043816
1789139611495826400,5.269826416015625,0.3109440505504608,0.0608671195805072,-0.048247542232275,-0.2259806116509416,0.22726987769626833
1789139611505799400,5.27979931640625,0.3095059394836426,0.0660512298345565,-0.0054489444009959,-0.23221507956052456,0.21508728311570172
1789139611515771400,5.289771484375,0.3114927411079407,0.0665924549102783,-0.0090610533952713,-0.2335629922197915,0.21677802971677176
1789139611525744400,5.299744384765625,0.2758577764034271,0.0971373170614242,-0.0414253808557987,-0.23566266997780466,0.17807958705622365
1789139611535717400,5.30971728515625,0.2663538753986358,0.0760261639952659,-0.0317120850086212,-0.21364506587647358,0.1791251146934409
1789139611545690600,5.319690673828125,0.2729188203811645,0.0615505464375019,-0.0096592484042048,-0.20713174986057054,0.18831593550316866
1789139611555663400,5.329663330078125,0.264679878950119,0.0803469717502594,-0.0304334703832864,-0.21627746365697986,0.17510376644767173
1789139611565636400,5.33963623046875,0.2513073682785034,0.0782513245940208,-0.0393814258277416,-0.2062498458169838,0.1681979814161944
1789139611575609300,5.349609375,0.2649393379688263,0.0441082380712032,-0.0501303561031818,-0.1856391183246767,0.20047333942391043
1789139611585582600,5.35958251953125,0.2236931025981903,0.056763045489788,-0.0086076781153678,-0.17486202956552846,0.1508575825805328
1789139611595555600,5.3695556640625,0.1742492467164993,0.0534499548375606,0.0247765183448791,-0.14581760211755815,0.11211958092761648
1789139611605528300,5.3795283203125,0.1678294241428375,0.031762771308422,-0.0346194319427013,-0.12051374928971377,0.12589889018366643
1789139611615501300,5.389501220703125,0.1722927093505859,0.0248838681727647,-0.0041633322834968,-0.11952459717623223,0.12663012515261615
1789139611625474600,5.399474609375,0.1581987291574478,0.0165444463491439,0.048584833741188,-0.10810771108601425,0.12638736283914218
1789139611635447600,5.409447509765625,0.1583911776542663,0.0339394249022007,0.024709777906537,-0.12077921787847982,0.11073663970994675
1789139611645420500,5.419420654296875,0.1169257536530494,0.0323636345565319,-0.0221858266741037,-0.09241498632924795,0.08167446305927346
1789139611655393300,5.429393310546875,0.0862493813037872,0.0350449234247207,0.0329772569239139,-0.0805410225966241,0.05716419846762945
1789139611665365500,5.439365478515625,0.1097341999411583,0.0433768890798091,0.0038033912423998,-0.09894749938597505,0.06439726153473761
1789139611675338500,5.44933837890625,0.1102041453123092,0.0661442652344703,-0.0419476702809333,-0.11469332050450098,0.0715895714547463
1789139611685311500,5.4593115234375,0.1577343791723251,0.0551840290427207,-0.0432880371809005,-0.13315456445251822,0.10985958111472054
1789139611695284500,5.469284423828125,0.1493024975061416,0.0639089494943618,-0.0135387061163783,-0.13735924025644342,0.08770020106318242
1789139611705257500,5.479257568359375,0.1366306394338607,0.0807787403464317,-0.0319259688258171,-0.14253507157885031,0.0767864400759727
1789139611715230500,5.48923046875,0.131387248635292,0.0812641754746437,-0.0205870494246482,-0.14065470798968827,0.06713087995754381
1789139611725203500,5.499203369140625,0.1251269578933715,0.0929586440324783,-0.0092017697170376,-0.14730744505974136,0.0518001379139404
1789139611735176400,5.509176513671875,0.0649671629071235,0.1048893705010414,-0.0026158946566283,-0.12268666145501333,0.013316842951051708
1789139611745149400,5.5191494140625,0.0785998851060867,0.0966743230819702,-0.0317506119608879,-0.12194298079715957,0.04076613148486913
1789139611755122400,5.529122314453125,0.0894551426172256,0.0972668007016182,0.0129676545038819,-0.13167411974211873,0.017121311657309214
1789139611765095400,5.539095458984375,0.0666707307100296,0.065463863313198,0.0711380168795585,-0.0965106312895875,0.06690903696018945
1789139611775068400,5.549068359375,0.0471902452409267,0.0782335549592971,0.0052283238619565,-0.09125389257326143,0.0068899076990430585
1789139611785041700,5.559041748046875,0.038277443498373,0.0671870335936546,0.0239215847104787,-0.07836231951430128,0.020269416846203894
1789139611795014400,5.569014404296875,0.0168597232550382,0.0688003599643707,0.0053636501543223,-0.06606303060875458,0.02611866247012231
1789139611804987400,5.5789873046875,-0.0201286561787128,0.0651262626051902,0.0262337774038314,-0.04308952265874452,0.05897539312625515
1789139611814959600,5.588959716796875,0.0378085672855377,0.048123262822628,-0.0487696826457977,-0.05774627597090791,0.0528127422289766
1789139611824932600,5.5989326171875,0.0215313285589218,0.0304201655089855,-0.0379708334803581,-0.034659075498720465,0.04036727956988669
1789139611834905300,5.6089052734375,0.0179655700922012,-0.0080209346488118,0.0025373217649757,-0.004026049068470073,0.019424881776103416
1789139611844878300,5.61887841796875,-0.0447843670845031,-0.0119437705725431,-0.0173490345478057,0.03674902401472148,0.03314802293283041
1789139611854851600,5.6288515625,-0.0701527446508407,-0.0461917147040367,-0.0344892181456089,0.08040709889678156,0.042181592011726714
1789139611864824600,5.638824462890625,-0.1347748786211013,-0.051106046885252,0.0340813212096691,0.11718292022223929,0.0905858465719403
1789139611874797300,5.64879736328125,-0.1608992964029312,-0.0784768015146255,0.0412979647517204,0.15406267354056877,0.10008699452521647
1789139611884770300,5.658770263671875,-0.1665230840444564,-0.0620205923914909,-0.0844258815050125,0.15229470776006693,0.12454132991277543
1789139611894743600,5.66874365234375,-0.1881650686264038,-0.0729876682162284,-0.0469433665275573,0.17122671978940868,0.11669782711739499
1789139611904716500,5.678716552734375,-0.186502993106842,-0.0963579788804054,0.0738043561577797,0.18123925896870174,0.12910321656747237
1789139611914689500,5.688689453125,-0.1763357371091842,-0.1076793000102043,0.018657274544239,0.1882435492626388,0.08718706261223907
1789139611924662300,5.698662353515625,-0.1652766913175583,-0.0820290595293045,-0.1085446178913116,0.16945505632566038,0.1308131081313327
1789139611934635500,5.708635498046875,-0.1539267748594284,-0.1218181028962135,-0.0047018262557685,0.1883498843925731,0.05549351702047193
1789139611944608500,5.7186083984375,-0.1373427361249923,-0.1203299313783645,0.080144353210926,0.17190886946222328,0.10105828765439827
1789139611954581500,5.72858154296875,-0.1388104110956192,-0.1031480133533477,0.0267431829124689,0.16233521905390524,0.0653476654080891
1789139611964553500,5.738553466796875,-0.1079068258404731,-0.1016569063067436,-0.0005962970899417,0.14508413742469087,0.030478817247018074
1789139611974526500,5.7485263671875,-0.102778747677803,-0.0718887224793434,0.0279859136790037,0.11600442843202456,0.055295961358289875
1789139611984499500,5.75849951171875,-0.119111381471157,-0.0560607612133026,0.0570700317621231,0.11063179349414727,0.0913669794695026
1789139611994472400,5.768472412109375,-0.0828427001833915,-0.0381226576864719,0.0114283692091703,0.07812033061766457,0.04841561287150148
1789139612004445400,5.778445556640625,-0.0647798106074333,-0.0153475683182477,-0.0367562063038349,0.05236398674851234,0.05514529272086518
1789139612014418400,5.78841845703125,-0.0475458987057209,0.0035033728927373,0.0314240120351314,0.022533506545963033,0.05246518579484269
1789139612024391400,5.798391357421875,-0.0159349739551544,0.0057063396088778,0.0739871859550476,-0.00035801910352915856,0.07589770230087071
1789139612034364400,5.808364501953125,0.0886314734816551,0.0409471914172172,-0.0560867376625537,-0.08079052398868017,0.07842718885533365
1789139612044337400,5.81833740234375,0.0829437673091888,0.0709956437349319,0.0060362881049513,-0.10608067114151558,0.02652127351825012
1789139612054310700,5.828310546875,0.0972722694277763,0.0710110962390899,0.0431534796953201,-0.11684356755349685,0.052098692113075294
1789139612064283400,5.838283447265625,0.0871815532445907,0.103714182972908,0.0142656378448009,-0.13569112290088814,0.012193546034371157
1789139612074256400,5.84825634765625,0.0856197774410247,0.0956020504236221,0.0296360664069652,-0.129213120169788,0.025549253263400167
1789139612084229400,5.8582294921875,0.1088467985391616,0.1025209426879882,0.0263143051415681,-0.14804190063497746,0.033677998059944175
1789139612094202600,5.86820263671875,0.1172572150826454,0.126653179526329,0.031761847436428,-0.17289412521503547,0.030111771647793394
1789139612104175600,5.878175537109375,0.1265220791101455,0.1195758357644081,0.0726621448993682,-0.17521334497866778,0.06990198884061707
1789139612114148400,5.8881484375,0.117423877120018,0.0988139659166336,0.075580395758152,-0.15326201826517194,0.07599813654502129
1789139612124120600,5.89812060546875,0.1199743822216987,0.1183738261461258,0.0330305360257625,-0.16781412274889196,0.03654656785692037
1789139612134093600,5.908093505859375,0.0874515026807785,0.1011130288243293,0.0382397547364234,-0.1353269848081899,0.031945202209120865
1789139612144066600,5.918066650390625,0.0933032631874084,0.0664503872394561,0.0595586262643337,-0.11193219243182678,0.06433946802384635
1789139612154039300,5.928039306640625,0.1060637980699539,0.0832934454083442,-0.0021551516838371,-0.12889881073344853,0.0397123227638442
1789139612164012300,5.93801220703125,0.0786129981279373,0.0692047923803329,0.0265934057533741,-0.1034896544843394,0.03108709390315696
1789139612173985000,5.947985107421875,0.0635120570659637,0.0606785230338573,-0.011580666527152,-0.08528719457139895,0.023997308800655492
1789139612183958000,5.9579580078125,0.0844362527132034,0.0537593625485897,-0.0514788106083869,-0.08909464336300195,0.06878780632897316
1789139612193931000,5.967930908203125,0.0803458467125892,0.0633800700306892,0.0534248426556587,-0.1015389340187047,0.05492310126153629
1789139612203904300,5.977904296875,0.0763524398207664,0.0584321767091751,0.0351544916629791,-0.09399054361377707,0.04056636952976141
1789139612213877200,5.987877197265625,0.0455363169312477,0.0642425417900085,-0.0312116090208292,-0.07649219233379954,0.03638364172182535
1789139612223850000,5.99785009765625,0.0407122671604156,0.0609319694340229,0.0598008558154106,-0.07706940904314125,0.05483285641334274
1789139612233823000,6.007822998046875,0.0591526888310909,0.0493298135697841,0.1426298022270202,-0.0838009656456291,0.1387556476074272
1789139612243796200,6.017796142578125,0.0331011153757572,0.0471635982394218,0.0836077556014061,-0.06305636036013969,0.07958794539907058
1789139612253769200,6.027769287109375,0.0336359851062297,0.0200767889618873,0.0291703231632709,-0.03770920891772048,0.031038367633237977
1789139612263742000,6.037741943359375,0.0648857802152633,0.0020565097220242,0.067441813647747,-0.04365643350324538,0.08280644750413087
1789139612273714200,6.047714111328125,0.0632405877113342,0.0246434062719345,0.0672829896211624,-0.061067781302056826,0.07351459845475715
1789139612283687200,6.057687255859375,0.0524936653673648,0.0395139679312706,0.0086351195350289,-0.06305002885642391,0.020400924389907076
1789139612293660200,6.06766015625,0.0157311297953128,0.0027270298451185,0.005112902726978,-0.011648885119039684,0.012056134794871037
1789139612303633000,6.0776328125,0.0157923810184001,-0.0405410788953304,0.0102823646739125,0.023166738683446753,0.038236208210123857
1789139612313606100,6.087606201171875,-0.014522286131978,-0.0233460739254951,0.0279318559914827,0.025522831968706167,0.029744068142401794
1789139612323579100,6.0975791015625,-0.0430553928017616,0.0291922353208065,-0.0207046568393707,0.0025124692077205975,0.055931420200596396
1789139612333552000,6.10755224609375,-0.0375536642968654,0.0178479254245758,-0.0237674806267023,0.00876478608149893,0.04708394423122509
1789139612343525000,6.117525146484375,-0.0295929424464702,0.0389731861650943,-0.0282927248626947,-0.012717867625507102,0.055076180021089126
1789139612353497900,6.127497802734375,-0.0054684923961758,0.0727179199457168,-0.0102330474182963,-0.05530900917727504,0.04861511137097102
1789139612363471000,6.13747119140625,-0.0256949346512556,0.0810911655426025,0.0312874987721443,-0.05319552858344345,0.07338358204622503
1789139612373444000,6.147444091796875,0.0122959073632955,0.1059937104582786,0.007299383636564,-0.0938084052360279,0.05137236711644747
1789139612383417000,6.1574169921875,0.0673754066228866,0.1321840435266494,0.0299402475357055,-0.1484471940494018,0.029528220095580118
1789139612393390000,6.16739013671875,0.0912671983242034,0.1254254877567291,0.0433545522391796,-0.15764856256208912,0.03298184941645495
1789139612403363000,6.177363037109375,0.0874410420656204,0.12379190325737,0.0103843491524457,-0.15191433049746497,0.000491982144526311
1789139612413336000,6.187336181640625,0.1059280261397361,0.0879850015044212,0.0037792127113789,-0.13303154015450105,0.03576309528596254
1789139612423309000,6.19730908203125,0.0865250304341316,0.168185293674469,-0.0257397983223199,-0.18509103152266457,0.04665534446925105
1789139612433281300,6.20728125,0.0402849428355693,0.1644317805767059,0.0039975708350539,-0.15729694912339187,0.0627242971419002
1789139612443254000,6.21725390625,0.0711041092872619,0.1407847702503204,-0.098490186035633,-0.14904962468503774,0.11117855916746437
1789139612453227000,6.22722705078125,0.0461893901228904,0.1212310269474983,-0.1091316118836402,-0.11803879107427032,0.12168391088683772
1789139612463200000,6.237199951171875,0.0304818004369735,0.1416444033384323,-0.1362005174160003,-0.12376497720260164,0.15564410852134966
1789139612473173200,6.24717333984375,0.0051621007733047,0.1187309175729751,-0.10846708714962,-0.0923414430992258,0.13176435387915073
1789139612483146200,6.257146240234375,0.001515700481832,0.1086346060037612,-0.0424284115433692,-0.08641729138100807,0.07833260385054559
1789139612493119000,6.267118896484375,-0.0014783833175897,0.0784899592399597,0.0103551540523767,-0.06368014394099153,0.04706301947205806
1789139612503092000,6.277092041015625,-0.0062201414257287,0.0349549949169158,0.026835061609745,-0.026624811843914766,0.03566204922424708
1789139612513065200,6.287065185546875,-0.0391187109053134,0.0164527371525764,0.0435241311788558,0.0063251594695382905,0.06045914699418452
1789139612523038200,6.2970380859375,-0.0652504414319992,0.0027443822473287,0.0474030226469039,0.03231804362753451,0.07394418403865088
1789139612533011200,6.30701123046875,-0.1000857427716255,-0.0139732807874679,0.0956090614199638,0.06283780462579322,0.12411652354755373
1789139612542984000,6.31698388671875,-0.1341105550527572,-0.0132081545889377,0.0490554049611091,0.08497551478143082,0.11552355157167363
1789139612552957200,6.326957275390625,-0.1309660524129867,-0.0334783904254436,-0.024709491059184,0.10455636010403119,0.08917082493910027
1789139612562930200,6.33693017578125,-0.1285526901483535,-0.0430497899651527,0.0085243610665202,0.10873531865826874,0.08141482523655934
1789139612572903200,6.346903076171875,-0.1576406210660934,-0.0441274866461753,-0.0036443027202039,0.12723056342936917,0.10307019530190958
1789139612582875100,6.356875244140625,-0.2070036381483078,-0.0327688381075859,-0.0219647213816642,0.14773542496945144,0.15026974463286497
1789139612592848100,6.36684814453125,-0.1596756875514984,-0.0215519871562719,-0.0530934706330299,0.11333450209804954,0.12623399147406955
1789139612602821000,6.376821044921875,-0.1250490099191665,-0.0213842093944549,-0.0536061264574527,0.09322285213189267,0.10137877454061764
1789139612612794000,6.386794189453125,-0.1047079339623451,-0.0253653246909379,-0.0419334359467029,0.08392999074201823,0.07950673453035595
1789139612622766800,6.396766845703125,-0.08930554240942,-0.0150719415396451,-0.0667202770709991,0.0683065575144761,0.0893781455377524
1789139612632740000,6.406739990234375,-0.1158646568655967,-0.0078854328021407,-0.0036623568739742,0.07361122705215759,0.08989771337919329
1789139612642713000,6.416713134765625,-0.0890703275799751,-0.0030001304112374,0.0314711295068264,0.05181566053413404,0.0790448818933606
1789139612652686000,6.42668603515625,-0.0445062257349491,0.0154339931905269,0.008958981372416,0.012567670344577606,0.04627449928758601
1789139612662659000,6.4366591796875,-0.0082736508920788,0.022049019113183,0.0479740239679813,-0.016347203477888348,0.05088112083150748
1789139612672632000,6.446632080078125,0.0090551171451807,0.0056559746153652,0.0534788370132446,-0.013392753604599636,0.05286402703671245
1789139612682605000,6.45660498046875,7.28070735931e-05,0.0115799084305763,0.0325330756604671,-0.0116267617894778,0.03251644203093126
1789139612692578000,6.466578125,-0.0022619999945163,0.0319015309214592,-0.0480302646756172,-0.021445336388222373,0.05357077739881918
1789139612702551000,6.476551025390625,0.0178515240550041,0.0142034962773323,-0.0137106422334909,-0.020956465831319562,0.01640806106467497
1789139612712524300,6.486524169921875,-0.0038476353511214,0.0143987592309713,0.0013284708838909,-0.009577257078629931,0.011496501508104936
1789139612722497000,6.4964970703125,-0.0366202294826507,-0.0016864675562828,-0.0466262698173522,0.025636497972847856,0.053485179152257596
1789139612732470000,6.506469970703125,-0.0215728841722011,-0.0398471914231777,-0.0171088222414255,0.046017264802351215,0.015109968048330058
1789139612742442200,6.516442138671875,-0.0025629736483097,-0.0397760830819606,0.0447580069303512,0.03085659296414414,0.05137952388147888
1789139612752415200,6.526415283203125,-0.0732823237776756,-0.0429640039801597,0.0209051445126533,0.07590306770533473,0.04349659752529559
1789139612762388000,6.536387939453125,-0.1214706152677536,-0.0592079535126686,0.0060534933581948,0.11795069892483034,0.06621910251329803
1789139612772361000,6.54636083984375,-0.1437626779079437,-0.0467230267822742,0.0111959353089332,0.12033459200691682,0.09217203331233918
1789139612782334200,6.556334228515625,-0.1652437299489975,-0.0778093039989471,0.0624697767198085,0.15462100551362423,0.11556208605609493
1789139612792307200,6.56630712890625,-0.1255688965320587,-0.1063542440533638,0.0520785264670848,0.15560521463485882,0.07468576237720079
1789139612802280200,6.5762802734375,-0.1018723547458648,-0.0894168093800544,0.023298542946577,0.13005032515012702,0.04475575374134641
1789139612812253000,6.5862529296875,-0.1228527426719665,-0.0855714678764343,0.0467567332088947,0.13748477686002106,0.07549437547705141
1789139612822226000,6.596225830078125,-0.1811983436346054,-0.0891222581267356,0.025357699021697,0.17551282321047162,0.10302367891847848
1789139612832199200,6.60619921875,-0.1883386075496673,-0.0798705220222473,0.0690051093697547,0.16920820960612015,0.13409331938197744
1789139612842172200,6.616172119140625,-0.1546898335218429,-0.0731990337371826,0.026019025593996,0.14719840438725176,0.09108601744384694
1789139612852145200,6.626145263671875,-0.1370794773101806,-0.0761337503790855,0.0163938123732805,0.1400499212490267,0.07240101994232516
1789139612862118000,6.636117919921875,-0.1018604934215545,-0.0517413280904293,-0.018318360671401,0.1021675123192741,0.054314702584314145
1789139612872091100,6.646091064453125,-0.0814721286296844,-0.0772132351994514,0.0405054613947868,0.10718999898469284,0.05244604802922482
1789139612882064100,6.656064208984375,-0.0322441346943378,-0.0703982040286064,0.011042108759284,0.07516079669343673,0.0216419536756648
1789139612892037000,6.666037109375,-0.0398113988339901,-0.0371503010392189,-0.0201547127217054,0.05456556468075398,0.019847013387120596
1789139612902009000,6.676009033203125,-0.0338879935443401,-0.0405149422585964,-0.0379022881388664,0.05506080453959659,0.03456512552114673
1789139612911982000,6.685982177734375,-0.0844444260001182,-0.0239965990185737,0.0305882114917039,0.06628023560457125,0.06518640116934961
1789139612921955000,6.695955078125,-0.0782389938831329,-0.04329439625144,0.0588227771222591,0.07651229987455183,0.07484471916510366
1789139612931928000,6.705927978515625,-0.0290259141474962,-0.0483019948005676,-0.0313600860536098,0.058149905152845655,0.027886016600022764
1789139612941901300,6.7159013671875,-0.0127827636897563,-0.0572334378957748,-0.0022346917539834,0.05409011461808638,0.022766616102426432
1789139612951874000,6.7258740234375,0.0226926170289516,-0.0981036052107811,0.0802611261606216,0.06134409649523629,0.11321670557267517
1789139612961847000,6.735846923828125,-0.0061587374657392,-0.1018456146121025,0.053469993174076,0.08284309513179654,0.08004074601044552
1789139612971820000,6.745820068359375,-0.0437629669904708,-0.1216068118810653,0.0023046268615871,0.12405264882219433,0.03632720194089162
1789139612981793300,6.755793212890625,-0.1043269783258438,-0.1151419878005981,0.0022449721582233,0.15379540073699247,0.022221844509699527
1789139612991766000,6.76576611328125,-0.1118699684739112,-0.1281392723321914,-0.0135496519505977,0.1697776896538093,0.01713744800063745
1789139613001739000,6.775739013671875,-0.1393109112977981,-0.1260721236467361,-0.0607802830636501,0.18709682829195784,0.06317222506614727
1789139613011712000,6.7857119140625,-0.1426628232002258,-0.121410496532917,-0.1028199940919876,0.18804002987959517,0.10151890533189202
1789139613021685200,6.795685302734375,-0.1474674344062805,-0.1228864192962646,-0.0733539834618568,0.19005572256457037,0.07814950715141726
1789139613031658200,6.805658203125,-0.138919860124588,-0.1362865269184112,-0.021135127171874,0.19254069553690012,0.03532023668176563
1789139613041631000,6.815630859375,-0.1399907171726226,-0.1352082043886184,5.37805026397e-05,0.1908720548855277,0.038033156385162116
1789139613051604000,6.82560400390625,-0.1154040917754173,-0.1106314212083816,-0.0620778314769268,0.1608086903754929,0.0595956207929062
1789139613061577000,6.835576904296875,-0.0739322826266288,-0.1074055358767509,-0.0148384133353829,0.13107566688067063,0.0064249212800530095
1789139613071549200,6.845549072265625,-0.047844972461462,-0.0742818117141723,0.0245268773287534,0.08643732823126324,0.03061184315127696
1789139613081522000,6.85552197265625,-0.0512072145938873,-0.0674241706728935,-0.021174831315875,0.08584395969929987,0.015728499031777858
1789139613091495000,6.865494873046875,0.0104226469993591,-0.065286748111248,-0.100953958928585,0.05380207131292646,0.10801865577393563
1789139613101468200,6.87546826171875,0.0120817963033914,-0.0492824837565422,-0.0199323426932096,0.03443241808336972,0.04226629717992893
1789139613111441200,6.885441162109375,0.0497621744871139,-0.0302816908806562,-0.068154752254486,0.00041255590376102283,0.08965575756622786
1789139613121414100,6.8954140625,0.0388197749853134,-0.026173498481512,-0.0481328442692756,0.0020613851802858928,0.06711593209708788
1789139613131387000,6.905386962890625,0.0648963823914527,-0.0124427732080221,-0.0496143624186515,-0.02407740929311844,0.07904572330331906
1789139613141360000,6.915360107421875,0.0676325187087059,-0.0042618080042302,-0.0503240935504436,-0.03226581904986282,0.07799840964445162
1789139613151333000,6.9253330078125,0.0680862665176391,0.0220808275043964,-0.0618851035833358,-0.053186124756934725,0.07825793768334219
1789139613161306000,6.93530615234375,0.0801700949668884,0.0134196951985359,-0.0407531857490539,-0.054530255078503086,0.07276404177883325
1789139613171278800,6.94527880859375,0.1112841740250587,0.0097766406834125,-0.0433976985514164,-0.06937042503681225,0.09772847313482254
1789139613181252000,6.955252197265625,0.1149241849780082,-0.0040030875243246,-0.0067688492126762,-0.06270312958283433,0.0966319194819656
1789139613191225000,6.96522509765625,0.1319034993648529,-0.0012582531198859,-0.0124826449900865,-0.07436715454700994,0.10966065427552911
1789139613201197800,6.97519775390625,0.1400008350610733,0.000203023198992,-0.0225155726075172,-0.0795671100922272,0.1173724884188495
1789139613211170800,6.9851708984375,0.1504526734352111,-0.0159427635371685,0.015565687790513,-0.075008157513359,0.13231116958083014
1789139613221144000,6.99514404296875,0.1135425865650177,-0.0090752691030502,0.0004162956611253,-0.05825719141811845,0.09788029639982448
1789139613231116000,7.005115966796875,0.0972530990839004,-0.0030168443918228,-0.0574611201882362,-0.049919946936277784,0.10137576565764402
1789139613241088800,7.0150888671875,0.0614900402724742,-0.0249767377972602,-0.0254448633641004,-0.013522366836774768,0.06978143843783258
1789139613251062000,7.02506201171875,0.0391014665365219,-0.0121355727314949,-0.0224984996020793,-0.011226305889043678,0.04534698833724826
1789139613261035000,7.035034912109375,0.0520870424807071,-0.0232089944183826,-0.0689914301037788,-0.006628263109168083,0.08926141928190329
1789139613271008000,7.045008056640625,0.0753255933523178,-0.0242622010409832,-0.0548156201839447,-0.02014367471071549,0.09413598673478275
1789139613280981000,7.05498095703125,0.0797357857227325,-0.0194613207131624,-0.008188996464014,-0.02970069458922459,0.07695106843135653
1789139613290954000,7.0649541015625,0.0781382694840431,-0.0216161496937274,0.0173549577593803,-0.028724963099322896,0.07777479115571435
1789139613300927000,7.074927001953125,0.0785079151391983,-0.0096487011760473,-0.0094295181334018,-0.03689036109102476,0.07060175100300402
1789139613310900000,7.08489990234375,0.0777364894747734,-0.0028496086597442,-0.0150323500856757,-0.041602176600372805,0.06742634883029744
1789139613320873000,7.094873046875,0.0975019410252571,-0.0206824019551277,0.0039567868225276,-0.039782170070810176,0.09147363205176805
1789139613330846000,7.104845947265625,0.0854638814926147,0.0090510789304971,-0.0032035373151302,-0.05653506992283948,0.06480775871559563
1789139613340819000,7.11481884765625,0.0702705457806587,0.0026837261393666,-0.0197220593690872,-0.041476697703792254,0.06011484977648039
1789139613350792000,7.1247919921875,0.0781737938523292,-0.007566440384835,0.0034391209483146,-0.0392475624350067,0.06811644046169112
1789139613360765000,7.134764892578125,0.056954525411129,0.0305394008755683,0.0004047150141559,-0.05777988148077694,0.028950337838368204
1789139613370738000,7.144738037109375,0.0490010976791381,0.0487490221858024,-0.0051968921907246,-0.06762314077601246,0.015221473577216578
1789139613380711200,7.154711181640625,0.1033319756388664,0.0299524292349815,0.0110981920734047,-0.08481375140776815,0.06711514468394854
1789139613390683000,7.164682861328125,0.1215304732322692,0.0662344545125961,0.0282917078584432,-0.12598676429551023,0.06390942688317204
1789139613400656000,7.17465576171875,0.1149846836924552,0.0772737860679626,0.0117111336439847,-0.1300802389912974,0.0490815400362035
1789139613410629000,7.184629150390625,0.0535185523331165,0.0839914083480835,-0.0109611339867115,-0.09851674409095355,0.0182589625148652
1789139613420601900,7.194601806640625,0.0748952105641365,0.0700662732124328,0.0406943373382091,-0.10298059260960882,0.03961820092451659
1789139613430574800,7.204574951171875,0.0536708384752273,0.0805902630090713,0.0426312908530235,-0.0994052553053108,0.036212864730455804
1789139613440547800,7.2145478515625,0.0695097222924232,0.0707714557647705,0.0301200281828641,-0.0997383373677587,0.02827862445534329
1789139613450521000,7.22452099609375,0.0618225671350955,0.0802676677703857,0.0196242593228817,-0.10232206205560981,0.013425180338827796
1789139613460494000,7.234494140625,0.0983459576964378,0.0670277625322341,0.0363177508115768,-0.11376890781671187,0.050401021651464574
1789139613470466800,7.244466796875,0.0441132448613643,0.0999619141221046,-0.0011296544689685,-0.10672689792558455,0.023430920288260406
1789139613480439800,7.254439697265625,0.0670427978038787,0.0828617587685585,-0.1176453530788421,-0.0983121450668086,0.12464332728629618
1789139613490413000,7.2644130859375,0.0484623238444328,0.0994069725275039,-0.1248525083065033,-0.10055375768141586,0.13306928145165275
1789139613500386000,7.274385986328125,0.0126838218420743,0.0745351836085319,0.0817962735891342,-0.0734020580994823,0.08378031494275824
1789139613510359000,7.284359130859375,0.0160114485770463,0.0878898128867149,0.0488941483199596,-0.08399792203365661,0.05758448166614949
1789139613520331800,7.294331787109375,0.0459690801799297,0.1287842541933059,-0.1586364060640335,-0.12076042256420114,0.1711168318189165
1789139613530305000,7.304304931640625,0.0330502018332481,0.093295119702816,0.0715029239654541,-0.09974549921675466,0.07042583846281922
1789139613540278000,7.314278076171875,0.0544934421777725,0.0782647728919982,0.2036892026662826,-0.10870888607244757,0.1968923037803455
1789139613550251000,7.3242509765625,0.0432538762688636,0.1205190867185592,0.0348384529352188,-0.12534590301543763,0.043564555270560475
1789139613560224000,7.33422412109375,0.059454683214426,0.095775656402111,0.0031297947280108,-0.11247039350106551,0.008248752398874694
1789139613570196000,7.344196044921875,0.0328789576888084,0.0958910584449768,0.0716418623924255,-0.10176737745882108,0.07107797324494752
1789139613580169000,7.3541689453125,0.0164778791368007,0.091975413262844,0.054201353341341,-0.08794399992248285,0.06272668273856975
1789139613590142000,7.364141845703125,-0.0045106541365385,0.0754479318857193,-0.0105953216552734,-0.05805903394117575,0.04953933634363422
1789139613600115000,7.374114990234375,-0.0038587115705013,0.0662288665771484,-0.0269596464931964,-0.04984760718730518,0.051411973506336854
1789139613610088000,7.384087890625,0.0023519406095147,0.0513552874326705,-0.0332864187657833,-0.04091692777530582,0.04557069088355351
1789139613620061000,7.39406103515625,-0.0314441062510013,0.034539021551609,-0.0379765108227729,-0.007396780448634413,0.05974260490582627
1789139613630034000,7.404033935546875,-0.0550273470580577,0.0207679644227027,-0.0584369078278541,0.018794444744662825,0.08075245082182651
1789139613640007000,7.4140068359375,-0.0717176496982574,0.00040969485417,-0.0869186148047447,0.04689458551848794,0.10246625091580301
1789139613649980200,7.423980224609375,-0.1321752667427063,-0.0074260588735342,-0.0548007413744926,0.08606650618260052,0.11454748036344216
1789139613659953000,7.433952880859375,-0.1567290723323822,-0.0200180187821388,-0.037802580744028,0.10936626970357945,0.1201364946723677
1789139613669926000,7.44392578125,-0.1503260731697082,-0.0429713986814022,-0.0457516275346279,0.12486603902194321,0.10462386486981999
1789139613679899000,7.45389892578125,-0.1557394862174987,-0.0478369928896427,-0.0493748560547828,0.13219314727657244,0.10726608820852535
1789139613689872100,7.4638720703125,-0.1566748917102813,-0.0686554461717605,-0.0116693740710616,0.14715815473089144,0.08798433820221216
1789139613699845000,7.47384521484375,-0.1595508307218551,-0.079658031463623,0.0336576253175735,0.1547528212977461,0.09479593663812627
1789139613709817900,7.48381787109375,-0.1689761579036712,-0.0612651631236076,-0.0056852060370147,0.14785684181657832,0.10235740348484482
1789139613719790800,7.493790771484375,-0.153940737247467,-0.048943780362606,-0.0221693739295005,0.13024323359091944,0.09808886514117647
1789139613729764000,7.50376416015625,-0.120477095246315,-0.0261914059519767,-0.0288981832563877,0.09284665925568925,0.08611227023664281
1789139613739737000,7.513737060546875,-0.1104548200964927,-0.0232518091797828,-0.0558384545147419,0.08645720730726641,0.09156417541759909
1789139613749708800,7.523708740234375,-0.1085569038987159,-0.0281565934419631,-0.0942604765295982,0.09190746295427764,0.1140852787489519
1789139613759682000,7.53368212890625,-0.1043717414140701,-0.015061299316585,-0.1091467440128326,0.07982789287333149,0.12907680810632097
1789139613769655000,7.543655029296875,-0.0896228849887847,-0.0150942150503396,-0.0741529911756515,0.0690027693601441,0.09485452420747172
1789139613779628000,7.5536279296875,-0.0595251694321632,-0.0001352401450276,-0.070047989487648,0.039169430433802936,0.08316093215313114
1789139613789600800,7.563600830078125,-0.0514753423631191,0.0063956938683986,-0.0403185710310936,0.027226624655772785,0.05979058329955981
1789139613799574000,7.573573974609375,-0.0391867198050022,0.0160744208842515,0.0031655193306505,0.009358424022707415,0.041429777072580866
1789139613809547000,7.583547119140625,-0.0521492213010787,0.0182014964520931,-0.0271511934697628,0.01713655940131721,0.059113123704656774
1789139613819520000,7.59352001953125,-0.0338045693933963,-0.0002374313771724,-0.0274265632033348,0.02155285689845718,0.03782189860640205
1789139613829493000,7.603492919921875,-0.0646796002984047,-0.0228571817278862,-0.0037726978771388,0.05621918542845404,0.03949098492486957
1789139613839466000,7.613466064453125,-0.0755431652069091,-0.0337180867791175,0.0040569952689111,0.0708101085381867,0.04296588093993473
1789139613849439000,7.62343896484375,-0.0668840110301971,-0.004729725420475,-0.0854024514555931,0.048181015893453714,0.09730369805994174
1789139613859412000,7.633411865234375,-0.1146036013960838,-0.0016740143764764,-0.0538506507873535,0.0711705225949383,0.10474462793322617
1789139613869385000,7.643385009765625,-0.1330651193857193,-0.0479621291160583,-0.0167006570845842,0.11701760662068039,0.08119411009615012
1789139613879358000,7.65335791015625,-0.1359802186489105,-0.037498839199543,-0.0538144707679748,0.1126613473375992,0.100499755647627
1789139613889331000,7.6633310546875,-0.1361667811870575,-0.057698868215084,-0.0275202207267284,0.1274501141356142,0.0799023319297528
1789139613899304000,7.673303955078125,-0.107629157602787,-0.1050514727830886,-0.0067419726401567,0.1480939398925733,0.02708295889220881
1789139613909277000,7.68327685546875,-0.1081747263669967,-0.0954585075378418,-0.0191872399300336,0.14143444935711008,0.03432994024332925
1789139613919249200,7.693249267578125,-0.1348446905612945,-0.07244373857975,-0.0339344963431358,0.1391068173420858,0.07233276742251951
1789139613929222000,7.703221923828125,-0.1443684846162796,-0.0677743852138519,-0.0229486767202615,0.14008086990385687,0.07962171997455432
1789139613939195000,7.71319482421875,-0.1214216202497482,-0.0708873569965362,-0.0084901098161935,0.12839064329561642,0.057932304674138825
1789139613949167900,7.72316796875,-0.1278895735740661,-0.0670957341790199,-0.0170264020562171,0.12961219223016177,0.06594056844045033
1789139613959141000,7.73314111328125,-0.0868532061576843,-0.088466539978981,0.016476696357131,0.12105248128748197,0.03142588762009398
1789139613969114000,7.743114013671875,-0.0596485808491706,-0.0774659141898155,0.0536848865449428,0.09390741236827041,0.060186260925753604
1789139613979086800,7.7530869140625,-0.0711656883358955,-0.0729132443666458,0.0352787151932716,0.09808453575878573,0.04477619893496405
1789139613989059800,7.763059814453125,-0.0767862796783447,-0.1013689041137695,0.100772924721241,0.12011956761294759,0.10907914237570346
1789139613999033000,7.773033203125,-0.0412487983703613,-0.0903138592839241,0.0956857576966285,0.09093017043161218,0.10366062356078622
1789139614009006000,7.783006103515625,-0.0121058151125907,-0.0756838321685791,0.0262935254722833,0.06680801792376023,0.0458544592610361
1789139614018979000,7.79297900390625,0.0200446639209985,-0.0979055166244506,0.0360513515770435,0.06565567375101247,0.08352431497497337
1789139614028951800,7.802951904296875,-0.0156901814043521,-0.1154974550008773,0.0436692722141742,0.10010790658388931,0.0739679408885234
1789139614038925000,7.812925048828125,-0.0277343280613422,-0.1328663378953933,0.0258556511253118,0.12238154730834476,0.06413991169526344
1789139614048898000,7.82289794921875,-0.0495912060141563,-0.0892843529582023,-0.0154731888324022,0.10231212324010833,0.014234901048037022
1789139614058871000,7.83287109375,-0.0163738653063774,-0.091907300055027,0.0010253605432808,0.0841526461823333,0.04042819280194078
1789139614068844000,7.842843994140625,-0.032847698777914,-0.0945831090211868,0.0091359745711088,0.09530889820823131,0.032009620129192874
1789139614078816800,7.852816650390625,-0.0197084583342075,-0.0944608747959137,0.026667296886444,0.08644998686512906,0.050485886061049125
1789139614088789000,7.8627890625,-0.0169738195836544,-0.0891184732317924,0.0170276183634996,0.08116575337966203,0.04395762832397826
1789139614098762000,7.872761962890625,-0.0144675197079777,-0.0702891275286674,0.0085276076570153,0.06496707796661096,0.03165232136943941
1789139614108734700,7.882734619140625,-0.0412983335554599,-0.0524296984076499,0.0569891482591629,0.06271871981445429,0.061388523631994776
1789139614118708000,7.8927080078125,-0.0256370827555656,-0.0428793355822563,0.0871936604380607,0.04388991087831377,0.09040081623455055
1789139614128681000,7.902680908203125,0.0444583892822265,-0.0452871546149253,0.0646698623895645,0.006842420900123221,0.09034847607124818
1789139614138654000,7.912654052734375,0.0592860728502273,-0.0386625416576862,0.0898806750774383,-0.008792468212692642,0.11406515163072202
1789139614148627000,7.922626953125,0.105050578713417,-0.0258275642991065,0.0718686133623123,-0.044479192455922904,0.12202207255549631
1789139614158600000,7.932599853515625,0.1056175678968429,-0.0126723488792777,0.0275733191519975,-0.05255927344870369,0.09650631988716933
1789139614168573000,7.942572998046875,0.0881474837660789,0.0043489267118275,0.0578470975160598,-0.05832447086191685,0.08793995023620342
1789139614178546000,7.9525458984375,0.0787433311343193,0.0062283189035952,0.0427024997770786,-0.053410928387731045,0.07218088646217921
1789139614188519000,7.962518798828125,0.0760302022099495,0.0293715521693229,-0.0198022574186325,-0.06650800220797169,0.051108656469323124
1789139614198492200,7.9724921875,0.0591100789606571,0.0360837839543819,-0.0112700220197439,-0.06275832979037207,0.031375887835247564
1789139614208465200,7.982465087890625,0.0992645472288131,0.0149515876546502,-0.0278802085667848,-0.06766701941578945,0.07921793245879716
1789139614218438000,7.99243798828125,0.0804293379187583,0.0264774821698665,-0.0596972592175006,-0.0640406084416146,0.08144015403113301
1789139614228411000,8.002410888671875,0.0700363963842392,-0.0007020784541964,-0.0022815940901637,-0.039748138306693936,0.057713784362059636
1789139614238384000,8.012384033203125,0.053093634545803,-0.0416817367076873,0.0253955721855163,0.0015338256628041266,0.07210328473598235
1789139614248357000,8.022357177734374,0.0515362657606601,-0.0244767889380455,0.0187803264707326,-0.011120759372645152,0.05902651318343341
1789139614258330000,8.032330078125,0.0604232363402843,-0.0442616753280162,0.0100582055747509,0.000417770461416396,0.07557153141165057
1789139614268302800,8.042302734375,0.049608401954174,-0.0666155591607093,0.0572762377560138,0.021707484380475144,0.09852907591211695
1789139614278275000,8.052275146484375,0.0221101976931095,-0.0410284399986267,0.0533512718975544,0.017045736753276253,0.06876041595550511
1789139614288248000,8.062248046875,0.0017661619931459,-0.0450070574879646,0.0213806927204132,0.03416591531950006,0.036312240408661996
1789139614298221000,8.072220947265626,0.0006348509341478,-0.0559326745569705,0.0125073064118623,0.04429735990442159,0.03637366819531567
1789139614308194000,8.082194091796875,-0.0185685195028781,-0.0338863730430603,0.0365270189940929,0.03586257043875689,0.03925780626400605
1789139614318167000,8.0921669921875,0.0021229088306427,-0.0598838850855827,0.0318449139595031,0.04536436787204049,0.05046542487193416
1789139614328140000,8.10214013671875,-0.0091011878103017,-0.0705009326338768,-0.0019681614357978,0.06273697670798237,0.03348370551155083
1789139614338113000,8.112113037109374,0.003582383506,-0.0587321557104587,-0.0197024177759885,0.04701510796627946,0.040497709504616446
1789139614348086000,8.1220859375,-0.017756525427103,-0.0424999445676803,-0.0135519420728087,0.04573300817393544,0.014618022465667853
1789139614358059000,8.13205908203125,-0.0312489010393619,-0.0745492205023765,0.0018895987886935,0.07857139137740743,0.019083687648887026
1789139614368032000,8.142031982421875,-0.0022096801549196,-0.0732652693986892,0.0131889171898365,0.059994385759267556,0.04412826305734352
1789139614378005000,8.1520048828125,0.0026708291843533,-0.0687240436673164,-0.0026675439439713,0.05453561940701976,0.04198939762731673
1789139614387978000,8.16197802734375,0.002131060231477,-0.0712136030197143,0.0010634008795022,0.05662425497165788,0.04325208946507496
1789139614397951000,8.171950927734375,0.0078238332644104,-0.0920195505023002,0.0254068225622177,0.06863831239864499,0.06680642742557563
1789139614407924000,8.181924072265625,-0.0204177685081958,-0.0711337476968765,-0.0379823297262191,0.0721881686168746,0.04133304991686511
1789139614417897000,8.19189697265625,-0.038402896374464,-0.0536801926791667,-0.0374542251229286,0.06834881627599489,0.03297883911312822
1789139614427870000,8.201869873046874,-0.0335909724235534,-0.0616110973060131,0.0238666087388992,0.06793789160578688,0.029636778442789488
1789139614437843200,8.21184326171875,-0.0106409192085266,-0.0627277642488479,0.0022001962643116,0.05702643886106587,0.028298899337042053
1789139614447816000,8.22181591796875,0.0009609754197299,-0.0555960908532142,-0.023592697456479,0.046237908903908484,0.03886540808203336
1789139614457788000,8.231787841796875,0.027347307652235,-0.0806865319609642,-0.0281491000205278,0.05170266606830751,0.07333074272846588
1789139614467761200,8.24176123046875,0.0027519473806023,-0.0623888559639453,-0.0137420110404491,0.0500726910807862,0.039768216432717926
1789139614477734100,8.251734130859376,-0.036728348582983,-0.0456974916160106,0.0013882054481655,0.058302566729414404,0.006322195564593517
1789139614487707000,8.261706787109375,-0.0150584252551198,-0.0880512148141861,-0.0609169378876686,0.08437872420141088,0.06760826003655389
1789139614497680000,8.271679931640625,-0.0082921320572495,-0.0773056298494339,-0.0581610985100269,0.07154468113256236,0.06564291158994684
1789139614507653000,8.281653076171875,-0.0087560070678591,-0.0544271878898143,0.0052181016653776,0.048984513358952014,0.02582116336152217
1789139614517626000,8.291626220703124,-0.000686096958816,-0.0844844207167625,0.0160441175103187,0.06804980013927464,0.05258066641431541
1789139614527599000,8.30159912109375,0.0234329365193843,-0.0827414989471435,-0.0124699417501688,0.05459257335969282,0.06760479674668657
1789139614537571800,8.31157177734375,0.029050875455141,-0.046408262103796,-0.0131146935746073,0.021834979100042323,0.05189324649182495
1789139614547544800,8.321544921875,-0.0056870691478252,-0.0553965121507644,0.0179047565907239,0.04715515684114459,0.03461340500184949
1789139614557518000,8.33151806640625,0.0021194550208747,-0.0640866756439209,0.0295986961573362,0.04893449894496701,0.05092240874010152
1789139614567491000,8.341490966796876,0.0506450049579143,-0.0338778644800186,0.0012921504676342,-0.0017947272587760382,0.060918591873181736
1789139614577464000,8.351464111328125,0.0489597581326961,-0.0325561352074146,-0.0093514388427138,-0.0011875851409062811,0.0595230955681715
1789139614587436800,8.361436767578125,0.0997688248753547,-0.0524894930422306,-0.0275941342115402,-0.013119617719252644,0.11531815629216734
1789139614597410000,8.37141015625,0.08784931153059,-0.0271612331271171,-0.0232590399682521,-0.027122856284212515,0.09088766543714806
1789139614607383000,8.381383056640624,0.1371762454509735,0.0017316560260951,0.0078029548749327,-0.0811962933099218,0.11085291609212554
1789139614617356000,8.39135595703125,0.1667386591434478,0.0387818217277526,-0.0039828647859394,-0.1276320140917006,0.11415665701253283
1789139614627329000,8.4013291015625,0.2088039666414261,0.0202573612332344,-0.0366394035518169,-0.13469804675284572,0.16494950519152402
1789139614637302000,8.411302001953125,0.1880281120538711,0.051509290933609,-0.045134887099266,-0.1475480106575408,0.13518328505955163
1789139614647274000,8.42127392578125,0.1504909843206405,0.0557300150394439,-0.0218358188867568,-0.13084086871856748,0.09545072549497852
1789139614657247000,8.4312470703125,0.1221581473946571,0.031880609691143,0.0006162267527543,-0.09656335038123512,0.08133194543188672
1789139614667220200,8.44122021484375,0.121845044195652,0.0439032278954982,-0.021227091550827,-0.10470797195579093,0.07912356311047253
1789139614677193000,8.45119287109375,0.1319677233695984,0.0341233015060424,-0.0174880139529705,-0.10285113565397705,0.09114468851081572
1789139614687166000,8.461166015625,0.1434356719255447,0.0199720524251461,-0.0203766580671072,-0.09777482214703861,0.10875645823078303
1789139614697139000,8.471138916015626,0.129539281129837,0.0296204164624214,0.0099761858582496,-0.09961310401399465,0.08851298334152824
1789139614707112200,8.4811123046875,0.1136656925082206,0.0388069488108158,0.0298567563295364,-0.09923615819007177,0.07395593103717239
1789139614717085200,8.491085205078125,0.0795125141739845,0.0303471516817808,-0.0022524432279169,-0.07048195556696005,0.04775517736766512
1789139614727058000,8.501057861328125,0.0704858750104904,0.0383033566176891,-0.017553586512804,-0.07071913645235783,0.04174132057172642
1789139614737031000,8.511031005859374,0.1128125637769699,0.0326231010258197,-0.0002976341638714,-0.09170606189566699,0.07335549102935197
1789139614747004200,8.521004150390626,0.1308639943599701,0.0301812458783388,-0.0051001124083995,-0.09983132335433713,0.0899778341955124
1789139614756977200,8.53097705078125,0.1373610347509384,0.0296044070273637,-0.0325288064777851,-0.10129084675683986,0.10267795477823807
1789139614766950000,8.540949951171875,0.1101675182580947,0.0655299723148346,-0.028277363628149,-0.11508236205611723,0.06314046711954174
1789139614776923000,8.5509228515625,0.1255137175321579,0.0425575450062751,-0.0187893193215131,-0.10589559604509412,0.0818779529820054
1789139614786896000,8.560895751953124,0.1240424811840057,0.0643345415592193,-0.0172097776085138,-0.12286438206146749,0.06874583945161751
1789139614796869000,8.570869140625,0.1398318260908126,0.0691631212830543,0.0070383041165769,-0.13752996897274125,0.07396973903360748
1789139614806842000,8.580842041015625,0.1696346253156662,0.0590614415705204,-0.0150598660111427,-0.14506401916508038,0.1069924758771439
1789139614816814800,8.59081494140625,0.1734858155250549,0.0548712201416492,-0.0087471092119812,-0.1443012266598919,0.11118384276613011
1789139614826787800,8.600787841796874,0.1906274110078811,0.0667273104190826,-0.0366001017391681,-0.1619967274612332,0.12604749708939336
1789139614836760000,8.610760009765626,0.14018315076828,0.05209456756711,0.0398776270449161,-0.1260348600252995,0.08983651221225754
1789139614846733000,8.620733154296875,0.1039953678846359,0.0846678242087364,0.040068082511425,-0.13163184084154791,0.04756245063608487
1789139614856705800,8.630705810546875,0.1248987764120101,0.0816912055015564,0.0630466416478157,-0.1428192361280291,0.07648988312443131
1789139614866679000,8.640678955078124,0.1335379928350448,0.0982753038406372,0.0134036038070917,-0.1579970936936968,0.05202889442170294
1789139614876652000,8.650652099609376,0.1286018192768097,0.071106269955635,0.0461133457720279,-0.13522201693075675,0.07372907393815278
1789139614886625000,8.660625,0.1171132624149322,0.0598328076303005,0.0139081291854381,-0.11726966528903819,0.061128902843328566
1789139614896598000,8.670597900390625,0.1252819746732711,0.0551046319305896,0.0102217821404337,-0.11789867277216737,0.07026009839822163
1789139614906571000,8.680571044921875,0.0943554788827896,0.0856127962470054,-0.0075826742686331,-0.12365841851859988,0.031600629028150695
1789139614916544000,8.6905439453125,0.102411538362503,0.0644212216138839,0.0190603882074356,-0.11284939056814629,0.04760809207493714
1789139614926517000,8.70051708984375,0.1260944902896881,0.0813008695840835,0.0118259117007255,-0.1397834732123335,0.05576813320162874
1789139614936490000,8.710489990234375,0.1199268847703933,0.0681070387363433,0.0523291304707527,-0.1281832240797542,0.07299606411656416
1789139614946463200,8.720463134765625,0.1107753068208694,0.0478944852948188,0.0347366109490394,-0.10528269819224145,0.06846339112620478
1789139614956436000,8.73043603515625,0.0903781577944755,0.0455999039113521,0.0326287187635898,-0.09148928982414249,0.054239337926224276
1789139614966409000,8.740408935546874,0.1013350412249565,0.0320937819778919,0.0326672345399856,-0.08683724118295567,0.0694639703582491
1789139614976382000,8.7503818359375,0.1217910423874855,0.028439924120903,0.0189588777720928,-0.0947733690486163,0.08378147083565042
1789139614986355000,8.76035498046875,0.1244305074214935,0.0701420977711677,-0.0157503653317689,-0.12790971878388566,0.06549841910780652
1789139614996328200,8.770328125,0.1085729748010635,0.0621435604989528,0.0109600750729441,-0.11401798266494431,0.052630179966065165
1789139615006301000,8.780301025390624,0.0827870070934295,0.0549871549010276,-0.0104805771261453,-0.09186913137478277,0.03933422104144348
1789139615016274000,8.79027392578125,0.056099209934473,0.0780437439680099,-0.0496767163276672,-0.09259317850884846,0.055966300275651575
1789139615026247000,8.800246826171875,0.1007266044616699,0.0637891739606857,-0.0519084446132183,-0.10663799254085324,0.07441594405760638
1789139615036219100,8.81021923828125,0.106153056025505,0.0589004084467887,0.0071711209602653,-0.10972938305182031,0.052427253310145715
1789139615046191900,8.82019189453125,0.1363282203674316,0.058668527752161,-0.0122392112389206,-0.1256857877458446,0.07987653515028366
1789139615056164900,8.830164794921876,0.1463539600372314,0.0850290283560752,-0.0199847500771284,-0.15240583070183483,0.07629724952766453
1789139615066138000,8.84013818359375,0.1298418939113617,0.1102918460965156,-0.0110019715502858,-0.16401134056985395,0.047376494935141344
1789139615076111000,8.850111083984375,0.0835952907800674,0.1182949170470237,0.0668624639511108,-0.14897981703730703,0.05707419067240773
1789139615086083800,8.860083740234375,0.1576606184244156,0.1129899621009826,0.0409443378448486,-0.18573881085806182,0.06929022355380947
1789139615096056800,8.870056884765624,0.1845010221004486,0.1385459303855896,-0.0090514495968818,-0.2187087768204884,0.07405404556139768
1789139615106030000,8.880030029296876,0.1834851503372192,0.1248360052704811,0.025876497849822,-0.20929461141670702,0.07820605717631447
1789139615116003000,8.890003173828125,0.1420913636684417,0.1193685382604599,0.0585707947611808,-0.1831036504664436,0.06589684924497559
1789139615125976000,8.89997607421875,0.1561611592769622,0.1149582639336586,0.0188538916409015,-0.18500306865551547,0.06108227182591485
1789139615135948800,8.90994873046875,0.1235584691166877,0.1372382640838623,-0.0300342887639999,-0.1810323620943479,0.04722688636054297
1789139615145922000,8.919922119140624,0.1773332357406616,0.1151384264230728,-0.0261391922831535,-0.1943893652084449,0.08717778274599505
1789139615155895000,8.92989501953125,0.1555278152227401,0.1134395971894264,-0.0328048169612884,-0.17996341320358994,0.0758074497819026
1789139615165868000,8.939867919921875,0.1791819036006927,0.1024074628949165,-0.034158855676651,-0.18456824522860477,0.09846234462429541
1789139615175841300,8.94984130859375,0.1443538814783096,0.1080783978104591,-0.0540643855929374,-0.16773054806662102,0.08548920520125605
1789139615185814000,8.95981396484375,0.1079591661691665,0.0860002860426902,-0.0079006552696228,-0.13181344327076874,0.04169972765090302
1789139615195787300,8.969787353515626,0.0875593572854995,0.1109234765172004,-0.0055339043028652,-0.14045577389807254,0.016536576623910233
1789139615205760300,8.97976025390625,0.1101917475461959,0.0878430008888244,0.0210795328021049,-0.1365313540312853,0.040769475125115695
1789139615215733200,8.989733154296875,0.104587398469448,0.0681992545723915,-0.0174356345087289,-0.1147507067243055,0.05221052479942494
1789139615225705200,8.999705322265624,0.1191923171281814,0.077077604830265,0.0284695066511631,-0.1334674989101966,0.05607767088933661
1789139615235678200,9.00967822265625,0.0798020362854003,0.0814923271536827,0.0629236251115799,-0.11658977048429545,0.0580996763831018
1789139615245651200,9.019651123046875,0.0664528533816337,0.0747205093502998,0.0020500374957919,-0.0993158209090391,0.011819755117047654
1789139615255624200,9.029624267578123,0.0598202459514141,0.0710528045892715,0.0553353652358055,-0.0960463633743538,0.04963931500363859
1789139615265597200,9.03959716796875,0.0913852527737617,0.0830656364560127,0.0600090734660625,-0.12436899259030024,0.05817737502410978
1789139615275570200,9.049570068359374,0.1088979318737983,0.0938812717795372,-0.0170601438730955,-0.13815681052411938,0.043315089427439
1789139615285543200,9.059543212890626,0.1225093528628349,0.0770773664116859,-0.0363400168716907,-0.13107041242047468,0.07134848117509805
1789139615295516200,9.06951611328125,0.1060712561011314,0.0725606456398963,0.0165085475891828,-0.12141509947696805,0.04524449611889464
1789139615305489400,9.079489501953123,0.0852435827255249,0.076382853090763,-0.007880357094109,-0.11086541470899136,0.029525725926766375
1789139615315462100,9.089462158203125,0.0799369663000106,0.0891790762543678,-0.0388095118105411,-0.11614901448353535,0.04856347253139343
1789139615325435100,9.09943505859375,0.0966293290257453,0.1034754365682601,-0.0441793352365493,-0.13706634510292265,0.056648247131113244
1789139615335408000,9.109408203125,0.1213128417730331,0.091465376317501,-0.038081232458353,-0.14196658305695986,0.06616940535194102
1789139615345381400,9.11938134765625,0.1339008510112762,0.0917312949895858,-0.0166808273643255,-0.15088135965808533,0.06210582654869285
1789139615355354400,9.129354248046877,0.1197927594184875,0.1092612743377685,-0.0129896849393844,-0.15723378208182204,0.041648540983800365
1789139615365327000,9.1393271484375,0.1178017482161521,0.0981236472725868,-0.0017789420671761,-0.14776988295082424,0.04089900199802921
1789139615375300000,9.149300048828126,0.0862637981772422,0.1319220960140228,-0.006609383970499,-0.15671621384844464,0.018127177556781414
1789139615385273300,9.1592734375,0.1067515388131141,0.151060551404953,-0.0085208481177687,-0.1839955701833224,0.02081865114017746
1789139615395246300,9.169246337890623,0.1180337518453598,0.1430196613073349,0.0318236462771892,-0.18665977045549303,0.02361068933841354
1789139615405219300,9.17921923828125,0.1663936078548431,0.1558000445365905,0.0485717765986919,-0.2261154396844114,0.05649346892193337
1789139615415192000,9.189192138671874,0.1608947217464447,0.1757801473140716,0.0163491256535053,-0.23704534366196345,0.02936955283007112
1789139615425164300,9.199164306640624,0.1283870041370391,0.1853910237550735,0.0108880680054426,-0.2257146872805969,0.004948180569846864
1789139615435137300,9.20913720703125,0.0983768999576568,0.1656977385282516,0.0433485396206378,-0.19451476559968747,0.03430534724494547
1789139615445110300,9.2191103515625,0.1144977658987045,0.1604525297880172,0.099740132689476,-0.20331716083778964,0.08640010931094792
1789139615455083000,9.2290830078125,0.1248958110809326,0.1581837832927703,-0.0006810125778429,-0.20079636447166527,0.017388407502455745
1789139615465056300,9.23905615234375,0.098734825849533,0.151613250374794,-0.0273906905204057,-0.17855666425446556,0.04003637224137937
1789139615475029200,9.249029296875,0.0728779286146164,0.1091182455420494,0.0697094947099685,-0.1355117237268202,0.06094235288071169
1789139615485002200,9.259002197265623,0.0729181095957756,0.1212050393223762,0.0305170901119709,-0.1427579542688292,0.023646808369023567
1789139615494975200,9.268975341796876,0.0093164984136819,0.1160494238138198,0.0326537415385246,-0.10195380156397739,0.06500734645660898
1789139615504948200,9.2789482421875,0.0143415424972772,0.0849621146917343,-0.0007092574960552,-0.07734994760957162,0.037970112260630184
1789139615514921200,9.288921142578126,-0.0605817027390003,0.0748506188392639,0.0279519483447074,-0.027737745439457888,0.09635707935371635
1789139615524894200,9.298894287109375,-0.055898729711771,0.0350273251533508,0.0691620633006095,-0.0007937330962653755,0.0955737541302925
1789139615534867200,9.3088671875,-0.0726875662803649,0.0421898961067199,0.0396462492644786,0.005046206332732249,0.09278917236211842
1789139615544840200,9.318840087890624,-0.0866956859827041,0.029848214238882,0.0264023281633853,0.024061369070567544,0.09233196257070928
1789139615554813200,9.328813232421876,-0.127745121717453,0.0368488654494285,0.0599714741110801,0.03985331305735979,0.140303051117661
1789139615564786200,9.3387861328125,-0.1508105993270874,0.0356083735823631,0.0745624527335167,0.05321975697307202,0.1635206713658597
1789139615574759200,9.34875927734375,-0.1665594726800918,0.0605488792061805,0.0283286422491073,0.04511057495095919,0.17371175179551523
1789139615584732400,9.358732421875,-0.1337974220514297,-0.011090537533164,0.0954939723014831,0.0799811466040338,0.14403772111569732
1789139615594705200,9.368705078125,-0.0997366532683372,0.018344584852457,0.057091187685728,0.03891183832275051,0.10967769302957031
1789139615604678100,9.37867822265625,-0.0984656438231468,0.026576105505228,-0.0640749782323837,0.03954642063771511,0.1137693097788554
1789139615614651100,9.388651123046875,-0.1390809714794159,0.0021378742530941,-0.0262298621237278,0.0803758851027252,0.11651527751742871
1789139615624624000,9.3986240234375,-0.1820027828216552,0.0229521710425615,-0.0158960986882448,0.08756004463588199,0.1619806767712197
1789139615634596000,9.40859619140625,-0.1996107995510101,0.075166642665863,-0.0762736871838569,0.05928142443375829,0.21862727080759284
1789139615644569000,9.418569091796876,-0.1670463979244232,0.0430725365877151,-0.0148097807541489,0.062478791710718504,0.16147901615993146
1789139615654542000,9.4285419921875,-0.1129341647028923,0.0317959114909172,0.0788679718971252,0.03414711758740421,0.13718322381514428
1789139615664515300,9.438515380859377,-0.0938699766993522,0.0495947524905204,0.0492277480661869,0.01062564298238227,0.11654046031748724
1789139615674488300,9.44848828125,-0.1090787574648857,0.0242561064660549,0.0749144703149795,0.038315401126743275,0.12895984619270703
1789139615684461000,9.4584609375,-0.1546060144901275,0.00841243006289,0.0864131972193718,0.07674588377382217,0.15984711030711052
1789139615694434000,9.46843408203125,-0.2028529047966003,0.0141336983069777,0.0919318050146102,0.0996046281227825,0.19969836564683688
1789139615704407300,9.4784072265625,-0.1986673772335052,-0.0087901633232831,0.0736509710550308,0.11704944527787808,0.17683293427860053
1789139615714380300,9.48838037109375,-0.1402964890003204,-0.020073976367712,0.0156134953722357,0.09636075955925347,0.1050926001578182
1789139615724353300,9.498353271484374,-0.162532240152359,-0.0295829307287931,0.0274595450609922,0.11615616258028982,0.12063851536315678
1789139615734326000,9.508325927734376,-0.2141056805849075,-0.034139335155487,-0.0132181094959378,0.15237201700242128,0.15480382268163007
1789139615744299300,9.51829931640625,-0.2419500350952148,-0.0650321394205093,-0.0258355904370546,0.19443069347883404,0.16010365956702902
1789139615754272300,9.528272216796877,-0.2292406409978866,-0.0523200742900371,-0.0076422062702476,0.1755353007175133,0.15663468063467334
1789139615764245200,9.538245361328125,-0.2633334100246429,-0.0501371584832668,-0.0475404299795627,0.19611604343567415,0.1888301074663714
1789139615774218200,9.54821826171875,-0.2194607555866241,-0.0801235511898994,-0.1020132601261138,0.19878104647416145,0.15961080007984366
1789139615784191200,9.558191162109376,-0.2523099780082702,-0.0612584203481674,-0.0320181548595428,0.19775916032778718,0.17125827224734227
1789139615794164200,9.568164306640623,-0.2665139436721802,-0.0736533030867576,0.036064226180315,0.21151775801773148,0.1817012869531339
1789139615804137200,9.57813720703125,-0.2696688175201416,-0.0982060953974723,0.0355364568531513,0.23334765761807114,0.1708139887882845
1789139615814110200,9.588110107421874,-0.2332870960235595,-0.0952214896678924,-0.0406065136194229,0.2149644714876914,0.1375833064438411
1789139615824083500,9.59808349609375,-0.2535730600357055,-0.0947660729289054,-0.0205262284725904,0.2249799039715621,0.15193838954817773
1789139615834056200,9.60805615234375,-0.2702481746673584,-0.1195225566625595,0.0183679070323705,0.25216437853175894,0.1551458142220904
1789139615844028200,9.618028076171877,-0.2360626459121704,-0.1091108843684196,-0.0019823126494884,0.22529544513971178,0.12991016067056813
1789139615854001400,9.62800146484375,-0.1978356391191482,-0.0766248479485511,-0.0574548915028572,0.18047312381851688,0.12546243886363673
1789139615863974100,9.63797412109375,-0.2152743935585022,-0.0769153386354446,-0.0445308163762092,0.18992632032370238,0.13479621765767785
1789139615873947100,9.647947021484375,-0.2343460768461227,-0.0785968601703643,-0.0467923730611801,0.20246535124824477,0.14930792973727208
1789139615883920100,9.657920166015623,-0.2419640570878982,-0.0465505048632621,-0.0618474893271923,0.18180240899459332,0.17744449961974035
1789139615893893000,9.66789306640625,-0.200831800699234,-0.0956381559371948,-0.0418964177370071,0.1966347026495959,0.11211678097529759
1789139615903866400,9.677866455078124,-0.1473921686410904,-0.0809035375714302,-0.0558126308023929,0.15469502631272997,0.08633847554528311
1789139615913839000,9.687839111328126,-0.1304792314767837,-0.0632718130946159,-0.0751162841916084,0.13186461116864862,0.0963448631279722
1789139615923812000,9.69781201171875,-0.1163556724786758,-0.082894466817379,-0.0876185297966003,0.14049677599367766,0.0913662839673504
1789139615933785000,9.70778515625,-0.1755966246128082,-0.0695821195840835,-0.0745669081807136,0.1630324080154592,0.12106404781576148
1789139615943758300,9.71775830078125,-0.1693117916584015,-0.0609154254198074,-0.0677707940340042,0.1518986720980735,0.11788488362591465
1789139615953731300,9.7277314453125,-0.1694635897874832,-0.0671922340989112,0.007898136973381,0.15205560319855968,0.10086713384663867
1789139615963704000,9.7377041015625,-0.0957453176379203,-0.056640900671482,0.0123393619433045,0.10057866190321835,0.049107536095684
1789139615973677000,9.747677001953123,-0.0477804541587829,-0.0351132415235042,-0.0200020670890808,0.05750340356306762,0.024685072339504382
1789139615983650300,9.757650390625,-0.0400313511490821,-0.0350979641079902,0.0105786453932523,0.0509776697450984,0.018642990239302867
1789139615993623300,9.767623291015624,-0.0431642942130565,-0.0268248543143272,-9.07770590856e-05,0.04676871031858104,0.019885298074388755
1789139616003596300,9.77759619140625,-0.0565970689058303,-0.0379593409597873,0.0332856215536594,0.06136644056036995,0.04456716672615285
1789139616013569000,9.787569091796875,-0.0075014317408204,-0.0397559069097042,-0.0432831905782222,0.03955385677755019,0.044110436554482255
1789139616023542300,9.797542236328123,0.0312350466847419,-0.0125945936888456,-0.070314273238182,-0.003124678987780606,0.0779011253694204
1789139616033515300,9.807515380859376,0.053428765386343,-0.0271205399185419,-0.0435191467404365,-0.005917277495125085,0.0738177391704964
1789139616043488300,9.81748828125,0.0397240817546844,-0.0151110887527465,-0.0225592050701379,-0.009161707799117791,0.047236940186112304
1789139616053460200,9.827460205078124,0.0356664881110191,-0.0091008674353361,-0.0001345899072475,-0.013198386075631962,0.03436196853631534
1789139616063433200,9.83743310546875,0.0535061061382293,0.0067859641276299,-0.0384618230164051,-0.033878768758933434,0.056925333203600346
1789139616073406200,9.84740625,0.0472047999501228,-0.019709825515747,0.0128237325698137,-0.012098859529117247,0.0513306543432781
1789139616083379200,9.857379150390624,0.0531565472483634,-0.0224192850291728,0.0150597812607884,-0.013483027779913802,0.058079667957863255
1789139616093352200,9.867352294921876,0.0806896314024925,-0.0039254948496818,-0.0146845327690243,-0.042456677286119016,0.07028009805166663
1789139616103325200,9.8773251953125,0.0690701529383659,0.0185777470469474,-0.0142490845173597,-0.054075813402944255,0.04893527895764397
1789139616113298200,9.887298095703123,0.0541977286338806,-0.0099353864789009,0.032853178679943,-0.02542363417797008,0.05889886134822897
1789139616123271200,9.897271240234376,0.044189590960741,0.0019472623243927,0.0025975855533033,-0.027292136010565193,0.03490556606796605
1789139616133244200,9.907244140625,0.0649342834949493,0.013250783085823,-0.0513961389660835,-0.04488033908246623,0.07084746071563751
1789139616143217400,9.917217529296876,0.0958775356411933,-0.0064950087107717,-0.0497441478073596,-0.04680949773861548,0.09756043327763711
1789139616153190100,9.927190185546875,0.1173037365078926,0.0062817726284265,-0.0332376100122928,-0.07068233222361969,0.09954081523087635
1789139616163163100,9.9371630859375,0.1344886422157287,0.0299855768680572,-0.0611971393227577,-0.09803292253210875,0.11454678374464747
1789139616173136000,9.947135986328124,0.1157817989587783,0.0246826913207769,-0.0204270724207162,-0.08562318063591401,0.08426503691590323
1789139616183109000,9.957109130859376,0.1319563239812851,0.0328405313193798,-0.00693263951689,-0.10250367594264845,0.08962159251491073
1789139616193081900,9.967081787109375,0.1104156151413917,0.0722792893648147,-0.0204601660370826,-0.12123605435849966,0.05600304684552837
1789139616203054800,9.977054931640623,0.1698869913816452,0.0568629577755928,-0.0099119041115045,-0.14376420686446673,0.10735494620855865
1789139616213027800,9.98702783203125,0.1819420605897903,0.0642747953534126,0.0248977430164814,-0.15907615265490443,0.11202159610186904
1789139616223001000,9.9970009765625,0.1841831058263778,0.0518519505858421,0.0344752669334411,-0.15090365472097939,0.12259148532174148
1789139616232974000,10.00697412109375,0.1567251235246658,0.056182786822319,0.03512854129076,-0.13860310848042598,0.09870391386223647
1789139616242946800,10.01694677734375,0.1641961336135864,0.0519713908433914,0.0332388058304786,-0.13936888258195573,0.10650130769497883
1789139616252919800,10.026919921875,0.1472179591655731,0.0844427794218063,-0.0219730511307716,-0.15229589383485365,0.07805437972589797
1789139616262892000,10.03689208984375,0.1974284946918487,0.0760529041290283,-0.0673314705491066,-0.1714669462775037,0.14104845976940467
1789139616272865000,10.046864990234376,0.1562405824661255,0.0587700568139553,0.0765154436230659,-0.1431823243468956,0.11497162386747722
1789139616282837800,10.056837646484375,0.1683962047100067,0.0693928897380828,0.0457233600318431,-0.1567978630803779,0.10333300872888983
1789139616292811000,10.06681103515625,0.1235994324088096,0.0759221613407135,-0.0088504031300544,-0.13259034367767847,0.05949054272256068
1789139616302784000,10.076783935546874,0.144826278090477,0.032716728746891,0.003638123627752,-0.11054355809182503,0.09918867311022933
1789139616312757000,10.086757080078126,0.1085154041647911,0.0278354194015264,0.0636194348335266,-0.08958279084980551,0.09258919800065325
1789139616322730000,10.09672998046875,0.1006976962089538,0.0389444753527641,-0.0324683226644992,-0.0877060608731879,0.07084163355716391
1789139616332703000,10.106702880859377,0.0738133490085601,0.0004567368887364,-0.062399324029684,-0.03887189640407672,0.0884944654187891
1789139616342676000,10.116676025390625,0.0436881482601165,-0.0023018391802906,-0.0261515080928802,-0.021632558653354585,0.046150693858825066
1789139616352649000,10.12664892578125,0.0128287700936198,0.0248397663235664,-0.0215556900948286,-0.026183610157261252,0.023678210821791293
1789139616362622000,10.1366220703125,-0.0056948084384202,0.0155757702887058,-0.0142697440460324,-0.008429052333156275,0.020189406507894733
1789139616372595000,10.146594970703124,-0.0112078180536627,0.0140409898012876,0.0382299497723579,-0.007489232790977204,0.04157168545925736
1789139616382568000,10.15656787109375,0.0037592258304357,0.0046931011602282,0.0989556834101677,-0.012576162656950938,0.09833729907488613
1789139616392541000,10.166541015625,0.0379241220653057,0.031502079218626,0.0441004186868667,-0.05047442328249292,0.04275277245018705
1789139616402514000,10.176513916015624,0.0428377017378807,0.0011389749124646,0.0651210620999336,-0.030014970391677092,0.07194595357242134
1789139616412487000,10.18648681640625,0.0551060885190963,0.0014103511348366,0.030069600790739,-0.03499210081960195,0.052138314646172024
1789139616422460200,10.196460205078123,0.0612247586250305,-0.0205659791827201,0.0662821382284164,-0.023062138395537727,0.08962639225804689
1789139616432433000,10.206432861328125,0.0340551882982254,-0.0064195352606475,0.0770852491259574,-0.019588017820811383,0.08221564007932297
1789139616442406000,10.216406005859374,0.0431511476635932,0.0198155120015144,0.0276233293116092,-0.04289212631221399,0.03432185722308854
1789139616452379000,10.22637890625,0.076055034995079,0.0009938869625329,0.0378400161862373,-0.04727604706523587,0.07058468926231302
1789139616462352100,10.23635205078125,0.1106477975845336,0.0091094020754098,0.0419559516012668,-0.07414101315628867,0.09267862946443625
1789139616472324900,10.246324951171877,0.0973743349313736,0.0302042979747056,0.0210139192640781,-0.08223593910644521,0.06381924350531239
1789139616482296800,10.256296875,0.0862093493342399,0.0091138966381549,0.0350718013942241,-0.059564516076564725,0.07209171035677087
1789139616492270000,10.26627001953125,0.0672444477677345,0.0178709030151367,0.0179892219603061,-0.054591609827560075,0.04673920381581827
1789139616502243000,10.2762431640625,0.0855799913406372,-0.0096354186534881,0.0450154729187488,-0.044611633409729866,0.0863305923592906
1789139616512215800,10.2862158203125,0.0489585995674133,-0.0059623862616717,0.0715828984975814,-0.028205693102837975,0.08222557239350331
1789139616522188800,10.296188720703125,0.0576797649264335,0.0220048427581787,0.0336094722151756,-0.053466877681900574,0.04562957374677241
1789139616532162000,10.306162109375,0.0405103638768196,-0.0110021103173494,0.1306731700897216,-0.023157406400227183,0.13528247455963943
1789139616542135000,10.316135009765626,0.0888808146119117,0.0066830911673605,0.0634989589452743,-0.06102306830903542,0.09084473476714375
1789139616552108000,10.32610791015625,0.0684322640299797,-0.0080111660063266,0.113864928483963,-0.04060644408763844,0.12674183278722648
1789139616562080800,10.336080810546877,0.0637452080845832,-0.0096906200051307,0.0747377425432205,-0.033927619608666415,0.09269307664532987
1789139616572054000,10.346053955078125,0.0705895349383354,-0.0025336409453302,0.0971754118800163,-0.045197721676362906,0.11130825849220342
1789139616582027000,10.356027099609374,0.0815424248576164,0.03709477186203,0.0403241664171218,-0.07997746018244548,0.05705114732551093
1789139616592000000,10.366,0.0969067364931106,0.0560173280537128,0.0268083587288856,-0.103348210841057,0.05066253086563581
