time,seconds_elapsed,z,y,x,vertical,horizontal
1789998052832217900,1.5972177734375,-2.3769876366354525,-9.37996889427304,-1.592644454741478,9.727831871388243,1.2408425055056131
1789998052842289000,1.607288818359375,-2.3650850173957645,-9.38698666408062,-1.5688352707393467,9.730889631436023,1.2166251923513787
1789998052852359000,1.61735888671875,-2.351743159133196,-9.394636302050948,-1.54288235270679,9.73413370487291,1.1903840154733718
1789998052862431000,1.627430908203125,-2.3339408143304285,-9.404254025223851,-1.5110012136690318,9.737990676266364,1.1584195062217413
1789998052872501800,1.637501708984375,-2.3166654160112143,-9.41449367968738,-1.4733471903182564,9.74236872497029,1.1209966389581563
1789998052882572000,1.647572021484375,-2.30338478641659,-9.423695807796715,-1.4348372807905077,9.74667710828341,1.0828977428137927
1789998052892643000,1.65764306640625,-2.2879119074746965,-9.4331218077898,-1.3971658679135144,9.750702123529317,1.0460442139925914
1789998052902714000,1.667714111328125,-2.27752699932158,-9.44211584610641,-1.352663586103171,9.755292467246901,1.0023215749338403
1789998052912785200,1.67778515625,-2.2643249879211185,-9.452350824394822,-1.3024201302923262,9.76019543604657,0.9534080995711166
1789998052922856000,1.68785595703125,-2.246864442293346,-9.46335386444628,-1.251765609462559,9.764796953810002,0.9050545716522228
1789998052932927000,1.697927001953125,-2.236996689882129,-9.472443179830908,-1.1995955695033074,9.76932660831152,0.8547637896969785
1789998052942998000,1.707998046875,-2.226754843461513,-9.481352462473511,-1.1471261812712996,9.773580258101926,0.8046794795010963
1789998052953069000,1.718069091796875,-2.212723687760532,-9.490988305824995,-1.0933319011110811,9.777572676180947,0.7546206647516858
1789998052963140000,1.72814013671875,-2.2063987225227057,-9.498855385938286,-1.0363086489669977,9.781599050405092,0.7005031040306641
1789998052973211100,1.738211181640625,-2.204352311386913,-9.505486202254891,-0.9782307001382112,9.78542457504895,0.644855210644914
1789998052983282000,1.748281982421875,-2.1959353423058987,-9.512652440622448,-0.9261183817155658,9.78844309771809,0.5972984709128552
1789998052993353000,1.75835302734375,-2.193872710687667,-9.517767007157206,-0.8771637236062437,9.79112572453278,0.5515791127603319
1789998053003424000,1.768424072265625,-2.195189784635603,-9.521805468893051,-0.8286971412748098,9.79360112125839,0.5057208791947789
1789998053013495000,1.7784951171875,-2.1970197765417394,-9.525580311256649,-0.7789771978814154,9.79589963762853,0.4590554749093191
1789998053023566000,1.788566162109375,-2.198791170128435,-9.528814470872282,-0.7330762282542884,9.797798347537153,0.41657667669888904
1789998053033637000,1.79863720703125,-2.195757355390489,-9.532447274416684,-0.6938819166589528,9.799163388818217,0.38310624739942056
1789998053043708000,1.8087080078125,-2.195049060990661,-9.535417814660072,-0.6541707415826619,9.800430697047565,0.34918589863165406
1789998053053779000,1.818779052734375,-2.198171869186312,-9.537389991515877,-0.613682225458324,9.801629529347208,0.3137385217367283
1789998053063850000,1.82885009765625,-2.1914450451493264,-9.541319732180238,-0.5754780574114993,9.802424135368225,0.28787094767285065
1789998053073921000,1.838921142578125,-2.1806617853283883,-9.545926349192856,-0.538862692926079,9.80295040319737,0.2693178057353073
1789998053083992000,1.848991943359375,-2.1680716222159564,-9.550832241412996,-0.5014470449084416,9.803300244839624,0.2562898964978027
1789998053094063000,1.85906298828125,-2.1605656305000185,-9.554411268943548,-0.464267032277584,9.803603307669668,0.24438617579881364
1789998053104134000,1.8691337890625,-2.153520388163626,-9.557692774832248,-0.4280605773866176,9.803764811734698,0.23784998301869603
1789998053114205000,1.879204833984375,-2.1502897356793285,-9.559837385645508,-0.3951533101715147,9.8038674815773,0.23359222924602388
1789998053124276000,1.88927587890625,-2.1466909805350003,-9.561816576763986,-0.3657280398532748,9.803847007222531,0.23443393887737649
1789998053134347000,1.899346923828125,-2.1369749115541574,-9.564956043833494,-0.3396472576573491,9.803591554680052,0.2449464874597645
1789998053144418000,1.90941796875,-2.1354696215577422,-9.566166004145146,-0.3140839599968865,9.803472370318104,0.24968128042584342
1789998053154489000,1.919489013671875,-2.1387147409588096,-9.56628641565442,-0.287175987995509,9.803398321455472,0.2525627219009036
1789998053164560000,1.929559814453125,-2.13733468477726,-9.567293546870353,-0.2627778616569005,9.803155097047918,0.2617397840209993
1789998053174631000,1.939630859375,-2.1347509518943726,-9.568364975494148,-0.244177224349603,9.802893156049906,0.2714373202749152
1789998053184702000,1.949701904296875,-2.133699250884354,-9.569010872182249,-0.2274665655073709,9.802658216943666,0.27977577696623673
1789998053194773000,1.95977294921875,-2.128487507585436,-9.570563362321256,-0.210296746454481,9.802278245922933,0.2927593776953157
1789998053204844000,1.969843994140625,-2.1326167163446543,-9.570044891405106,-0.1912220618946477,9.802083150931415,0.2992408085862165
1789998053214915000,1.9799150390625,-2.1375041961252688,-9.569314823564886,-0.172239384733513,9.801869856470548,0.30614392598771917
1789998053224985900,1.98998583984375,-2.1339815749570725,-9.570395020017028,-0.1551099890225566,9.801442460383619,0.31956690364713747
1789998053235057000,2.000056884765625,-2.131019802542031,-9.571312719383837,-0.1383365306098014,9.801006242974552,0.3326953440312988
1789998053245128000,2.0101279296875,-2.1327672307312486,-9.571143792557717,-0.1221420228624716,9.80067783263887,0.3422312856346491
1789998053255199000,2.020198974609375,-2.1343489469647405,-9.570979541906716,-0.1062009144874755,9.800323025598367,0.3521960351435089
1789998053265270000,2.03027001953125,-2.138217751222104,-9.570269932332634,-0.0912679876411799,9.800029875281021,0.36025826641296
1789998053275341000,2.040341064453125,-2.1378701068282124,-9.57048036021292,-0.0761928347460227,9.799602571807613,0.371722613758117
1789998053285411800,2.050411865234375,-2.1405764431774617,-9.570008066526055,-0.0572492611859925,9.79911245540394,0.38444045925701525
1789998053295483000,2.06048291015625,-2.146517523664236,-9.568781739601492,-0.0355453332342673,9.798574373970215,0.3979009525215065
1789998053305554000,2.070553955078125,-2.1462577036842703,-9.568898643979429,-0.0120786767762037,9.797773096587285,0.41717098604588265
1789998053315625200,2.080625244140625,-2.1405307043395934,-9.570178162395951,0.0136828708446293,9.796691861736894,0.44181166049973447
1789998053325696300,2.0906962890625,-2.1428714222468432,-9.569564414411785,0.0438994844784494,9.795566914027397,0.46610836873820194
1789998053335767300,2.100767333984375,-2.1455944174699484,-9.568722702890634,0.079605396835599,9.794114280876494,0.4956733212805635
1789998053345838300,2.11083837890625,-2.146848509184271,-9.568035305148362,0.1188146776712033,9.792328413488159,0.5297917439662728
1789998053355909400,2.120909423828125,-2.145621889998764,-9.567744797769189,0.1579210278552957,9.790330381226687,0.5655120578288649
1789998053365980400,2.13098046875,-2.143002647411078,-9.567565934070943,0.1990559155917726,9.7880297429661,0.6040490526014998
1789998053376051200,2.14105126953125,-2.1381125372819603,-9.567684592014553,0.2413929091270081,9.78542404453006,0.6448724522451922
1789998053386122200,2.151122314453125,-2.133602220250666,-9.567546644848584,0.2831253060989082,9.782683463387716,0.6851798521016599
1789998053396193300,2.161193359375,-2.1370829019732773,-9.565326046189666,0.3283689808610826,9.779731225962362,0.7261329322854239
1789998053406264300,2.171264404296875,-2.144144510922581,-9.56196270723641,0.3767035708433017,9.776425980472089,0.7693420090803178
1789998053416335400,2.18133544921875,-2.1463770922802388,-9.559412438231709,0.4255375617150217,9.772721569780103,0.8150436322489352
1789998053426406400,2.191406494140625,-2.1533681202113626,-9.55550666296482,0.4750554066650569,9.768830363344925,0.8604259518980274
1789998053436477200,2.201477294921875,-2.1578946577250955,-9.551818914362787,0.5259605777876452,9.764503413004428,0.9082188907024487
1789998053446548200,2.21154833984375,-2.1524178337492046,-9.550271684920787,0.5742751478951424,9.759923511820874,0.956178213377317
1789998053456619300,2.221619384765625,-2.1525734627023336,-9.54733680051267,0.6206288297258317,9.755433276523007,1.000956655579184
1789998053466689300,2.231689208984375,-2.157152314925194,-9.543023028966784,0.6691850631020962,9.750597281163566,1.0470224211649548
1789998053476760300,2.24176025390625,-2.1592736909933388,-9.53878173813522,0.7208069676592945,9.74512521055123,1.0967758365787357
1789998053486831000,2.2518310546875,-2.1591773910120127,-9.535070024135708,0.7686132594510913,9.739768066299183,1.1433685881339644
1789998053496902100,2.261902099609375,-2.1646489542908967,-9.530352932485938,0.8105880686104298,9.734996068625753,1.1833159653578127
1789998053506973200,2.27197314453125,-2.170306249400228,-9.52572351911962,0.8489677758872508,9.730484537496551,1.2198584872557239
1789998053517044200,2.282044189453125,-2.1773750187426804,-9.520952066934107,0.8836806312195956,9.726310168811505,1.2527059476062656
1789998053527115300,2.292115234375,-2.18775948850438,-9.515849190837145,0.91252656727992,9.72283030492504,1.2794346407377744
1789998053537186300,2.302186279296875,-2.197269221258164,-9.511724219861629,0.932466216372326,9.720410006482357,1.2976949625948762
1789998053547257000,2.312257080078125,-2.196580800602585,-9.510652791237831,0.944936917823553,9.718751874412948,1.3100578274704189
1789998053557328100,2.322328125,-2.193996775458753,-9.510252978265283,0.95491572939381,9.717376330391593,1.3202253084667033
1789998053567399200,2.332399169921875,-2.193873149079084,-9.50955038295388,0.9621571518894284,9.716402363489463,1.3273655773360922
1789998053577470200,2.34247021484375,-2.19222129021883,-9.509598898270726,0.9654396076261996,9.715930266238582,1.3308185784858084
1789998053587541200,2.352541259765625,-2.1930337756454943,-9.509589545920493,0.9636797583468256,9.716181816236633,1.328977074099556
1789998053597612300,2.3626123046875,-2.191557565613091,-9.510898874953387,0.9540670766752212,9.717442706964661,1.319724666981894
1789998053607683000,2.37268310546875,-2.180761592441052,-9.514923308163882,0.9385737394671888,9.719292686237832,1.3060463341579915
1789998053617754000,2.382754150390625,-2.1662812316678464,-9.520602522844076,0.914187413164228,9.722177657193262,1.2843858458505863
1789998053627825200,2.3928251953125,-2.151587958796322,-9.527235092726348,0.8791312242869287,9.726322661129505,1.252620635958327
1789998053637896200,2.402896240234375,-2.142204190509766,-9.532466563639044,0.8446431906864047,9.730374303567622,1.22073568505954
1789998053647967200,2.41296728515625,-2.137993440946937,-9.536104043358565,0.8136804816678166,9.734005185184433,1.1914341191779807
1789998053658038300,2.423038330078125,-2.141271585834771,-9.538253330346942,0.779134361204505,9.738136685036567,1.157179698461926
1789998053668109000,2.433109130859375,-2.1448076510064302,-9.540561022767424,0.7401987005453556,9.74264353980382,1.1186131867507318
1789998053678180000,2.44318017578125,-2.149141004035622,-9.54241395715773,0.7028033281307667,9.746846640903124,1.081380720067194
1789998053688251100,2.453251220703125,-2.1582851183474063,-9.542909631720184,0.6671313454426825,9.750836184915704,1.0447855369732346
1789998053698322200,2.463322265625,-2.1666157243192194,-9.543353868356348,0.6329047392573207,9.754526405043098,1.0097572856041606
1789998053708393200,2.473393310546875,-2.1694097389519214,-9.544980008253454,0.597824183123745,9.758052846644967,0.975079673375035
1789998053718464300,2.48346435546875,-2.1692535254769028,-9.54702174321413,0.5648884569991379,9.761189983083092,0.9431617603605761
1789998053728535300,2.493535400390625,-2.173502999614924,-9.547574700921771,0.5385814648319035,9.76370992275675,0.9166986950674629
1789998053738606300,2.5036064453125,-2.1770717980124057,-9.548172082293034,0.5129879181636497,9.766082212690906,0.8910816718602205
1789998053748677400,2.513677490234375,-2.17184631844908,-9.550949145790934,0.4825514980414882,9.768614049501377,0.8628913700992489
1789998053758748400,2.52374853515625,-2.164976286549121,-9.554206101760268,0.4476665740778669,9.771374394232932,0.8310381251836483
1789998053768819500,2.5338193359375,-2.1668628309480846,-9.555108603557944,0.4183496229723095,9.77377029368941,0.8023874420545417
1789998053778890500,2.543890380859375,-2.1756439571663737,-9.5541079020828,0.3949277212547138,9.775776505411159,0.777538458381433
1789998053788961300,2.553961181640625,-2.180236837914586,-9.55421720767617,0.3659332070365548,9.778046996601914,0.74846721044516
1789998053799032300,2.5640322265625,-2.177092110148072,-9.556299274647236,0.3283050122467801,9.78066987238453,0.7133490808770738
1789998053809103400,2.574103271484375,-2.1686573131494224,-9.559451016676425,0.2901679546194151,9.783067328888285,0.6796832809765608
1789998053819174400,2.58417431640625,-2.156727075250447,-9.56304348821044,0.2590861127331852,9.78478960584876,0.6544390098456097
1789998053829245400,2.594245361328125,-2.1552318682566285,-9.563943651920557,0.2373782301255501,9.786088173920426,0.6347198275245071
1789998053839316500,2.60431640625,-2.1623832013159987,-9.562851765030622,0.21525721840607,9.787564103164494,0.6115223510262108
1789998053849387300,2.61438720703125,-2.165953607148677,-9.56268751437962,0.1844944341400638,9.789385949136362,0.5816428982395087
1789998053859458300,2.624458251953125,-2.167442384401709,-9.562938858792185,0.1509528967425693,9.79120752142566,0.5501346708862116
1789998053869529300,2.634529296875,-2.1743419346570967,-9.561786181625724,0.1219182331771124,9.792814467688453,0.5207366790900412
1789998053879600400,2.644600341796875,-2.187948873596638,-9.559006780040264,0.0930434363484848,9.7944626143753,0.48876381922211026
1789998053889671400,2.65467138671875,-2.192573026265949,-9.558218844532966,0.0589311452917521,9.796056496154845,0.4557125843357236
1789998053899742500,2.664742431640625,-2.18873768588677,-9.5592540327996,0.0219662892319378,9.797473052287229,0.42416344583730803
1789998053909813200,2.674813232421875,-2.189631712117046,-9.55906932388246,-0.0097663812458398,9.79866217317859,0.39573775612262724
1789998053919884300,2.68488427734375,-2.1989732486970723,-9.5568680144459,-0.0341762254217057,9.799675885672258,0.3697703938692
1789998053929954300,2.694954345703125,-2.206888697996736,-9.554919802987577,-0.0595344997460721,9.800624084256096,0.34374712017591574
1789998053940025300,2.705025390625,-2.2127004530154166,-9.553335164144634,-0.0901466463278979,9.801606059907497,0.31448548056439335
1789998053950096400,2.715096435546875,-2.2254173112474382,-9.550039629730582,-0.121001428859448,9.802610112632612,0.2814524189330867
1789998053960167200,2.725167236328125,-2.242111256416887,-9.545738717666268,-0.1489575125411152,9.803497245790146,0.24863757646742346
1789998053970238200,2.73523828125,-2.248551226336509,-9.543593522331118,-0.1849474203382618,9.804283034664051,0.21540580639413628
1789998053980309200,2.745309326171875,-2.240417896502465,-9.54454220135808,-0.2294347603078,9.804847971437077,0.18802859016016013
1789998053990380300,2.75538037109375,-2.2336985251195727,-9.544933831024167,-0.2742681737686507,9.805227769407606,0.16703999799846572
1789998054000451300,2.765451416015625,-2.2362371036864817,-9.543144024997948,-0.3131114617029205,9.805516960694412,0.14909790991859845
1789998054010522400,2.7755224609375,-2.241972724729031,-9.540770281603931,-0.3430126424372196,9.805689612706018,0.13728858986358938
1789998054020593200,2.78559326171875,-2.238966674780845,-9.540299741482734,-0.3742722885757684,9.805640023521772,0.14069258409160876
1789998054030664200,2.795664306640625,-2.23823982181102,-9.538898642513155,-0.4123980576241389,9.80548931628935,0.15085170913029514
1789998054040735200,2.8057353515625,-2.2381723095327613,-9.537231586083768,-0.4496578209603205,9.805208977173566,0.16813888205538743
1789998054050806300,2.81580615234375,-2.2344429137460886,-9.536219194170831,-0.4880568539921194,9.804717990305175,0.19472102448627535
1789998054060877300,2.825877197265625,-2.228254434369504,-9.535577973657846,-0.5272999366326258,9.804022038038662,0.2270731530169483
1789998054070948400,2.8359482421875,-2.2263351567447183,-9.53398456698656,-0.5630056389272212,9.803308294192659,0.2560308422293085
1789998054081019100,2.84601904296875,-2.227282958988845,-9.53212111120224,-0.590129646565765,9.802715524120222,0.2777473869503879
1789998054091090200,2.856090087890625,-2.230548536656052,-9.530241288805009,-0.6079116427002474,9.802329077586569,0.2911134096079178
1789998054101161200,2.8661611328125,-2.2301450704216954,-9.529435233119129,-0.6218566910203546,9.801955985190487,0.30339331880175396
1789998054111232300,2.876232177734375,-2.2165837241895496,-9.531364739876985,-0.6404899336893111,9.801219129127135,0.3263252195309144
1789998054121303300,2.88630322265625,-2.2002961678639053,-9.533699320304391,-0.6615463118519633,9.800302804579074,0.3527526294352242
1789998054131374300,2.896374267578125,-2.195221202687174,-9.533987489596008,-0.6741326025068759,9.799810099526763,0.36618350519440257
1789998054141445000,2.906445068359375,-2.194601901745051,-9.53391091722846,-0.6772463506132363,9.799698904527732,0.36918678850672404
1789998054151516200,2.91651611328125,-2.192210914955288,-9.534554475829005,-0.6759035577021539,9.799695154397249,0.3692400958691734
1789998054161587200,2.926587158203125,-2.1827260243818163,-9.537020573681591,-0.6718250562168657,9.79964136943491,0.3707185684049914
1789998054171658200,2.936658203125,-2.1785059224687515,-9.53864905166626,-0.6623271600313484,9.799853648672919,0.3650472799409842
1789998054181729300,2.946729248046875,-2.17738524787575,-9.539746199253202,-0.6500925323583185,9.800201976596812,0.3555637528894834
1789998054191800300,2.95680029296875,-2.1743866505816576,-9.54131680957079,-0.6369490462120622,9.800521625294849,0.3466463996989629
1789998054201871000,2.96687109375,-2.1698167123176155,-9.543156299957632,-0.6248531694225966,9.800759487912446,0.33984065958254217
1789998054211942100,2.976942138671875,-2.162066098190844,-9.54577261993587,-0.611624306547828,9.800939204443292,0.33463372159728766
1789998054222013200,2.98701318359375,-2.152745750529319,-9.54881330280602,-0.5968459126761183,9.801094012409155,0.3300469082764191
1789998054232084200,2.997084228515625,-2.1494110531486568,-9.55054524116516,-0.5809670832818373,9.801389413333995,0.3212018041378023
1789998054242155300,3.0071552734375,-2.152742243397981,-9.550707153728604,-0.5657433202628046,9.80180051525883,0.3083479630005883
1789998054252226300,3.017226318359375,-2.157696797065437,-9.550280452749131,-0.5539609298693016,9.802158924775977,0.29675801503059274
1789998054262297000,3.027297119140625,-2.1584376785606145,-9.55054699473083,-0.5464238854279742,9.802323206868765,0.2912729329004762
1789998054272368000,3.0373681640625,-2.152147492375225,-9.552196515503525,-0.5423795054079964,9.802252544904595,0.2936284617209628
1789998054282438400,3.0474384765625,-2.1481397180385886,-9.55330476900637,-0.5387557984855026,9.802225051178864,0.29458125225143816
1789998054292509400,3.057509521484375,-2.1440907349087297,-9.554421790337562,-0.5350742969611659,9.802193981967838,0.29563232289559466
1789998054302580500,3.06758056640625,-2.14444437065199,-9.554714051282405,-0.528371620984748,9.80231971060627,0.29138826592065004
1789998054312651300,3.0776513671875,-2.149704629267752,-9.553946574041246,-0.5208176619412377,9.802575212642498,0.2826576908674141
1789998054322722300,3.087722412109375,-2.1573656654149294,-9.552496959754825,-0.5157052873635665,9.802839311501298,0.27334622136743664
1789998054332793300,3.09779345703125,-2.1646451548986136,-9.550833410456775,-0.5160242901848628,9.803000723702866,0.26751702761753954
1789998054342864400,3.107864501953125,-2.1668293670699,-9.550066517737507,-0.5210431047275662,9.802968242022619,0.26873697566141047
1789998054352935200,3.11793505859375,-2.16929254231304,-9.549105563750862,-0.528343892727606,9.802897980702186,0.2712667519622448
1789998054363006200,3.128006103515625,-2.179088252401352,-9.546643557551503,-0.5324955325143411,9.803033652874083,0.26629216935374517
1789998054373077200,3.1380771484375,-2.188398370929807,-9.544407761323452,-0.5343786793798208,9.803188728500896,0.26049620087102343
1789998054383148300,3.148148193359375,-2.187822616868466,-9.544404254192113,-0.5368222731396556,9.803134596724934,0.26258446594408696
1789998054393219300,3.15821923828125,-2.187265421377122,-9.544442832636832,-0.5383827273894101,9.803093710425797,0.26406187681309534
1789998054403290400,3.168290283203125,-2.1843578633673486,-9.545084053149818,-0.5388352934624999,9.80302776596396,0.26653133056020073
1789998054413361200,3.178361083984375,-2.1767126093111933,-9.546697918087244,-0.5411750615216792,9.802826109541101,0.2738423562159778
1789998054423432200,3.18843212890625,-2.169731372121721,-9.548174420380592,-0.5431589653478935,9.802639149124932,0.2804574171963823
1789998054433503200,3.198503173828125,-2.16887621659711,-9.548508766901492,-0.5406905294077471,9.802666649870732,0.27949331766354696
1789998054443574300,3.20857421875,-2.176608272153884,-9.54698491833508,-0.5365077638303861,9.802909711257616,0.27082535868627244
1789998054453645300,3.218645263671875,-2.184217139722407,-9.545393265229462,-0.5338895806886256,9.803113987406244,0.26330844200863907
1789998054463716400,3.22871630859375,-2.1917079338692127,-9.543747836109995,-0.5326043997162953,9.80328591324953,0.2568251863036336
1789998054473787100,3.238787109375,-2.1954883291907605,-9.542997894525527,-0.5304731598412618,9.803396879211466,0.2525652797007742
1789998054483858200,3.248858154296875,-2.1977343545518813,-9.54250748066008,-0.5299927924457937,9.80344783908913,0.25057561320736904
1789998054493929200,3.25892919921875,-2.1964358391739425,-9.54278688212335,-0.5303698090646416,9.803417980686193,0.25179337473238866
1789998054504000300,3.269000244140625,-2.1924328871428966,-9.543801612123849,-0.5286742937257513,9.803370960586719,0.25362471128604713
1789998054514071300,3.2790712890625,-2.191093601363152,-9.544474396818876,-0.5219994556043297,9.803456695368634,0.2502057856019173
1789998054524142300,3.289142333984375,-2.193993122196942,-9.544389641144871,-0.5112730040045455,9.803687335183595,0.24102730307080167
1789998054534213400,3.29921337890625,-2.190434991323948,-9.545650454860924,-0.5029442611962557,9.803745873493817,0.2386793569333163
1789998054544284200,3.3092841796875,-2.183776556348056,-9.547544305783507,-0.4959077136229723,9.803714333066694,0.2399834473622492
1789998054554355200,3.319355224609375,-2.1816199628360566,-9.54868061633706,-0.4833525487586855,9.803838148161123,0.2348497947797808
1789998054564426200,3.32942626953125,-2.177289386285841,-9.550410801130532,-0.4684502362463623,9.80392613670546,0.23111354751831298
1789998054574497300,3.339497314453125,-2.172410235942155,-9.552273672392964,-0.4528580783063545,9.803984896841555,0.2286025527153863
1789998054584568300,3.349568359375,-2.172739760157466,-9.552941780912876,-0.4368853235509246,9.804132741779659,0.2221366749959355
1789998054594639400,3.359639404296875,-2.17281604026407,-9.553782907912137,-0.4177303220301866,9.804271517191738,0.21600008210449612
1789998054604709000,3.369709228515625,-2.167612772532552,-9.555728781282902,-0.399871315136738,9.804249993257894,0.21697191398052842
1789998054614780200,3.3797802734375,-2.1600079966172574,-9.558097263979912,-0.3840831231679767,9.804131842702638,0.2222082571764347
1789998054624851200,3.389851318359375,-2.15725709047392,-9.559429973888395,-0.3659793477332219,9.804100781305012,0.22362543025688103
1789998054634922200,3.399922119140625,-2.157197907632589,-9.560237198618054,-0.3445851524509489,9.804092613728503,0.22393091626355424
1789998054644993300,3.4099931640625,-2.15676287721619,-9.561097030317782,-0.3227760562248528,9.804029380878667,0.2267042413129821
1789998054655064000,3.42006396484375,-2.151831558293849,-9.562757657006385,-0.3060912624762393,9.803839763681568,0.23479951218860717
1789998054665135000,3.430135009765625,-2.1463738774098453,-9.564380289772153,-0.2934450035287067,9.803632425478417,0.24329485241882087
1789998054675206100,3.4402060546875,-2.136950069373846,-9.566866845890878,-0.2808652522124349,9.803304719908915,0.256122440475034
1789998054685277200,3.450277099609375,-2.123301629380137,-9.570326630955934,-0.266135976445768,9.802819598280362,0.2740764748056371
1789998054695348200,3.46034814453125,-2.12398069768548,-9.57063233590424,-0.2491571681866422,9.802664200272933,0.27955533323929305
1789998054705419300,3.470419189453125,-2.1320548446781933,-9.569311900955435,-0.230170545502752,9.802650024936904,0.28003408204112296
1789998054715490000,3.480489990234375,-2.1325456969350576,-9.569565583455562,-0.2145889637556858,9.802449322605712,0.28700576071909617
1789998054725561000,3.49056103515625,-2.1369398402407764,-9.568920271289349,-0.1991425892282277,9.80232708914091,0.2911845590673873
1789998054735632100,3.500632080078125,-2.148723801536858,-9.566687397670746,-0.1784637574073858,9.80226517221458,0.2932039330231699
1789998054745703200,3.510703125,-2.154504576895386,-9.565724105596544,-0.1593492522938177,9.802037281848746,0.3007074088009773
1789998054755774200,3.520774169921875,-2.153894336042553,-9.566049684289098,-0.1477531965189613,9.801784307202905,0.3089057708690491
1789998054765845200,3.53084521484375,-2.1534058218732475,-9.56632616314292,-0.1365264855131507,9.80152660885931,0.3169676803394799
1789998054775916000,3.540916015625,-2.1554988486297426,-9.566071896120905,-0.120332361358311,9.80119915749544,0.3269277603677383
1789998054785987000,3.550987060546875,-2.159806044304371,-9.565332475930452,-0.1001599538228008,9.80079309785957,0.3388719424819131
1789998054796058000,3.56105810546875,-2.1687579970449207,-9.563500584328176,-0.0795075076853856,9.800435137540672,0.3490662327240495
1789998054806129200,3.571129150390625,-2.1761540986455974,-9.561963876280188,-0.0599801017888355,9.800027455126676,0.36035999183206346
1789998054816200200,3.5812001953125,-2.178789561715722,-9.561449497017264,-0.0443821534288581,9.799600799456886,0.37179885029408305
1789998054826271200,3.591271240234375,-2.178263784275949,-9.561621346452831,-0.0305385128067457,9.799137653546252,0.383757390087959
1789998054836342000,3.601342041015625,-2.1744198221988973,-9.562530277991296,-0.0170500514310086,9.79859853796462,0.39729620778850605
1789998054846413000,3.6114130859375,-2.176348890565336,-9.562106499621272,-0.0004116872864269,9.798050909036943,0.4105773459058196
1789998054856484000,3.621484130859375,-2.183981577400863,-9.560348257777097,0.0191146443941746,9.79748576509139,0.42387780417217574
1789998054866555100,3.63155517578125,-2.191215912568569,-9.558632686030863,0.0389829932324821,9.796853117342913,0.43826324614450574
1789998054876626200,3.641626220703125,-2.196685576151311,-9.557281271421909,0.0578704207250615,9.796181824458339,0.4530159702374289
1789998054886696200,3.6516962890625,-2.20817186967507,-9.554487841311095,0.0782186369186267,9.795516333419489,0.467160392862299
1789998054896767200,3.661767333984375,-2.2173893414840102,-9.552140985924003,0.1010039760320447,9.794645969246776,0.48510313026017
1789998054906838300,3.67183837890625,-2.2200160367257893,-9.551257773348688,0.1240631179850082,9.793588785487874,0.5059709618977027
1789998054916909300,3.681909423828125,-2.2174087768368422,-9.551549449771642,0.1462574872016441,9.792434699263623,0.5278375585787004
1789998054926980400,3.69198046875,-2.213618298512697,-9.552007714933156,0.17154314609766,9.791043415480145,0.5530400029010093
1789998054937051400,3.702051513671875,-2.211770917080343,-9.551825928625464,0.2026951488769613,9.78928917374902,0.5832769123688818
1789998054947122200,3.7121220703125,-2.2129323620751498,-9.55079015583694,0.2360230526569299,9.787356562307421,0.6148338341329763
1789998054957193200,3.722193115234375,-2.217432449973374,-9.548864156210422,0.2693771685903892,9.785368331308007,0.6457120283432989
1789998054967264300,3.73226416015625,-2.2157507804967462,-9.548287817627193,0.3017080789559521,9.78322888759223,0.6773566766541472
1789998054977335300,3.742335205078125,-2.204441743236035,-9.549914542046189,0.3315871391899883,9.780983144788287,0.7090485963249915
1789998054987406300,3.75240625,-2.190413948535919,-9.552060321903229,0.3614035277176648,9.778584578740777,0.7413945005720894
1789998054997477400,3.762477294921875,-2.1868673619702457,-9.551581598475575,0.394062409662269,9.77607628156988,0.7737684478082419
1789998055007548200,3.772548095703125,-2.189346903826296,-9.549545124211908,0.4281853362774476,9.773463755888645,0.8061022510744088
1789998055017619200,3.782619140625,-2.189743063537031,-9.54783832029402,0.462838789572753,9.770647114619281,0.8395629705379567
1789998055027690200,3.792690185546875,-2.193313615500182,-9.545486204209924,0.4934254318205639,9.768121093061435,0.8684529110758142
1789998055037761300,3.80276123046875,-2.199583051158488,-9.542554242411256,0.5214442694069817,9.765779613946311,0.894404676996237
1789998055047832300,3.812832275390625,-2.204404918356985,-9.539847906062006,0.5497969055250287,9.76329424530289,0.9211195534958864
1789998055057903400,3.8229033203125,-2.2090974600873885,-9.537180148157477,0.5765910601546987,9.760871528390114,0.9464465243674345
1789998055067974100,3.83297412109375,-2.21106715272516,-9.535319614982605,0.5993630831288174,9.758718100666034,0.9683982914498193
1789998055078045200,3.843045166015625,-2.2162524464085696,-9.532859362348914,0.6190311122056097,9.7568745314527,0.9868036399930109
1789998055088116200,3.8531162109375,-2.2181338762409983,-9.531166002434492,0.6380708898488432,9.754997274513581,1.005189481439258
1789998055098187300,3.863187255859375,-2.218892731784284,-9.529542785146832,0.6593213292788713,9.752835956727417,1.0259464242912593
1789998055108258300,3.87325830078125,-2.2216604429319498,-9.527416294512152,0.6803950239025056,9.750679549095546,1.0462418898253936
1789998055118329300,3.883329345703125,-2.227687740397453,-9.524631632229683,0.6994266913045197,9.748748434847691,1.064096823109272
1789998055128400100,3.893400146484375,-2.234674530544877,-9.521984332591297,0.7130382333539426,9.747379564946739,1.076555166567559
1789998055138471200,3.90347119140625,-2.2390585908479985,-9.520418982970714,0.720150695707649,9.74666533302901,1.083001798252435
1789998055148542200,3.913542236328125,-2.2434994959048926,-9.518851295262577,0.7270198508247733,9.745971429953181,1.0892284973673452
1789998055158612200,3.9236123046875,-2.24912215809226,-9.516925880157949,0.7348147424846887,9.745183254958286,1.0962594234464658
1789998055168683300,3.933683349609375,-2.249320311012864,-9.516127423256636,0.744475866407901,9.744106442604526,1.1057834091940077
1789998055178754000,3.943754150390625,-2.247479359321296,-9.515808858826755,0.7540613678116351,9.74300388560106,1.1154665122223923
1789998055188825000,3.9538251953125,-2.246021415597945,-9.51550373840034,0.7622071918010711,9.742059361705671,1.1236826914532452
1789998055198896000,3.963896240234375,-2.238228277503699,-9.516758706897496,0.7694399195335805,9.741126495945643,1.1317484204910866
1789998055208967200,3.97396728515625,-2.2319022893525657,-9.517952885118126,0.7730248653482645,9.740622357759614,1.136071511176065
1789998055219038200,3.9840380859375,-2.2258340753547845,-9.519714634093642,0.7688103894583881,9.741014008560205,1.1327045270325902
1789998055229109200,3.994109130859375,-2.215505719694495,-9.522743042004109,0.7610990113634616,9.741729075711008,1.1265375975003589
1789998055239180000,4.004179931640625,-2.2067757391415537,-9.524945520484447,0.7589017935801297,9.74183027239109,1.1256647845980479
1789998055249251000,4.0142509765625,-2.201646267298609,-9.525933946999906,0.7613933912001549,9.741456067061032,1.1289009870658209
1789998055259322000,4.024322021484375,-2.195254520434886,-9.527285361608865,0.7629401822507381,9.741162428764406,1.1314331748441273
1789998055269393200,4.03439306640625,-2.1832567702576515,-9.530510753396152,0.757063326106593,9.741597653250505,1.1276814210562311
1789998055279464200,4.044464111328125,-2.1804446354463694,-9.531929972544312,0.7472275032036007,9.742649690712543,1.1185498448160949
1789998055289535200,4.05453515625,-2.189298388509452,-9.530669743350147,0.7373498139202594,9.743930283241806,1.107339412353558
1789998055299606000,4.06460595703125,-2.192409360136837,-9.530743977630138,0.727090431842953,9.745127943770473,1.0967595110917367
1789998055309677000,4.074677001953125,-2.189608623502404,-9.532245029842851,0.715746834725514,9.746316807018571,1.086132340797728
1789998055319747800,4.084747802734375,-2.188510599132627,-9.533430440235138,0.7032151238020509,9.747655074025305,1.0740608313733695
1789998055329819000,4.09481884765625,-2.1892590794123707,-9.53415057120323,0.6910178324647247,9.748977222536187,1.0619939691068143
1789998055339890000,4.104889892578125,-2.189317677731812,-9.535019755253195,0.6787233643632382,9.750280357430398,1.0499580867526161
1789998055349961000,4.1149609375,-2.1966529890559614,-9.53434112533927,0.6644187985483556,9.751917821652963,1.0346478571262392
1789998055360032000,4.125031982421875,-2.205376685998589,-9.533674770385026,0.6447806166205555,9.75409696783865,1.0138911875504775
1789998055370103000,4.13510302734375,-2.20271623461768,-9.535771450403333,0.6224762842234224,9.75629511069507,0.9925111596468735
1789998055380173800,4.145173828125,-2.2042131951771675,-9.536724805605411,0.6022459085561335,9.758316185600794,0.9724408382296804
1789998055390244900,4.155244873046875,-2.2058761599533256,-9.5375472279042,0.5828274703262374,9.760221042830086,0.9531368279618485
1789998055400316000,4.16531591796875,-2.2015089046545326,-9.539778932479024,0.562456919003278,9.762066608480508,0.9340432833484348
1789998055410386200,4.17538623046875,-2.2008809820145365,-9.541049683067202,0.5430092546788975,9.763852464050393,0.9151777219065211
1789998055420457200,4.185457275390625,-2.195777813656628,-9.543293662601709,0.5239239208608866,9.765485081960001,0.8976032121530689
1789998055430528000,4.195528076171875,-2.186887966366857,-9.54633142286241,0.5054212823016568,9.766949216438855,0.8815193070366021
1789998055440599000,4.20559912109375,-2.1857235987626016,-9.547607434147595,0.4859928341343998,9.768609573846813,0.8629318602047857
1789998055450670000,4.215670166015625,-2.181360435117036,-9.549663782155513,0.4647232150798663,9.770318742806845,0.8433570007405617
1789998055460741000,4.2257412109375,-2.1736047064237294,-9.552452536091208,0.4432721019785851,9.77192309310153,0.8245702474406076
1789998055470812200,4.235812255859375,-2.168543915902823,-9.554434649819136,0.424965460915491,9.773283816336894,0.8082841586732388
1789998055480883200,4.24588330078125,-2.164683148821444,-9.555964343604446,0.4099743741411715,9.774376143955758,0.7949576434955964
1789998055490954000,4.2559541015625,-2.1621105218544603,-9.557083118501303,0.3972479443632066,9.775299792965257,0.7835046455577412
1789998055501025000,4.26602490234375,-2.157508434886485,-9.558491816255447,0.3883336567519232,9.77587474208891,0.7763275751788469
1789998055511096000,4.276095947265625,-2.1542459259591995,-9.55947907372713,0.3820519461339339,9.776269913872456,0.7713144178580323
1789998055521167000,4.2861669921875,-2.1496672198668123,-9.560818797898293,0.3742463869495317,9.776743410169123,0.7652933374037907
1789998055531238100,4.296238037109375,-2.146591757944226,-9.561841126683351,0.3656783920252695,9.777300858707639,0.7581362093425397
1789998055541309200,4.30630908203125,-2.1442899107426405,-9.56267290133238,0.3573164410671219,9.777853407933335,0.7509660519708096
1789998055551380000,4.3163798828125,-2.1456641217052934,-9.562588145658374,0.3513149721626192,9.778321819814247,0.7448564723955852
1789998055561451000,4.326450927734375,-2.14656603898108,-9.56246305797398,0.3491852666575461,9.778496237356432,0.742554497179032
1789998055571522000,4.33652197265625,-2.143592576128244,-9.563178512766957,0.3478492688134312,9.778518372013663,0.7422600362979421
1789998055581593000,4.346593017578125,-2.147561333628744,-9.56239057725966,0.3450273797931149,9.778817883531921,0.7383074747588172
1789998055591664000,4.3566640625,-2.149116892507672,-9.562168458941578,0.3415034069180488,9.77910710885763,0.7344778997803537
1789998055601735200,4.366735107421875,-2.147438730162382,-9.562664133504033,0.3381633392425254,9.779302549741036,0.7318705586659011
1789998055611806000,4.376805908203125,-2.1480315814889965,-9.562789221188426,0.330787476712279,9.77983509202702,0.7247229066741271
1789998055621877000,4.386876953125,-2.1459819554828106,-9.563634439840913,0.3194117308909073,9.780571135643857,0.7146987943252749
1789998055631948000,4.396947998046875,-2.144741600032896,-9.564249941390752,0.3091505952479317,9.78123996744448,0.7054872515598771
1789998055642018000,4.40701806640625,-2.1521806639924645,-9.562882160168886,0.2996624898040667,9.782059572265604,0.6940496755865594
1789998055652089000,4.417089111328125,-2.1591262453466653,-9.561667523682116,0.2882350320617668,9.782978549660257,0.6809714438777901
1789998055662160000,4.427159912109375,-2.1602990885183213,-9.56186450755894,0.2724712621482089,9.784025679494757,0.6657530356312646
1789998055672231000,4.43723095703125,-2.1569110535152256,-9.563221182864904,0.2508635885120369,9.785304873271237,0.6466883038585635
1789998055682302000,4.447302001953125,-2.152110959757119,-9.564901683297752,0.2268578407581895,9.78664313822555,0.6261041121052393
1789998055692373000,4.457373046875,-2.1512924829810856,-9.56559726434648,0.2041335841822437,9.78794411158083,0.6054180041632106
1789998055702444000,4.467444091796875,-2.152360696734488,-9.56581938266456,0.1811719934527762,9.789251514768557,0.5838964826247218
1789998055712515000,4.47751513671875,-2.148793798033148,-9.567079027336836,0.1551831638566218,9.790552330604063,0.5616785360167798
1789998055722585900,4.4875859375,-2.1476817451380192,-9.567770516732336,0.1250187473425641,9.79204828258255,0.534966969083944
1789998055732657000,4.497656982421875,-2.1483257421299813,-9.567990296962856,0.0929900987260509,9.793579776882272,0.5061463517376565
1789998055742728000,4.50772802734375,-2.147319487696886,-9.568475450131295,0.0606858526051277,9.794978956724986,0.4783026573511534
1789998055752799000,4.517799072265625,-2.1517044247828423,-9.567637245741484,0.0297868952884222,9.796349547414248,0.4493742335040006
1789998055762870000,4.5278701171875,-2.1537350538276137,-9.567225742331146,-0.0038955424234722,9.79766477392948,0.41971804793422285
1789998055772941000,4.537941162109375,-2.1505157995201647,-9.567861702147123,-0.0412643867345061,9.7988581034743,0.3908687413801175
1789998055783011800,4.54801171875,-2.1516307750247416,-9.567375964456796,-0.078612093215622,9.80001265658359,0.3607348462518556
1789998055793083000,4.558082763671875,-2.1517959024585784,-9.566951601564885,-0.1166404115051962,9.801021410843838,0.33222408446585955
1789998055803154000,4.56815380859375,-2.1518514320380984,-9.566350713062286,-0.1576337901454418,9.801940088670177,0.3038905408001496
1789998055813225000,4.578224853515625,-2.153486924285441,-9.565196866852045,-0.1996813905463554,9.802743494849992,0.2767483814066404
1789998055823296000,4.5882958984375,-2.1565487960740923,-9.563530979466435,-0.2419684257263317,9.803404537738412,0.25226116142054184
1789998055833367000,4.598366943359375,-2.1608158058688045,-9.561355388993023,-0.2858717187302187,9.80392188104807,0.23125788936807282
1789998055843437800,4.608437744140625,-2.1692615626528857,-9.558015430915356,-0.3302199790226295,9.804338343225838,0.21295443389749566
1789998055853508000,4.618508056640625,-2.17554838783741,-9.554908112549782,-0.3756194654010236,9.80449572710564,0.20550753525586254
1789998055863579100,4.6285791015625,-2.179992507764697,-9.551920621171591,-0.4229024274384603,9.80439143490807,0.21049926676334219
1789998055873650200,4.638650146484375,-2.186385569802672,-9.548192540559173,-0.4713022281439974,9.804081572979733,0.224439194535943
1789998055883721200,4.64872119140625,-2.1939473833590744,-9.543847789353132,-0.5214870491027832,9.803521614200056,0.2476861917487469
1789998055893792000,4.6587919921875,-2.203975294768065,-9.53840589056015,-0.5759306234845891,9.802649645374956,0.28008935381074224
1789998055903863000,4.668863037109375,-2.210781906042993,-9.533396537965537,-0.6302248525235802,9.801411590678768,0.3205002044096513
1789998055913934000,4.67893408203125,-2.214373500794172,-9.528920269334316,-0.6831096896886825,9.799860716442494,0.36488393609964354
1789998055924005000,4.689005126953125,-2.221293655446172,-9.523457912275196,-0.7348444800358265,9.79811804868657,0.40899293935722003
1789998055934076200,4.699076171875,-2.2289622903779147,-9.517733104887604,-0.7841470017347484,9.79621388825647,0.45232325129363105
1789998055944147200,4.709147216796875,-2.232494263896346,-9.512993801406026,-0.8302515311099589,9.794147461856314,0.4950503047605352
1789998055954218000,4.719218017578125,-2.2406844384841618,-9.507440843454004,-0.8708038331855088,9.792218627988678,0.5318381353424654
1789998055964289000,4.7292890625,-2.2486294061392544,-9.502308156740664,-0.9056488635301588,9.790430752855142,0.5637907851109862
1789998055974360000,4.739360107421875,-2.248254289216548,-9.499346384325625,-0.9371112656991928,9.78861021132823,0.5945727317679118
1789998055984431000,4.74943115234375,-2.246781732445956,-9.496671027636529,-0.967258201355487,9.786753875423338,0.6243602889194783
1789998055994502100,4.759502197265625,-2.2474781902775165,-9.49409328610301,-0.9906636268623172,9.785272735901835,0.6471610669713604
1789998056004573200,4.7695732421875,-2.246648023063689,-9.492800323683024,-1.00483725977391,9.784332528380787,0.6612262982913367
1789998056014644000,4.77964404296875,-2.2554325102828443,-9.489906940329076,-1.0124592060197144,9.78393103763502,0.6671406442444682
1789998056024715000,4.789715087890625,-2.2640822652064263,-9.487632565656304,-1.0144675501674414,9.783893344687964,0.6676942673391301
1789998056034786000,4.7997861328125,-2.258803301890194,-9.488936049470304,-1.0140427488841115,9.78386341942789,0.6681309707777258
1789998056044857000,4.809857177734375,-2.252028400927782,-9.491230297887324,-1.007607455139607,9.784213707716614,0.6629625868047474
1789998056054928100,4.81992822265625,-2.250627448088676,-9.493087323930858,-0.9931576356351376,9.785150513875143,0.6490164557977512
1789998056064998000,4.829997802734375,-2.24238057487756,-9.497031677642465,-0.9739020232841372,9.786278930585995,0.6317524613788394
1789998056075069000,4.84006884765625,-2.233941978486627,-9.501427282252909,-0.9501410623379052,9.787634916873806,0.6103998161188539
1789998056085140000,4.850139892578125,-2.2328001149751247,-9.504823354431986,-0.9183192522719502,9.789496153245826,0.579774669218224
1789998056095211000,4.8602109375,-2.225471964044124,-9.509856672424078,-0.88333211004287,9.791331890133343,0.5479003802569872
1789998056105282000,4.870281982421875,-2.2182215545244515,-9.514618187737463,-0.8496554658904671,9.792970487157065,0.5177929815763066
1789998056115353000,4.88035302734375,-2.2102070287644864,-9.519742106622456,-0.8123378348872065,9.794643276275522,0.4851399129121559
1789998056125423900,4.890423828125,-2.193458284667879,-9.52697614952922,-0.7719101821046322,9.796134069936402,0.4540224811006814
1789998056135495000,4.900494873046875,-2.180880542645604,-9.533082065188884,-0.7310962334182113,9.797527074029347,0.42291670467879117
1789998056145566000,4.91056591796875,-2.1721033619500694,-9.538240470865368,-0.6887151815455407,9.798864848039948,0.3906924444971144
1789998056155637000,4.920636962890625,-2.1676801386803386,-9.542167288920282,-0.6469966121695936,9.800086889282621,0.3587413163259054
1789998056165708000,4.9307080078125,-2.1634151747122408,-9.545750992625951,-0.6071865067634731,9.801083850137257,0.33039075042861477
1789998056175779000,4.940779052734375,-2.156879635463655,-9.549648000064492,-0.5678881868043915,9.801853327835907,0.3067165129524255
1789998056185849900,4.950849853515625,-2.15300410920456,-9.552703880503772,-0.5299109593812376,9.802499359064566,0.2852894376850932
1789998056195921000,4.9609208984375,-2.1550956746563315,-9.554117838954925,-0.4947480221938342,9.80310053640514,0.2638191163602758
1789998056205992000,4.970991943359375,-2.156653863883764,-9.55537982171476,-0.4625465651605278,9.803532691144063,0.24725598971471388
1789998056216063000,4.98106298828125,-2.15762153987214,-9.556465278863906,-0.4347547777956351,9.80381074593523,0.2359362417108699
1789998056226134000,4.991134033203125,-2.154814081235975,-9.558150455471871,-0.4109710935609414,9.803901578946803,0.23210972447741596
1789998056236205000,5.001205078125,-2.146582843985408,-9.560753331446648,-0.3931373672392219,9.803784746270267,0.2370312409342553
1789998056246275800,5.01127587890625,-2.1421371166229246,-9.562249707484243,-0.3808222582085058,9.80371206024776,0.2400548412253139
1789998056256347000,5.021346923828125,-2.1402118476487697,-9.563034720382094,-0.3718238725103437,9.803680378190915,0.2413376275937504
1789998056266417200,5.031417236328125,-2.1373210946433243,-9.56382674754262,-0.3680493224076926,9.80361129861938,0.24410925407727793
1789998056276488200,5.04148828125,-2.139220060132444,-9.563307107582688,-0.3705466556487605,9.803657954508527,0.2422825512263987
1789998056286559200,5.051559326171875,-2.1383444463416934,-9.563280219575764,-0.3762511874333024,9.803626895562235,0.2435368103247711
1789998056296630000,5.061630126953125,-2.1361412372089923,-9.563406476303934,-0.3853905890373513,9.803547505871219,0.2466272948429703
1789998056306701000,5.071701171875,-2.137630452853441,-9.562485269805787,-0.3997716176219284,9.803536908480673,0.24712328609880935
1789998056316772000,5.081772216796875,-2.140273660838604,-9.561201659736035,-0.4159692306417971,9.803520312809006,0.24772645922570224
1789998056326843100,5.091843017578125,-2.141662046457082,-9.560053658744692,-0.4348003339704125,9.803426921112857,0.25142436662535583
1789998056336914200,5.1019140625,-2.1456667520537973,-9.558132919815185,-0.4567338237611577,9.803330460749068,0.2551634512244253
1789998056346985200,5.111985107421875,-2.15083655590713,-9.55578723347187,-0.4808768428275361,9.803184313145747,0.26074393966362885
1789998056357056300,5.12205615234375,-2.1596102294713257,-9.552335631713271,-0.5092649155851453,9.802992671203992,0.26780180489104244
1789998056367127300,5.132127197265625,-2.168046926166117,-9.54862625580132,-0.5419249300409108,9.802624549660797,0.28093667475776823
1789998056377198300,5.1421982421875,-2.167722224256396,-9.546581013709304,-0.5780620460227132,9.801874512376942,0.3060072965098062
1789998056387269400,5.152269287109375,-2.1658809803038834,-9.544417698195575,-0.619231895474717,9.800825421871451,0.33796273291966245
1789998056397340400,5.16234033203125,-2.174638871777057,-9.539547461810708,-0.6620839258600026,9.799779467988518,0.36701158354440533
1789998056407411500,5.172411376953125,-2.185120956694335,-9.533863570955395,-0.707865799152106,9.798468481755442,0.40049667492946056
1789998056417482500,5.182482421875,-2.191416549707204,-9.528693474841118,-0.7563490403573959,9.79673992649562,0.440745408673132
1789998056427553300,5.19255322265625,-2.198956443692744,-9.522791557320952,-0.8070889013830572,9.794685039714821,0.484258147028413
1789998056437624300,5.202624267578125,-2.2064080748729404,-9.516572244414686,-0.8584853996865451,9.792324878513384,0.5298627474650875
1789998056447695400,5.2126953125,-2.214791141684353,-9.509690083685516,-0.9115360218726098,9.78960763155977,0.5779148971156189
1789998056457766400,5.222766357421875,-2.225050669892132,-9.502101820513603,-0.964159139361605,9.786644649558642,0.6260821354064254
1789998056467836400,5.23283642578125,-2.2353711345069107,-9.494536938217282,-1.0135421789508312,9.783601496045435,0.6719563194501647
1789998056477907200,5.2429072265625,-2.247287636141479,-9.486423774388433,-1.0620045965638012,9.78037982147445,0.7173298109339165
1789998056487978200,5.252978271484375,-2.2596979126423595,-9.478083816066384,-1.1090838892553,9.777007625213248,0.7619031767274659
1789998056498049300,5.26304931640625,-2.26519344131872,-9.470728192606568,-1.1595634188443422,9.773038788501374,0.8112299215362968
1789998056508120300,5.273120361328125,-2.2729219897441566,-9.4624233055979,-1.2111032711412757,9.768728798743616,0.8615903758463197
1789998056518191400,5.28319140625,-2.2829775198124347,-9.453853630173208,-1.2581884821169078,9.764563886126279,0.9075600183999671
1789998056528262400,5.293262451171875,-2.2880131758920847,-9.44662543248534,-1.3025519399784504,9.76038525825135,0.9514502202353561
1789998056538333200,5.303333251953125,-2.301804093096405,-9.437969247820972,-1.340460814873129,9.756707952495637,0.9884587658210462
1789998056548404200,5.313404296875,-2.321953147155792,-9.42824105001092,-1.373743783532828,9.753363008503694,1.020920036949281
1789998056558475300,5.323475341796875,-2.336051815135032,-9.420106258872153,-1.4052999283999204,9.750035178912139,1.0522461262340301
1789998056568546300,5.33354638671875,-2.3471263129875064,-9.412596321633458,-1.436806242775917,9.746579064429028,1.083780495884504
1789998056578617300,5.343617431640625,-2.3594227538503705,-9.404850237551331,-1.46706504130885,9.7431446098964,1.1142246937819322
1789998056588688400,5.3536884765625,-2.369641511656344,-9.398357368400692,-1.492000891253352,9.740228913128352,1.1394426257147807
1789998056598759200,5.36375927734375,-2.384161035396158,-9.39198198814988,-1.5089147627837955,9.738177415834443,1.1568378829861696
1789998056608830200,5.373830322265625,-2.399317103473842,-9.386005836349725,-1.5220235429428517,9.736529031386036,1.170634959866825
1789998056618901200,5.3839013671875,-2.402743716921657,-9.38299671766162,-1.535121947838366,9.73491667246007,1.1839770047805869
1789998056628972300,5.39397216796875,-2.4027678284496066,-9.38103389315605,-1.5470207676857708,9.733451296510607,1.1959470122384441
1789998056639043300,5.404043212890625,-2.4063835347287355,-9.37846258136332,-1.5569633388988673,9.732194667577932,1.2061359364881838
1789998056649114400,5.4141142578125,-2.4031350543268024,-9.37790319391489,-1.5653274087488651,9.731169250445184,1.214381043801292
1789998056659184000,5.42418408203125,-2.4002387483634053,-9.377523254686594,-1.5720377200424671,9.730343076673389,1.2209892074885513
1789998056669255200,5.434255126953125,-2.399823445560783,-9.37728593879938,-1.5740853002220392,9.730086734017283,1.2230293654462083
1789998056679326200,5.444326171875,-2.3957877603039144,-9.37816155259013,-1.575021996550262,9.729992440517469,1.2237869487749091
1789998056689397200,5.454397216796875,-2.3837856262125072,-9.380750984561445,-1.577806366571784,9.729697762941642,1.226122880583639
1789998056699468300,5.46446826171875,-2.3783241459362205,-9.382046869590878,-1.5783467570587992,9.729651304354617,1.2264963055516158
1789998056709539000,5.4745390625,-2.378084784222394,-9.38265652592182,-1.5750680276490747,9.730065440957867,1.2231911260196036
1789998056719610000,5.484610107421875,-2.372743130933493,-9.385144251084329,-1.5682986796446143,9.730938256076172,1.2162417457321482
1789998056729681200,5.49468115234375,-2.3703268635720014,-9.387479416033624,-1.5579351065404712,9.732241093335919,1.2057629634389297
1789998056739752200,5.504752197265625,-2.3665062823705374,-9.390486196634171,-1.5455726147040725,9.733782494713134,1.1932543930844917
1789998056749823200,5.5148232421875,-2.361095801629126,-9.393957087615131,-1.5327115256957708,9.735370784792986,1.1802387267095993
1789998056759894300,5.524894287109375,-2.356170912447572,-9.397398752501608,-1.5191250450223683,9.737021997843376,1.1665282671719415
1789998056769965000,5.534965087890625,-2.3438638040602204,-9.402924822446703,-1.5038905048809943,9.738846729801722,1.1511923265334623
1789998056780036000,5.5450361328125,-2.329087821341306,-9.409508877012131,-1.4855613597251474,9.740987080674788,1.1329477630172398
1789998056790107100,5.555107177734375,-2.319137066821754,-9.415022671997546,-1.4660615633547305,9.7432157026784,1.1136125572036095
1789998056800178200,5.56517822265625,-2.3159571216113863,-9.418961765012144,-1.4456446521393953,9.745523837557371,1.0932299445969496
1789998056810249200,5.575249267578125,-2.3128543332904576,-9.423158047658204,-1.4230956973314284,9.748022635572202,1.0707281719938158
1789998056820320300,5.5853203125,-2.3059556598179043,-9.428325221163034,-1.3998660667829217,9.75051888347378,1.0477377959282819
1789998056830390300,5.595390380859375,-2.298056284870208,-9.433664244103433,-1.3766938655100762,9.75294151196206,1.0249398140804833
1789998056840461300,5.60546142578125,-2.2872049282491207,-9.439869528484344,-1.3520059989772737,9.755434193524612,1.0009330725356036
1789998056850532400,5.615532470703125,-2.274913309691846,-9.44659503734708,-1.325517658893764,9.758017154033311,0.9754417726724628
1789998056860603400,5.625603271484375,-2.2678148758634924,-9.452327443519234,-1.2964986312888562,9.760802933657114,0.9471605998663332
1789998056870674400,5.63567431640625,-2.2621859300658107,-9.457878063383696,-1.2654749858632683,9.763695544011977,0.9168527186568969
1789998056880745200,5.6457451171875,-2.256970533505082,-9.463182599532605,-1.2347687358237802,9.766461223114199,0.886921591563436
1789998056890816300,5.655816162109375,-2.2539329193748534,-9.467450778371097,-1.2072877314411103,9.768866505258426,0.8600166945178415
1789998056900887300,5.66588720703125,-2.243941248323023,-9.472954636484385,-1.1824736812453716,9.770882707440338,0.8368016462088312
1789998056910958300,5.675958251953125,-2.229138085336238,-9.47943523067534,-1.1582829505797474,9.772703423133423,0.8152521653729684
1789998056921029400,5.686029296875,-2.214273693681508,-9.486133267009258,-1.1316497221328317,9.77463148632923,0.7917971647171901
1789998056931100400,5.696100341796875,-2.2022823732450605,-9.492746547669173,-1.0991372263889758,9.776959709934049,0.7625261586012851
1789998056941171200,5.706171142578125,-2.196078550168872,-9.498147529929875,-1.0643388847302644,9.77943102986144,0.7301462131360266
1789998056951242200,5.7162421875,-2.1915572733521462,-9.503273202380536,-1.0272536742433904,9.781959852328288,0.6954397171220155
1789998056961313300,5.726313232421875,-2.1896512936003503,-9.507665884381533,-0.989994641559571,9.78440498809295,0.6601452687830198
1789998056971384300,5.73638427734375,-2.1873630365327,-9.51190600616932,-0.95366119928807,9.78664323214367,0.6260965209563467
1789998056981455400,5.746455322265625,-2.1879608562953767,-9.515569789373874,-0.9149570092972368,9.788935506651999,0.5891766293697208
1789998056991526400,5.7565263671875,-2.184093221081793,-9.520252978754042,-0.8745875164426863,9.79107439536673,0.5524902588843217
1789998057001597200,5.76659716796875,-2.1730304136671124,-9.526593872213365,-0.8320591650538146,9.792999845827056,0.5172315328716701
1789998057011667200,5.776667236328125,-2.166540028734505,-9.53204512335658,-0.7852339201886206,9.795014004168207,0.4775697827316066
1789998057021738200,5.78673828125,-2.158096756168455,-9.53795639322698,-0.7351089761909096,9.79688152159144,0.4375973341564796
1789998057031809300,5.796809326171875,-2.145921165206284,-9.544514144307374,-0.683862261621654,9.798431338108559,0.4014209802765696
1789998057041880300,5.80688037109375,-2.1399203173562884,-9.549529926642776,-0.630572058526054,9.799907184607765,0.363622164543238
1789998057051951000,5.816951171875,-2.1389749993301925,-9.55317558966875,-0.5762114497199654,9.801239976843855,0.32571835365652496
1789998057062022100,5.827022216796875,-2.1411874146826566,-9.555761514508724,-0.5226045088253914,9.802337295852167,0.29079318759504835
1789998057072093200,5.83709326171875,-2.142882966554165,-9.55824982419312,-0.4672023550771176,9.803149655511774,0.2619579780514369
1789998057082164200,5.847164306640625,-2.144368090545386,-9.56050432512164,-0.4109014989234507,9.803651750358041,0.24250743893350268
1789998057092235300,5.8572353515625,-2.150535673264414,-9.561352466383576,-0.3551311329172923,9.803943417296402,0.23038285617585852
1789998057102306300,5.867306396484375,-2.1570523616820574,-9.561826513636111,-0.2982946537832729,9.803918220734841,0.23144845977391906
1789998057112377000,5.877377197265625,-2.1619217212840915,-9.56227718001306,-0.2435758609229698,9.803548310933518,0.24661733835121138
1789998057122448100,5.8874482421875,-2.1705843356892465,-9.56151145633757,-0.1909262390195392,9.802992682832405,0.26781519205336
1789998057132519200,5.897519287109375,-2.1689967742368577,-9.562777530750632,-0.1383526414943859,9.801927660815533,0.3043299111602785
1789998057142590200,5.907590087890625,-2.1595238663621243,-9.565528290763496,-0.0865573622648138,9.800420924673926,0.34945198090740137
1789998057152661200,5.9176611328125,-2.158985667832196,-9.565976619052886,-0.0354518531144014,9.798870438133772,0.39054162483480687
1789998057162732300,5.927732177734375,-2.1549223639160395,-9.566951017042994,0.0116164740834443,9.797122922517513,0.43215684717181246
1789998057172803000,5.937802978515625,-2.147101753292977,-9.568548515367509,0.0568276473735924,9.795137104019888,0.47506328514671425
1789998057182873300,5.947873291015625,-2.144152255837619,-9.568874094060062,0.0982388769665733,9.793235550965505,0.512765681808264
1789998057192944400,5.9579443359375,-2.1424891449309884,-9.568834931093454,0.1323310157178435,9.791557502169672,0.543851867779347
1789998057203015400,5.968015380859375,-2.141549818254262,-9.568556114152074,0.1640066679119132,9.789910065353071,0.5727659497212549
1789998057213086500,5.97808642578125,-2.1419217203065752,-9.56779857378304,0.1994371882606297,9.787979714116283,0.6048359385116723
1789998057223157200,5.9881572265625,-2.1473953294120727,-9.56574573290646,0.2357365455994382,9.785997347595469,0.6361020037576713
1789998057233228300,5.998228271484375,-2.1501013735003767,-9.564275660353898,0.2684689129053615,9.784039299359675,0.6655489233318759
1789998057243299300,6.00829931640625,-2.146292044345289,-9.564120177531242,0.302352697002422,9.78173632239085,0.6985814071990618
1789998057253370400,6.018370361328125,-2.149653921993821,-9.56227834905684,0.3349596112977713,9.779581199492606,0.7281268522147141
1789998057263441400,6.02844140625,-2.1523691723018885,-9.56082055146396,0.3583269698165356,9.77797717880935,0.7493618479430203
1789998057273512400,6.038512451171875,-2.149645300295949,-9.56082288955152,0.3742799604255706,9.776740850871205,0.7653319973312738
1789998057283583200,6.048583251953125,-2.155328022107482,-9.558842529389262,0.3917511370452121,9.775562752439763,0.7802251027948152
1789998057293654300,6.058654296875,-2.1612099197529253,-9.556799040862918,0.4088252771712839,9.774386088353134,0.7948276088182321
1789998057303725300,6.068725341796875,-2.156969067312777,-9.557138648080825,0.4230474984649569,9.773172239947149,0.8096222886434046
1789998057313796400,6.07879638671875,-2.152618617018312,-9.557642505949737,0.4336887925319373,9.772221070363145,0.8210228392617367
1789998057323867000,6.088866943359375,-2.153180342554301,-9.55723860132396,0.4397668338039889,9.771744885352424,0.8266752892772923
1789998057333938000,6.09893798828125,-2.160246919939667,-9.55544996434152,0.4439672081032768,9.77156943264809,0.8287511574361084
1789998057344007700,6.109007568359375,-2.1635637894026933,-9.554648000308871,0.4450821470752358,9.771554601985239,0.8289303099097112
1789998057354078700,6.11907861328125,-2.167502882417291,-9.553982814398408,0.4401218212541192,9.772043556371354,0.8231210804204231
1789998057364149800,6.129149658203125,-2.169733564078808,-9.553968785873057,0.4293014077605679,9.772962839082012,0.8121332065332921
1789998057374220800,6.139220703125,-2.170522084107995,-9.554339372751116,0.4169210880065336,9.773962422506909,0.8000304521392229
1789998057384291800,6.149291748046875,-2.177226696313173,-9.553431025734543,0.4025383058562874,9.775227276082964,0.7844292442351999
1789998057394362600,6.159362548828125,-2.179137790631503,-9.553841944622992,0.3819054503353312,9.776837317972252,0.7640950492556218
1789998057404433700,6.16943359375,-2.180724183040112,-9.554414776074886,0.3577719297496601,9.77865277080447,0.740506865281387
1789998057414504700,6.179504638671875,-2.1927385920912026,-9.55254489054978,0.3334381008189171,9.780632301196373,0.7138831662721109
1789998057424575700,6.18957568359375,-2.2042308769643304,-9.550821720018982,0.3058856934341601,9.782744463217343,0.684328949692612
1789998057434646800,6.199646728515625,-2.2121502717867494,-9.549954874056578,0.274085291482415,9.784975877963253,0.6516262242784572
1789998057444717800,6.2097177734375,-2.215635045162588,-9.550110356879234,0.2381585485819727,9.787274410935174,0.6161376317356371
1789998057454788600,6.21978857421875,-2.2151548604302107,-9.551108720266818,0.1995094863118603,9.7895288483702,0.5792389870342654
1789998057464859600,6.229859619140625,-2.218755223009736,-9.55102922528982,0.1592774839655496,9.791783803232166,0.5397900236498269
1789998057474930700,6.2399306640625,-2.222415206822008,-9.550817043843864,0.1147377744879573,9.794080893561405,0.49636656188953393
1789998057485001700,6.250001708984375,-2.222683502369374,-9.551208088988066,0.0669810894249705,9.796258301365084,0.4513398610052764
1789998057495072800,6.26007275390625,-2.2221707305416465,-9.551546527162191,0.0169958769832912,9.798276449443604,0.4051558913965975
1789998057505143800,6.270143798828125,-2.220894426995516,-9.551799625140427,-0.033917967211164,9.80006066842013,0.3594571719649572
1789998057515213800,6.2802138671875,-2.227095181331783,-9.550026770249008,-0.0861440139572601,9.801738817023194,0.3103243676951011
1789998057525284900,6.290284912109375,-2.239913307981193,-9.546437221324442,-0.1368212580754887,9.803201771074384,0.260058340041972
1789998057535356000,6.30035595703125,-2.256593809147179,-9.541642972785231,-0.1876330426930449,9.804436862718893,0.2083031522860646
1789998057545427000,6.310427001953125,-2.26576364242211,-9.538307690882682,-0.2395978606700897,9.805309633419943,0.1621993121851711
1789998057555498000,6.320498046875,-2.26466240318194,-9.537126372143623,-0.2914228135187178,9.805778560739576,0.13080257108485036
1789998057565568800,6.33056884765625,-2.263741050553321,-9.535563360610604,-0.3448356931459158,9.80597860699294,0.11483624272797416
1789998057575639800,6.340639892578125,-2.276745493555069,-9.530379820492865,-0.3983674499124288,9.806044811783273,0.10904741963462576
1789998057585710800,6.3507109375,-2.2954132230155166,-9.52369230555296,-0.4480284661928191,9.80588371467483,0.12251969652737471
1789998057595782000,6.360781982421875,-2.3052558409854766,-9.51895417111516,-0.4956920981109142,9.805403144235214,0.15643797282028893
1789998057605853000,6.37085302734375,-2.306719922188669,-9.515665650963784,-0.5491296372553334,9.80450874054657,0.20494217577704144
1789998057615924000,6.380924072265625,-2.295541087178886,-9.514790037173032,-0.6079977500811219,9.803089382758193,0.26426909045680763
1789998057625994800,6.390994873046875,-2.288388438945264,-9.512770514044163,-0.6639864715456962,9.801431381109989,0.3199147013727717
1789998057636065800,6.401065673828125,-2.300705776465684,-9.506406239709255,-0.7108890924960375,9.799945809910325,0.3625356381054248
1789998057646136800,6.41113671875,-2.315700078110397,-9.499758472257852,-0.749995360481739,9.798550644267209,0.398467307906345
1789998057656208000,6.421207763671875,-2.323347670254112,-9.4949496106714,-0.7863808982666581,9.797060638384595,0.4336015118032507
1789998057666278000,6.43127783203125,-2.328401592642814,-9.490634670081734,-0.8226566920667886,9.795417472460057,0.4692131613728789
1789998057676348700,6.4413486328125,-2.3354478578925133,-9.485748067083954,-0.8582732182405889,9.793678568318214,0.5042083961371736
1789998057686419700,6.451419677734375,-2.343849337143451,-9.480221997138855,-0.8956227787520736,9.791710730399032,0.5410914564759238
1789998057696490800,6.46149072265625,-2.3449513070359824,-9.476167168790102,-0.9348064228229224,9.78946832359861,0.5802704823059429
1789998057706561800,6.471561767578125,-2.344356117621809,-9.472877479594946,-0.969000734173879,9.787375709196313,0.6145343761835963
1789998057716632800,6.4816328125,-2.3374511605389414,-9.471455922359228,-0.9991212202146648,9.785418578925459,0.6449664061036139
1789998057726703900,6.491703857421875,-2.335175032300502,-9.468903899788856,-1.0282038876403123,9.783448609295638,0.6741810133385119
1789998057736774700,6.501774658203125,-2.3400459993377325,-9.46460649485588,-1.056311061097309,9.781481667403211,0.7021401779815807
1789998057746845700,6.511845703125,-2.3469670307725665,-9.459752040562034,-1.084071101617068,9.77945846162712,0.7297706921505633
1789998057756916700,6.521916748046875,-2.347989505688101,-9.456564642697572,-1.1093810455709696,9.777534293183761,0.7551284726634095
1789998057766987800,6.53198779296875,-2.3499942696392533,-9.45307972319126,-1.1345504850756376,9.775554423736939,0.7803395620430965
1789998057777058800,6.542058837890625,-2.3521416569314897,-9.449310726046562,-1.1611789642821997,9.773386615644732,0.8070280167868267
1789998057787129900,6.5521298828125,-2.350875144127011,-9.44630979066491,-1.187853986044228,9.77113849502648,0.8338058572945591
1789998057797200600,6.56220068359375,-2.3535535695560275,-9.442574111267923,-1.212003434851393,9.769041607662562,0.8580201893932151
1789998057807271700,6.572271728515625,-2.357066838373989,-9.438921433979273,-1.2334431863084434,9.767129008132171,0.8795310965221357
1789998057817341700,6.582341796875,-2.3556521492704747,-9.436089425423742,-1.257584817135334,9.76491684308321,0.9037695020941576
1789998057827412700,6.592412841796875,-2.3549204739950595,-9.433260339477656,-1.279979604294896,9.762809504355388,0.926255602024722
1789998057837483800,6.60248388671875,-2.358009964442998,-9.42984147094488,-1.299338677020371,9.76094546054075,0.9456986166397332
1789998057847554600,6.612554443359375,-2.3595263603553174,-9.42711876798272,-1.3162332593284547,9.759286015218535,0.9626730374254469
1789998057857625600,6.62262548828125,-2.363422052619606,-9.423936630815268,-1.3319387779824434,9.757714116567865,0.9784792016471431
1789998057867696600,6.632696533203125,-2.3699380103848875,-9.42001741154492,-1.3479843422457576,9.756074417732403,0.9946898760335388
1789998057877767700,6.642767578125,-2.3735808969318866,-9.416661086854338,-1.3649164800852536,9.754316935876128,1.0117758699658426
1789998057887838700,6.652838623046875,-2.374448765807599,-9.413891622141003,-1.382405228894204,9.752476674964822,1.0293713304745382
1789998057897909800,6.66290966796875,-2.382495294141024,-9.409694754973051,-1.3970418031424283,9.750887272564464,1.044299959704702
1789998057907980800,6.672980712890625,-2.3949809739656747,-9.404789447274805,-1.40868094914034,9.74957715530577,1.0564685146467183
1789998057918051800,6.6830517578125,-2.402598170971125,-9.401461764156815,-1.4178957906007763,9.748529736533461,1.0660946125849338
1789998057928123000,6.693122802734375,-2.408417817035317,-9.399215446534752,-1.4229026589773597,9.747942759221086,1.071443573719429
1789998057938194000,6.70319384765625,-2.411681202745437,-9.39822994262874,-1.4238861170567572,9.747813184544665,1.072623919071008
1789998057948265000,6.713264892578125,-2.40952227114588,-9.398970531862972,-1.4226494148686528,9.747963554508104,1.0712527860334162
1789998057958336000,6.7233359375,-2.405397738561779,-9.400317270296812,-1.4207333521142602,9.748200990631391,1.0690948353544596
1789998057968406800,6.73340673828125,-2.40210907227993,-9.402064406225085,-1.4147259283930065,9.748880549321921,1.0628831457194126
1789998057978476800,6.743476806640625,-2.3951735739283264,-9.405971350535747,-1.4004483967155217,9.750470923818986,1.0482013031700645
1789998057988547800,6.7535478515625,-2.3851196512952444,-9.41146936343014,-1.3805271600626408,9.752643965871272,1.0277851158701083
1789998057998619000,6.763618896484375,-2.3722952410355207,-9.41764483719468,-1.3603627623036505,9.754794141548096,1.0071728209501878
1789998058008690000,6.77368994140625,-2.361836390863359,-9.423250986638664,-1.3395809632986784,9.756942740774923,0.9861418786689596
1789998058018760700,6.7837607421875,-2.3527480983920395,-9.42861455949843,-1.3176502865195274,9.759146333304013,0.9640857061469913
1789998058028831700,6.793831787109375,-2.341553919682652,-9.43461759930551,-1.2944181717529892,9.761412747253557,0.9408632127076504
1789998058038902800,6.80390283203125,-2.326391421864181,-9.441280564326048,-1.273000266801566,9.76342390649562,0.9197603184475397
1789998058048973800,6.813973876953125,-2.3146942620687185,-9.446735322600604,-1.2536992078736424,9.765179606232914,0.900914393246973
1789998058059044900,6.824044921875,-2.308693414218724,-9.45110228563845,-1.2316582025878131,9.767160553458327,0.8791793590768078
1789998058069116000,6.834115966796875,-2.305258179073036,-9.45544820588827,-1.2044428634040056,9.769554567882507,0.8521749836680941
1789998058079186700,6.844186767578125,-2.302196307284385,-9.459585451823472,-1.1775031993564218,9.771846676378276,0.8254641575947286
1789998058089257700,6.8542578125,-2.299303362321853,-9.463139929434655,-1.1543702341154216,9.773752824137224,0.8025831085478904
1789998058099328800,6.864328857421875,-2.299297663233429,-9.46570422696471,-1.133150774345547,9.77546753580482,0.7814034747518156
1789998058109399800,6.87439990234375,-2.29941237565428,-9.467973925462363,-1.1138036112535743,9.7769937279656,0.762089006816187
1789998058119469800,6.8844697265625,-2.2916063780784603,-9.471884961426255,-1.0965065856244414,9.778267685753743,0.7455684224835546
1789998058129540600,6.89454052734375,-2.2810684713207183,-9.476230881676075,-1.080814364843443,9.779359997386376,0.7310970020837284
1789998058139611600,6.904611572265625,-2.2677705983303484,-9.481350124385951,-1.0637608656466009,9.780484352563583,0.7158887318467821
1789998058149682700,6.9146826171875,-2.2527334804572163,-9.48670785202682,-1.047832571087405,9.781459609757379,0.7024492888435593
1789998058159753700,6.924753662109375,-2.2370888982102275,-9.491857489874958,-1.034626541098952,9.7821848156283,0.6922699322000744
1789998058169824800,6.93482470703125,-2.2193189943723377,-9.497128123754262,-1.02447120391801,9.782623406129575,0.6860320249733269
1789998058179895800,6.944895751953125,-2.206529801556468,-9.501071892943978,-1.015510264153406,9.783024962319192,0.680312107262082
1789998058189966600,6.954966552734375,-2.193911873654276,-9.504764317721127,-1.0082659190483392,9.783286600072383,0.6765334501297514
1789998058200037600,6.96503759765625,-2.186850849226862,-9.506900160706042,-1.0034432481322435,9.7834725486173,0.6738178871703323
1789998058210108700,6.975108642578125,-2.189472429902106,-9.506650569859149,-1.0001018287498504,9.783744102150326,0.6698877444857545
1789998058220179700,6.9851796875,-2.1915708634860813,-9.506675704300402,-0.9952538041967898,9.784100655683535,0.66465802533173
1789998058230250800,6.995250732421875,-2.196874084460735,-9.50603214569986,-0.9896876945022492,9.784558855314334,0.6578697725183086
1789998058240321800,7.00532177734375,-2.20265222947076,-9.505268760111928,-0.9841541719030588,9.785017062171004,0.651008120570518
1789998058250392600,7.015392578125,-2.209968982224911,-9.504117251989245,-0.9788717014554889,9.785480650137787,0.6440232104863133
1789998058260463600,7.025463623046875,-2.2146340514265,-9.503426347115637,-0.9750240861166268,9.785800786596369,0.6391332023505246
1789998058270534000,7.035533935546875,-2.216706912177801,-9.503190784794093,-0.9726169519096612,9.785986977203997,0.636291791419648
1789998058280605000,7.04560498046875,-2.224287722695619,-9.501489826095105,-0.9719177175991236,9.786148128041772,0.6337930691723318
1789998058290676000,7.055676025390625,-2.2346023420915007,-9.49858650586903,-0.976636782010272,9.786002169426883,0.6360614598494119
1789998058300746800,7.065746826171875,-2.246019662032276,-9.4950799590528,-0.9844920255552976,9.785652193774466,0.6413918006185095
1789998058310817800,7.07581787109375,-2.253071187978983,-9.49237829887867,-0.9944047130867838,9.785100090747987,0.6497941940158166
1789998058320889600,7.0858896484375,-2.2604509229667484,-9.48965384235084,-1.0035901092570274,9.784578965248889,0.6575530419614629
1789998058330960600,7.095960693359375,-2.2673896361887453,-9.487064994901418,-1.0123906708281487,9.784068559106224,0.6651280184061563
1789998058341031400,7.106031494140625,-2.271199842126668,-9.485099247786405,-1.0222281011663377,9.783442343471089,0.6742867832202226
1789998058351102500,7.1161025390625,-2.2724800911955536,-9.483792256841063,-1.0314645699366929,9.78282038504004,0.6832465213071778
1789998058361173500,7.126173583984375,-2.272160503852368,-9.482972172629832,-1.0396791483134031,9.782246018902306,0.6914261632640564
1789998058371244500,7.13624462890625,-2.2702644609726965,-9.482446102929115,-1.048577325040102,9.781599785965774,0.700503284427555
1789998058381315600,7.146315673828125,-2.270668657859414,-9.48152372738719,-1.056010543780774,9.7810731492622,0.7078097655087255
1789998058391386600,7.15638671875,-2.2715444177806376,-9.480690783694389,-1.0615854213036595,9.780679964722527,0.7132144224410362
1789998058401457700,7.166457763671875,-2.2756746494531632,-9.47939665223062,-1.0642882505215705,9.780523469398982,0.7153503653586885
1789998058411527700,7.176527587890625,-2.277340244577825,-9.47911491267979,-1.0632395451862364,9.78061557151536,0.7140976754207053
1789998058421598700,7.1865986328125,-2.279651151868701,-9.478639696383476,-1.0625241634584963,9.780688447939148,0.7130995374811077
1789998058431669500,7.19666943359375,-2.283785036803037,-9.477892092886568,-1.0603159858897329,9.780884486667892,0.7104092251088987
1789998058441740500,7.206740478515625,-2.286093021484464,-9.477378298145531,-1.0599263289850205,9.78093107326111,0.7097547971171
1789998058451811600,7.2168115234375,-2.292751602590829,-9.475998241963982,-1.0578891240689905,9.781131477513199,0.7070000079994484
1789998058461882600,7.226882568359375,-2.301322593189776,-9.474815169659257,-1.0498421573441474,9.781767842872426,0.6981365200408979
1789998058471953700,7.23695361328125,-2.3143106695786115,-9.4728120131433,-1.0393144066542386,9.782588656228029,0.6865383678973307
1789998058482024700,7.247024658203125,-2.3269141305640337,-9.471029221379755,-1.027363345162943,9.783478332681549,0.6737588887597894
1789998058492095500,7.257095458984375,-2.3289903523162008,-9.471895482820273,-1.0145816050011665,9.784357080922199,0.6608573559153121
1789998058502166500,7.26716650390625,-2.325470215366036,-9.474643904745578,-0.9968319402337074,9.785525217511827,0.6433187225608241
1789998058512237600,7.277237548828125,-2.3231804969936607,-9.477592817679048,-0.9738942053038626,9.786997392807304,0.620552331105625
1789998058522308600,7.28730859375,-2.3192430114142595,-9.481287580543755,-0.946939709013328,9.78864791770832,0.5939436729336782
1789998058532379600,7.297379638671875,-2.3157041697636247,-9.485146009537576,-0.9164716516438872,9.790426136652068,0.563876737535921
1789998058542450700,7.30745068359375,-2.3143860729023813,-9.488394197678565,-0.8856585071638226,9.792137924280215,0.5333227992215877
1789998058552520400,7.3175205078125,-2.304882623758912,-9.493435114455222,-0.8559164990466087,9.793644644338173,0.5048879236460658
1789998058562591500,7.327591552734375,-2.292763439159095,-9.499194408634304,-0.823976907819882,9.79513470810196,0.4751132451643357
1789998058572662500,7.33766259765625,-2.2861887369439,-9.503794595906138,-0.7884235100101679,9.796712396424999,0.4413711759656872
1789998058582733600,7.347733642578125,-2.274563619471341,-9.509458028495311,-0.7529591056581586,9.798101225282906,0.40937934564368583
1789998058592804600,7.3578046875,-2.257788718020171,-9.516187629011274,-0.7176004267029464,9.799280573247794,0.3801151206398171
1789998058602875400,7.36787548828125,-2.239834397526085,-9.523272034314274,-0.6788348619136959,9.800394675930184,0.35021326879781756
1789998058612946400,7.377946533203125,-2.228850792827457,-9.528640283349157,-0.6384445454668253,9.801473867726983,0.3185639088993896
1789998058623017500,7.388017578125,-2.2223007866621014,-9.532745965102317,-0.5987586874948814,9.802428098894245,0.28771818404932265
1789998058633088500,7.398088623046875,-2.220021443553269,-9.535659806722402,-0.559532884782739,9.803277617964076,0.25715394932865976
1789998058643159600,7.40815966796875,-2.2169860213801265,-9.538577155473828,-0.5204963210323825,9.803954319568923,0.22995062499613858
1789998058653230600,7.418230712890625,-2.2119348754704,-9.541640050175786,-0.4846147872468456,9.804398534606385,0.2101704238642858
1789998058663301400,7.42830126953125,-2.202260745935142,-9.545434181761742,-0.4529175534086301,9.804584128319252,0.20132186251902212
1789998058673372400,7.438372314453125,-2.200299236603826,-9.547353751647472,-0.4208126886175945,9.8048050560295,0.19016183070321382
1789998058683442700,7.448442626953125,-2.2009211678944527,-9.54858417022526,-0.388430979646556,9.804973348460148,0.18135574183809
1789998058693513700,7.458513671875,-2.1991966821894047,-9.55015653410852,-0.358369712979719,9.804989206236712,0.18047545453963645
1789998058703584800,7.468584716796875,-2.201608565636724,-9.550603693354129,-0.3305772680277005,9.804998087432546,0.1800139421691015
1789998058713655600,7.478655517578125,-2.2014134814560413,-9.551448912006617,-0.3065827905865386,9.80489947285583,0.18530237365998542
1789998058723726600,7.4887265625,-2.2004421522058544,-9.552330371016264,-0.2853383059732616,9.804747835282184,0.19312953587961787
1789998058733797600,7.498797607421875,-2.1953392761088906,-9.55399918101132,-0.2682480914952233,9.804509894869495,0.20483566092910288
1789998058743868700,7.50886865234375,-2.1902377151861785,-9.555559269934893,-0.2540535436597652,9.804271957763119,0.2159833130786283
1789998058753939700,7.518939697265625,-2.1909828344650566,-9.555764437118173,-0.2394912767567671,9.804122783629845,0.22264831857805523
1789998058764010800,7.5290107421875,-2.196908717382699,-9.554739185723662,-0.2257123605174943,9.804063609888743,0.22523681462182457
1789998058774081500,7.53908154296875,-2.207940399006754,-9.552424479040504,-0.2157560895726084,9.804129353272042,0.22228933360717873
1789998058784152600,7.549152587890625,-2.215587114367634,-9.55076852852702,-0.2106239691148512,9.804189212467568,0.2196408189620416
1789998058794223600,7.5592236328125,-2.2159965719513592,-9.550702477553486,-0.2093438661764375,9.804177862646624,0.22018154677911364
1789998058804294700,7.569294677734375,-2.205727545262873,-9.55302595206499,-0.2117437303924001,9.804031043792797,0.22660437874444442
1789998058814365700,7.57936572265625,-2.195318671712279,-9.555397357371447,-0.2129388401947915,9.803853106686434,0.2342006400675126
1789998058824435500,7.589435546875,-2.1907561861023304,-9.556424946853518,-0.2137956031545996,9.80377569567063,0.23740492980547404
1789998058834506500,7.599506591796875,-2.190272932630032,-9.556508533483743,-0.2149801915629766,9.80378271088066,0.23709051132699027
1789998058844577500,7.60957763671875,-2.190093338279426,-9.556511456093192,-0.2167682622898369,9.80380695224467,0.23617316416466563
1789998058854648600,7.619648681640625,-2.1911551222920416,-9.556153144174814,-0.2216818811587058,9.803894997487156,0.23239926753158482
1789998058864719600,7.6297197265625,-2.1907240373983976,-9.556078325372932,-0.2290657443323172,9.803986060656602,0.22854585180005363
1789998058874790700,7.639790771484375,-2.185355203841626,-9.557118774336576,-0.2368186782803386,9.803976150884148,0.2289789357377564
1789998058884861400,7.649861328125,-2.1811752878084776,-9.557864624267816,-0.2450729858792386,9.803986705827135,0.2284890639595701
1789998058894932500,7.659932373046875,-2.180644103541225,-9.55776291745901,-0.2536886924027465,9.804072169165853,0.22487229065460712
1789998058905003500,7.67000341796875,-2.180774013531208,-9.557450198248029,-0.2641087266681716,9.804178615766281,0.22014695032573078
1789998058915074600,7.680074462890625,-2.177571564228088,-9.557793312597274,-0.2777608381900004,9.80423130015507,0.21778572027463033
1789998058925145600,7.6901455078125,-2.173744845546782,-9.55817500539124,-0.2941528412708081,9.804269663076893,0.21609802156614885
1789998058935216600,7.700216552734375,-2.171182301582396,-9.558235795667766,-0.3106374362722039,9.804306375147188,0.21442068778734297
1789998058945287400,7.710287353515625,-2.169419529693573,-9.558033551093937,-0.32862105592601,9.804336131983225,0.21300532655159723
1789998058955357400,7.720357421875,-2.1639956049486995,-9.55858300167024,-0.3478228922631591,9.80425236027079,0.21680036569039163
1789998058965428500,7.730428466796875,-2.158913040987402,-9.55893956002295,-0.368978931408003,9.804135155888956,0.22205928848488962
1789998058975499500,7.74049951171875,-2.161023457270116,-9.557625554814932,-0.3900507994007319,9.804136981631526,0.2219601325492919
1789998058985570600,7.750570556640625,-2.16159336611256,-9.556593289157748,-0.4115958743957802,9.804056108164328,0.22551311842563243
1789998058995641300,7.760641357421875,-2.166721668911725,-9.554410099899767,-0.4347016228362917,9.80401981447226,0.22714780635106277
1789998059005712400,7.77071240234375,-2.174998498869688,-9.551453588181731,-0.4577260131362825,9.80399320852235,0.22828575869804196
1789998059015783400,7.780783447265625,-2.1835515154205263,-9.548219428566098,-0.483728396333754,9.803872369990437,0.2333906401295845
1789998059025854500,7.7908544921875,-2.1878708399243654,-9.545746316450831,-0.5121818259451538,9.803553173752002,0.2464283718882224
1789998059035925500,7.800925537109375,-2.1886628670848904,-9.54397872225642,-0.5409288316756486,9.80307453156978,0.264780524331772
1789998059045996500,7.81099658203125,-2.1896219213753936,-9.542237431547044,-0.5671504471143707,9.802570180736298,0.2828724800802242
1789998059056067600,7.821067626953125,-2.1833520473256707,-9.542189500752093,-0.5915868231041357,9.80189234823518,0.30543083292905776
1789998059066138600,7.831138671875,-2.172896119762957,-9.542850010487436,-0.6188015412334352,9.800988567213501,0.33317011079036996
1789998059076209700,7.841209716796875,-2.1764292623251675,-9.540393264985084,-0.6437638407934456,9.800368155446824,0.35094712549751217
1789998059086279700,7.85127978515625,-2.1821960091583428,-9.53741746404469,-0.6679024759456514,9.799755466320523,0.367692566618627
1789998059096350700,7.861350830078125,-2.184826503792405,-9.535312600719928,-0.689010584295541,9.799117761678673,0.384291455989844
1789998059106421500,7.87142138671875,-2.1847321035072205,-9.533821485379338,-0.709639896152541,9.79839790538174,0.40223593722821527
1789998059116492500,7.881492431640625,-2.182640684185922,-9.53267932960689,-0.7310805974576622,9.797562252528671,0.4220761840975841
1789998059126563600,7.8915634765625,-2.1822985927499827,-9.531330253085493,-0.7494688523896038,9.796838794628682,0.43856212109790454
1789998059136634600,7.901634521484375,-2.188419413717836,-9.528678277271986,-0.7651664069328457,9.796319449368236,0.4499934647528302
1789998059146705700,7.91170556640625,-2.200062505238503,-9.52484381367564,-0.7794080635793507,9.795938000783977,0.45825791454196474
1789998059156776700,7.921776611328125,-2.207487102281302,-9.521977902850509,-0.7932941117212176,9.795461197536563,0.468313959175666
1789998059166847500,7.931847412109375,-2.214140276560187,-9.519147063338757,-0.8085726371347903,9.794882135416001,0.4802620540793314
1789998059176918500,7.94191845703125,-2.224885688588768,-9.515383326891063,-0.823245963196829,9.794367553168176,0.49064685297046107
1789998059186989600,7.951989501953125,-2.235864178720861,-9.511519052678349,-0.8380346592668444,9.793816121238686,0.5015487898979155
1789998059197060600,7.962060546875,-2.242513553607464,-9.50869756551683,-0.8521642338410019,9.793203506315814,0.5133667265223931
1789998059207131600,7.972131591796875,-2.251965418694168,-9.50505891675353,-0.8676867240782826,9.79252778872647,0.5260922125557161
1789998059217201400,7.982201416015625,-2.2515797803774475,-9.503480707651375,-0.8857937509160488,9.79156142125975,0.5437946036566176
1789998059227272400,7.9922724609375,-2.248577675952017,-9.502326861441135,-0.9055805475343018,9.790433882110817,0.5637356424287306
1789998059237343500,8.002343505859375,-2.249378909332305,-9.500330719187856,-0.9243499838035552,9.789373748916455,0.5818709034454722
1789998059247414500,8.01241455078125,-2.2500427800685165,-9.498499996629358,-0.9413681194260716,9.788377174931254,0.5983652025836349
1789998059257485600,8.022485595703126,-2.2508925287656485,-9.496693239468335,-0.9574372106954456,9.787414402606933,0.6139258788186324
1789998059267556600,8.032556640625,-2.248601495219022,-9.495414305573702,-0.9753368053276092,9.786269276078484,0.6319153888804212
1789998059277627400,8.04262744140625,-2.25247000721544,-9.492513323435189,-0.9944572469916194,9.785087334543663,0.6499549218576741
1789998059287698400,8.052698486328126,-2.256957381762564,-9.489662025657296,-1.011360816323757,9.78402296386263,0.6657982635140905
1789998059297769500,8.06276953125,-2.258816015241295,-9.487406940206885,-1.0282288759510965,9.782898812334766,0.682118529842846
1789998059307840500,8.072840576171876,-2.2665575692787767,-9.484145308062434,-1.0411848036359994,9.782081327519382,0.6937190615924995
1789998059317911600,8.08291162109375,-2.2748718086376787,-9.480885429483653,-1.0526930897958575,9.781351678635595,0.7039547946327586
1789998059327981800,8.09298193359375,-2.283180202777684,-9.47741804563403,-1.065853161750734,9.780479376170707,0.7159823913889295
1789998059338052900,8.103052978515626,-2.2844247960112987,-9.475654543092846,-1.0787767946012317,9.779539991818005,0.728685521792298
1789998059348123000,8.113122802734376,-2.2829646603308618,-9.474643904745578,-1.0906723265130072,9.778638283804145,0.7406782029959655
1789998059358194000,8.12319384765625,-2.280558914363384,-9.474076918512582,-1.100599115635082,9.777866287010006,0.7508206886234541
1789998059368264700,8.1332646484375,-2.276516214843839,-9.474423539993166,-1.1059684606485067,9.77741828574361,0.7566276450006737
1789998059378335700,8.143335693359376,-2.2787769993826745,-9.47368704241216,-1.107624118901044,9.777311752524474,0.7580084915102608
1789998059388406800,8.15340673828125,-2.285796815016865,-9.472073177474735,-1.106955937315896,9.777422626864084,0.7565682929007194
1789998059398477800,8.163477783203126,-2.286053858517856,-9.471939906483888,-1.1075604790803044,9.777377597826273,0.7571428930075894
1789998059408548900,8.173548828125,-2.285370990820229,-9.472129876098036,-1.1073406988497825,9.777388449979647,0.7569963519630247
1789998059418620000,8.183619873046876,-2.2832705114096403,-9.473137591835856,-1.10305556887649,9.77770132850964,0.7529597470095883
1789998059428690700,8.193690673828126,-2.275013847456872,-9.475841590097549,-1.096870231305063,9.77809915349674,0.7477720879068118
1789998059438761700,8.20376171875,-2.2686577564284205,-9.478305934384464,-1.0887032914623618,9.77865292653698,0.7404817356027825
1789998059448832800,8.213832763671874,-2.260923362784088,-9.481145541724562,-1.0800518560383467,9.779219195985094,0.7329932907980309
1789998059458903800,8.22390380859375,-2.2491860171087086,-9.4849180460006,-1.0713906298726796,9.779720285617513,0.726262415222914
1789998059468973800,8.233973876953126,-2.237361285410821,-9.48888753415346,-1.060945077573508,9.780326441108464,0.7180468788666843
1789998059479044600,8.244044677734376,-2.2307645174942907,-9.492237429103255,-1.044753894294426,9.78138929280477,0.7034315497814196
1789998059489115600,8.25411572265625,-2.230404305879772,-9.494444583758712,-1.0252938454125076,9.78273574403175,0.6844634056225803
1789998059499186700,8.264186767578124,-2.2379211112506687,-9.495034366345404,-1.0031924151763318,9.784325626333146,0.6613135247441245
1789998059509257700,8.2742578125,-2.2476503319740293,-9.495051902002096,-0.9810366974696516,9.785894452071409,0.6376875498524004
1789998059519328800,8.284328857421874,-2.2484477659620343,-9.49691009708941,-0.9610136809427292,9.787162460113581,0.6179134427741388
1789998059529399800,8.29439990234375,-2.240062653324008,-9.500542900633812,-0.9445503296587616,9.788056678831573,0.6035875038796149
1789998059539470600,8.304470703125,-2.2349011789076028,-9.503599950116872,-0.9258543239519,9.78909224794669,0.5865786236425908
1789998059549541600,8.314541748046874,-2.22726513107121,-9.5075770370543,-0.9031367345787584,9.790274663892482,0.5664883463041621
1789998059559612700,8.32461279296875,-2.220710887122154,-9.511672197413445,-0.875749107567966,9.791664024108353,0.5419566159934213
1789998059569683700,8.33468359375,-2.217524073779583,-9.51499871148765,-0.847214867805317,9.79308195109904,0.5156863665952365
1789998059579754800,8.344754638671875,-2.21052588545531,-9.518940727111696,-0.8208252388559282,9.794251548052573,0.4929989277334499
1789998059589824800,8.35482470703125,-2.20150393621847,-9.52331645797789,-0.7938640936288982,9.795330856822659,0.47105153063021216
1789998059599895800,8.364895751953124,-2.1974713197015223,-9.526794947743417,-0.762686792011559,9.796595391997052,0.44397302335976496
1789998059609966800,8.374966796875,-2.1984106463782487,-9.529110823470354,-0.7303454881161451,9.797894423850114,0.4142847416783933
1789998059620038000,8.385037841796875,-2.201843105044961,-9.53060953759551,-0.699837464062497,9.799071424026199,0.3854904931111952
1789998059630109000,8.39510888671875,-2.2006682160466906,-9.532820783904194,-0.6728709850732236,9.7999521254704,0.36236224443986
1789998059640180000,8.405179931640625,-2.191042747958749,-9.536658754631876,-0.6495181665364652,9.800494862464568,0.34742312120224095
1789998059650250800,8.415250732421875,-2.1874824251286684,-9.539256954431533,-0.6228191063117235,9.801182806182792,0.3274474643219649
1789998059660321800,8.42532177734375,-2.189427129455656,-9.540790155348182,-0.5917085132550448,9.80201111063674,0.30160420288453704
1789998059670392800,8.435392822265625,-2.184291520132869,-9.543762449157237,-0.562020938738808,9.802571835501647,0.2828145616456017
1789998059680464000,8.4454638671875,-2.170333575798571,-9.548409982702136,-0.5365611745180562,9.802773903079395,0.27568592113159157
1789998059690535000,8.455534912109375,-2.158192910019308,-9.552407527905702,-0.5139059097914025,9.802887613808917,0.2716246144909658
1789998059700606000,8.46560595703125,-2.1553872049488128,-9.55421779219806,-0.4915220093520357,9.803150955616374,0.26191000570085154
1789998059710676700,8.4756767578125,-2.155358271115273,-9.555392096674442,-0.4682781310824677,9.80343888540301,0.2509139818178477
1789998059720746800,8.485746826171875,-2.1567031098529696,-9.556079494416712,-0.4476331467323005,9.803681717384428,0.24129613742617295
1789998059730817800,8.49581787109375,-2.1572283027708528,-9.556693242400884,-0.4316987877584993,9.80382563170381,0.23534337918429815
1789998059740888800,8.505888916015625,-2.149841553520411,-9.558934883847831,-0.418705012281239,9.80373871820505,0.23890552811222365
1789998059750959900,8.5159599609375,-2.1397325396992266,-9.56166226298511,-0.4080740569451823,9.803549311076273,0.24654799550759632
1789998059761030700,8.52603076171875,-2.1319825100943444,-9.563814472582935,-0.3980914459826424,9.803397007270465,0.2525482261667858
1789998059771101700,8.536101806640625,-2.115157047499716,-9.5678348141402,-0.3912110388191416,9.802970925239707,0.2686251701905065
1789998059781172700,8.5461728515625,-2.102263225265592,-9.570900046929715,-0.3856611496070399,9.802619154007996,0.2811238524478069
1789998059791243800,8.556243896484375,-2.09985236473158,-9.57176923097968,-0.3771638087661936,9.802569678945119,0.28288936506507095
1789998059801314800,8.566314697265625,-2.100418766442686,-9.571857493785023,-0.371720339070633,9.802594843114619,0.28200217725139537
1789998059811385900,8.5763857421875,-2.104593421778828,-9.570982464516163,-0.3706309363987297,9.802717812863111,0.27768611679847344
1789998059821456600,8.58645654296875,-2.109657281039655,-9.569827449262142,-0.3716820528868585,9.802862330988454,0.27255993876685564
1789998059831527700,8.596527587890625,-2.1102201756194234,-9.569622866600753,-0.373760612726584,9.802875722082195,0.2720947842140084
1789998059841597700,8.60659765625,-2.1173998579904434,-9.568028875407576,-0.373956427559629,9.803075935453796,0.26477222794495736
1789998059851668700,8.616668701171875,-2.126414208442718,-9.565941547739506,-0.3761744324026629,9.803315492731006,0.25571005887458614
1789998059861739800,8.62673974609375,-2.127914091611653,-9.565378653159735,-0.3819431154645979,9.803342303607398,0.2546514899932124
1789998059871810600,8.636810546875,-2.121207433579862,-9.566663432273268,-0.3870784690590575,9.803150325972574,0.26199929439202685
1789998059881881600,8.646881591796875,-2.113046923477948,-9.568288987648486,-0.3914776173334569,9.802909977656727,0.27079908937472685
1789998059891952600,8.65695263671875,-2.107653978393227,-9.56943523507416,-0.3925434929993003,9.802754104638476,0.2764025484781398
1789998059902023700,8.667023681640625,-2.10697169521749,-9.569628127297758,-0.3915110446790233,9.802738436714433,0.2769697793679608
1789998059912094700,8.6770947265625,-2.109043094664067,-9.569219546496868,-0.3903417086387052,9.80280144688793,0.27472886015629083
1789998059922165800,8.687165771484375,-2.1075299136221406,-9.56953051214218,-0.3908644538711756,9.80275549921058,0.27632626300997587
1789998059932236500,8.697236572265625,-2.107467223649472,-9.569556815627216,-0.3905549860632046,9.80275458955337,0.2763537595244232
1789998059942307600,8.7073076171875,-2.109260244546085,-9.569281505817177,-0.3876487797603011,9.80281636530584,0.2742083174137529
1789998059952377900,8.7173779296875,-2.112862945213169,-9.568703998190164,-0.3822491126738488,9.802932861609442,0.27001430545982774
1789998059962449000,8.727448974609375,-2.1185729934230446,-9.567751812031863,-0.3743987279670313,9.803107436334896,0.26360057716032503
1789998059972520000,8.73752001953125,-2.1298262088432907,-9.565711246114969,-0.3624950492814183,9.803421940394974,0.251619242630837
1789998059982590700,8.7475908203125,-2.1370248881757257,-9.564577273648975,-0.3498140660803764,9.803605414247892,0.2443451633284215
1789998059992661800,8.757661865234375,-2.1369078376673163,-9.565021510285138,-0.3381666271781549,9.803585047671087,0.2451295162119137
1789998060002732800,8.76773291015625,-2.136501302693039,-9.56557797512412,-0.3247234274329617,9.8035382177276,0.24698893187119625
1789998060012803800,8.777803955078125,-2.1360845385856924,-9.566188800498844,-0.3091283103508874,9.80346351408619,0.24997752502103315
1789998060022875000,8.787875,-2.1426002040900287,-9.5653523496747,-0.2892639915170147,9.803509345019629,0.24815194316198294
1789998060032946000,8.79794580078125,-2.146138899610192,-9.565173485976455,-0.2681698934261687,9.803427231997995,0.25136744400835437
1789998060043016700,8.8080166015625,-2.1396344861522314,-9.567120528391005,-0.250117446319852,9.803084745547766,0.2644222903893298
1789998060053087700,8.818087646484376,-2.1396901618622244,-9.567600420862435,-0.2305233957947231,9.802852358295782,0.2729074559636618
1789998060063158800,8.82815869140625,-2.140348187379539,-9.568030044451357,-0.2051708548081107,9.802508091970706,0.28499031782535916
1789998060073228800,8.838228759765625,-2.1398728249527514,-9.568664835223554,-0.1787973915422335,9.802051241379607,0.3002705520124945
1789998060083299800,8.8482998046875,-2.139892698697001,-9.56908393741846,-0.1544315783043391,9.801578056786715,0.31531709815899134
1789998060093370600,8.85837060546875,-2.133029973320663,-9.570952653899788,-0.1320856717878021,9.800917034381282,0.33529610815241945
1789998060103441700,8.868441650390626,-2.123193931221962,-9.573414660099148,-0.1103635414591059,9.800133886119418,0.35745859787722073
1789998060113512700,8.8785126953125,-2.1287696855276823,-9.572453121590614,-0.0828612020274624,9.799553618628035,0.373006693649185
1789998060123583700,8.888583740234376,-2.1382678739741445,-9.570568038496374,-0.0490997793681686,9.79880057629978,0.3922755850155818
1789998060133654800,8.89865478515625,-2.147325625176728,-9.568652560263873,-0.0164428667600092,9.797951498755278,0.41295999260396854
1789998060143725800,8.908725830078126,-2.1549254326559604,-9.566944587302208,0.0160996873370371,9.796954716274824,0.4359700035682537
1789998060153796600,8.918796630859376,-2.1647119365245104,-9.564614683049916,0.0504815754156559,9.795817690289761,0.4607992745310757
1789998060163867600,8.92886767578125,-2.1742937116011976,-9.562196515992284,0.0852017646710854,9.794533234356159,0.4873740007009356
1789998060173938700,8.938938720703124,-2.17619589196071,-9.561422609010338,0.1172314544672146,9.793081005792224,0.5156922494945333
1789998060184009000,8.949009033203126,-2.172521441231668,-9.561870352777838,0.1455481242227368,9.791597608639501,0.5431524490352693
1789998060194080000,8.959080078125,-2.17361318199113,-9.561096445795894,0.176761447001528,9.789978759928347,0.5715942617227386
1789998060204150800,8.96915087890625,-2.1788379309020933,-9.559155833122134,0.2135581776695325,9.788026891430368,0.6040957200114058
1789998060214221800,8.979221923828124,-2.1841830913223323,-9.557003039002415,0.2518231359928846,9.78584516998251,0.6384450366876031
1789998060224292900,8.98929296875,-2.185319255745411,-9.555721767020223,0.2880077078456059,9.78356472986812,0.6724941297102709
1789998060234364000,8.999364013671874,-2.181077526522428,-9.555614799514412,0.3217546772878616,9.781209050381682,0.7059383531783473
1789998060244435000,9.00943505859375,-2.1819138312160966,-9.55422246837318,0.355623154217936,9.77883238133887,0.738119250198298
1789998060254506000,9.019506103515624,-2.179456939583272,-9.553429856690764,0.3902782880136743,9.77621117017535,0.7720536745860388
1789998060264576800,9.02957666015625,-2.176524247132241,-9.552730183988809,0.4224843481568619,9.773653740230577,0.8038018144790432
1789998060274647800,9.039647705078124,-2.175753847281635,-9.551596211522815,0.4510930048625916,9.771329400102058,0.8315657795237393
1789998060284718800,9.04971875,-2.175591934718192,-9.55021206368804,0.4802631313759833,9.76888946843671,0.859768548301697
1789998060294790000,9.059789794921874,-2.181028280553221,-9.54744961323738,0.5096324702559039,9.766461590578599,0.8869226191565686
1789998060304860000,9.06985986328125,-2.1836443082705137,-9.545414308017492,0.5358701235139742,9.76416943959888,0.9118051989462516
1789998060314930700,9.0799306640625,-2.171605057039112,-9.546986087378858,0.5563968517793342,9.762033038302281,0.9343983583718373
1789998060325001200,9.090001220703124,-2.1617411040201784,-9.548182019165155,0.5739951984426006,9.760165267301396,0.9537027391791124
1789998060335072300,9.100072265625,-2.163925754582882,-9.546457095068693,0.5941163050491363,9.758291586422487,0.9726958607991341
1789998060345143300,9.110143310546874,-2.168537193901092,-9.544107317072152,0.6147041889172047,9.756382783329492,0.991662375078745
1789998060355214300,9.12021435546875,-2.174825188129395,-9.541622514519094,0.6308423268347978,9.754910547901924,1.0060353136236577
1789998060365285000,9.13028515625,-2.181565602300316,-9.539480826315284,0.6398893374476582,9.754137904485297,1.0134964317841715
1789998060375356200,9.140356201171874,-2.1873202203042803,-9.537877482771872,0.6441440722826868,9.753822438026654,1.01653630324909
1789998060385427200,9.15042724609375,-2.193155940720439,-9.5363004427135,0.6476400977049023,9.753579650343,1.0188625101480573
1789998060395498200,9.160498291015625,-2.197578725598752,-9.535041967085004,0.6511616959597915,9.75330265626404,1.021506935304162
1789998060405569300,9.1705693359375,-2.1984929178342223,-9.534927985316514,0.6497217262845486,9.7534657805402,1.0199345000424067
1789998060415639000,9.18063916015625,-2.1976440459199247,-9.53562648897469,0.6423154686160385,9.754206270412393,1.0128381337973384
1789998060425710000,9.1907099609375,-2.1973111607037485,-9.53627823088169,0.6337073608770967,9.755069989638807,1.004476654890193
1789998060435781000,9.200781005859374,-2.18808535945788,-9.539145895272492,0.6223844412215054,9.756027270877766,0.9951463380487773
1789998060445852200,9.21085205078125,-2.167794704970717,-9.544868364572524,0.6054294339630752,9.757277489927025,0.9828157324690521
1789998060455923200,9.220923095703125,-2.144149771619588,-9.551491582104562,0.5848189729370177,9.75872146434864,0.9683688855590364
1789998060465994200,9.230994140625,-2.13004642746523,-9.55595382221043,0.5630741010535508,9.760421931877321,0.9510874777752759
1789998060476065300,9.241065185546876,-2.124123759417981,-9.558185526785254,0.5473417674578726,9.761722509927964,0.9376401011798905
1789998060486136300,9.25113623046875,-2.1216830882675946,-9.55938730379045,0.5356854511294513,9.762719748699654,0.9271929474560646
1789998060496207400,9.261207275390625,-2.1095387692265213,-9.563103109443189,0.51700756560117,9.764059571604477,0.9129799591226061
1789998060506278400,9.2712783203125,-2.0867254643939432,-9.56955097040832,0.4895390919065102,9.765783815194204,0.8943399445336613
1789998060516349400,9.281349365234377,-2.0686416723012924,-9.574749123573303,0.4639921608589589,9.767371913418406,0.8768316703068115
1789998060526420500,9.29142041015625,-2.05366490631327,-9.579003858408331,0.4421654924435541,9.7686626601097,0.8623193274597987
1789998060536490200,9.301490234375,-2.0412724577300247,-9.582618541774153,0.4207386735333129,9.76994412463854,0.8476934567922307
1789998060546561300,9.311561279296876,-2.028425543377548,-9.586419103100896,0.3955378159770741,9.77143273530726,0.8303576750761619
1789998060556632300,9.32163232421875,-2.0075044820323584,-9.591976152706144,0.3664813059059902,9.772809132044927,0.8139969137909492
1789998060566703400,9.331703369140625,-1.974023360452056,-9.60004313930571,0.3358521396907046,9.773634694752257,0.8040261298060212
1789998060576774400,9.3417744140625,-1.9473111484847965,-9.606551790547371,0.3041927901774645,9.774625854648573,0.7918842520934914
1789998060586845200,9.35184521484375,-1.9271081722810863,-9.611669864213466,0.2691703939719125,9.775967052037258,0.7751544264047117
1789998060596916200,9.361916259765623,-1.9065984682157635,-9.616665188282727,0.2345561949747614,9.777100146369348,0.7607209731544782
1789998060606987300,9.3719873046875,-1.8932402433402835,-9.61992623590529,0.2075023116966709,9.778009106002603,0.7489556298951959
1789998060617058300,9.382058349609377,-1.8772241974323989,-9.623546179968118,0.1837369668362662,9.778503084632073,0.7424610846555594
1789998060627129300,9.39212939453125,-1.8532969400085508,-9.62865256319642,0.1571862107747234,9.778623632176483,0.7408691488322168
1789998060637199000,9.40219921875,-1.8315445424057544,-9.633227031505108,0.1294608305763918,9.77879773583214,0.7385752498389979
1789998060647270100,9.412270263671877,-1.8089602240234608,-9.637806175988912,0.1035216122756246,9.778710094349838,0.7397233218560407
1789998060657341200,9.422341064453123,-1.7844431840129196,-9.642596917396784,0.0803532012619078,9.778259031329572,0.7456673129048759
1789998060667412200,9.432412109375,-1.7600418793365358,-9.647239190244674,0.0583099081208696,9.777651209377565,0.7535968975212756
1789998060677483300,9.442483154296877,-1.731222758217901,-9.652565353703498,0.035008369963488,9.776682343478047,0.7660666333817359
1789998060687554300,9.45255419921875,-1.7052010127328334,-9.657249127605557,0.0142517533488338,9.77567566699739,0.7788065052450367
1789998060697625000,9.462625,-1.6966243230454623,-9.6587712226063,-0.0009862670238839,9.775627618820092,0.7794236685407213
1789998060707696000,9.472696044921875,-1.6928512342475357,-9.65942647164464,-0.0116991907807008,9.775738078792509,0.778040454162696
1789998060717767200,9.48276708984375,-1.680959574793279,-9.661483404174447,-0.0224516501796431,9.775243059800824,0.7842281936012293
1789998060727838200,9.492838134765623,-1.66288133565858,-9.664581370189785,-0.032766399722977,9.774243404686247,0.7965845218175608
1789998060737909200,9.5029091796875,-1.6434252322994172,-9.667896193826198,-0.0367524622680153,9.77289065753658,0.8130327472337598
1789998060747980300,9.512980224609375,-1.6316415632642804,-9.669898765820264,-0.0343305026679649,9.77189092586406,0.82493796652405
1789998060758050300,9.52305029296875,-1.632575336983055,-9.669754388913512,-0.0302812912092427,9.77183009566658,0.8256547164884396
1789998060768121300,9.533121337890623,-1.6391194979295134,-9.668664840111136,-0.0242617021261597,9.772139918880415,0.82198695543661
1789998060778192400,9.5431923828125,-1.6480832872383295,-9.667160865288972,-0.0146500490760838,9.7725034780037,0.8176601454103404
1789998060788263400,9.553263427734375,-1.656057627118379,-9.665807697114348,-0.0062972638093255,9.772819345626234,0.8138838954156988
1789998060798334500,9.56333447265625,-1.6605276121392845,-9.66504080439508,0.0019971239246857,9.772857174589621,0.8134078527251841
1789998060808405200,9.5734052734375,-1.667922252435237,-9.663760116934776,0.0134603346847288,9.772990050193222,0.811831815871948
1789998060818476300,9.583476318359375,-1.6797214113004504,-9.661686233270167,0.0274878839313169,9.773327367571707,0.8077577853418283
1789998060828547300,9.59354736328125,-1.7041107332780956,-9.65735551058948,0.0434129704699851,9.774456410581873,0.7939744409151583
1789998060838618400,9.603618408203126,-1.737402908157557,-9.651329089906811,0.0606465891738189,9.776049726270603,0.7741135738499054
1789998060848689400,9.613689453125,-1.776124560739845,-9.644148823013902,0.0784082320734392,9.777819914928406,0.7514057078503263
1789998060858759200,9.62375927734375,-1.8133754101172088,-9.637065586754678,0.09492088412554,9.779373353744978,0.7309105853214298
1789998060868830200,9.633830322265624,-1.8396579984955488,-9.631967386832832,0.1060397417095489,9.78039117955678,0.7171681072870805
1789998060878901200,9.6439013671875,-1.868174337275326,-9.626379357567428,0.114536488895351,9.781570161995582,0.7008984687532114
1789998060888972300,9.65397216796875,-1.9074419333025807,-9.618537996417285,0.1256648632263764,9.78307233218103,0.679628809430422
1789998060899043300,9.664043212890626,-1.943266987660527,-9.61119815504849,0.1376707875769119,9.784195286644884,0.6632438461733224
1789998060909114400,9.6741142578125,-1.9731734656244515,-9.604953123179078,0.1477959305489901,9.785014789719812,0.6510508628081663
1789998060919185200,9.68418505859375,-1.9916171770706768,-9.6010526086092,0.1537749410265125,9.785482189228482,0.6439994022235805
1789998060929256200,9.694256103515626,-2.012498783188313,-9.596638299298286,0.1573475022836588,9.786129116175129,0.6340766183336404
1789998060939327200,9.7043271484375,-2.0576129132866856,-9.586944003757834,0.1647076923207379,9.787387271134932,0.6143657386670487
1789998060949398300,9.714398193359376,-2.1049292296044526,-9.57641676452458,0.1786327572987414,9.788132834008156,0.6023706461160226
1789998060959468300,9.72446826171875,-2.1444993157096204,-9.567363104975223,0.1924915521075017,9.788433758870594,0.5974375643993309
1789998060969539000,9.7345390625,-2.168904273647815,-9.561817161285877,0.1946822853511199,9.788886838916731,0.5899905263825928
1789998060979610000,9.744610107421876,-2.188377035880834,-9.557447860160469,0.1912743766037747,9.78948960109335,0.5798990326658511
1789998060989681200,9.75468115234375,-2.2183460576869547,-9.550469253319502,0.1946181523400358,9.789859130261977,0.5736345745357664
1789998060999752200,9.764752197265626,-2.262415354907513,-9.539936753389238,0.2036386950710788,9.789991326513126,0.5713624433895276
1789998061009823200,9.7748232421875,-2.304108716776967,-9.529818679478764,0.2097861117849126,9.79005427382114,0.5702706119064945
1789998061019894300,9.784894287109376,-2.3413337010607123,-9.520677341645955,0.2127339104735292,9.790098325595014,0.5695358068641462
1789998061029965000,9.794965087890626,-2.3806720242366195,-9.510838669198751,0.216219651963748,9.789958495356407,0.571939748228219
1789998061040036000,9.8050361328125,-2.4301668536372483,-9.49815688228011,0.2229283010232262,9.789404543364174,0.5813353685095828
1789998061050107100,9.815107177734374,-2.4787016058340665,-9.485441777613758,0.229857223503571,9.788577808438209,0.5951018388583642
1789998061060178200,9.82517822265625,-2.5071228136762973,-9.47790436784625,0.2325247622123919,9.788055282244757,0.6036369485523564
1789998061070248400,9.83524853515625,-2.525093062391877,-9.473115964525938,0.2331924871398135,9.787739940711287,0.6087254226325817
1789998061080319200,9.8453193359375,-2.5460841202333566,-9.467473574724792,0.2340646851307712,9.78732068280712,0.615418852602023
1789998061090390300,9.855390380859374,-2.5702494241967795,-9.460917577210068,0.2350494949170388,9.786780191354644,0.6239593388317702
1789998061100461300,9.86546142578125,-2.5896234022304414,-9.455708902651072,0.2319970120112411,9.786532310528663,0.6278440615430838
1789998061110532400,9.875532470703124,-2.6017440481349823,-9.452544885662196,0.2252357742480002,9.78664504346158,0.6260885358751829
1789998061120603400,9.885603271484374,-2.6122622272789475,-9.4498356267035,0.2170009933334775,9.786864131820307,0.6226453341830647
1789998061130674400,9.89567431640625,-2.62677736710459,-9.445997655975818,0.2087487315611913,9.786957374208509,0.6211863177724058
1789998061140745200,9.9057451171875,-2.6377596566289663,-9.443166231942175,0.1980651327224448,9.787259279867087,0.6164009050028166
1789998061150816300,9.915816162109374,-2.642564718823135,-9.44209597236216,0.1845692164093255,9.787874981354685,0.6065424877809495
1789998061160887300,9.92588720703125,-2.643290110488236,-9.44215325550735,0.1707495297682471,9.788607752482818,0.5946043883476302
1789998061170958300,9.935958251953124,-2.6412749712735413,-9.442968663543462,0.156170640524011,9.789439500013376,0.580735911649486
1789998061181028400,9.9460283203125,-2.649972364731133,-9.44078956593871,0.1397455114917364,9.790028967495445,0.5707212855309131
1789998061191099100,9.95609912109375,-2.658702199153602,-9.438586502936484,0.1214856595792807,9.790669644835889,0.5596063155214428
1789998061201170200,9.966170166015624,-2.662754689414799,-9.437653021478653,0.10394023041334,9.791382698383423,0.5469785325968082
1789998061211241200,9.9762412109375,-2.663236043190956,-9.437644253650308,0.0917675437943078,9.791932558088853,0.5370599036826348
1789998061221312300,9.986312255859374,-2.65649592128098,-9.439638642337918,0.0814339639696292,9.79260915187233,0.5245815159303748
1789998061231383300,9.99638330078125,-2.652402514487505,-9.440887765616178,0.0690383050825679,9.793278916193294,0.5119133315644544
1789998061241454300,10.006454345703125,-2.6453289228394627,-9.442969832587242,0.0540844861452933,9.79412745745833,0.49541583328163574
1789998061251525000,10.016525146484376,-2.6349104046776888,-9.445968429881331,0.0361598255705321,9.7951624729037,0.47452300407658343
1789998061261596200,10.02659619140625,-2.6299597965329884,-9.447401093032957,0.0174445135166461,9.796031984613618,0.4562210116806705
1789998061271667200,10.036667236328125,-2.6237378532782194,-9.44914647539556,0.0018406186168387,9.796783912758027,0.43977015679527104
1789998061281737200,10.0467373046875,-2.623474233905971,-9.449216618022325,-0.0079466487263474,9.79714330674878,0.4316919347536028
1789998061291808300,10.056808349609376,-2.6129467024117705,-9.452119353726506,-0.0184221674763422,9.797788619105024,0.41680726760251957
1789998061301879000,10.066879150390625,-2.5937241155475377,-9.457374205514787,-0.0324438578043016,9.798737627272951,0.39385932321549777
1789998061311950000,10.0769501953125,-2.5761227001443503,-9.462115847083926,-0.0484884699362562,9.799655038477042,0.3703467677785975
1789998061322021600,10.087021728515625,-2.5493507208138704,-9.469254028400778,-0.0663884846935281,9.80074270609643,0.3403098468985054
1789998061332092700,10.0970927734375,-2.518289227595925,-9.477423890852927,-0.0839336078987922,9.801779054261175,0.3090573777105129
1789998061342163700,10.107163818359377,-2.50124369250983,-9.481811312156916,-0.0970548822132404,9.802381534877012,0.2893123978170358
1789998061352234500,10.117234375,-2.4883219593554733,-9.485130811968446,-0.1045427263511344,9.802742728004784,0.2767975501084809
1789998061362305500,10.127305419921877,-2.4711539669334885,-9.489584868767857,-0.1075920035196933,9.803014605744176,0.26702731812809843
1789998061372376600,10.13737646484375,-2.454998366424441,-9.493772383585572,-0.1078919545806478,9.803173423072959,0.26107960758739623
1789998061382447600,10.147447509765623,-2.442408787833899,-9.496990176588296,-0.1104219479823019,9.803336495365023,0.2548914795422776
1789998061392517600,10.157517578125,-2.425732524451613,-9.501220946025848,-0.1141368677190504,9.80353511507757,0.24719267261876215
1789998061402588700,10.167588623046877,-2.4080868315152824,-9.50567324925959,-0.1169835806533694,9.803682264504575,0.24125779694679617
1789998061412659700,10.17765966796875,-2.401843991602957,-9.507215218004584,-0.1199139806826133,9.803771934618792,0.2375520536665599
1789998061422730800,10.187730712890623,-2.3956239480443298,-9.508736728483438,-0.1236919557182118,9.803878051605272,0.23315900414781007
1789998061432801800,10.1978017578125,-2.379474485015124,-9.512737780818345,-0.1276639646217227,9.803990843687258,0.22834302311660906
1789998061442872800,10.207872802734377,-2.361252161234617,-9.51721989466846,-0.1319028716999571,9.80407779268271,0.2245958481287383
1789998061452944000,10.21794384765625,-2.3438152887433765,-9.521447156974672,-0.1376639011783991,9.804163091153288,0.22082459682622263
1789998061463014700,10.2280146484375,-2.3312638502061365,-9.524348139113188,-0.1495511036532465,9.804367846107628,0.21150717510655828
1789998061473085700,10.238085693359375,-2.3118578695990144,-9.52878115312457,-0.1674636034327559,9.804616839118884,0.19972423465868278
1789998061483156700,10.24815673828125,-2.2847652800120413,-9.534965979239344,-0.1862047086566686,9.804733062800013,0.19393393401449888
1789998061493226800,10.258226806640623,-2.2642064761079848,-9.539550384420156,-0.2018151329057291,9.804766127573679,0.19220570957618233
1789998061503297500,10.268297607421877,-2.2544195338480173,-9.54149976492226,-0.2185439484591595,9.804893400224003,0.18561267806637877
1789998061513368600,10.27836865234375,-2.242356901741028,-9.543743159934875,-0.2433019758850336,9.80504608930983,0.17738380864357947
1789998061523439600,10.288439697265623,-2.2283155169069766,-9.54616541864574,-0.2751709678272716,9.80515112605578,0.17144882553766855
1789998061533510700,10.2985107421875,-2.2185357350401578,-9.547418049055338,-0.3087080025795847,9.805214635598896,0.1678058156671023
1789998061543581700,10.308581787109375,-2.204537458695471,-9.54948550297916,-0.3430898723918944,9.805077310184904,0.17558012483096508
1789998061553652700,10.31865283203125,-2.18972669692412,-9.551723637294767,-0.3742475194606929,9.804791703373143,0.19091440429006418
1789998061563723800,10.328723876953124,-2.180631974712014,-9.552590483257172,-0.4040514503655955,9.804511570098684,0.2048199118627745
1789998061573794600,10.338794677734375,-2.173339771877229,-9.55312064461112,-0.4299555973529815,9.80419994489445,0.2191918583007709
1789998061583865600,10.348865478515624,-2.180494319806993,-9.550411970174313,-0.4532732715111225,9.80415251344939,0.22130167294841657
1789998061593935600,10.358935546875,-2.1877659182451663,-9.547627307891846,-0.476317645153217,9.804049832050316,0.22581477630054198
1789998061604006700,10.369006591796875,-2.1981525799639523,-9.544024899485708,-0.5000907714612781,9.803935066120735,0.23072504370846977
1789998061614077700,10.37907763671875,-2.209108127611876,-9.540521859800815,-0.5183481665551662,9.803854211077265,0.234186905124351
1789998061624148500,10.3891484375,-2.2175440936543045,-9.537801494926214,-0.5322135007025673,9.803762676586047,0.2380078894202115
1789998061634219500,10.399219482421875,-2.225506596966088,-9.535359946992992,-0.5426057153793051,9.8037007670013,0.24050190294087254
1789998061644290600,10.40929052734375,-2.2315951230995354,-9.533399460574984,-0.5519596730494871,9.803613804642769,0.24400393116425115
1789998061654361600,10.419361572265624,-2.2350920253045854,-9.531957445073129,-0.5626127671521157,9.803449114649128,0.25053478503584553
1789998061664432600,10.4294326171875,-2.237307217136025,-9.530784309640524,-0.5735734658991918,9.80324591524251,0.258358639885726
1789998061674503700,10.439503662109376,-2.238392089763284,-9.530077622675895,-0.5810459206717088,9.803094652501699,0.26406104931337376
1789998061684574700,10.44957470703125,-2.240108684422821,-9.529456275907158,-0.5846145364060997,9.803037417641733,0.2661867332273962
1789998061694644700,10.459644775390624,-2.243621514849365,-9.528581246638298,-0.5853987090537324,9.803068125296857,0.2650378369828682
1789998061704715800,10.4697158203125,-2.250337232970446,-9.527131047829984,-0.5832254932004958,9.803209421538348,0.25977043326721416
1789998061714786800,10.479786865234376,-2.2534131332844494,-9.526566399684548,-0.5805484194783493,9.803309634820724,0.2559194952468316
1789998061724857600,10.489857666015626,-2.254692651700973,-9.526330252841117,-0.5794493721952662,9.803350625347933,0.2543327176319164
1789998061734928600,10.4999287109375,-2.258321801983565,-9.52561245996058,-0.5771108462451026,9.803448613762171,0.25052406041897923
1789998061744999700,10.509999755859376,-2.265516681923717,-9.524093872091171,-0.5739867228752001,9.803605120231456,0.24437128531768976
1789998061755070700,10.52007080078125,-2.2749029344283045,-9.52214098445773,-0.5692529723515733,9.803812772478725,0.23591599707149302
1789998061765141800,10.530141845703126,-2.284978484371305,-9.520064762705564,-0.563585703837499,9.804033878392456,0.22651339265242193
1789998061775212800,10.540212890625,-2.2938208392575383,-9.518443883505464,-0.5549783267509192,9.80429113574434,0.21509131731179484
1789998061785282600,10.550282470703126,-2.2949033737972377,-9.518687629133462,-0.5462501728288829,9.804472816879198,0.20663424323380117
1789998061795353600,10.560353515625,-2.287288953270763,-9.52102513217032,-0.5373735503468662,9.804573145197475,0.20180707682887206
1789998061805424600,10.570424560546876,-2.27717277905643,-9.524014961636066,-0.5272459414230659,9.804654733932233,0.19776421888341586
1789998061815495700,10.58049560546875,-2.265151940264553,-9.527409864771366,-0.5176313235227018,9.804686465704131,0.19625886007278437
1789998061825566700,10.590566650390626,-2.259425671572238,-9.529413021287322,-0.5056350711828097,9.804806620275096,0.19013379462811308
1789998061835637500,10.600637451171876,-2.257865728779137,-9.530585572198031,-0.4902655064849183,9.805007905949024,0.17944143699448284
1789998061845708500,10.61070849609375,-2.2540287809647617,-9.532487021905183,-0.4705734754780307,9.805207639470018,0.1682174512661591
1789998061855779600,10.620779541015626,-2.250188179888576,-9.534329434901476,-0.4512331439856439,9.805362013465595,0.15897091952934525
1789998061865850600,10.6308505859375,-2.246293948929012,-9.536104627880452,-0.4327094626383855,9.805467866873997,0.15220173992562586
1789998061875921700,10.640921630859374,-2.245237571743876,-9.537259058612584,-0.4122899576071649,9.80559023911387,0.14417065026077724
1789998061885992700,10.65099267578125,-2.243452734153718,-9.538633269575238,-0.3895793824966996,9.805666150167008,0.1388822111170958
1789998061896062700,10.661062744140626,-2.242606784848869,-9.539719311246277,-0.3672146251492202,9.805702569041355,0.13628439835346198
1789998061906133800,10.6711337890625,-2.239697911664843,-9.54114554465711,-0.347397944849357,9.805661763388825,0.13923991506031
1789998061916204800,10.681204833984374,-2.2364016465984284,-9.542483515262605,-0.3315015067331492,9.805583856615971,0.14457677477828507
1789998061926275800,10.69127587890625,-2.235179849718511,-9.54326969720423,-0.316828984388709,9.805517716144166,0.1490919109001619
1789998061936347000,10.701346923828124,-2.235699051287025,-9.543661911392212,-0.3009156316703185,9.805446151920243,0.15365189898003295
1789998061946417700,10.711417724609374,-2.243633351417631,-9.542362519231435,-0.2825041419932618,9.805439388681348,0.1540780619235201
1789998061956488700,10.72148876953125,-2.250573964335769,-9.541260110947489,-0.2638991573044099,9.805375966741863,0.15802718048087766
1789998061966559700,10.731559814453124,-2.24855429507643,-9.542149168741702,-0.2485799710868857,9.805192893771437,0.16909019600266206
1789998061976630800,10.741630859375,-2.2377304109841583,-9.545113863766192,-0.2318703534242697,9.804839849978263,0.18845541005821487
1789998061986700800,10.75170068359375,-2.22700326526463,-9.54811947532296,-0.2103553813065402,9.80437549535036,0.21118615285789144
