time,seconds_elapsed,z,y,x
1789141176863219500,1.538219482421875,-0.08552665200193288,-9.80623791846334,0.027646478624462567
1789141176873191400,1.54819140625,-0.0908056796982245,-9.806206461137574,0.021061788677279477
1789141176883163400,1.558163330078125,-0.09488738550875342,-9.806180640659692,0.013960834965918068
1789141176893136400,1.568136474609375,-0.09986326061818766,-9.806140412809674,0.005228412911353655
1789141176903108400,1.5781083984375,-0.10107822837074766,-9.80612870104234,-0.004244410647248167
1789141176913080600,1.58808056640625,-0.09961486112811561,-9.806135552416942,-0.013531797844490847
1789141176923052500,1.598052490234375,-0.09558044877712647,-9.806159624904156,-0.021773303905277958
1789141176933024500,1.6080244140625,-0.08965813869123167,-9.806206728518951,-0.02564439814148619
1789141176942997500,1.61799755859375,-0.08444159244844278,-9.806251492548824,-0.026128403271109605
1789141176952969500,1.627969482421875,-0.08409591094064742,-9.806253019556335,-0.02673048960107833
1789141176962941400,1.63794140625,-0.0813178475515665,-9.806275337293604,-0.027254653567245005
1789141176972913400,1.647913330078125,-0.0788381424798873,-9.80628449782785,-0.030906689650150674
1789141176982885400,1.657885498046875,-0.08037519542840801,-9.806241603227162,-0.03948615943324258
1789141176992858400,1.6678583984375,-0.08015328729185416,-9.8061919790981,-0.050612740529003816
1789141177002830600,1.67783056640625,-0.07819723291712627,-9.806153182971535,-0.06027763121067082
1789141177012802300,1.68780224609375,-0.07512268879542239,-9.806123979049701,-0.0683837142078387
1789141177022774500,1.6977744140625,-0.07132702915331,-9.80612359516377,-0.07234626462672812
1789141177032747500,1.70774755859375,-0.06624130643584968,-9.806156499821851,-0.0728155605781609
1789141177042719500,1.717719482421875,-0.06418387975260265,-9.806170310634762,-0.07274282268869223
1789141177052691500,1.72769140625,-0.06217497709275875,-9.806181614279119,-0.07303826432005858
1789141177062663700,1.73766357421875,-0.06029047436611513,-9.806201767398417,-0.07184033527129075
1789141177072635400,1.747635498046875,-0.06051327046165199,-9.80619434800379,-0.07266972282749198
1789141177082608400,1.7576083984375,-0.06424018717367215,-9.806157503906453,-0.07437181329931378
1789141177092580600,1.76758056640625,-0.06818865386323368,-9.806117119500634,-0.07615203006065495
1789141177102552300,1.77755224609375,-0.07105636535117275,-9.806076815455041,-0.07872188693160487
1789141177112524500,1.787524658203125,-0.0747042326292366,-9.806023943313665,-0.08189420435905138
1789141177122496300,1.797496337890625,-0.07466667586146641,-9.806022872119664,-0.0819622065443855
1789141177132469500,1.807469482421875,-0.07507984816727568,-9.806009807471154,-0.08322230739349472
1789141177142441500,1.81744140625,-0.0705013316274557,-9.80601560006025,-0.08641436028327097
1789141177152413400,1.827413330078125,-0.060722370603543255,-9.806074718903867,-0.08711815523375234
1789141177162385400,1.837385498046875,-0.049538455589821055,-9.806137205528534,-0.08720151987896263
1789141177172358400,1.8473583984375,-0.03895348003980902,-9.806170141492851,-0.08888449639733693
1789141177182330400,1.857330322265625,-0.02734565817629631,-9.806199376116057,-0.08990499144200337
1789141177192302600,1.867302490234375,-0.019079505049096248,-9.806213731988336,-0.09055611482443819
1789141177202274600,1.877274658203125,-0.01237148975383615,-9.806214375833354,-0.09159695009062678
1789141177212246800,1.887246826171875,-0.007215139170879823,-9.806223121026688,-0.09128728924418006
1789141177222219800,1.8972197265625,-0.004682813852270603,-9.806199455654387,-0.09382606899396086
1789141177232191500,1.90719140625,-0.005816683276737898,-9.806182958230016,-0.09557635502126913
1789141177242163700,1.917163818359375,-0.00935179426914784,-9.80615074337072,-0.09848209609755416
1789141177252135700,1.9271357421875,-0.015794501562991517,-9.806117203054985,-0.10097179077922579
1789141177262107600,1.937107666015625,-0.020516130093897855,-9.80608578979203,-0.10315713638768832
1789141177272080600,1.94708056640625,-0.025325142846753676,-9.806054140130282,-0.10514550881478839
1789141177282052900,1.957052978515625,-0.02906671636433325,-9.806009378412986,-0.10826846464028449
1789141177292024600,1.967024658203125,-0.030320937438087232,-9.80597768422237,-0.11079148978179379
1789141177301996800,1.976996826171875,-0.030505381469609256,-9.805914600789892,-0.11620687026451014
1789141177311969800,1.9869697265625,-0.029462314294666538,-9.805850518724714,-0.12164639059371735
1789141177321941500,1.99694140625,-0.028122672796339124,-9.805761894204473,-0.128923271623621
1789141177331913700,2.006913818359375,-0.02594745533790347,-9.805646764119832,-0.1378933617591443
1789141177341885400,2.016885498046875,-0.023806640934611514,-9.805488772990117,-0.14905135968141417
1789141177351857700,2.026857666015625,-0.022994034427554013,-9.805272930252045,-0.16273922045403913
1789141177361830700,2.03683056640625,-0.023245138991987623,-9.80502607126272,-0.1769911266549089
1789141177371802600,2.046802734375,-0.025329657030792187,-9.804739490560117,-0.19192551533664134
1789141177381774600,2.056774658203125,-0.02778783135819944,-9.804435431994024,-0.2065786369699824
1789141177391746800,2.066746826171875,-0.029788511255240343,-9.804121211631914,-0.22067425147069064
1789141177401718500,2.076718505859375,-0.03225050884681098,-9.803787841029754,-0.23472031940375537
1789141177411691800,2.08669189453125,-0.03330390413580218,-9.803434242063599,-0.24888512805239937
1789141177421663700,2.096663818359375,-0.03424780280135336,-9.80306764679654,-0.2628119477158214
1789141177431635700,2.1066357421875,-0.036668718587008826,-9.802690845801335,-0.27619906119194815
1789141177441607700,2.116607666015625,-0.03915657848584647,-9.802269233202818,-0.29046349225708945
1789141177451580700,2.12658056640625,-0.0418805490234249,-9.801782616766745,-0.30610636688813214
1789141177461552600,2.136552734375,-0.0432080027086203,-9.801322186651195,-0.3203344283946639
1789141177471524600,2.146524658203125,-0.043521377701500434,-9.800872133209817,-0.3337405593036447
1789141177481496600,2.15649658203125,-0.04246788198019766,-9.800524864599137,-0.34394752421653024
1789141177491468500,2.166468505859375,-0.04399670317285864,-9.800254433100276,-0.35136495406467316
1789141177501441800,2.17644189453125,-0.04822412645764624,-9.80004433544489,-0.35664990201786095
1789141177511413500,2.18641357421875,-0.05107375897152238,-9.799800123021301,-0.36290183009175603
1789141177521385700,2.1963857421875,-0.05322742649007337,-9.799491330407555,-0.37085067252579834
1789141177531357700,2.206357666015625,-0.05575758350676108,-9.799053563237864,-0.38187246104540523
1789141177541329700,2.21632958984375,-0.05744244511897016,-9.798604473628577,-0.3929850772310098
1789141177551302700,2.226302734375,-0.056695424125704844,-9.798169253319465,-0.40379518672863235
1789141177561274600,2.236274658203125,-0.05429874110456701,-9.797858283406663,-0.4115906465185201
1789141177571246600,2.24624658203125,-0.05167408638786228,-9.797624213386953,-0.41745740841859763
1789141177581218800,2.25621875,-0.04850602413590203,-9.797542231070437,-0.4197493829791022
1789141177591190500,2.2661904296875,-0.04615404157023496,-9.797482101804901,-0.42142612065257296
1789141177601163500,2.27616357421875,-0.04456590901484333,-9.797395977152235,-0.4235869332512545
1789141177611135700,2.2861357421875,-0.04323992753562869,-9.797335988561274,-0.4251079092243696
1789141177621107500,2.296107421875,-0.04238788853804926,-9.797373716227828,-0.4243299753994751
1789141177631079700,2.30607958984375,-0.04356141987223958,-9.797524542114838,-0.42072348386210046
1789141177641052700,2.316052734375,-0.0443204960363574,-9.79775018080698,-0.41534549777729557
1789141177651024600,2.326024658203125,-0.04221598408868004,-9.798074130347882,-0.4078613852221491
1789141177660996600,2.33599658203125,-0.03949808462733591,-9.798420790345524,-0.39972758594008706
1789141177670968600,2.345968505859375,-0.03734351958511121,-9.798810386089281,-0.3902567884172425
1789141177680940500,2.3559404296875,-0.03587483177127329,-9.799185298671352,-0.3808772401867063
1789141177690913800,2.365913818359375,-0.03405505373894856,-9.799538640267258,-0.37185104069762764
1789141177700885500,2.375885498046875,-0.032598155213464035,-9.799866448418081,-0.36323350762439155
1789141177710857700,2.385857666015625,-0.029922902775582717,-9.800177860834653,-0.3549607426621917
1789141177720829700,2.39582958984375,-0.026945005884652352,-9.80044982271995,-0.34762467148527887
1789141177730802400,2.405802490234375,-0.023818998785585337,-9.800762941635355,-0.3389017873509098
1789141177740774700,2.415774658203125,-0.019777858809207533,-9.801106535259494,-0.3291069242111061
1789141177750746600,2.42574658203125,-0.01604170991423446,-9.801503714074352,-0.3172733991651326
1789141177760718600,2.435718505859375,-0.00911316798315249,-9.801917311849495,-0.30449853153832473
1789141177770690600,2.445690673828125,-0.00645543571480718,-9.802267226450528,-0.29308763067208815
1789141177780663800,2.455663818359375,-0.005266289761351156,-9.802589269669314,-0.28215622448064553
1789141177790635500,2.465635498046875,-0.006458228644512763,-9.802970368500203,-0.268559356866563
1789141177800607700,2.475607666015625,-0.009430678718119275,-9.803363988848341,-0.2536802311610508
1789141177810579500,2.485579345703125,-0.015085372830730378,-9.803709609130431,-0.2396727274123795
1789141177820551700,2.4955517578125,-0.020577003720290993,-9.80401594712054,-0.22635911262836972
1789141177830524700,2.505524658203125,-0.026441169131026756,-9.804276500240993,-0.2141097367315488
1789141177840496600,2.51549658203125,-0.03012468651886142,-9.804517585505065,-0.20224693877814442
1789141177850468600,2.525468505859375,-0.030000335793390266,-9.804705856781583,-0.19293325326453933
1789141177860440800,2.53544091796875,-0.028874165785485958,-9.804884591207694,-0.1837913643339757
1789141177870412500,2.54541259765625,-0.026866606917465452,-9.805062223011088,-0.1744052611551543
1789141177880385500,2.555385498046875,-0.020618079399789175,-9.805237378691537,-0.16519612736071101
1789141177890357800,2.565357666015625,-0.014942711378800846,-9.805423614465571,-0.1544237793684968
1789141177900329500,2.57532958984375,-0.012877648675785825,-9.805598243721128,-0.14303371701493636
1789141177910301700,2.5853017578125,-0.012170697372917365,-9.805768531915382,-0.13099052382346577
1789141177920274700,2.595274658203125,-0.014779742690973183,-9.805923118253217,-0.11842235474553106
1789141177930246700,2.60524658203125,-0.01873883278175274,-9.806028324719366,-0.10887227489829919
1789141177940218600,2.615218505859375,-0.022093961940572247,-9.806114641957508,-0.10013565772486305
1789141177950190600,2.625190673828125,-0.02305735687595478,-9.80618734841282,-0.09245652777558133
1789141177960162600,2.63516259765625,-0.024804470853993406,-9.806228877500722,-0.08741584440841321
1789141177970135800,2.6451357421875,-0.025171785240472883,-9.806266059440134,-0.08296691279217144
1789141177980107500,2.655107421875,-0.024671773113587706,-9.806309540512277,-0.07785126913468013
1789141177990079700,2.665079833984375,-0.02290125417731491,-9.806364032354612,-0.0713292943368094
1789141178000051700,2.6750517578125,-0.02086978828140926,-9.806408186197013,-0.06575178501829676
1789141178010023700,2.685023681640625,-0.02083647041490874,-9.806433980983886,-0.06175277182260305
1789141178019996700,2.69499658203125,-0.020135010436788454,-9.80645792986336,-0.058054463130387576
1789141178029968600,2.70496875,-0.019447615852882037,-9.806486178798695,-0.05317024594182882
1789141178039940600,2.714940673828125,-0.01943127993450528,-9.806515124643859,-0.047618170081383256
1789141178049912600,2.72491259765625,-0.02382924366041263,-9.806530615465677,-0.042214762621896135
1789141178059885800,2.7348857421875,-0.02473155935947462,-9.806547709289614,-0.037312209998934476
1789141178069857500,2.744857421875,-0.02322982599840656,-9.806570154131228,-0.03200294634093876
1789141178079829800,2.754829833984375,-0.022129257484268847,-9.806587724399163,-0.02706801533322945
1789141178089801500,2.764801513671875,-0.020433618586483477,-9.806603401745413,-0.022588469467838112
1789141178099773700,2.774773681640625,-0.015083811092152276,-9.806619180174884,-0.019815358321926983
1789141178109746700,2.78474658203125,-0.009819330589939406,-9.80663255525681,-0.015793527898109103
1789141178119718700,2.79471875,-0.0068037862268463655,-9.8066403106741,-0.011485611693961773
1789141178129690600,2.804690673828125,-0.006248242826670008,-9.806644879843248,-0.0077119540708975145
1789141178139662800,2.814662841796875,-0.00811621392662582,-9.806644665715973,-0.005617552533117606
1789141178149634600,2.824634521484375,-0.010385759673784137,-9.806644142484409,-0.003781096883500783
1789141178159607600,2.834607666015625,-0.011844104886006176,-9.806642537927232,-0.0018187371497282257
1789141178169579800,2.844579833984375,-0.015314578375404403,-9.80663835496655,0.00030863826963721617
1789141178179551500,2.854551513671875,-0.016978235964975264,-9.806634137438374,0.004399857036488142
1789141178189523700,2.864523681640625,-0.014805871669208324,-9.806633581790473,0.010825979549591896
1789141178199496000,2.874495849609375,-0.010072449270782517,-9.806629512478755,0.017443906578359605
1789141178209468200,2.88446826171875,-0.007943522143269825,-9.80661940180824,0.023198284373023362
1789141178219439900,2.89443994140625,-0.007107100774992637,-9.806614775506132,0.025339755642701165
1789141178229412000,2.904412109375,-0.0069496442859430145,-9.806612756795076,0.026291778255018085
1789141178239383800,2.9143837890625,-0.008434614561309834,-9.806609555509683,0.02712143248558337
1789141178249357000,2.924357177734375,-0.011155748326841028,-9.806601982796774,0.02853499502710061
1789141178259329000,2.9343291015625,-0.013228717380954026,-9.80659961347256,0.028601469855513015
1789141178269301000,2.944301025390625,-0.012408198783903885,-9.80659867699978,0.029355440543656124
1789141178279273000,2.95427294921875,-0.010845467597708016,-9.806597395730295,0.030185104706343436
1789141178289245200,2.9642451171875,-0.005370356990466861,-9.806605639639484,0.02898062537282083
1789141178299218000,2.974218017578125,0.0011034887039576525,-9.806614310258833,0.026284154301925385
1789141178309190100,2.984190185546875,0.0090801564158765,-9.806622232611309,0.021628682991692856
1789141178319162000,2.994162109375,0.014712926704352968,-9.80662462395675,0.01666067031411704
1789141178329134000,3.004134033203125,0.016945757120071493,-9.806627443443741,0.012246680545424365
1789141178339106000,3.01410595703125,0.017907891060220806,-9.806628267810519,0.010250749373348435
1789141178349079000,3.0240791015625,0.015097462535889885,-9.806635228271286,0.00765773148664919
1789141178359051000,3.034051025390625,0.010981133830452915,-9.806642625827239,0.004091818055949549
1789141178369023000,3.04402294921875,0.00849578349492221,-9.806645894675812,0.002126193821426065
1789141178378995000,3.053994873046875,0.00739347096145779,-9.806647466099673,0.0007498818289788323
1789141178388968000,3.063968017578125,0.006025372676180927,-9.806648200960225,-5.07624512085648e-05
1789141178398940200,3.073940185546875,0.01150805679565154,-9.80664372559338,0.00036319115221984444
1789141178408912000,3.083911865234375,0.014241170653373623,-9.806639832540203,0.0010114962260189208
1789141178418884000,3.093884033203125,0.015797809273235198,-9.806636907946434,0.002018764139604378
1789141178428856000,3.10385595703125,0.018014695834466923,-9.806633033239835,0.00350045775411543
1789141178438829000,3.1138291015625,0.021043392423681157,-9.80662689973707,0.0021076021879959427
1789141178448801000,3.123801025390625,0.019812183684221038,-9.806629742015142,-0.0010799492822368638
1789141178458773200,3.133773193359375,0.017987981630191247,-9.806633371571353,-0.0038757854609109336
1789141178468745000,3.143744873046875,0.016797510307600114,-9.806632546470018,-0.007147926163181034
1789141178478717200,3.15371728515625,0.014395213619551093,-9.806636973706945,-0.007490024904774605
1789141178488690200,3.163690185546875,0.014798441592720372,-9.806637625074732,-0.004687217434864172
1789141178498662000,3.173661865234375,0.015203524258340342,-9.806637879457982,-0.0018404430005720589
1789141178508634000,3.183634033203125,0.013142876779902344,-9.806641060273844,0.0008683441852889776
1789141178518605800,3.193605712890625,0.01434088338320985,-9.806639434646334,0.0036168669619811747
1789141178528579000,3.2035791015625,0.015721165508048997,-9.806635790026231,0.006336350497114308
1789141178538551000,3.213551025390625,0.016057489314129075,-9.806634017206214,0.00810140361631803
1789141178548523000,3.22352294921875,0.01622514769504561,-9.80663033286799,0.010892446428037992
1789141178558495000,3.233494873046875,0.01576081565355757,-9.806625377565462,0.015483856859606094
1789141178568467200,3.24346728515625,0.015034041398258998,-9.80661619424603,0.020867470874937823
1789141178578440000,3.25343994140625,0.010964393708122635,-9.806606896969221,0.02696344333546582
1789141178588412200,3.263412109375,0.004432298570871225,-9.80658878672461,0.03449047244237662
1789141178598383900,3.2733837890625,-0.001827051123754066,-9.806568224303364,0.040086004835898026
1789141178608356000,3.283356201171875,-0.003140524043102479,-9.806551441595046,0.043744370404373525
1789141178618328000,3.293328125,-0.003242396336195402,-9.806536306293223,0.04695427297714055
1789141178628300800,3.30330078125,-0.0038774807546750833,-9.806515044413917,0.05138393823376107
1789141178638273000,3.31327294921875,7.356145945605222e-05,-9.80648690910593,0.05667940474346617
1789141178648245000,3.323244873046875,0.00697184694760395,-9.806444520069551,0.06310719721187617
1789141178658217000,3.333217041015625,0.011719287200231642,-9.806402011597626,0.06869253102169191
1789141178668189000,3.34318896484375,0.014413046580875463,-9.806355275586576,0.07462412335286778
1789141178678162200,3.353162109375,0.01593168089277517,-9.806314571031779,0.07948485423830486
1789141178688134000,3.3631337890625,0.017470475751701655,-9.80627327835292,0.08417421406708753
1789141178698106000,3.373106201171875,0.01572695809494887,-9.806250871185,0.08703776839737125
1789141178708077800,3.383077880859375,0.01101630023672415,-9.806239559994102,0.08904571286207537
1789141178718051000,3.393051025390625,0.007417247817113847,-9.806220591080265,0.09146749236632135
1789141178728023000,3.40302294921875,0.0057976511619776665,-9.80620309104553,0.09346931900606396
1789141178737995000,3.4129951171875,0.006676882120840797,-9.806180263121401,0.09577688034032907
1789141178747967000,3.422967041015625,0.009749831442073668,-9.806154931827974,0.09808864238050824
1789141178757939200,3.432939208984375,0.0122145729576636,-9.806146436350772,0.0985746351047773
1789141178767912000,3.442911865234375,0.015889314627981453,-9.806139322968244,0.09876306779515032
1789141178777884000,3.4528837890625,0.019691047202568573,-9.806119905403127,0.09999645990687242
1789141178787856100,3.462856201171875,0.02149858005154819,-9.806114720128603,0.10013340046539657
1789141178797827800,3.472827880859375,0.018768414435563298,-9.806108451684185,0.10131223777574111
1789141178807800000,3.482800048828125,0.014012363540070837,-9.806130164407852,0.10003165311255276
1789141178817773000,3.49277294921875,0.008910139263707107,-9.806179574204045,0.09561986947829328
1789141178827745000,3.5027451171875,0.0037831221370408703,-9.806237281768135,0.08998536423213654
1789141178837717000,3.512717041015625,0.0003236831441863739,-9.806288396112695,0.08428194862485298
1789141178847689000,3.52268896484375,0.0012814414610538567,-9.806320017088092,0.08047426352555087
1789141178857661000,3.532660888671875,0.004162152281505451,-9.806341047508678,0.07780733917080437
1789141178867634200,3.54263427734375,0.00731918118333068,-9.806333854590669,0.07848553266864962
1789141178877606000,3.55260595703125,0.012887008203432823,-9.806310866131252,0.08056604283981726
1789141178887578000,3.562578125,0.012810450249425634,-9.806306775882272,0.08105443833522444
1789141178897550000,3.572550048828125,0.010396802223573413,-9.806315324932179,0.08038740757503474
1789141178907522800,3.582522705078125,0.0073291926369702795,-9.806339138647623,0.0776899412608114
1789141178917495000,3.5924951171875,0.0024468937290529694,-9.806390755877272,0.07122444456610087
1789141178927467000,3.602467041015625,-0.0035794424261539077,-9.806448239329624,0.06275569867508987
1789141178937439000,3.61243896484375,-0.00756416376882249,-9.806498577665982,0.05392539702286787
1789141178947411000,3.622410888671875,-0.010695834809877004,-9.806550948890827,0.04260662594501364
1789141178957384200,3.63238427734375,-0.011286264296418894,-9.806594700884258,0.031016753845258507
1789141178967356000,3.64235595703125,-0.009802682735076892,-9.806625820523744,0.019420207811034908
1789141178977328000,3.652328125,-0.006698853789413079,-9.806644414978317,0.007861508825705387
1789141178987299800,3.6622998046875,-0.00485566275190623,-9.806648815807904,-0.001530790465736297
1789141178997272000,3.67227197265625,-0.0025179801228339483,-9.806644266169505,-0.00998600543098832
1789141179007245000,3.6822451171875,-0.0038587351819748335,-9.806630092188485,-0.01945704959254155
1789141179017217000,3.692217041015625,-0.008323028320239553,-9.806594439413978,-0.0318603402425862
1789141179027189000,3.70218896484375,-0.012027227632061608,-9.80653491923572,-0.04598831840639203
1789141179037161200,3.7121611328125,-0.016259276008343385,-9.806445075603126,-0.061256765572259064
1789141179047134000,3.722134033203125,-0.021129809094399394,-9.8063125008149,-0.07852398935423192
1789141179057106000,3.73210595703125,-0.02424824689176608,-9.806129130578872,-0.09816659190693575
1789141179067078100,3.742078125,-0.024578596231766916,-9.805937247227003,-0.1156973327535235
1789141179077049900,3.7520498046875,-0.023381732506146398,-9.805719214115193,-0.13309459411489166
1789141179087022000,3.76202197265625,-0.022007835758918255,-9.805466751264396,-0.1507577282159126
1789141179096995000,3.7719951171875,-0.021524056018310395,-9.805222299577084,-0.1659474416147734
1789141179106967000,3.781967041015625,-0.021414400081921674,-9.80499066198967,-0.1791300117237133
1789141179116939000,3.79193896484375,-0.022032809472096935,-9.804720086025704,-0.19329166799647288
1789141179126911000,3.801910888671875,-0.02493233637943192,-9.804406328771222,-0.20826456995097603
1789141179136883000,3.811883056640625,-0.02872769721802702,-9.804014827744432,-0.22553674675793406
1789141179146856200,3.821856201171875,-0.03131354622197127,-9.803545533869665,-0.24476494381229755
1789141179156828000,3.831827880859375,-0.03200403280052148,-9.803036837207344,-0.26425058986283173
1789141179166800100,3.841800048828125,-0.03211724584997944,-9.802528212245539,-0.28248137969494014
1789141179176772000,3.851772216796875,-0.031765878208040645,-9.802008385865316,-0.3000190907911934
1789141179186744000,3.861744140625,-0.03012397587349019,-9.801530794031956,-0.3153954985622004
1789141179196717800,3.8717177734375,-0.02607275390916145,-9.801043513467985,-0.3305277096537512
1789141179206689500,3.881689453125,-0.022330129629879295,-9.800610761704789,-0.34338583002114237
1789141179216661800,3.891661865234375,-0.021932374421913224,-9.80017499050322,-0.35562475105631164
1789141179226633500,3.901633544921875,-0.022334252019764037,-9.799772628593919,-0.36651489761430817
1789141179236605700,3.911605712890625,-0.023847223848030334,-9.79940241436518,-0.3762071568063104
1789141179246578700,3.92157861328125,-0.027072329126211013,-9.798974956936533,-0.3869631452710028
1789141179256550700,3.931550537109375,-0.03481471967785905,-9.798576136249691,-0.3963339700593227
1789141179266522600,3.941522705078125,-0.041280166948444504,-9.798201826984956,-0.40487350501607255
1789141179276494800,3.951494873046875,-0.04711782048832173,-9.797794803285328,-0.41399975735506694
1789141179286467600,3.961467529296875,-0.052916933770790986,-9.797350973118181,-0.42366838320171746
1789141179296439600,3.971439453125,-0.05852933388438781,-9.796846542287126,-0.43446127040746313
1789141179306411800,3.981411865234375,-0.05783254009600053,-9.79631857934131,-0.44629659022999457
1789141179316383500,3.991383544921875,-0.0553177250450921,-9.795811025589224,-0.45761186341537347
1789141179326355700,4.001355712890625,-0.05258819361768087,-9.795406499606438,-0.4665193622794765
1789141179336328700,4.01132861328125,-0.04969775297862598,-9.795075186411866,-0.47371925025536477
1789141179346300700,4.02130078125,-0.04658385627785624,-9.794936024389862,-0.4769112230899316
1789141179356272600,4.031272705078125,-0.04499728119349788,-9.794953971542443,-0.47669054609103323
1789141179366244600,4.04124462890625,-0.04585497993986399,-9.79512171488003,-0.47315830528387065
1789141179376216600,4.051216552734375,-0.04577214927277763,-9.795410594061357,-0.4671440554773564
1789141179386189800,4.06118994140625,-0.04468881670943076,-9.795613684081877,-0.4629637328391718
1789141179396161500,4.07116162109375,-0.04506510494132325,-9.795728653887647,-0.46049863843924743
1789141179406133800,4.0811337890625,-0.04449381903597059,-9.795959529756347,-0.45560349261938393
1789141179416105700,4.091105712890625,-0.04019283127539563,-9.796312865911506,-0.44834386229840895
1789141179426077700,4.10107763671875,-0.03618588391054794,-9.796670688029051,-0.44081410076631145
1789141179436050700,4.11105078125,-0.03233735948450286,-9.79710965061805,-0.43127600772964825
1789141179446022700,4.121022705078125,-0.026983752136491252,-9.797579031993912,-0.4208367731752373
1789141179455994600,4.13099462890625,-0.025715107119823024,-9.798121093759017,-0.40810445737555257
1789141179465966600,4.140966552734375,-0.024260261671161503,-9.798665818454321,-0.39490359178204787
1789141179475938600,4.1509384765625,-0.02271163431597065,-9.799259326040485,-0.3799910792582435
1789141179485911600,4.16091162109375,-0.024471616319985415,-9.799767358178865,-0.3665257214185729
1789141179495883800,4.1708837890625,-0.0262048911204203,-9.800238907061448,-0.3535677978426593
1789141179505855500,4.18085546875,-0.024509000285267042,-9.8007277999844,-0.339882855556393
1789141179515827700,4.19082763671875,-0.0223034881754287,-9.8012184133716,-0.32557222921147316
1789141179525800700,4.20080078125,-0.018581304860975527,-9.801798646380217,-0.30787993475073955
1789141179535772700,4.210772705078125,-0.011795304760148987,-9.802398067453982,-0.288504947627671
1789141179545744600,4.22074462890625,-0.005320324972603213,-9.803048490182988,-0.2656961078793784
1789141179555716900,4.230716796875,0.0012552706489645014,-9.803684343549175,-0.2411217135432174
1789141179565688600,4.2406884765625,0.008435305754693796,-9.80428858294779,-0.215043170191418
1789141179575661600,4.25066162109375,0.014375666665078961,-9.804841010366372,-0.18780600864598082
1789141179585633800,4.2606337890625,0.015846295824295666,-9.805278629798888,-0.16324729919006947
1789141179595605500,4.27060546875,0.016981730552486484,-9.805645332022191,-0.13939927647126543
1789141179605577700,4.28057763671875,0.015478889895481341,-9.8059753954218,-0.11400010323446402
1789141179615549400,4.290549560546875,0.013436657436976782,-9.80626658946774,-0.08566339757545671
1789141179625522700,4.300522705078125,0.012625613221905268,-9.8064836743523,-0.05572275036571307
1789141179635494700,4.31049462890625,0.01649609781610623,-9.806603586013125,-0.025501483379369094
1789141179645466600,4.320466552734375,0.021390886312825427,-9.806624870895867,0.004743309715199165
1789141179655438600,4.3304384765625,0.025304700017691008,-9.806553890599872,0.03530256267205777
1789141179665410800,4.340410888671875,0.027757374024537134,-9.806385351746442,0.06643271094871296
1789141179675383600,4.350383544921875,0.02816796695612,-9.806125199182741,0.09742863426707134
1789141179685355800,4.360355712890625,0.02457901534881484,-9.805776107628878,0.12860388747438842
1789141179695327700,4.37032763671875,0.019359924109566832,-9.805334285928758,0.15943549603553855
1789141179705299700,4.3802998046875,0.00884870433909658,-9.804836771070562,0.1883864225879704
1789141179715272700,4.390272705078125,0.002153870926689115,-9.804248255457223,0.21700172707817234
1789141179725244700,4.40024462890625,-0.000259977763235966,-9.803604022341737,0.24438058195782342
1789141179735216600,4.410216552734375,-0.001038693915679074,-9.802847109920883,0.2731012582031105
1789141179745188600,4.420188720703125,-0.0003732657818053129,-9.801976143964609,0.3027397765709369
1789141179755160600,4.43016064453125,0.00164205274701485,-9.801055220711433,0.3312280097249209
1789141179765133600,4.440133544921875,0.004706077268626872,-9.800061906309056,0.3593829207308182
1789141179775105800,4.450105712890625,0.0041336737149721935,-9.799022050085556,0.3867013337395741
1789141179785077500,4.460077392578125,-0.004174622823986441,-9.798044001029956,0.4107326264079495
1789141179795049700,4.4700498046875,-0.013587785917855947,-9.797127815051502,0.43185257743165595
1789141179805021700,4.480021728515625,-0.01973758529022792,-9.796195095897694,0.4522877613310518
1789141179814994700,4.48999462890625,-0.026041560274128874,-9.795271236981984,0.4715629405267891
1789141179824966700,4.499966552734375,-0.0327998705809844,-9.794380722836735,0.48931474929105295
1789141179834939000,4.50993896484375,-0.037037281997295904,-9.793430291391484,0.507670479310644
1789141179844910600,4.51991064453125,-0.03584583926735637,-9.792494060173993,0.5255149228798395
1789141179854882800,4.5298828125,-0.03486438781651416,-9.79160415462224,0.5419100700765601
1789141179864855800,4.539855712890625,-0.034493950277651966,-9.790643373335191,0.5590165035761733
1789141179874827500,4.54982763671875,-0.03275113254566566,-9.789750036544447,0.5745509765258786
1789141179884799700,4.5597998046875,-0.03155930943120824,-9.789085885834576,0.5858139779816383
1789141179894771500,4.569771484375,-0.032572864524766904,-9.788498115767073,0.5954989129746198
1789141179904743700,4.57974365234375,-0.034740091106002145,-9.787980649257467,0.603841161968871
1789141179914716700,4.589716552734375,-0.037325306209633674,-9.78761758522174,0.609542889755748
1789141179924688600,4.599688720703125,-0.038980108751406575,-9.787307241846618,0.614388398359363
1789141179934660600,4.60966064453125,-0.03983485155441635,-9.787142719575586,0.6169526832010093
1789141179944632600,4.619632568359375,-0.03784981167071638,-9.787143026680384,0.6170843343347018
1789141179954605600,4.62960546875,-0.034109413321706895,-9.787160266927076,0.6170296824011601
1789141179964577800,4.639577880859375,-0.027807403650985735,-9.787125242747265,0.6179040327335321
1789141179974549500,4.649549560546875,-0.023426369067747192,-9.787203832904185,0.6168316664367957
1789141179984521700,4.659521728515625,-0.02145471392858554,-9.787330224280732,0.614888916542062
1789141179994493700,4.66949365234375,-0.021252126162978176,-9.78763240219085,0.6100708342810285
1789141180004466400,4.679466552734375,-0.025548118712379157,-9.788061686751822,0.6029735476705688
1789141180014438700,4.689438720703125,-0.03271525389037288,-9.788630475154237,0.5933189288558977
1789141180024410600,4.69941064453125,-0.038293710807353276,-9.789274991068032,0.5822452250594811
1789141180034382600,4.709382568359375,-0.0413048957139247,-9.79005719012817,0.568737203322603
1789141180044354600,4.7193544921875,-0.03851152046283614,-9.790880246031216,0.5545894878928717
1789141180054327800,4.729327880859375,-0.03294074904661094,-9.791660638152447,0.540993942517296
1789141180064299500,4.739299560546875,-0.026134389722074484,-9.792365067291732,0.5284692923678995
1789141180074271700,4.749271728515625,-0.018475445810927874,-9.79298825760432,0.5171199578438286
1789141180084243500,4.759243408203125,-0.010835775871415897,-9.793495630837372,0.5076597274150821
1789141180094215700,4.769215576171875,-0.00723862937228076,-9.794028035344308,0.4973401584115452
1789141180104188700,4.779188720703125,-0.005238608476801479,-9.794648957686071,0.4849811506554303
1789141180114160600,4.78916064453125,-0.003205426859276833,-9.795300608129981,0.4716603688314426
1789141180124132600,4.799132568359375,-0.0021224677432622016,-9.796051369945447,0.4558129008282321
1789141180134104800,4.809104736328125,-0.004328136058434593,-9.79680872601653,0.4392072373866015
1789141180144076500,4.81907666015625,-0.006335813401944377,-9.797563197804461,0.4220238517813902
1789141180154049500,4.829049560546875,-0.008777059882179784,-9.798298654532761,0.4045275978585025
1789141180164021800,4.839021728515625,-0.011082119430997272,-9.799096108564052,0.38468331313557363
1789141180173993500,4.848993408203125,-0.011153361590010584,-9.799852392514602,0.3649094227553056
1789141180183965700,4.858965576171875,-0.009569937853562464,-9.800568830206076,0.3451755272475511
1789141180193937400,4.8689375,-0.009432252592828646,-9.80116780298355,0.32773080842790325
1789141180203910400,4.878910400390625,-0.008589447285772748,-9.801669065623924,0.31241729238014404
1789141180213882400,4.88888232421875,-0.005417190567461302,-9.80217134581175,0.2962990996390185
1789141180223854300,4.898854248046875,-0.004749908775124117,-9.80264316096955,0.28025305734553074
1789141180233826300,4.908826416015625,-0.005462641597424842,-9.80308803759279,0.2642297156112584
1789141180243799600,4.918799560546875,-0.006558234369136672,-9.803535074055802,0.2470541047818398
1789141180253771300,4.928771240234375,-0.006644782967958785,-9.803992384297143,0.22820150177494672
1789141180263743500,4.938743408203125,-0.005871568333926199,-9.804409879851907,0.20950486765905038
1789141180273715500,4.948715576171875,-0.005517657692293458,-9.804745503118879,0.1931781627692658
1789141180283687400,4.9586875,-0.004611665912906215,-9.805015612271081,0.17894413980960325
1789141180293660400,4.968660400390625,-0.001986405746782102,-9.805236688935882,0.16650698876065156
1789141180303632400,4.97863232421875,0.0016396752659162978,-9.805396186485977,0.15683230910688065
1789141180313604400,4.988604248046875,0.0029269615185419473,-9.80555861450409,0.14629792960390642
1789141180323576600,4.99857666015625,0.0023278810202672575,-9.805688883750188,0.13729492320420372
1789141180333548300,5.00854833984375,0.002843166346808946,-9.80580312511551,0.12885894935363248
1789141180343521300,5.018521240234375,0.003913110339353434,-9.805894837027738,0.1216394035877682
1789141180353493500,5.028493408203125,0.005491552668490002,-9.805987666920508,0.11386529917945253
1789141180363465200,5.03846533203125,0.006808746157605935,-9.806039806675841,0.10915127234755496
1789141180373437400,5.0484375,0.008169903909690704,-9.806115690331751,0.10203189740487971
1789141180383409400,5.058409423828125,0.009975370106163083,-9.806186992592867,0.09480317026444167
1789141180393382400,5.06838232421875,0.01177517648367877,-9.806234568313927,0.08953509702157975
1789141180403354400,5.078354248046875,0.01457221393010625,-9.806269024389426,0.08516358891944822
1789141180413326600,5.08832666015625,0.01682587773686289,-9.806304240405574,0.08067039753943683
1789141180423298300,5.09829833984375,0.018221469405650243,-9.806338371523799,0.07603254446340205
1789141180433270500,5.1082705078125,0.019396189527403927,-9.806364787967475,0.07233515879010259
1789141180443243500,5.118243408203125,0.021407057692198018,-9.806389277432924,0.06832058016352834
1789141180453215500,5.128215576171875,0.021603195318671033,-9.806406408093096,0.0656361775698732
1789141180463187500,5.1381875,0.020115602728677538,-9.806416940090832,0.06459961580898137
1789141180473159400,5.148159423828125,0.01938276163431761,-9.806408215745714,0.0662021433974118
1789141180483132400,5.15813232421875,0.01874940418032294,-9.80638740334147,0.06922689730308818
1789141180493104400,5.1681044921875,0.019275059802878088,-9.806351555651021,0.07403799966529515
1789141180503076400,5.178076416015625,0.020584642065715142,-9.806310020420124,0.07904357762680668
1789141180513048300,5.18804833984375,0.02176012921615411,-9.806284900127459,0.08177896865433894
1789141180523020500,5.1980205078125,0.02606171958838309,-9.806267442107517,0.08261164193666717
1789141180532993300,5.2079931640625,0.03097274365260089,-9.806253516636453,0.08264400496858189
1789141180542965500,5.217965576171875,0.030761869417094297,-9.806251065429116,0.08289448174603452
1789141180552937500,5.2279375,0.02878109781475825,-9.806268329217552,0.08153807945824738
1789141180562909400,5.237909423828125,0.024296817538169233,-9.806283073239461,0.08127241712533126
1789141180572881400,5.24788134765625,0.018222282402335664,-9.80631167981489,0.0794052432248256
1789141180582854400,5.2578544921875,0.013926688136514064,-9.80633683524693,0.07709364195633871
1789141180592826400,5.267826416015625,0.011426028975958437,-9.806362209816651,0.07430676127714993
1789141180602798300,5.27779833984375,0.01078105136467807,-9.806388489524766,0.07087256884440578
1789141180612770300,5.287770263671875,0.015212738916309136,-9.806404546637289,0.06775739280887665
1789141180622742500,5.297742431640625,0.019297005750861726,-9.806405187967997,0.06655509120948777
1789141180632715500,5.307715576171875,0.020318295840996533,-9.806400253315804,0.06690509747018815
1789141180642687200,5.317687255859375,0.0203984594657829,-9.806381717757452,0.06971433287442538
1789141180652659500,5.327659423828125,0.016970248897255513,-9.80635956968995,0.07359829752214181
1789141180662631400,5.33763134765625,0.013815371812565974,-9.80634614979409,0.0759441333172971
1789141180672603400,5.347603271484375,0.010324886690548398,-9.80633967450175,0.07728426287602973
1789141180682576400,5.357576416015625,0.004311806800643448,-9.806356577562791,0.07568606702957618
1789141180692548600,5.367548583984375,-0.0014867044198076911,-9.806372018832022,0.07381330553209352
1789141180702520300,5.377520263671875,-0.0020490444980744687,-9.80637613784036,0.07330177192645115
1789141180712492500,5.387492431640625,-0.004029778420958073,-9.806363516280555,0.07485384346025162
1789141180722464300,5.39746435546875,-0.007395042425843753,-9.80633596561706,0.07812723032151701
1789141180732437200,5.407437255859375,-0.00965174318680324,-9.806323170991448,0.0795416108840538
1789141180742409500,5.417409423828125,-0.011214948337021998,-9.806330989155043,0.07829447721904154
1789141180752381400,5.42738134765625,-0.009801493298468779,-9.806357057966233,0.07509389275605818
1789141180762353400,5.437353515625,-0.005251980643745377,-9.806404249400838,0.0691545868721395
1789141180772325600,5.44732568359375,-0.0011214621669879807,-9.80645467812637,0.061846245610816794
1789141180782298400,5.45729833984375,-0.0008190480242163803,-9.806491291429806,0.055667189004811574
1789141180792270300,5.467270263671875,-0.002386003939283709,-9.80652875110219,0.04883655595158627
1789141180802242300,5.4772421875,-0.005786813745414492,-9.80655165837392,0.043635422059203455
1789141180812214300,5.48721435546875,-0.010956828575083033,-9.80656225116664,0.03995060168304664
1789141180822187500,5.4971875,-0.01358966258299545,-9.806572766531,0.036448929861744965
1789141180832159200,5.5071591796875,-0.012676402387773802,-9.806588125719196,0.03232535741727106
1789141180842131500,5.51713134765625,-0.010334118146114445,-9.806607826802074,0.026770886479134
1789141180852103400,5.527103515625,-0.0063347116347439465,-9.806627392634656,0.020026637897689818
1789141180862075400,5.537075439453125,-0.0011574667283491664,-9.80663971528418,0.01478629358616905
1789141180872048400,5.54704833984375,0.0034587892248018957,-9.806644702596046,0.010550524069793893
1789141180882020400,5.557020263671875,0.008146441427911752,-9.806642135460788,0.00938108539755194
1789141180891992300,5.566992431640625,0.00792605201126727,-9.80664131725351,0.01061140651908529
1789141180901964500,5.576964599609375,0.0058165951757898635,-9.806643640320551,0.009926852107994145
1789141180911936300,5.586936279296875,0.004077793919217075,-9.806645650995113,0.008808739157497934
1789141180921909200,5.5969091796875,0.0027067531028512827,-9.806648296300208,0.0058144430590351785
1789141180931881500,5.606881591796875,0.00027096328824599206,-9.806650419267108,0.002431920811703454
1789141180941853200,5.616853271484375,-0.0012774834992147941,-9.806649784174947,-0.0001041319058151235
1789141180951825400,5.626825439453125,-0.001082825229495825,-9.80665030712179,-0.0016695225072336525
1789141180961797400,5.63679736328125,5.765679590857156e-05,-9.80664958900035,-0.0030390253866824754
1789141180971770400,5.646770263671875,0.002791897860293804,-9.806649401908288,-0.0017637266245777918
1789141180981742300,5.656742431640625,0.0051021745382024055,-9.806648313159021,-0.0010442335587712297
1789141180991714600,5.666714599609375,0.005588760805526984,-9.806648501613598,0.0001471511810755318
1789141181001686300,5.676686279296875,0.00716495991477669,-9.806647212524405,-0.0015808813563560659
1789141181011658500,5.686658447265625,0.0075417950289134,-9.806645572812966,-0.005297236807871613
1789141181021631500,5.696631591796875,0.008852071405056927,-9.806641182885258,-0.009470458601917022
1789141181031603500,5.706603515625,0.010237399011275173,-9.806636624699783,-0.012211559257293503
1789141181041575400,5.716575439453125,0.011329083704641857,-9.806630936653294,-0.016007694647198728
1789141181051547400,5.72654736328125,0.013611794340242579,-9.806623783925549,-0.01822864327587519
1789141181061519400,5.736519287109375,0.01655110016152197,-9.806614492659657,-0.020439865472208347
1789141181071492400,5.746492431640625,0.01748287676987393,-9.806604156741347,-0.02447845354436293
1789141181081464300,5.75646435546875,0.017806684354105935,-9.806588291025314,-0.029849187208125412
1789141181091436300,5.766436279296875,0.01756199649085553,-9.80657171229482,-0.03504525091421247
1789141181101408500,5.776408447265625,0.013838312195092975,-9.806559190324421,-0.03997495305049007
1789141181111380200,5.786380126953125,0.00964109971957371,-9.806537616026022,-0.04594595413439916
1789141181121353500,5.796353515625,0.006517567712595814,-9.806519243335806,-0.050319044268355054
1789141181131325400,5.806325439453125,0.0033575860357269206,-9.806496326735797,-0.05474281041947174
1789141181141297400,5.81629736328125,0.0030520396625143475,-9.806463412532223,-0.060372352974729086
1789141181151269400,5.826269287109375,0.0075568034498433275,-9.806422740071849,-0.06633455483078747
1789141181161241300,5.836241455078125,0.011776690456874376,-9.806374084514218,-0.07262574322848728
1789141181171214300,5.84621435546875,0.01651574354209959,-9.80631110565575,-0.07988689961845225
1789141181181186600,5.8561865234375,0.023099535100063042,-9.806247553617693,-0.0857439067985463
1789141181191158300,5.866158203125,0.02609684551045916,-9.80620811349581,-0.08942247619758668
1789141181201130000,5.8761298828125,0.026398938735074012,-9.806185411577186,-0.09169112044848764
1789141181211102000,5.88610205078125,0.024487384497571464,-9.80616613811994,-0.09431458516473785
1789141181221075000,5.896074951171875,0.019343836748978698,-9.806139898058435,-0.09813635776701612
1789141181231047000,5.906046875,0.015419218754800202,-9.806098100640833,-0.10294212937666883
1789141181241019100,5.91601904296875,0.013227472092057787,-9.806045659070094,-0.10803236558305848
1789141181250990800,5.925990966796875,0.010666271239985209,-9.805980825122557,-0.11411689893842146
1789141181260963800,5.9359638671875,0.009806693707979153,-9.805920765345872,-0.11920699759422398
1789141181270936000,5.94593603515625,0.013739918426211459,-9.80584604082523,-0.12482052618451918
1789141181280907800,5.95590771484375,0.01716841407564242,-9.805772588802217,-0.13008985437816123
1789141181290880000,5.9658798828125,0.020314700340538207,-9.80572291255325,-0.1332627630339805
1789141181300851700,5.975851806640625,0.02124228690178099,-9.80567240638426,-0.13683854632070885
1789141181310825000,5.985824951171875,0.022214498599307894,-9.805612536402483,-0.14090458931398472
1789141181320797000,5.995796875,0.02172143094218244,-9.805530642118866,-0.14654125648564026
1789141181330769000,6.005768798828125,0.0198070193985126,-9.80544113372287,-0.15267181109472164
1789141181340740900,6.015740966796875,0.01801847982984748,-9.805364535019855,-0.15777410042154916
1789141181350713000,6.025713134765625,0.016544801140088803,-9.805264207045337,-0.16405785817918567
1789141181360685800,6.035685791015625,0.01761402008690744,-9.805148379169179,-0.17074013754019696
1789141181370658000,6.045657958984375,0.018490768054033116,-9.805036245279735,-0.17693205065342227
1789141181380630000,6.055630126953125,0.019900845858734625,-9.804942798397866,-0.18192408731943327
1789141181390602000,6.06560205078125,0.020399621382070174,-9.80486162098963,-0.18615357417957565
1789141181400574000,6.075573974609375,0.022124570895325903,-9.804790919544281,-0.18965825964042343
1789141181410546700,6.085546630859375,0.023041163713812374,-9.804733699186952,-0.1924855783782002
1789141181420519000,6.095518798828125,0.021293792268438153,-9.804682967962798,-0.19527862709863933
1789141181430491000,6.105490966796875,0.018170875885368826,-9.804612838103457,-0.19906430270453832
1789141181440462800,6.115462890625,0.014767904806534539,-9.80450767581148,-0.20442346700696043
1789141181450434800,6.125434814453125,0.010855487867730194,-9.804400016023607,-0.20976690249180616
1789141181460408000,6.135407958984375,0.007131823670158334,-9.804225433231625,-0.2179287148723155
1789141181470379800,6.1453798828125,0.004823627156821803,-9.803998288243916,-0.2279971938426118
1789141181480352000,6.15535205078125,0.0032640649649559833,-9.80379769912398,-0.23649635756090748
1789141181490323700,6.16532373046875,0.003589975255939156,-9.80360628595692,-0.24430532494191487
1789141181500296000,6.1752958984375,0.003198692782157525,-9.803443385005929,-0.25072877776657015
1789141181510269000,6.18526904296875,0.002585963030457277,-9.803278125689491,-0.25713417692916457
1789141181520241000,6.195240966796875,0.0002971563297010485,-9.803111215706974,-0.26340255306992294
1789141181530212900,6.205212890625,-0.0013169896493947701,-9.802962274581068,-0.26891142753545655
1789141181540185000,6.21518505859375,-0.004428692443306633,-9.802740186168018,-0.27686411906548447
1789141181550156800,6.22515673828125,-0.007968279084729742,-9.80244541474972,-0.2870438537860458
1789141181560129800,6.2351298828125,-0.008781642766738103,-9.802119166547058,-0.29797062382044914
1789141181570102000,6.24510205078125,-0.008688007074681486,-9.801785740825059,-0.3087024506053536
1789141181580073700,6.25507373046875,-0.007742386469896843,-9.80144969961107,-0.31924173085658913
1789141181590046000,6.2650458984375,-0.004389067333053329,-9.801095414957345,-0.3299733754622153
1789141181600017700,6.275017578125,-0.004219165401870833,-9.800742941511663,-0.3402959020726783
1789141181609991000,6.284990966796875,-0.004240804298723041,-9.800470883002705,-0.3480488557965326
1789141181619963000,6.294962890625,-0.002976713358335012,-9.800188637050136,-0.35590043107134345
1789141181629934800,6.304934814453125,-0.006740236564211008,-9.79991679085739,-0.3632734201621895
1789141181639906800,6.31490673828125,-0.011415778018989369,-9.799592161652571,-0.3718304199820067
1789141181649879000,6.324879150390625,-0.012857557554524075,-9.79929978696746,-0.3794031350578804
1789141181659851800,6.334851806640625,-0.013626289771390989,-9.798925984592628,-0.38891918645939344
1789141181669824000,6.344823974609375,-0.016477816096100797,-9.798481822543906,-0.3998371107283837
1789141181679796000,6.3547958984375,-0.01578801104891266,-9.798022148560417,-0.4109766458753472
1789141181689768000,6.364767822265625,-0.014553944699368248,-9.797635276463142,-0.4201431237722523
1789141181699741000,6.374740966796875,-0.015305226182039285,-9.797295140275468,-0.4279693393340428
1789141181709713000,6.384712890625,-0.016444940420290065,-9.79696247185638,-0.43548905929934123
1789141181719684900,6.394684814453125,-0.020518972431857158,-9.79662364362679,-0.4428769909981322
1789141181729656800,6.40465673828125,-0.02514727120148121,-9.796268683441138,-0.45040612156542953
1789141181739628800,6.41462890625,-0.031465982194355244,-9.795865391097836,-0.45870193086057703
1789141181749601800,6.424601806640625,-0.03939313376940623,-9.795482521874737,-0.46622449341878436
1789141181759574000,6.434573974609375,-0.046590395519343596,-9.795166025448417,-0.472165434728327
1789141181769545700,6.444545654296875,-0.04856579970145104,-9.794895831374713,-0.47755459393529703
1789141181779518000,6.45451806640625,-0.051419521899676676,-9.794618821766658,-0.48289389701244284
1789141181789490000,6.464489990234375,-0.05095557325610317,-9.7943919565898,-0.48752181659831995
1789141181799463000,6.474462890625,-0.04837737489634782,-9.794230659215897,-0.49101272842089755
1789141181809435000,6.484434814453125,-0.04367078128387381,-9.794157589213311,-0.4928948228037213
1789141181819407000,6.494406982421875,-0.03824907942023523,-9.794114917370566,-0.4942116686698867
1789141181829378800,6.50437890625,-0.0344505588057567,-9.794007197364534,-0.49660460053878885
1789141181839351000,6.51435107421875,-0.032902351567505615,-9.793870171711898,-0.4994157217825466
1789141181849324000,6.524323974609375,-0.031878704335560476,-9.793694189728642,-0.5029121368364277
1789141181859295700,6.534295654296875,-0.03392166305948017,-9.793436110889195,-0.5077841028439903
1789141181869268000,6.54426806640625,-0.037012909374736426,-9.793285102246754,-0.5104688314964111
1789141181879239700,6.55423974609375,-0.037866513528246715,-9.793269873944979,-0.5107116151904265
1789141181889212000,6.5642119140625,-0.03703512467095071,-9.793284763668447,-0.5104808883000999
1789141181899185000,6.574184814453125,-0.035916195190558005,-9.79338275186587,-0.5086876429438851
1789141181909156900,6.584156982421875,-0.03475317358469475,-9.793491248649225,-0.5066661453852412
1789141181919128800,6.59412890625,-0.03386614481118584,-9.793546881054844,-0.5056437444091864
1789141181929101000,6.60410107421875,-0.03220364033036501,-9.793606202902488,-0.5046024066333167
1789141181939072800,6.61407275390625,-0.031508693307795425,-9.793602085883137,-0.5047364878909217
1789141181949046000,6.6240458984375,-0.03315817836813189,-9.793663928900676,-0.5034100672073462
1789141181959018000,6.63401806640625,-0.034461560828385175,-9.793776435783906,-0.5011397139634597
1789141181968990000,6.643989990234375,-0.03562572546994029,-9.793872759017514,-0.49915995051515766
1789141181978962000,6.6539619140625,-0.03690158033356733,-9.794061478527382,-0.4953710998480999
1789141181988934000,6.663933837890625,-0.03841467065812015,-9.794340484530325,-0.4896981676253143
1789141181998907000,6.673906982421875,-0.03748828416525722,-9.794713588576379,-0.4822436236196139
1789141182008878800,6.68387890625,-0.03571233849608784,-9.795107388403306,-0.4743102537172629
1789141182018850800,6.693850830078125,-0.03340028464522774,-9.795480558597902,-0.4667221640186544
1789141182028822800,6.70382275390625,-0.030495023218315587,-9.795857383144925,-0.45894729448388794
1789141182038795000,6.713794921875,-0.025443480738264652,-9.796245233212428,-0.4509015495954077
1789141182048767700,6.723767822265625,-0.023152394525241652,-9.796598200476597,-0.44329316180646855
1789141182058740000,6.733739990234375,-0.020048326305590586,-9.797013592923696,-0.43418282080262716
1789141182068712000,6.7437119140625,-0.01680386676708518,-9.79744548286726,-0.4244541013120279
1789141182078684000,6.753683837890625,-0.014449194820877165,-9.797934387356982,-0.4131083874818184
1789141182088656000,6.76365576171875,-0.015501959558781525,-9.79845926419441,-0.40042399409359014
1789141182098629000,6.773629150390625,-0.015766780513881234,-9.798961588857296,-0.3879203810414684
1789141182108600800,6.783600830078125,-0.015468501707549848,-9.799496002858392,-0.3741897419601405
1789141182118573000,6.793572998046875,-0.017865349098032866,-9.799985342280518,-0.36104646218422765
1789141182128544800,6.803544677734375,-0.018329643154514574,-9.800405799695959,-0.34942721362768964
1789141182138517000,6.81351708984375,-0.015886236313677766,-9.800854577794425,-0.33671896964987347
1789141182148490000,6.823489990234375,-0.01403154803811199,-9.80130623716739,-0.32340979322513863
1789141182158461700,6.833461669921875,-0.00938512044726221,-9.80179289834415,-0.30846544656294833
1789141182168434000,6.843433837890625,-0.0025009438717709764,-9.802276118563983,-0.2928661281869022
1789141182178406000,6.853406005859375,0.0015091993679963308,-9.802748030226489,-0.27663364240232036
1789141182188377900,6.8633779296875,0.004058876666658812,-9.80314917478843,-0.2619952025069828
1789141182198351400,6.873351318359375,0.006410600296916309,-9.803467567008434,-0.24975020179507904
1789141182208323600,6.883323486328125,0.0072707894070889725,-9.803762876738732,-0.23782756902310995
1789141182218295300,6.89329541015625,0.0044467448501014015,-9.804055609976016,-0.22551145331158934
1789141182228267500,6.903267578125,0.0016245891676462342,-9.804345931153216,-0.21256974554718266
1789141182238239500,6.913239501953125,-0.00040021384061243715,-9.804641852613162,-0.19845127808362478
1789141182248212200,6.923212158203125,-0.0015633786876411999,-9.804949212909326,-0.182623671082474
1789141182258184400,6.933184326171875,-0.0003315532770204668,-9.805241508412626,-0.1661731042077804
1789141182268156400,6.943156494140625,-0.00025245922797474847,-9.805492942340162,-0.1506371205004738
1789141182278128400,6.95312841796875,-0.0004753697708429726,-9.805707326815394,-0.13600810380022949
1789141182288101400,6.963101318359375,0.001035542784454499,-9.805914517672631,-0.12010780968102215
1789141182298073600,6.973073486328125,0.002620037944183075,-9.806109077866022,-0.10293920061536545
1789141182308045300,6.98304541015625,0.0012641210535652776,-9.806272086753062,-0.08605153288104728
1789141182318017500,6.993017578125,-0.0006006623922888775,-9.806415890408317,-0.06767703888960534
1789141182327989200,7.0029892578125,-0.0012746289752347628,-9.80652282266924,-0.04981690851552863
1789141182337962500,7.01296240234375,-0.001195701282063175,-9.806597470420819,-0.03222381705698061
1789141182347934500,7.0229345703125,2.6903309328337623e-05,-9.806639916788614,-0.014303978060935871
1789141182357906400,7.032906494140625,0.0022512472268602936,-9.806649996636258,0.0029212539982935255
1789141182367878400,7.04287841796875,0.008315077806098808,-9.806626453533541,0.01965718757091642
1789141182377850600,7.0528505859375,0.014189502180387302,-9.806564607534106,0.038275332737056605
1789141182387823400,7.0628232421875,0.019390362345563784,-9.806470902795626,0.05595299197011798
1789141182397795300,7.07279541015625,0.021896849296538786,-9.806347673651075,0.07385340053927947
1789141182407767600,7.082767578125,0.02406761381164114,-9.806197152665233,0.09110230117229112
1789141182417739300,7.0927392578125,0.024975898783036337,-9.806038016153249,0.10670968691760885
1789141182427711500,7.10271142578125,0.021315072027570076,-9.805878520311579,0.12112109697851597
1789141182437684500,7.1126845703125,0.01773096762853721,-9.805693413868775,0.13578768172100503
1789141182447656400,7.122656494140625,0.015698673842838788,-9.805460154081949,0.15193300066152887
1789141182457628400,7.13262841796875,0.015124579406169117,-9.805182859967559,0.16895863145226211
1789141182467600400,7.142600341796875,0.015283954928683965,-9.8049100436687,0.18408245665908796
1789141182477572400,7.152572265625,0.015010418146018015,-9.804596455342379,0.20008466413934772
1789141182487545600,7.162545654296875,0.017122320061507105,-9.804263187733927,0.2157024743903029
1789141182497517300,7.172517333984375,0.019269397458542652,-9.803937771027398,0.22983617377150614
1789141182507489500,7.182489501953125,0.020625974530105683,-9.80357440123153,0.2447075857040358
1789141182517461500,7.19246142578125,0.02395885429602566,-9.803196553076495,0.25912997564716117
1789141182527433500,7.20243359375,0.024689672120488178,-9.802831692601941,0.27253519147957306
1789141182537406500,7.212406494140625,0.023902930288736385,-9.802443026353375,0.286204218284687
1789141182547378400,7.22237841796875,0.0227691605491218,-9.802070488847898,0.298810458658827
1789141182557350400,7.232350341796875,0.020682541031820604,-9.801755038044357,0.3091321029108685
1789141182567322400,7.242322265625,0.019030737403627634,-9.801455255363837,0.3186047419848258
1789141182577294300,7.25229443359375,0.0191177595154526,-9.801078130928184,0.32999047462625736
1789141182587267300,7.262267333984375,0.020954644750955105,-9.800668642036939,0.3418292569493613
1789141182597239600,7.272239501953125,0.023243678829444198,-9.800225722304699,0.3541548246607085
1789141182607211300,7.282211181640625,0.027323759263644175,-9.799871310316528,0.3635341988375157
1789141182617183500,7.29218359375,0.0328623208393803,-9.799493922685487,0.37314070551292944
1789141182627155500,7.302155517578125,0.03614638107135146,-9.799245286999572,0.37930952996547
1789141182637128400,7.31212841796875,0.040293335694588435,-9.798932487548235,0.3868869675018435
1789141182647100400,7.322100341796875,0.03954937445413264,-9.798687667539973,0.3931172868597812
1789141182657072600,7.33207275390625,0.03675499610755544,-9.798496025231072,0.3981522636489988
1789141182667044400,7.34204443359375,0.035803385701040184,-9.798268935762426,0.4037625267432706
1789141182677016600,7.3520166015625,0.03404447007013183,-9.7980919605463,0.4081861964655222
1789141182686989600,7.361989501953125,0.031965969161613234,-9.79786059922668,0.4138799744617237
1789141182696961300,7.371961181640625,0.03129389071832697,-9.79768533229098,0.41804913367517077
1789141182706933500,7.38193359375,0.02958856363595333,-9.797538886189638,0.4215871552654087
1789141182716905500,7.391905517578125,0.02827894599879359,-9.797491581720191,0.4227844697435321
1789141182726878500,7.40187841796875,0.0283605715853311,-9.797470012552198,0.4232797989386845
1789141182736850400,7.411850341796875,0.030427720339570155,-9.797553728622292,0.4211820376428658
1789141182746822400,7.421822509765625,0.033992827723819716,-9.797640972367205,0.4188615951371886
1789141182756794400,7.43179443359375,0.036300535081245665,-9.797714606889835,0.41696804559774253
1789141182766766600,7.4417666015625,0.03673125935946947,-9.797842013950921,0.4139070063324326
1789141182776738300,7.45173828125,0.03633067359429431,-9.797882376571327,0.41299228880667194
1789141182786711600,7.461711669921875,0.03482359225404282,-9.797887247827067,0.41299303883722077
1789141182796683500,7.47168359375,0.032267078959422074,-9.797942804874028,0.4119055752668701
1789141182806655500,7.481655517578125,0.02962576215741439,-9.798086541342922,0.4086791966618144
1789141182816627500,7.49162744140625,0.026421900395008562,-9.798279525048825,0.4042363777491747
1789141182826600400,7.501600341796875,0.02364730740809731,-9.798551337783753,0.3977698420788501
1789141182836572400,7.511572509765625,0.021695423964534815,-9.79877481525718,0.3923450049441954
1789141182846544400,7.52154443359375,0.02332528079302734,-9.798955921863366,0.3876764529642983
1789141182856516400,7.531516357421875,0.025098340985003964,-9.799150393123105,0.38261837190837933
1789141182866488600,7.541488525390625,0.025891902494744354,-9.799337341969947,0.3777605140940827
1789141182876461600,7.551461669921875,0.026627675966106386,-9.79953410653447,0.372576587017475
1789141182886433300,7.561433349609375,0.026136221044194084,-9.799777708004255,0.36614583703985415
1789141182896405500,7.571405517578125,0.025031610969583992,-9.800009261524671,0.3599851374314301
1789141182906377500,7.58137744140625,0.024901342883370457,-9.800236700056333,0.35373374243410083
1789141182916349400,7.591349365234375,0.02506016606310216,-9.8005009708864,0.34631994209474815
1789141182926322400,7.601322509765625,0.026539243299443103,-9.800725822259281,0.33978582564894744
1789141182936294700,7.611294677734375,0.030382924976257428,-9.800916147714586,0.33391909641168016
1789141182946266400,7.621266357421875,0.03219073472985526,-9.801055904517602,0.32962528838621996
1789141182956238600,7.631238525390625,0.03354955026825536,-9.801095340635765,0.3283285797577305
1789141182966210300,7.641210205078125,0.03635663476130783,-9.801049441653113,0.32938099694764933
1789141182976183300,7.651183349609375,0.03992956250184739,-9.801007661943606,0.33021543727346375
1789141182986155500,7.661155517578125,0.04180875615225994,-9.80091890823959,0.33259896176130677
1789141182996127500,7.67112744140625,0.042488007234303876,-9.800852707239647,0.3344691229778095
1789141183006099500,7.681099365234375,0.04124472829528462,-9.800835911467654,0.3351275626238058
1789141183016071700,7.69107177734375,0.039200123900278404,-9.80080050442616,0.33637459160700883
1789141183026044400,7.70104443359375,0.03580115882644673,-9.800747633485763,0.33828472689145705
1789141183036016400,7.711016357421875,0.03202138929202411,-9.800677201746147,0.3407100617440967
1789141183045988400,7.72098828125,0.030342709182101815,-9.800658339622188,0.3414164987585862
1789141183055960300,7.730960205078125,0.03000263566880431,-9.800708339067198,0.3400100035514411
1789141183065932500,7.7409326171875,0.03111706582140502,-9.800716150523266,0.3396820514696019
1789141183075905300,7.7509052734375,0.033024470189253176,-9.800660209913927,0.34112542945605423
1789141183085877500,7.76087744140625,0.033395337807032896,-9.800675692546088,0.3406398884404593
1789141183095849500,7.770849365234375,0.034009577783581046,-9.80059020750153,0.3430127993731973
1789141183105821400,7.780821533203125,0.034322398744668435,-9.800474720080814,0.34628309645212896
1789141183115793400,7.79079345703125,0.03513093403417736,-9.800333478819054,0.35018081722955446
1789141183125766400,7.800766357421875,0.037547986549791336,-9.80020289865159,0.3535405562731415
1789141183135738400,7.81073828125,0.04013388606334041,-9.800079656461763,0.3566705326821546
1789141183145710600,7.820710693359375,0.0451912657761509,-9.800037226168655,0.3572233281465804
1789141183155682300,7.830682373046875,0.0489036718883884,-9.799928021107558,0.3597281350066208
1789141183165654500,7.840654541015625,0.050279057962805275,-9.799855302990007,0.36151362647362445
1789141183175627500,7.85062744140625,0.04937569416106226,-9.799710845622414,0.36552336229970256
1789141183185599200,7.86059912109375,0.04747874704434438,-9.799540424628066,0.3703125333134739
1789141183195571500,7.870571533203125,0.04049339004531504,-9.79933938121222,0.37641631696626776
1789141183205543200,7.880543212890625,0.03325883111382519,-9.799147192004176,0.3820717014145633
1789141183215515400,7.890515380859375,0.0285746155137808,-9.798945181103376,0.38762985540808836
1789141183225488400,7.90048828125,0.02441670467545065,-9.798796023382195,0.3916631105316327
1789141183235460400,7.91046044921875,0.020882374915191484,-9.798720551832902,0.3937458574876859
1789141183245432300,7.920432373046875,0.02226850488709571,-9.798640762677891,0.39564305633142577
1789141183255404300,7.930404296875,0.024818779078511845,-9.798595738012052,0.3966160924709457
1789141183265376300,7.940376220703125,0.026851839417985367,-9.798542068403611,0.39780540289141475
1789141183275349500,7.950349609375,0.02953695196922798,-9.79855707763251,0.3972370093986897
1789141183285321200,7.9603212890625,0.030510116422171184,-9.798547118566276,0.3974075529285666
1789141183295293400,7.97029345703125,0.028597155466337707,-9.798602196191304,0.3961929571182935
1789141183305265400,7.980265380859375,0.025570099205776544,-9.798694343970089,0.39410888789929
1789141183315238100,7.990238037109375,0.019491778683858596,-9.798834102900559,0.39097011161654094
1789141183325210400,8.00021044921875,0.015155513292753896,-9.799081895459983,0.38489556388791446
1789141183335182300,8.010182373046876,0.013303338175822901,-9.799307033470663,0.3792045269728905
1789141183345154300,8.020154296875,0.010171069384175911,-9.799498943664053,0.37429755424895284
1789141183355126300,8.030126220703124,0.006634724191837713,-9.799746782820602,0.3678271802206495
1789141183365099500,8.040099609375,0.005613857744675745,-9.79999805043838,0.361085170097158
1789141183375071200,8.0500712890625,0.007225024784578995,-9.800271707089951,0.3535757009205778
1789141183385043500,8.06004345703125,0.006154115913153855,-9.800434630779897,0.34905060781660757
1789141183395015200,8.07001513671875,0.0032377335920916656,-9.800603252109557,0.34431828947479187
1789141183404987400,8.0799873046875,0.002479124865211592,-9.800763496413257,0.33973083375544677
1789141183414960400,8.08996044921875,0.001912234533600217,-9.800948891236212,0.33435058072702045
1789141183424932400,8.099932373046874,0.00040983916241880405,-9.801163971793077,0.32797981405377735
1789141183434904300,8.109904296875,-0.0003771373322133308,-9.801474945271874,0.3185477359547582
1789141183444876500,8.11987646484375,-0.0021585342342883983,-9.801871270265998,0.30612343938819897
1789141183454848300,8.12984814453125,-0.0011839828151439186,-9.802261844978668,0.2933609582878041
1789141183464821200,8.1398212890625,0.00017928395382585513,-9.802578255997346,0.2825652654949367
1789141183474793200,8.149793212890625,0.0006984088204567564,-9.802858112655263,0.2726698662927491
1789141183484765200,8.15976513671875,0.0008681969996385874,-9.803072272675747,0.2648820204985851
1789141183494737400,8.1697373046875,0.0027041237639170964,-9.80330871624061,0.25595931277986905
1789141183504709000,8.179709228515625,0.003730654134927047,-9.803576743176105,0.2454543877314289
1789141183514682400,8.189682373046875,0.0016501221322304837,-9.803890640255275,0.232603517485668
1789141183524654300,8.199654296875,-0.0003292607987059121,-9.804196938846957,0.21930715369950202
1789141183534626300,8.209626220703125,-0.0014783680021605143,-9.804478306963857,0.2063484965803472
1789141183544598300,8.219598388671875,-0.004826524479048069,-9.804705893303456,0.19520076466928282
1789141183554570200,8.2295703125,-0.007729775005277076,-9.80485440144134,0.18749783938711498
1789141183564543200,8.239543212890625,-0.006705010664591868,-9.805041393194172,0.1775165666462227
1789141183574515500,8.249515380859375,-0.005316563169248053,-9.80522618065109,0.16702477261997062
1789141183584487200,8.259487060546874,-0.002590381644348527,-9.80541971129991,0.15530193229501724
1789141183594459400,8.26945947265625,0.0011150012543051744,-9.805583164352406,0.1446312751805631
1789141183604431400,8.279431396484375,0.00321583859909611,-9.805727284842842,0.13445622045107722
1789141183614404000,8.289404052734374,0.0026984949565356285,-9.805816530922334,0.12778540493443144
1789141183624376300,8.299376220703126,0.0019174508961419502,-9.805905911669804,0.1207515151961581
1789141183634348300,8.309348388671875,-0.00038012853805204127,-9.805992593910696,0.11358766492164507
1789141183644320300,8.3193203125,-0.0026371120207859546,-9.806092953965761,0.10446732160098442
1789141183654292200,8.329292236328126,-0.0028935940255633793,-9.806177932349257,0.09614590388231957
1789141183664265500,8.339265380859375,-0.002481940877036924,-9.806258989852799,0.08753463270709547
1789141183674237200,8.3492373046875,-0.0001843462405874966,-9.80632512803982,0.07993450288756213
1789141183684209400,8.35920947265625,0.0011390377938729013,-9.806373891664188,0.07353611040810719
1789141183694181000,8.36918115234375,-0.0008913430303363661,-9.806405651901596,0.06916179766320618
1789141183704153300,8.3791533203125,-0.003486907632553105,-9.806430164010287,0.06554606383685278
1789141183714126300,8.389126220703124,-0.006811655838884487,-9.806457471301398,0.06097813869748096
1789141183724098300,8.399098388671876,-0.007115343785841376,-9.806498499854921,0.054006310858035186
1789141183734070300,8.4090703125,-0.0067964982232317575,-9.806543549627516,0.045237325901186044
1789141183744042500,8.41904248046875,-0.00534234200366961,-9.806578287353819,0.03711347591394718
1789141183754014200,8.42901416015625,-0.004395621711748827,-9.806601064827866,0.030784892495092062
1789141183763987200,8.4389873046875,-0.002722533452405777,-9.806616947786283,0.02556612381857411
1789141183773959400,8.44895947265625,-0.0009717022787432153,-9.806624192304755,0.022390538670311846
1789141183783931100,8.45893115234375,-9.474247695153668e-05,-9.806627997970923,0.020548723456023425
1789141183793903400,8.4689033203125,0.0006130671253402455,-9.80663125116952,0.018886880378824016
1789141183803875300,8.478875244140625,0.0035481677985350615,-9.806635453554506,0.01617423972180729
1789141183813848300,8.488848388671874,0.005074549853369426,-9.80663906653917,0.013818955720196065
1789141183823820300,8.4988203125,0.007238321225955921,-9.806644583885058,0.007711729607198882
1789141183833792300,8.508792236328125,0.007097112338446148,-9.806647544494728,0.00037130212194979537
1789141183843764200,8.51876416015625,0.006995178684915652,-9.806645741329032,-0.005804646725508927
1789141183853736400,8.528736328125,0.006637907942813316,-9.806641795251485,-0.010905901379678638
1789141183863709200,8.538709228515625,0.002122683396417406,-9.806638329929841,-0.014948457537416363
1789141183873681400,8.548681396484374,-0.0018635607819482362,-9.806637927361109,-0.015277868058133564
1789141183883653400,8.5586533203125,-0.003965938624656085,-9.806636102961042,-0.016324519766442162
1789141183893625300,8.568625244140625,-0.005128539929512004,-9.806631460192058,-0.018400643091604624
1789141183903597300,8.578597412109374,-0.005776471650204042,-9.806618336651237,-0.024119592116878752
1789141183913570300,8.5885703125,-0.0027957148523042406,-9.806605384468773,-0.029529929766073503
1789141183923542300,8.598542236328125,0.0019115509848540307,-9.806586979056833,-0.03514481072568809
1789141183933514200,8.60851416015625,0.007599809174112111,-9.806573108612525,-0.03814827892247698
1789141183943486200,8.618486328125,0.012196593725153424,-9.806562136230754,-0.039752817676865
1789141183953459200,8.628459228515625,0.014766125066794988,-9.806567861636541,-0.037367987495490904
1789141183963431400,8.638431396484375,0.013126413992451659,-9.806580957090537,-0.034649517342933485
1789141183973403100,8.648403076171874,0.008542861977267769,-9.806590546527481,-0.03296151740344935
1789141183983375400,8.658375244140625,0.0022704319807938795,-9.80659326953025,-0.03345190483064249
1789141183993347300,8.668347412109375,-0.005832538442437381,-9.806589361523969,-0.033928591414423476
1789141184003320300,8.6783203125,-0.011844069724171031,-9.80657548176079,-0.03642766235911557
1789141184013292300,8.688292236328126,-0.011946057101548013,-9.806568438273086,-0.038289362441527225
1789141184023264500,8.698264404296875,-0.009067086635273084,-9.806563189201578,-0.04020075961556123
1789141184033236200,8.708236328125,-0.006693862063198686,-9.806564959160726,-0.040251094875013105
1789141184043208400,8.71820849609375,-0.0036256395935553047,-9.806578172483945,-0.03731706492989396
1789141184053181400,8.728181396484375,0.002137323509297388,-9.806592537359318,-0.03330244811023395
1789141184063153200,8.738153076171875,0.00409263697605781,-9.806610478103245,-0.027554580996169524
1789141184073125400,8.74812548828125,0.004738264632391959,-9.806626441643148,-0.020875358686998753
1789141184083097300,8.758097412109375,0.004144332609267561,-9.806636186448687,-0.016206070105962127
1789141184093069300,8.7680693359375,0.0016634126378896196,-9.806637646172288,-0.01589141488949979
1789141184103042300,8.778042236328124,-0.00019977671237602845,-9.806636134508203,-0.01690101656876664
1789141184113014300,8.78801416015625,-0.002474241577757976,-9.806634643974451,-0.017468823621902628
1789141184122986200,8.797986328125,-0.0027093780079342467,-9.806634036179181,-0.01801391893125897
1789141184132958500,8.80795849609375,-0.0023429916934862996,-9.80663576745945,-0.016797935053416705
1789141184142930200,8.81793017578125,-0.0021767666434565217,-9.806638255677758,-0.014734516259536173
1789141184152903400,8.8279033203125,-0.0027312730622736235,-9.806642423213729,-0.011995426427849504
1789141184162875400,8.83787548828125,-0.0027040203369944047,-9.806645966186805,-0.008939912173598071
1789141184172847400,8.847847412109376,-0.002141106134609967,-9.80664681273915,-0.008329687916745626
1789141184182819300,8.8578193359375,-0.0016107882902931566,-9.806646660641915,-0.007907016561434449
1789141184192791300,8.867791259765625,0.0013286185933294495,-9.806646808302595,-0.007390153100628765
1789141184202765000,8.87776513671875,0.0031135133271336622,-9.806644798544106,-0.00944369480536039
1789141184212736800,8.88773681640625,0.006855576844610961,-9.80664071745688,-0.011805708674738843
1789141184222709000,8.897708984375,0.009414303657764439,-9.806637939312772,-0.012195244920970131
1789141184232681000,8.907680908203124,0.011063164814821452,-9.80663403593574,-0.01374355239708583
1789141184242653000,8.91765283203125,0.015855476579384437,-9.806625884031742,-0.015221059408058284
1789141184252626000,8.9276259765625,0.021446147573486302,-9.80660827913692,-0.019244441927123494
1789141184262598100,8.93759814453125,0.021671997791795683,-9.806593302137026,-0.02519311470786218
1789141184272569900,8.94756982421875,0.022924225993883152,-9.806580798035583,-0.028880727788138712
1789141184282542000,8.9575419921875,0.021690431632503164,-9.806567486811927,-0.033898784582654315
1789141184292513800,8.967513671875,0.018666551286157358,-9.806553789420706,-0.039252668520222356
1789141184302486800,8.97748681640625,0.018758111200640467,-9.806536359600146,-0.043328594718691715
1789141184312459000,8.987458984375,0.018240825649484857,-9.806523480585803,-0.04647521358372513
1789141184322431000,8.997430908203125,0.0178122340015994,-9.806508615073861,-0.04955180090939077
1789141184332403000,9.00740283203125,0.018943370314920226,-9.806488095846237,-0.05303585419678125
1789141184342375200,9.017375244140624,0.02060384611944136,-9.806472194645947,-0.05542892455510574
1789141184352348000,9.027347900390623,0.019550546997245136,-9.806457369749163,-0.05832713844747237
1789141184362320000,9.03731982421875,0.019631789223786677,-9.806430080336298,-0.06257978028337889
1789141184372292000,9.0472919921875,0.021836365881367753,-9.806397959223103,-0.06689399777683845
1789141184382263800,9.057263916015623,0.021648593337267638,-9.806365132063654,-0.07162497362717063
1789141184392236000,9.067236083984374,0.018139631811664506,-9.806335886345625,-0.07645149985153632
1789141184402209000,9.077208984375,0.014438016555040385,-9.806298711913534,-0.0816688083210707
1789141184412181000,9.087180908203123,0.0123415419475811,-9.806239407195537,-0.08882019902088756
1789141184422153000,9.097153076171876,0.012147359344065835,-9.806164210052751,-0.09679911680236887
1789141184432125000,9.107125,0.01043996534014169,-9.806087024148976,-0.10452513269622236
1789141184442097000,9.117096923828123,0.008786506374461971,-9.80599234803746,-0.1132384348935954
1789141184452070000,9.12706982421875,0.011023093895231645,-9.805903589991864,-0.12052118272322847
1789141184462041900,9.137041748046874,0.011937143207269888,-9.805825115344893,-0.12663708768722529
1789141184472013800,9.147013916015624,0.010548659250725092,-9.80574558173632,-0.13278892264974468
1789141184481986000,9.156986083984377,0.007813734833112748,-9.805678698984584,-0.1377880657588458
1789141184491958000,9.1669580078125,0.0075024092053988314,-9.805605365618156,-0.14294443404020965
1789141184501931000,9.176930908203126,0.006768719428249772,-9.805521071355841,-0.14860265913730078
1789141184511903000,9.186903076171877,0.0019748837245297667,-9.80543924875362,-0.15407128579726878
1789141184521875000,9.196875,-0.0018906920447572648,-9.805334743301518,-0.16057967606558482
1789141184531847000,9.206846923828126,-0.003325849964621063,-9.805227520693673,-0.1670100368777066
1789141184541819000,9.21681884765625,-0.0021516022583557854,-9.8051479424068,-0.17165634378305988
1789141184551791900,9.2267919921875,-0.002196726495045724,-9.805079148002584,-0.17549206046176968
1789141184561764000,9.23676416015625,-0.002259833473823794,-9.805017209688307,-0.1789337614379688
1789141184571735800,9.24673583984375,-0.0007291970679059262,-9.804940293298419,-0.18311894346858595
1789141184581708000,9.2567080078125,0.0011063833966810062,-9.804848955251192,-0.18793107098568632
1789141184591680000,9.266679931640626,0.002085524974216938,-9.804764072288307,-0.1923296441786931
1789141184601652700,9.27665283203125,0.002648608757802594,-9.804682572063992,-0.19639278975148344
1789141184611625000,9.286625,0.0037198463951937668,-9.80459342891461,-0.20079243733880767
1789141184621597000,9.296596923828124,0.004541606596363296,-9.804503447074236,-0.20513928269890527
1789141184631569000,9.30656884765625,0.004499251056742357,-9.80444281334668,-0.20801941019034137
1789141184641541000,9.316541015625,0.0045384488992364575,-9.804399737322068,-0.2100659842870873
1789141184651514000,9.32651416015625,0.002855406894634123,-9.804390010955318,-0.21052323417637644
1789141184661485800,9.33648583984375,0.002517389821918763,-9.804414096621565,-0.2094013359655261
1789141184671458000,9.3464580078125,0.0020325808961333394,-9.804428884879597,-0.2087220506146815
1789141184681429800,9.3564296875,0.003954789193887386,-9.80443269713655,-0.20852213601135572
1789141184691402000,9.366402099609376,0.007001922801732122,-9.804465795452812,-0.20683305058635737
1789141184701375000,9.376375,0.012377837050755508,-9.804492740205536,-0.20530928203908963
1789141184711347000,9.386346923828125,0.018127108883591436,-9.804614159500634,-0.19897697006909673
1789141184721319000,9.39631884765625,0.02467631180228264,-9.80473977092719,-0.19198770000644427
1789141184731291100,9.406291015625,0.02895511418310588,-9.804841933778778,-0.18605677785995745
1789141184741262800,9.416262939453125,0.031328206219309686,-9.804934363816791,-0.1807183995198953
1789141184751235800,9.42623583984375,0.030378822617920014,-9.80503572897817,-0.17528049682782595
1789141184761208000,9.4362080078125,0.030000821496286384,-9.805107940543222,-0.17133370448760346
1789141184771180000,9.446179931640623,0.0291664966110833,-9.805197180402489,-0.16628384236681937
1789141184781152000,9.456152099609374,0.027390886533309067,-9.805257101948289,-0.16297545421628118
1789141184791124700,9.466124755859376,0.025778531708394725,-9.80533067424798,-0.15876968456880794
1789141184801097000,9.476096923828123,0.02526547137527797,-9.805415832261234,-0.15356843898068406
1789141184811069000,9.48606884765625,0.02568141594520177,-9.805492813508868,-0.14845112652696135
1789141184821041000,9.496041015625,0.025909615844925155,-9.805561786280979,-0.14377874276911903
1789141184831012900,9.506012939453123,0.026809146166197024,-9.805627360534723,-0.13909056029140765
1789141184840984800,9.51598486328125,0.02684292894227755,-9.80566312397953,-0.13653366710351353
1789141184850957800,9.525957763671874,0.02824865544295475,-9.805690329732276,-0.13429374269863514
1789141184860930000,9.535929931640624,0.0290350456329294,-9.805711974596537,-0.1324746059914555
1789141184870901800,9.54590185546875,0.026257996122883685,-9.805708684138422,-0.13330251842149024
1789141184880874000,9.5558740234375,0.023053449403403054,-9.805724126628078,-0.1327621201475333
1789141184890846000,9.565845947265624,0.020147045837033254,-9.80575757516397,-0.13073602872651388
1789141184900819000,9.57581884765625,0.01591438215799399,-9.805769045371754,-0.13045047251630976
1789141184910791000,9.585791015625,0.00920175642433935,-9.80577717542494,-0.1305061743720514
1789141184920763100,9.59576318359375,0.00507886499635529,-9.805761596730001,-0.13192672556019616
1789141184930734800,9.60573486328125,0.001956446808615719,-9.805734521459003,-0.13397378966888046
1789141184940707000,9.61570703125,0.0006930452682738446,-9.805725596003237,-0.13464219169370767
1789141184950680000,9.62568017578125,0.0011044433939344678,-9.805711299490936,-0.13562132498371868
1789141184960651800,9.63565185546875,0.0005699917001924321,-9.805709562730323,-0.135849447902868
1789141184970624000,9.6456240234375,0.0021975792753958128,-9.805733534776556,-0.13406578699250263
1789141184980595700,9.655595703125,0.006232976100103451,-9.80574561910392,-0.13305907784939636
1789141184990569000,9.66556884765625,0.0032562200318377445,-9.80577472022561,-0.13099584034534215
1789141185000541000,9.675541015625,-0.0004895091288700927,-9.805796177700712,-0.12941540660407982
1789141185010513000,9.685512939453124,-0.002905449997228283,-9.80580964792961,-0.1284091268868812
1789141185020484900,9.69548486328125,-0.00896583871680296,-9.80576902989321,-0.13115433783854394
1789141185030457000,9.70545703125,-0.018604636640777557,-9.805747757117377,-0.13171054428884285
1789141185040429800,9.715429931640625,-0.026459851671689977,-9.805727726756421,-0.131894896638799
1789141185050402000,9.725402099609376,-0.030352611019751587,-9.805709599621988,-0.13235827583589738
1789141185060374000,9.7353740234375,-0.030631661460084406,-9.80566570509277,-0.13550234256544358
1789141185070346000,9.745345947265625,-0.02894390765676624,-9.805623443455307,-0.1389378118395868
1789141185080318000,9.75531787109375,-0.025620102677890028,-9.805579276589695,-0.142665289436939
1789141185090291000,9.765291015625,-0.02151090805292861,-9.805570784193181,-0.14387051653556712
1789141185100263000,9.775262939453125,-0.018260945520329613,-9.805580166519672,-0.14369736895569182
1789141185110235000,9.78523486328125,-0.017587836398279648,-9.805615492373388,-0.1413256567633697
1789141185120206800,9.795206787109375,-0.018898096551370782,-9.805671526966018,-0.13725465942994527
1789141185130178800,9.8051787109375,-0.020745713323356164,-9.805706109154587,-0.13444437755802544
1789141185140152000,9.815152099609374,-0.02186603209594117,-9.805684562252265,-0.13584428545087043
1789141185150123800,9.825123779296876,-0.020367540345106263,-9.805628985693945,-0.14006402807430543
1789141185160096000,9.835095947265623,-0.018989360345833557,-9.805554140773516,-0.1453520114208624
1789141185170068000,9.84506787109375,-0.018244668366153127,-9.805489265983471,-0.1497433152398851
1789141185180040000,9.8550400390625,-0.01840377165441596,-9.805474433198881,-0.15072655057816728
1789141185190013000,9.865012939453123,-0.017885948916167533,-9.805483964629385,-0.15012346530971143
1789141185199984400,9.874984375,-0.018116838855691975,-9.805497798739154,-0.14920236382901533
1789141185209956000,9.8849560546875,-0.017497517377382667,-9.805533278239297,-0.14692621469520323
1789141185219928300,9.89492822265625,-0.013773970123111854,-9.805538373742293,-0.14704618798449554
1789141185229900300,9.904900390625,-0.006636189415663774,-9.805526684217124,-0.1482782759445984
1789141185239873300,9.914873291015626,0.00033662293458815314,-9.805513303693148,-0.14928884016349386
1789141185249845200,9.92484521484375,0.008903986987431495,-9.805478894990923,-0.15126781395503094
1789141185259817500,9.9348173828125,0.015213632851583824,-9.805462215421006,-0.15189087117160854
1789141185269789200,9.9447890625,0.01747073323077084,-9.805495207854868,-0.1494378791621918
1789141185279761400,9.954761474609375,0.01732789576893071,-9.805526770022851,-0.14739742817376691
1789141185289734400,9.964734375,0.015180031933002467,-9.80557228809394,-0.14458654463219783
1789141185299706000,9.9747060546875,0.01459025561413106,-9.805587050838867,-0.143608539476541
1789141185309678300,9.98467822265625,0.016351009347113834,-9.805614936305195,-0.14153683350154742
1789141185319650000,9.994650146484377,0.018277160053864257,-9.805629650486816,-0.140299540028469
1789141185329622300,10.004622314453124,0.021940490689156215,-9.80566993368129,-0.136919684516284
1789141185339595300,10.01459521484375,0.026437971204273124,-9.805706413158738,-0.13342988310769502
1789141185349567200,10.024567138671877,0.029801433648543343,-9.805774702577802,-0.12757845638284004
1789141185359539200,10.034539306640625,0.031040154729600936,-9.805860229213524,-0.12056901741778496
1789141185369511400,10.044511474609376,0.03453467779080866,-9.805935561085526,-0.11317263998215694
1789141185379483100,10.054483154296875,0.03691378278487114,-9.806011967389022,-0.10559498027801728
1789141185389456400,10.064456298828125,0.033304214722237095,-9.806080930663171,-0.10029659149199742
1789141185399428400,10.074428466796874,0.03055385319999957,-9.806129917170955,-0.09631835886859846
1789141185409400300,10.084400390625,0.02762548661634395,-9.80617681589754,-0.09233849617843985
1789141185419372300,10.094372314453125,0.025296771442151617,-9.806232620979257,-0.08695302511696738
1789141185429344300,10.10434423828125,0.022374285069997613,-9.806292210489133,-0.08066747922329508
1789141185439317200,10.114317138671876,0.019184810003309932,-9.806362633522824,-0.07253654485047223
1789141185449289200,10.124289306640623,0.015979411595589098,-9.80642948949154,-0.06381671106612982
1789141185459261200,10.13426123046875,0.01592166306467057,-9.806470335356105,-0.05716797720854681
1789141185469233200,10.144233154296876,0.015779898095546634,-9.806498296879873,-0.05220762208570914
1789141185479205400,10.154205322265623,0.016466488579590127,-9.806520213008028,-0.04773567259587242
1789141185489178000,10.16417822265625,0.01969457144417967,-9.806532842665737,-0.04366681968385133
1789141185499150300,10.174150390625,0.021334630597345097,-9.806553291454724,-0.0378671102893371
1789141185509122300,10.184122314453123,0.020885587055493534,-9.80657885430539,-0.03099582527030122
1789141185519094300,10.19409423828125,0.020733094984937844,-9.806599457427534,-0.02392476937530782
1789141185529066200,10.204066162109376,0.021091346484781677,-9.806612058353283,-0.017353699182140615
1789141185539039500,10.21403955078125,0.021892554733848612,-9.80662017477014,-0.010691455802415071
1789141185549011200,10.22401123046875,0.021325498513495765,-9.806626719255421,-0.004579833154237091
1789141185558983400,10.2339833984375,0.020323346377065836,-9.80662854455168,-0.0008324170628141659
1789141185568955100,10.243955078125,0.019927968159978587,-9.806628997567799,0.0048062566600966476
1789141185578927400,10.25392724609375,0.022400648801453333,-9.80661863932679,0.011002150090994495
1789141185588900400,10.263900390625,0.021171064417561742,-9.80661145748076,0.017583827064429493
1789141185598872000,10.2738720703125,0.02065991845169137,-9.806599257825475,0.023664072733201112
1789141185608844300,10.28384423828125,0.02171866549060775,-9.806582782442026,0.028907400799378643
1789141185618816300,10.293816162109374,0.024186403168776155,-9.806558000710533,0.034707364385282394
1789141185628788200,10.303788330078126,0.02554280001711157,-9.806531970162204,0.040820897690225844
1789141185638761200,10.31376123046875,0.02677184432846454,-9.806502230975616,0.04668244282154864
1789141185648733400,10.3237333984375,0.027408704364269686,-9.806484781169896,0.05006310907963365
1789141185658705200,10.333705078125,0.026617647849906174,-9.80648318546848,0.05066455326960699
1789141185668677400,10.343677490234375,0.025041774087034566,-9.806482883393162,0.051492516125371764
1789141185678649000,10.353649169921876,0.023273195148392076,-9.806486966755424,0.051552567881075394
1789141185688622300,10.363622314453124,0.019579532481521035,-9.806510926837312,0.04850974727579524
1789141185698594300,10.37359423828125,0.018685213166983988,-9.806522111577623,0.04655246670683734
1789141185708566300,10.383566162109377,0.020399148302614818,-9.806529324415909,0.044237987832726124
1789141185718538200,10.393538330078124,0.021494443524711332,-9.80654334689217,0.040485602516032115
1789141185728510500,10.403510498046876,0.023490769535879863,-9.806547696610437,0.03812268706596936
1789141185738483200,10.413483154296877,0.02854054217601284,-9.806547876938529,0.03470897654097288
1789141185748455200,10.423455078125,0.031451824624136225,-9.806553536697539,0.029964225368263268
1789141185758427400,10.433427490234376,0.0321714521172368,-9.806565736396513,0.024833619591649033
1789141185768399400,10.4433994140625,0.03244956426677223,-9.806575227383123,0.020239380604286636
1789141185778371300,10.453371337890625,0.03469054431781597,-9.806577523011475,0.014760984148509198
1789141185788344300,10.46334423828125,0.03263885902030272,-9.806590654755807,0.01031481066129133
1789141185798316300,10.47331640625,0.03259576930717051,-9.80659399464992,0.005806856503818058
1789141185808288300,10.483288330078125,0.03364745523778591,-9.80659201698098,-0.0007398273222085275
1789141185818260200,10.49326025390625,0.03345879074839498,-9.806588863850557,-0.008669779569503343
1789141185828232200,10.503232177734375,0.03271658461183149,-9.806583023516227,-0.015568892721293496
1789141185838205400,10.513205322265623,0.034159773252498554,-9.806564626205647,-0.022706569528801818
1789141185848177200,10.52317724609375,0.033206650594514595,-9.806557305520109,-0.026965020224056432
1789141185858149400,10.5331494140625,0.03438974239078591,-9.80653603001391,-0.03229648918939879
1789141185868121300,10.543121337890623,0.035938379631637596,-9.806510099446731,-0.038014106185247004
1789141185878093300,10.55309326171875,0.03632078024264946,-9.80647113611654,-0.04669148333312841
1789141185888066300,10.56306640625,0.03539767200023542,-9.806421822992125,-0.05663587904082178
1789141185898038300,10.573038330078123,0.03560809287279276,-9.806352377097861,-0.06766868379224
1789141185908010200,10.58301025390625,0.03337835653626276,-9.806289019815903,-0.07723015462570297
1789141185917982500,10.592982421875,0.031444646437334,-9.806230262317882,-0.08509654921181134
1789141185927954200,10.6029541015625,0.030487119456554967,-9.80618452425588,-0.09058856493515685
1789141185937927200,10.61292724609375,0.029405782420373616,-9.806144364798262,-0.09520572392518721
1789141185947899400,10.6228994140625,0.028203377788049527,-9.806105517370703,-0.09941098854221807
1789141185957871000,10.63287109375,0.026526156041865843,-9.80606503282231,-0.10379567656468615
1789141185967843300,10.64284326171875,0.02636868104922124,-9.805983398499952,-0.1112425896503821
1789141185977815300,10.652815185546874,0.029894707549062986,-9.805895015317802,-0.11795205627390129
1789141185987788300,10.662788330078126,0.03282222127256253,-9.805798351114879,-0.1249925440804248
1789141185997760300,10.67276025390625,0.033413488514538334,-9.805694905990098,-0.1327501119605795
1789141186007732500,10.682732421875,0.034668231348087546,-9.805635474358652,-0.13671027292740476
1789141186017704200,10.6927041015625,0.03596268685872081,-9.805608050564532,-0.13834064329814946
1789141186027676400,10.702676513671875,0.03368119509611083,-9.805610783344674,-0.13875839381619112
1789141186037649200,10.712649169921876,0.030784072003113814,-9.805619543905468,-0.1387900490288689
1789141186047621400,10.722621337890626,0.030812455415102306,-9.805612344013579,-0.13923751759408706
1789141186057593300,10.73259326171875,0.02930954138425021,-9.805556175166592,-0.1434766051230714
1789141186067565300,10.7425654296875,0.02681269791490976,-9.805517932864891,-0.14652146956847273
1789141186077537300,10.752537353515624,0.02499365173430356,-9.80549706389645,-0.14830695976920025
1789141186087510300,10.76251025390625,0.0230771972369287,-9.805486142381403,-0.14931911992420788
1789141186097482200,10.772482177734377,0.025557614753023386,-9.805498405017373,-0.14809041594201125
1789141186107454200,10.7824541015625,0.027907194350948312,-9.805535954479534,-0.14514555757792533
1789141186117426200,10.79242626953125,0.02690762763380999,-9.805585938030722,-0.14192749067568905
1789141186127398100,10.802398193359377,0.026365494354143818,-9.80563186551076,-0.13885891080390658
1789141186137371400,10.812371337890625,0.026401749268772236,-9.805687746918565,-0.13485074359975147
1789141186147343000,10.822343017578126,0.023208219616173965,-9.805740910181854,-0.1314583900623902
1789141186157315300,10.8323154296875,0.01839931164700483,-9.805785812223796,-0.1288329911220323
1789141186167287300,10.842287353515625,0.013424163271001618,-9.805806522850089,-0.12787883576527784
1789141186177259300,10.85225927734375,0.01180849865643228,-9.805840174059947,-0.12543145347505028
1789141186187232300,10.862232177734375,0.012137831902545047,-9.805830288406936,-0.12617497301940794
1789141186197204200,10.872204345703125,0.012529682314306982,-9.805847412459235,-0.12482250989099734
1789141186207176000,10.882176025390624,0.012760537358156075,-9.805866565013384,-0.12327283736902456
1789141186217148000,10.89214794921875,0.012177387032048976,-9.805915752755391,-0.11935074048302931
1789141186227119900,10.902119873046876,0.00966577070666528,-9.805986087436706,-0.11369116748658577
1789141186237092900,10.9120927734375,0.007658386535332611,-9.806048231628319,-0.10840821066314492
1789141186247064800,10.92206494140625,0.003561588490824451,-9.806125361041149,-0.10143009192286605
1789141186257036800,10.932036865234377,-0.0006687133581719454,-9.806196020606492,-0.09433213721228904
1789141186267008800,10.9420087890625,-0.004476618580623905,-9.806258072354401,-0.08754360224425023
1789141186276981000,10.95198095703125,-0.005102952036967248,-9.806316658508438,-0.08071907287558101
1789141186286954000,10.9619541015625,-0.004955675065190491,-9.806367959045609,-0.07416449764728983
1789141186296925700,10.97192578125,-0.004530592282276395,-9.806405591306103,-0.06911047876133274
1789141186306898000,10.98189794921875,-0.0008253277896906433,-9.806442916618169,-0.06376170724057328
1789141186316870000,10.991869873046875,2.1857664425311134e-05,-9.806471513086658,-0.05922863081399907
1789141186326841900,11.001841796875,0.0019953876080031595,-9.806500489194473,-0.054101624894981264
1789141186336814800,11.01181494140625,0.0026716490648758277,-9.806533177639547,-0.04776329008577243
1789141186346787000,11.021787109375,0.0017326823417724545,-9.806566082816971,-0.04061637686182845
1789141186356758800,11.0317587890625,-0.0016392274754618247,-9.806589769236263,-0.03437367039872051
1789141186366731000,11.04173095703125,-0.0017192651074743953,-9.806605390966899,-0.02952232108633977
1789141186376702700,11.05170263671875,-0.00387054276241378,-9.80661806343642,-0.024707915748210137
1789141186386675700,11.06167578125,-0.0068242323308556965,-9.806627061579078,-0.01988866672013235
1789141186396648000,11.07164794921875,-0.0072157462791049435,-9.806636237912466,-0.014670687461402494
1789141186406620000,11.081619873046876,-0.007875055322972615,-9.806643717086642,-0.008349708138224627
1789141186416592000,11.091591796875,-0.008680874807937304,-9.806646438248707,-0.0029345587665580907
1789141186426564000,11.101564208984374,-0.008744521666481592,-9.806645659168925,0.002258294136815843
1789141186436536800,11.111536865234376,-0.009512634907674643,-9.806643397077996,0.005367523077874264
1789141186446508800,11.1215087890625,-0.008934288588149358,-9.806642965830475,0.00713236594642983
1789141186456481000,11.13148095703125,-0.008016425342145278,-9.80664231341835,0.008989098080703842
1789141186466452700,11.14145263671875,-0.00947882932717917,-9.806638929308642,0.011750618378214693
1789141186476425000,11.151425048828123,-0.010114825562515894,-9.806632858634272,0.015520314776457399
1789141186486398000,11.16139794921875,-0.009851053740487763,-9.80662766582032,0.018278029177421596
1789141186496370000,11.171369873046874,-0.011108816869288602,-9.806624884581721,0.01890462606063038
1789141186506342000,11.181341796875,-0.012756261480958654,-9.806623623384834,0.01874681383421797
1789141186516313900,11.19131396484375,-0.013062188860769848,-9.806616997410952,0.021599539544032688
1789141186526285800,11.201285888671874,-0.009712260764353128,-9.806619123002488,0.02293483432607495
1789141186536258800,11.2112587890625,-0.0047017863376294,-9.806619903966162,0.024229364888027922
1789141186546230800,11.221230712890623,-0.0006399940618859627,-9.806615699570111,0.025696270622331853
1789141186556203000,11.231203125,0.0036981608420978964,-9.806614309319308,0.025909981716089124
1789141186566175000,11.241175048828126,0.007469578291795766,-9.8066085710207,0.02744770423388077
1789141186576147000,11.25114697265625,0.010554735081765894,-9.806605142471678,0.027649737540004885
1789141186586120000,11.261119873046876,0.008134139655962802,-9.806604609105083,0.028635298277894808
1789141186596092000,11.271091796875,0.0036782375485095364,-9.806608015918304,0.028679280321517002
1789141186606063900,11.28106396484375,0.001192180510506602,-9.806610255866763,0.028058181401574806
1789141186616035800,11.291035888671876,0.0029766199987764775,-9.80661584267586,0.02554617346080303
1789141186626007800,11.3010078125,0.003755481950587117,-9.806623429787775,0.022788476449845066
1789141186635980800,11.310980712890624,0.003492300499960045,-9.80662638487073,0.021006819330996507
1789141186645953000,11.320953125,0.00576811018382916,-9.806624671243977,0.021612134841903257
1789141186655924700,11.3309248046875,0.012404074185803962,-9.806614364691956,0.02336380008159548
1789141186665897000,11.34089697265625,0.01772883178669215,-9.806599867082188,0.026065377513436405
1789141186675869000,11.350868896484377,0.021972990430832652,-9.806583451749932,0.028557382758976572
1789141186685842000,11.360842041015625,0.026394420960239803,-9.806570121597103,0.02940471017564857
1789141186695814000,11.37081396484375,0.030059689334647102,-9.806558507670585,0.029867611911903867
1789141186705786000,11.3807861328125,0.03389300378452485,-9.806542741436006,0.030882689895411104
1789141186715757800,11.3907578125,0.03500637456768265,-9.806533524224484,0.03258681602745958
1789141186725730000,11.40072998046875,0.03264600498794946,-9.806536016173961,0.03405675372276711
1789141186735703000,11.410703125,0.029848023195941722,-9.806540449625208,0.03534689862105153
1789141186745674800,11.4206748046875,0.02829490592122782,-9.806551598267829,0.03365074914639318
1789141186755647000,11.43064697265625,0.027398800666663555,-9.806553988302303,0.033633359378150846
1789141186765618700,11.44061865234375,0.028929953451730262,-9.806543898655821,0.035186529408887175
1789141186775591000,11.4505908203125,0.03239661857712163,-9.806539439692028,0.03347787816506508
1789141186785564000,11.46056396484375,0.03664330273284193,-9.806521539190364,0.03445931276286381
1789141186795536000,11.470535888671876,0.042666988905964466,-9.806487040527813,0.03695113356718822
1789141186805507800,11.4805078125,0.04583120484735927,-9.80646140355712,0.039871797242438806
1789141186815480000,11.49047998046875,0.04836841428123304,-9.806435557262876,0.043292868774273435
1789141186825451800,11.50045166015625,0.0517357974666531,-9.806409410127198,0.0452813675540585
1789141186835425000,11.510425048828123,0.05077852913768561,-9.806416702107166,0.04471819383748656
1789141186845397000,11.52039697265625,0.04872335564028525,-9.806428885005761,0.04442602552588731
1789141186855369000,11.530368896484376,0.04673132380816359,-9.806451435673798,0.04143991485682722
1789141186865341000,11.5403408203125,0.03947340353090821,-9.806493663722875,0.03900754625575941
1789141186875313000,11.55031298828125,0.03318281897525188,-9.806524673503272,0.03700745075844539
1789141186885286000,11.560285888671874,0.029628740468499126,-9.806540210244597,0.03577276825068765
1789141186895257900,11.5702578125,0.027302103324418518,-9.806549484561913,0.034939975343609465
1789141186905229800,11.580229736328125,0.02460683837561166,-9.806562023542531,0.033511675564440215
1789141186915201800,11.590201904296874,0.025372721987304954,-9.80656620158261,0.031669028508287754
1789141186925174000,11.600174072265624,0.025980190568035223,-9.806571002776318,0.02963217982899042
1789141186935146800,11.610146728515623,0.02392357011461323,-9.806583143868924,0.02747688109359259
1789141186945119000,11.620118896484374,0.021638189254230156,-9.8065946683384,0.02462285514303309
1789141186955091000,11.630091064453126,0.016617994698612526,-9.806611740722433,0.021906615507073526
1789141186965063000,11.64006298828125,0.01441850847229704,-9.806624430137175,0.01694197338559432
1789141186975035000,11.650034912109374,0.013752059629746446,-9.806632870987373,0.012046807655517733
1789141186985008000,11.660008056640624,0.011559885005537486,-9.806641751594883,0.00517036891322799
1789141186994979800,11.669979736328123,0.010195707999665597,-9.806644065828985,-0.001177552595828596
1789141187004952000,11.6799521484375,0.01337395994288834,-9.806639896532308,-0.005319930017893095
1789141187014923800,11.689923828125,0.015462884370463172,-9.80663349050713,-0.009404532402975467
1789141187024896000,11.69989599609375,0.01204194771245885,-9.806630192016604,-0.015558835599049348
1789141187034869000,11.709868896484377,0.009798621466002449,-9.806621383259829,-0.021601492177010816
1789141187044840700,11.7198408203125,0.00916440149195684,-9.806599315098014,-0.03041122895838769
1789141187054813000,11.72981298828125,0.008331776219015556,-9.806561976837838,-0.04082738770676151
1789141187064785000,11.739784912109377,0.008182569837734827,-9.806500640294276,-0.05359466306356242
1789141187074756900,11.7497568359375,0.007979094854336,-9.806417076322573,-0.06720504278073063
1789141187084729900,11.759729736328126,0.008875581313194,-9.806321290987078,-0.07985631906177555
1789141187094702000,11.7697021484375,0.012110292964390038,-9.806224843202969,-0.09046424850392831
1789141187104673800,11.779673828125,0.009600745050774784,-9.806117515660793,-0.10175857695439842
1789141187114646000,11.78964599609375,0.006397440536988597,-9.806030492186872,-0.1100337632407869
1789141187124617700,11.79961767578125,0.005534738180689773,-9.805927683351829,-0.11892819449162965
1789141187134591000,11.809591064453125,0.004997721411816444,-9.805828261752014,-0.1269097932775203
1789141187144563000,11.81956298828125,0.005736440784424497,-9.805688616403797,-0.1372208492302547
1789141187154535000,11.829534912109375,0.0050028721807687205,-9.805519840045402,-0.14875464848201853
1789141187164507000,11.8395068359375,0.006655495833223355,-9.805337643627238,-0.16034054226721436
1789141187174479000,11.84947900390625,0.009641712076816213,-9.805151966285084,-0.17112289722159565
1789141187184451800,11.859451904296876,0.012199326171065209,-9.80495863508811,-0.18170202626471552
1789141187194423800,11.869423828125,0.012230601158360813,-9.8048069764787,-0.1897091264612054
1789141187204397000,11.87939697265625,0.013729005161642608,-9.804676937861705,-0.19622991664423897
1789141187214368800,11.88936865234375,0.013600151169618253,-9.804549217562194,-0.20252979653144662
1789141187224341000,11.899341064453123,0.014810597202529549,-9.804395353261054,-0.20978487298585285
1789141187234314000,11.90931396484375,0.01717245476321122,-9.804279396546345,-0.21490574361042905
1789141187244285700,11.91928564453125,0.017182741598431285,-9.80411886176949,-0.22210933577259775
1789141187254258000,11.9292578125,0.016968459830554016,-9.803964845708753,-0.228856751873318
1789141187264230000,11.93922998046875,0.019512365247880015,-9.803790787811137,-0.23597782094854752
1789141187274201900,11.949201904296874,0.021005699367180972,-9.803659562389532,-0.24124233366779133
1789141187284174800,11.9591748046875,0.022352680421737922,-9.803556845551839,-0.24527566382821844
1789141187294147000,11.96914697265625,0.025808042364194317,-9.803473984837709,-0.2482180084178996
1789141187304118800,11.979118896484374,0.02744662034762787,-9.803463369381081,-0.24848872357036703
1789141187314091000,11.989091064453126,0.029087125255818195,-9.803475175364179,-0.2478537260126628
1789141187324062700,11.999062744140623,0.028488567577659305,-9.80348334770465,-0.24755565071593363
1789141187334036000,12.009035888671876,0.028570422850315618,-9.803509604302434,-0.24651824339109948
1789141187344008000,12.019008056640626,0.026501901620952322,-9.803544683269008,-0.24535457028000038
1789141187353980000,12.02897998046875,0.02614042579862105,-9.803471637268325,-0.248290829608764
1789141187363951900,12.038951904296876,0.028904608739352824,-9.803469616541793,-0.248082701949669
1789141187373923800,12.048923828125,0.031675761359085036,-9.803445738040912,-0.24867985944126914
1789141187383896800,12.058896728515624,0.028950523064944503,-9.803510653464357,-0.2464502795475554
1789141187393868800,12.068868896484377,0.029270217275327744,-9.803675667202299,-0.2397433123269973
1789141187403840800,12.0788408203125,0.02799705494299446,-9.803908571229632,-0.23013687636205887
1789141187413813000,12.08881298828125,0.02222160729790534,-9.80409387070951,-0.2228253802540284
1789141187423785000,12.098784912109377,0.0166737769066384,-9.804313224787416,-0.21344869965047075
1789141187433757700,12.1087578125,0.012488195388665885,-9.804505776591188,-0.20470342090195195
1789141187443730000,12.11872998046875,0.008703943184329125,-9.804711701785784,-0.1947795322007821
1789141187453702000,12.128701904296875,0.008632211999767495,-9.804905636780664,-0.18479191419974555
1789141187463673900,12.138673828125,0.009020649638646773,-9.805112919671048,-0.1733674198447276
1789141187473645800,12.148645751953126,0.009339831294788254,-9.805315386746248,-0.16149005336572603
1789141187483617800,12.15861767578125,0.01378180872108736,-9.805541552613814,-0.1468064666880817
1789141187493590800,12.1685908203125,0.016987474011956282,-9.80576622790144,-0.13056868622738388
1789141187503563000,12.17856298828125,0.01415792931115071,-9.80596113276688,-0.11539022314739286
1789141187513534700,12.18853466796875,0.010717790328914338,-9.806143588415226,-0.0990648311788605
1789141187523507000,12.1985068359375,0.008566751959528413,-9.806290823982954,-0.08352711334176313
1789141187533480000,12.20847998046875,0.0047951171864793985,-9.806390196179628,-0.07117575132904629
1789141187543452000,12.218451904296876,0.003237116452090351,-9.8064778610042,-0.057936194821580314
1789141187553424000,12.228423828125,0.003810861325391619,-9.806554356526801,-0.043114071604760405
1789141187563396000,12.23839599609375,0.007347864054097054,-9.806612038857075,-0.026226203111437155
1789141187573367800,12.248367919921876,0.011601871266090205,-9.806639902428175,-0.00837630247459482
1789141187583340000,12.258340087890623,0.014923009323760016,-9.806632117162245,0.011069411072271397
1789141187593313000,12.26831298828125,0.017649694084717227,-9.80658892367166,0.029568433432001873
1789141187603284700,12.27828466796875,0.01974632658907948,-9.806515275977034,0.04739473661772102
1789141187613257000,12.288257080078123,0.021670938843877843,-9.80640489221207,0.06586507964377422
1789141187623228700,12.298228759765625,0.020516554720415043,-9.806259414682145,0.08515284123570187
1789141187633201000,12.308200927734376,0.017077313140020093,-9.806083894396343,0.10395766487254136
1789141187643174000,12.318173828125,0.015263266205932768,-9.805836976790019,0.12533600427664662
1789141187653145900,12.328145751953125,0.013967776136991003,-9.805576913761058,0.1443772319871017
1789141187663117800,12.338117919921874,0.013965518715141683,-9.805294873496585,0.16241300326600003
1789141187673090000,12.348090087890624,0.014895837401557206,-9.80501088826565,0.17866881889842956
1789141187683061800,12.358061767578125,0.019196770579606386,-9.804706492833468,0.19427149075957173
1789141187693035000,12.368034912109374,0.023148388725064754,-9.804331270186974,0.2119724332387669
1789141187703007000,12.378007080078126,0.027286157494977138,-9.803907016909536,0.23031540185339458
1789141187712979000,12.38797900390625,0.02890315895065923,-9.803463376086208,0.24829464313270613
1789141187722951000,12.397950927734374,0.030265735624714588,-9.803029244803282,0.2647642959142865
1789141187732923000,12.4079228515625,0.028399052261840686,-9.8026654285121,0.2780796858816624
1789141187742895900,12.417895751953123,0.028107352040920082,-9.802293390679765,0.290927573044401
1789141187752867800,12.427867919921876,0.026507443146503554,-9.801896748130279,0.3041514112985878
1789141187762839800,12.43783984375,0.024844934772174,-9.801543180654637,0.31547043826726173
1789141187772811800,12.447811767578123,0.02422215210197775,-9.801149573995279,0.3275085904781895
1789141187782784000,12.457783935546876,0.025516929641209198,-9.80073442878587,0.3395971936307477
1789141187792756700,12.4677568359375,0.02616982576488831,-9.800242699313795,0.35347030387297734
1789141187802729000,12.47772900390625,0.025650671267684295,-9.799736699336918,0.3672841011589906
1789141187812701000,12.487700927734377,0.027805831432233887,-9.799204177235755,0.3810893464531146
1789141187822673000,12.4976728515625,0.02658629486571945,-9.79876458592339,0.3922990092707386
1789141187832644900,12.507644775390624,0.02530559381471915,-9.798387710074516,0.4016850197468461
1789141187842618000,12.5176181640625,0.025491550659986442,-9.7979832445241,0.4114218159066311
1789141187852589800,12.52758984375,0.023418957361674236,-9.797619042529693,0.42012130896734123
1789141187862562000,12.53756201171875,0.02092703581578871,-9.797222489137658,0.4293955453094829
1789141187872533800,12.54753369140625,0.021198619505453473,-9.796779566658401,0.4393814330062337
1789141187882506000,12.557506103515625,0.0223669562905092,-9.79651483858547,0.4451693213842919
1789141187892479000,12.56747900390625,0.021186564722215608,-9.796216897654523,0.45173844878186487
1789141187902450700,12.57745068359375,0.021644403144414955,-9.79599455797457,0.4565176237553567
1789141187912423000,12.5874228515625,0.01864752927749284,-9.795740393708128,0.4620658330942618
1789141187922395000,12.597394775390624,0.015389831848392953,-9.795496747098063,0.4673162866603942
1789141187932366800,12.607366943359375,0.013405723576302053,-9.795243820798527,0.4726487333665163
1789141187942339800,12.61733984375,0.010789749971805006,-9.795003227127175,0.4776762222744036
1789141187952312000,12.62731201171875,0.00733242825699869,-9.79475285988428,0.48285168765614966
1789141187962283800,12.63728369140625,0.00782824038050668,-9.794660141065606,0.4847312406973918
1789141187972256000,12.647256103515623,0.00944363075147437,-9.794622993317107,0.4854508253195555
1789141187982227700,12.657227783203124,0.00966938361181567,-9.79467807919398,0.48434171418773453
1789141187992201000,12.667200927734376,0.011204147550830452,-9.794718673607816,0.4834789511439697
1789141188002173000,12.6771728515625,0.01389629621905738,-9.794743926838766,0.4828844621901197
1789141188012145000,12.687144775390625,0.014709024608540252,-9.794786366778904,0.4820086863937392
1789141188022116900,12.697116943359376,0.012966408414131488,-9.79491807035999,0.47937274575088445
1789141188032089000,12.707089111328123,0.009905146302540668,-9.795077080822985,0.47618999232552534
1789141188042061800,12.717061767578125,0.008574229816631309,-9.795313655375997,0.47132384122864956
1789141188052033800,12.72703369140625,0.008553246843044635,-9.795558762291881,0.46618647001555463
1789141188062006000,12.737006103515624,0.005713341294949966,-9.795895510602373,0.45909778779145993
1789141188071977700,12.746977783203125,0.0023708833626010714,-9.79628832152794,0.4506801498538593
1789141188081950000,12.756949951171874,-0.0009579620831838901,-9.796714372575392,0.44132844552103506
1789141188091923000,12.7669228515625,-0.0017009936702291736,-9.79703254304038,0.43420105193643915
1789141188101895000,12.77689501953125,-0.0016680726485502422,-9.79736542148535,0.42663738303433985
1789141188111867000,12.786866943359374,-0.003673797833917085,-9.797678794462096,0.4193729522480431
1789141188121838800,12.7968388671875,-0.00226505585136602,-9.798061413615466,0.41033782396822877
1789141188131810800,12.806810791015623,-0.000899471752231969,-9.798396684788084,0.4022653924645737
1789141188141784000,12.8167841796875,0.0013341744087267515,-9.79877649314367,0.39289113896493577
1789141188151755800,12.826755859375,-0.0027401735207867356,-9.799128926973534,0.3839933738088506
1789141188161728000,12.83672802734375,-0.002138102803559741,-9.799516124430228,0.37398793988497925
1789141188171700000,12.846699951171876,-0.0007442142360079868,-9.799895701821177,0.36392109236596704
1789141188181672000,12.856671875,-0.00168078254151794,-9.800260408744856,0.35395220773192554
1789141188191645000,12.86664501953125,-0.0014763319771582664,-9.800617952201685,0.3438932485737189
1789141188201616600,12.87661669921875,0.0009946698211547361,-9.8009592700766,0.33403549257225573
1789141188211588600,12.886588623046874,0.005144076428025659,-9.801247812216749,0.32541176005031924
1789141188221560800,12.896560791015624,0.007262238892408384,-9.801566857674587,0.3156322462650481
1789141188231532500,12.906532470703125,0.0092393537634841,-9.801911811833078,0.3046727422044955
1789141188241505500,12.916505615234374,0.012833129911525937,-9.802225598260309,0.2942617174543497
1789141188251477800,12.926477783203126,0.018277159871264756,-9.802578846431693,0.2819532051692939
1789141188261449500,12.936449462890623,0.0194063418920439,-9.802968450280446,0.26798532094407457
1789141188271421700,12.946421630859374,0.019700101340284635,-9.803255730399403,0.25723227804536014
1789141188281393700,12.9563935546875,0.01792407052508815,-9.803426540844741,0.25079216295869594
1789141188291366700,12.96636669921875,0.014012804187542803,-9.803616861037947,0.24347751087751346
1789141188301338600,12.976338623046876,0.01039741125622389,-9.803739289041594,0.23866661224150662
1789141188311310600,12.986310546875,0.007883834708405264,-9.80390588220919,0.23182277595744197
1789141188321282600,12.996282470703123,0.008315031150366267,-9.804088695009703,0.22395631836783222
1789141188331254800,13.0062548828125,0.012254072937333023,-9.804291901515617,0.21469838182480647
1789141188341227500,13.0162275390625,0.01513150821239305,-9.804488836673379,0.20530980268436852
1789141188351199700,13.02619970703125,0.01742910670176828,-9.80468609792552,0.1954828887273093
1789141188361171700,13.036171630859377,0.01978294042803263,-9.804794883562614,0.1896990366750413
1789141188371143700,13.046143798828124,0.019240589014436957,-9.804876628189618,0.18547777610431376
1789141188381115600,13.05611572265625,0.01671079083594788,-9.804966950543593,0.18091249593292755
1789141188391088600,13.066088623046875,0.018251985699363392,-9.80501794027024,0.17799600663508047
1789141188401060600,13.076060546875,0.019676442922827057,-9.805105453869077,0.17293646524220427
1789141188411032600,13.086032470703126,0.02014545340883686,-9.805264856788465,0.16357977874899504
1789141188421004500,13.096004638671875,0.02336332835768621,-9.805379288131364,0.15616321437842196
1789141188430976500,13.1059765625,0.025473511516148278,-9.805477134937641,0.1495281501721376
1789141188440949800,13.11594970703125,0.02384810892689311,-9.805571975191437,0.14344168649671218
1789141188450921500,13.12592138671875,0.024249449380649546,-9.80560601321955,0.1410571457751726
1789141188460893700,13.135893798828125,0.021545296665894553,-9.805643811924664,0.1388349883890261
1789141188470865700,13.14586572265625,0.016560084403610512,-9.805697361730106,0.13571915942455792
1789141188480837600,13.155837646484375,0.013807851494793431,-9.805769434177181,0.13068539492772224
1789141188490810600,13.165810546875,0.009821648420733955,-9.805880592911192,0.12247136869525355
1789141188500782800,13.175782958984374,0.004235522215050156,-9.806009089152466,0.11205392946819831
1789141188510754600,13.185754638671876,0.003566590619399679,-9.806103735939496,0.10352673891603884
1789141188520726800,13.195726806640623,0.0045195742868002,-9.806175896783621,0.09636186675552551
1789141188530698500,13.205698486328124,0.006254621075598324,-9.806235527274907,0.08996883666121747
1789141188540670700,13.215670654296876,0.008773267458979793,-9.806285896811636,0.08400792188291835
1789141188550643700,13.225643798828123,0.010967003963290204,-9.806334008480087,0.07801772301857864
1789141188560615400,13.235615478515625,0.011593546001937386,-9.806375870832843,0.07242316669264567
1789141188570587600,13.245587646484376,0.011666194222085622,-9.806420727774947,0.06598323540366868
1789141188580559600,13.2555595703125,0.011234351075104038,-9.806467203288571,0.05882810341091532
1789141188590531600,13.265531494140625,0.007977908712954822,-9.806513429385678,0.05121543608860256
1789141188600504600,13.275504638671874,0.006817519403477286,-9.806560530881052,0.04140823989565947
1789141188610476800,13.285476806640624,0.008364608519998314,-9.80659429162801,0.03219219290192488
1789141188620448500,13.295448486328125,0.008999612143129313,-9.806621630401459,0.021929571670178557
1789141188630420700,13.305420654296874,0.008839264912143329,-9.806639056429594,0.011788056294015813
1789141188640392400,13.315392333984375,0.010494978319493283,-9.806644096939067,0.0034288168948552996
1789141188650365700,13.32536572265625,0.01270706500403404,-9.806640460956961,-0.0050355936401581996
1789141188660337700,13.335337646484374,0.010082009111776381,-9.806637522509975,-0.012199214831426093
1789141188670309600,13.3453095703125,0.005541328598465813,-9.8066300328835,-0.019204564310658628
1789141188680281600,13.355281494140623,0.004087296392738313,-9.806608897182874,-0.028017113082569423
1789141188690253800,13.36525390625,0.004230164020240566,-9.806577378933593,-0.037509216973756046
1789141188700226600,13.3752265625,0.004051827940957686,-9.806536609644198,-0.0471326231331221
1789141188710198500,13.385198486328123,0.005783978719279666,-9.80648052232643,-0.057405309304891884
1789141188720170800,13.395170654296876,0.010542016037479446,-9.806418339991048,-0.06664574024091216
1789141188730142700,13.405142822265624,0.0158372031105267,-9.806346336255555,-0.07562688195473613
1789141188740114700,13.41511474609375,0.019665768275889072,-9.80628648830434,-0.08213619465333967
1789141188750087700,13.425087646484377,0.021942164012387994,-9.806232974455133,-0.08775071995083052
1789141188760059600,13.4350595703125,0.02302376056636586,-9.806197112601765,-0.09140372022627129
1789141188770031600,13.445031494140624,0.023701011783413568,-9.806141421436285,-0.0970409942561391
1789141188780003600,13.455003662109377,0.022306640111072862,-9.806076029062456,-0.10373260290212913
1789141188789975600,13.4649755859375,0.01913173613944213,-9.805996284529487,-0.11165424912975973
1789141188799948800,13.47494873046875,0.01527531426755382,-9.805892717340933,-0.12096743380929711
1789141188809920500,13.48492041015625,0.014068917810508192,-9.805769594158896,-0.13066653814135307
1789141188819892700,13.494892822265625,0.015796653148929682,-9.805658554544518,-0.1385374267765335
1789141188829864700,13.50486474609375,0.018327117266151677,-9.805529969747454,-0.14702532603213958
1789141188839836700,13.514836669921875,0.018878423865332856,-9.805408609660608,-0.15491264614224687
1789141188849809700,13.5248095703125,0.02160914422158721,-9.80528560072612,-0.1621460636074569
1789141188859781600,13.53478173828125,0.021830771645748013,-9.805171557806704,-0.1688816912436672
1789141188869753600,13.544753662109375,0.020348692470631015,-9.80501667016577,-0.17784007139590247
1789141188879725600,13.5547255859375,0.015347545954971698,-9.804913838724083,-0.18387930522504167
1789141188889697500,13.564697509765624,0.00967295273837952,-9.804786546571876,-0.19092364281891494
1789141188899670500,13.57467041015625,0.004549265720730698,-9.80468391515255,-0.1963058479611825
1789141188909642800,13.584642822265623,0.005673495617240205,-9.804541839297274,-0.20324794312318395
1789141188919614500,13.594614501953124,0.007428590502327331,-9.80439423376355,-0.2102075550827092
1789141188929586700,13.604586669921876,0.012354927349897541,-9.80422709087875,-0.21761430701712675
1789141188939558700,13.61455859375,0.01726666903717499,-9.804153297373574,-0.22057589354821963
1789141188949531600,13.62453173828125,0.020033806556129657,-9.804088470908432,-0.22323356581072243
1789141188959503600,13.634503662109376,0.021193995611737012,-9.804085471959183,-0.22323500801922372
1789141188969475800,13.644475830078123,0.024228538446283168,-9.8041136606269,-0.22170830580020653
1789141188979447600,13.654447509765625,0.02203001321842134,-9.804185564746554,-0.2187357271024459
1789141188989419800,13.664419677734376,0.017509497397146318,-9.8042177574463,-0.21769953992511729
1789141188999392800,13.674392822265624,0.018086053967323892,-9.804273568464225,-0.21508782766164466
1789141189009364500,13.684364501953125,0.01923874709494974,-9.804295790798154,-0.21400637645328605
1789141189019336700,13.694336669921874,0.02051913799640703,-9.804308802934699,-0.21330517107983157
1789141189029308700,13.70430859375,0.024098874024855253,-9.804376047934394,-0.20977473646395398
1789141189039280600,13.71428076171875,0.025938654446297053,-9.804494211594866,-0.20399641527927925
1789141189049253600,13.724253662109374,0.027236521698194474,-9.804634877516508,-0.19690379133657934
1789141189059225600,13.7342255859375,0.028481004944751323,-9.804789706220395,-0.18888048006475777
1789141189069197600,13.744197509765623,0.025257367715177836,-9.804933250070064,-0.18172977253382028
1789141189079169800,13.754169677734374,0.023137203485706016,-9.805041809727989,-0.1760646096483716
1789141189089141500,13.7641416015625,0.019562422128990647,-9.80514283598087,-0.17082239827117526
1789141189099113700,13.77411376953125,0.016046577252906615,-9.805214037713515,-0.16707507442108227
