time,seconds_elapsed,z,y,x
1789141176863219500,1.538219482421875,0.05688373044337946,0.11622761654061942,-0.060040591817830155
1789141176873191400,1.54819140625,0.07324361094610693,0.12082923303176658,-0.06324146710580239
1789141176883163400,1.558163330078125,0.09544825998793484,0.11745136826081617,-0.06962188031076819
1789141176893136400,1.568136474609375,0.1037652268713896,0.11857424894774055,-0.05152927680087142
1789141176903108400,1.5781083984375,0.08369671241216715,0.10176153476251376,-0.0008604383455575244
1789141176913080600,1.58808056640625,0.09344787130976193,0.08858568399992148,0.03239869539730176
1789141176923052500,1.598052490234375,0.05709064958152863,0.06315998580526362,0.06296142145742653
1789141176933024500,1.6080244140625,0.04574845068812209,0.04478658366185708,0.05959359046213288
1789141176942997500,1.61799755859375,-0.008596704145847798,0.039694383296437194,0.028603173758213987
1789141176952969500,1.627969482421875,0.03514637649940019,0.06617466577317885,0.011857822379554598
1789141176962941400,1.63794140625,0.0018967780281404704,0.02013971364907909,0.047811353548017674
1789141176972913400,1.647913330078125,0.051142146971171865,0.05167097067026617,0.00432078996298854
1789141176982885400,1.657885498046875,0.10721450611416257,0.08313238852001582,-0.013749781026206456
1789141176992858400,1.6678583984375,0.12247144850353343,0.09812982282720763,0.022986479267497903
1789141177002830600,1.67783056640625,0.10455928419829148,0.09481445980728742,0.0295972192533916
1789141177012802300,1.68780224609375,0.0785236813534782,0.05098471663589791,0.01627128801650446
1789141177022774500,1.6977744140625,0.016549876089330184,0.01010253866302915,0.03389736177121105
1789141177032747500,1.70774755859375,-0.028721095830392944,-0.0180310949319741,0.031240687171721043
1789141177042719500,1.717719482421875,0.011710406788848228,0.007498928449027784,-0.020491212941879368
1789141177052691500,1.72769140625,-0.007246797331943532,-0.028417967536037588,0.00798921561960152
1789141177062663700,1.73766357421875,0.0031893958502260907,-0.023085768731974796,0.014730715539993338
1789141177072635400,1.747635498046875,0.01320819317915506,0.003342779244646645,-0.03243539972985275
1789141177082608400,1.7576083984375,0.022483722953439454,0.03247771686694283,-0.04170576125298193
1789141177092580600,1.76758056640625,0.00484339655936751,0.03503127306672333,-0.04605856254402126
1789141177102552300,1.77755224609375,0.04742144446575298,0.04565658597012975,-0.028171037142753347
1789141177112524500,1.787524658203125,0.023432159081309488,0.08425481356551418,-0.0230380038210249
1789141177122496300,1.797496337890625,0.010757303942650112,0.08623625350789123,0.0002474293429216221
1789141177132469500,1.807469482421875,0.028844716038950405,0.0832157117947306,0.01869081581501836
1789141177142441500,1.81744140625,0.020902969922852437,0.08776046334196295,0.0727766790393721
1789141177152413400,1.827413330078125,-0.008360604567638723,0.07102803010132559,0.09835930367670445
1789141177162385400,1.837385498046875,0.015198268264350306,0.0635036207383885,0.08367454369262282
1789141177172358400,1.8473583984375,0.0021157657975375693,0.0473526927826228,0.11674453551352013
1789141177182330400,1.857330322265625,0.023633016892425557,0.025569519887370006,0.1148206132123753
1789141177192302600,1.867302490234375,0.01062330207527643,0.009449613738697252,0.05163044145099589
1789141177202274600,1.877274658203125,0.02188896879672016,-0.00015914400550513696,0.07055455315434257
1789141177212246800,1.887246826171875,0.008058901668571943,-0.025282643368860935,0.040899701100005445
1789141177222219800,1.8972197265625,0.01268854922658487,-0.05996809717766126,0.01653487645136406
1789141177232191500,1.90719140625,0.03604220064606246,-0.05157259126340844,-0.0050894538430489005
1789141177242163700,1.917163818359375,0.02702692335306067,-0.04939962734125936,-0.060727358891767606
1789141177252135700,1.9271357421875,0.02016769049281391,-0.06037837321727452,-0.05429971358616432
1789141177262107600,1.937107666015625,0.012456610984415441,-0.0489393989201227,-0.04018166020120173
1789141177272080600,1.94708056640625,0.03664187574530797,-0.018842853822206324,-0.05500217756954654
1789141177282052900,1.957052978515625,0.015110497161001948,-0.0074461680359832845,-0.013415057343918077
1789141177292024600,1.967024658203125,0.05844824025137074,0.015782739761061038,0.020650929143643637
1789141177301996800,1.976996826171875,0.041447876096503355,0.045460879986149796,0.008782398755965062
1789141177311969800,1.9869697265625,0.07161250190551995,0.05818571966279118,0.011735611705514343
1789141177321941500,1.99694140625,0.08218171950889273,0.0689453129725345,0.03605360469773277
1789141177331913700,2.006913818359375,0.09645842616688612,0.12115998911408334,0.014424146201381419
1789141177341885400,2.016885498046875,0.1355489654410394,0.12650898978950414,0.024323772995104565
1789141177351857700,2.026857666015625,0.15316388045859616,0.1527420611632531,0.008915599366445516
1789141177361830700,2.03683056640625,0.14986191229840834,0.1922003509362942,0.01206541014527452
1789141177371802600,2.046802734375,0.1603939064062928,0.2065092179166138,-0.013756765382964218
1789141177381774600,2.056774658203125,0.15326135318439463,0.20784095764527263,-0.02114857301026399
1789141177391746800,2.066746826171875,0.1416267642354342,0.2069996819048656,-0.026366949483938435
1789141177401718500,2.076718505859375,0.14712527079732116,0.20964779542172518,-0.013847548901333431
1789141177411691800,2.08669189453125,0.14264498544463483,0.22300340699660406,-0.013236479494168653
1789141177421663700,2.096663818359375,0.1249645038049983,0.22417121847356283,-0.002837905987080047
1789141177431635700,2.1066357421875,0.15410595353019238,0.21500022932393614,-0.023005759033395284
1789141177441607700,2.116607666015625,0.1560760295764566,0.2095754375858535,-0.01839381134472666
1789141177451580700,2.12658056640625,0.1652517050228781,0.23314262803541247,-0.02366051451959923
1789141177461552600,2.136552734375,0.146177589210166,0.20817055998578934,-0.012792653402167767
1789141177471524600,2.146524658203125,0.12252713797463029,0.17946083706903337,0.03623264910255119
1789141177481496600,2.15649658203125,0.09458736983827062,0.19022828284579543,0.0012708972361888692
1789141177491468500,2.166468505859375,0.06654585206008713,0.2085558552222842,-0.040087285565538734
1789141177501441800,2.17644189453125,0.05003915646306617,0.23076074064119093,-0.061336767582968
1789141177511413500,2.18641357421875,0.07298463242148696,0.2509955925097104,-0.03639241232973414
1789141177521385700,2.1963857421875,0.08339756369934523,0.28129370537413967,-0.028954479211504017
1789141177531357700,2.206357666015625,0.11121227436686702,0.2962255274850313,-0.0328748992577664
1789141177541329700,2.21632958984375,0.12939788709338648,0.2973726380330604,0.026866614136901022
1789141177551302700,2.226302734375,0.0974450646439517,0.28849116268311775,0.05030401490841042
1789141177561274600,2.236274658203125,0.09071224038929243,0.2658045102674116,0.047220089834847746
1789141177571246600,2.24624658203125,0.043460022616496896,0.21869983090516532,0.06891858506199242
1789141177581218800,2.25621875,0.015762281973936844,0.17576191881903253,0.04875096764722921
1789141177591190500,2.2661904296875,0.01034064554147737,0.13845632722815013,0.014255767758213373
1789141177601163500,2.27616357421875,0.03431679223154249,0.13440932116715054,-0.00020154547848440346
1789141177611135700,2.2861357421875,0.0026174429737559216,0.10262890680680524,-0.001995653244392618
1789141177621107500,2.296107421875,-0.018955542407299075,0.04884521758710122,-0.031342653997192146
1789141177631079700,2.30607958984375,-0.0609110198548958,0.01662804867538052,-0.035444077250015464
1789141177641052700,2.316052734375,-0.08397311872101998,0.003981313326410415,-0.002401425362245887
1789141177651024600,2.326024658203125,-0.07953769565007812,-0.020655849959981095,0.030713732868014695
1789141177660996600,2.33599658203125,-0.06783129251632533,-0.03659740423509938,0.030110542504246027
1789141177670968600,2.345968505859375,-0.0908560898481276,-0.04089672972491996,0.012465647050658897
1789141177680940500,2.3559404296875,-0.07019882244214083,-0.040003337522358386,0.02646535002309808
1789141177690913800,2.365913818359375,-0.10239770197267034,-0.038500603735629774,0.02141479476926622
1789141177700885500,2.375885498046875,-0.10577805443737208,-0.07192929356018513,-0.02735143461800596
1789141177710857700,2.385857666015625,-0.07256261310367862,-0.08197664697138796,-0.003762177866996078
1789141177720829700,2.39582958984375,-0.08308395326778417,-0.042164778706022726,-0.014675663970852335
1789141177730802400,2.405802490234375,-0.08733404934669402,-0.040369114712388236,0.0356351040010517
1789141177740774700,2.415774658203125,-0.10384066352688333,-0.03859547869597283,0.03320298078938592
1789141177750746600,2.42574658203125,-0.12623948077093425,-0.062148024499838875,0.05466872753095611
1789141177760718600,2.435718505859375,-0.12601445673181388,-0.05894932316630976,0.06983556806685284
1789141177770690600,2.445690673828125,-0.11448108072412728,-0.05704042166001146,0.005551321456925695
1789141177780663800,2.455663818359375,-0.13865787186561815,-0.09697550137312853,-0.01695455682154983
1789141177790635500,2.465635498046875,-0.15546133120020217,-0.09262112073211562,-0.00963867040063348
1789141177800607700,2.475607666015625,-0.14597272455249524,-0.06133640065792248,-0.06065756102417207
1789141177810579500,2.485579345703125,-0.1268543232903247,-0.07409716258977987,-0.049827916881938286
1789141177820551700,2.4955517578125,-0.15354359582810817,-0.08232568018094613,-0.04146315671907085
1789141177830524700,2.505524658203125,-0.13504881056273743,-0.04273894558968431,-0.06999150691950803
1789141177840496600,2.51549658203125,-0.10616076992734007,-0.06098396409914139,-0.0007305194294998391
1789141177850468600,2.525468505859375,-0.08325249679538338,-0.0505021087002592,0.004357454030877129
1789141177860440800,2.53544091796875,-0.07992297864862026,-0.051840627752212314,0.011048431554477274
1789141177870412500,2.54541259765625,-0.08900694687347296,-0.0979915275690354,0.03881965024590394
1789141177880385500,2.555385498046875,-0.11554961841875523,-0.095820556746786,0.07957620015947865
1789141177890357800,2.565357666015625,-0.1190867937233879,-0.07736231079332312,0.04652327852074956
1789141177900329500,2.57532958984375,-0.1298573832273279,-0.09877877317299787,-0.0035941519152660694
1789141177910301700,2.5853017578125,-0.10844743041166793,-0.08109692961689874,0.002503964648936259
1789141177920274700,2.595274658203125,-0.10578076449988034,-0.04481635782486603,0.004983584984740132
1789141177930246700,2.60524658203125,-0.07736333909301389,-0.027962527570907888,-0.02938329375805424
1789141177940218600,2.615218505859375,-0.07519760334814432,0.0036680066311233247,-0.009623789316824456
1789141177950190600,2.625190673828125,-0.08653694991782747,0.009095713654957004,-0.01018474201881129
1789141177960162600,2.63516259765625,-0.06401893104425087,0.014494594028268724,-0.015756384385625256
1789141177970135800,2.6451357421875,-0.03546707613078752,0.026651080165153405,0.013336847147776238
1789141177980107500,2.655107421875,-0.0501286384130413,0.036194976953718365,-0.029743302313703708
1789141177990079700,2.665079833984375,-0.05462972582545684,-0.006183648551555579,0.020053930156727524
1789141178000051700,2.6750517578125,-0.05454887035622085,-0.004976485473501687,-0.011121730614818045
1789141178010023700,2.685023681640625,-0.05676854923314574,-0.010606305534589295,-0.008252584056797222
1789141178019996700,2.69499658203125,-0.05947560642523684,-0.012030930284846796,0.005627852933703768
1789141178029968600,2.70496875,-0.06072157354245292,-0.017101988977731766,0.005884469965393776
1789141178039940600,2.714940673828125,-0.048330696002255875,0.02275173401517591,-0.0691428384412399
1789141178049912600,2.72491259765625,-0.04664482956782273,0.00850584930563637,-0.03466129979867157
1789141178059885800,2.7348857421875,-0.057366144706837985,-0.023343322891588726,0.05301724730450384
1789141178069857500,2.744857421875,-0.05017151965950867,-0.028597536038086777,0.04237040222429664
1789141178079829800,2.754829833984375,-0.050365341678374254,-0.012979407494402125,0.03111650027831636
1789141178089801500,2.764801513671875,-0.01323455238759172,-0.012859357632023168,0.0640238608431356
1789141178099773700,2.774773681640625,-0.029134057871589132,-0.018696617385988035,0.046285779258123265
1789141178109746700,2.78474658203125,-0.043567708450613966,-0.060654303080298025,0.06957338000563235
1789141178119718700,2.79471875,-0.05760474527669168,-0.05368193844269979,0.03874179228761272
1789141178129690600,2.804690673828125,-0.028464010245526694,-0.03112798383791453,0.0029095357162928657
1789141178139662800,2.814662841796875,-0.005984210162156084,-0.025189885601594734,-0.0048256739507926815
1789141178149634600,2.824634521484375,-0.01888162498754923,-0.036210838860710554,0.024434078517951895
1789141178159607600,2.834607666015625,-0.0126383015789607,-0.03997769023091619,0.006979331451762223
1789141178169579800,2.844579833984375,-0.007800758556498119,-0.04136256260939771,-0.012206077485653015
1789141178179551500,2.854551513671875,-0.05187317628957032,-0.0816992772862291,0.01176020702658118
1789141178189523700,2.864523681640625,-0.06653374833478465,-0.10119684388149895,0.047834531635762054
1789141178199496000,2.874495849609375,-0.07451814826593002,-0.08087313202253066,0.0581432937429256
1789141178209468200,2.88446826171875,-0.04716024731120307,-0.05267308774454981,0.01438326617460148
1789141178219439900,2.89443994140625,-0.0057288994991183,-0.03313327892719745,-0.004676294129733386
1789141178229412000,2.904412109375,0.008450363757382756,-0.011975294062629378,-0.010664336193370923
1789141178239383800,2.9143837890625,-0.020028647892776596,-0.002826591604910517,-0.033072823814320376
1789141178249357000,2.924357177734375,-0.011097693829759699,0.002032025158628562,-0.0302787061249445
1789141178259329000,2.9343291015625,-0.007239014526113189,0.05349130028503383,-0.014034702031165809
1789141178269301000,2.944301025390625,-0.0016811163030556547,0.07425140233108206,0.01533280713180316
1789141178279273000,2.95427294921875,0.005872115058416608,0.08683377942291992,0.013671919838900454
1789141178289245200,2.9642451171875,0.03199384641628678,0.10898342436722708,0.06475620494466536
1789141178299218000,2.974218017578125,0.0421471788123117,0.11130639146739302,0.1184712001235057
1789141178309190100,2.984190185546875,0.029592477768606074,0.1237184051932483,0.09610056715932543
1789141178319162000,2.994162109375,0.04564522442580333,0.1255404780627266,0.04635884174385956
1789141178329134000,3.004134033203125,0.047281801423303384,0.14334596375881534,-0.0020362286431964893
1789141178339106000,3.01410595703125,0.018884755069801317,0.13459542657894308,-0.0037076840456487957
1789141178349079000,3.0240791015625,0.0410911674810999,0.1639211482808761,-0.06034872086620352
1789141178359051000,3.034051025390625,0.02215086660820563,0.16217993861263125,-0.03212861012971593
1789141178369023000,3.04402294921875,0.01793776775464823,0.156211015970843,-0.03304478377967793
1789141178378995000,3.053994873046875,0.011078747556773296,0.15370040152782433,-0.02168832123323615
1789141178388968000,3.063968017578125,-0.007163755432672765,0.1504481895069134,0.005135378344641886
1789141178398940200,3.073940185546875,-0.0085396084592797,0.12315620057501094,0.03695176349972584
1789141178408912000,3.083911865234375,-0.0138042327884119,0.11204198766069333,-0.016216869371691603
1789141178418884000,3.093884033203125,-0.028283080114598094,0.09491707596697306,0.022125808180110337
1789141178428856000,3.10385595703125,-0.0036789113853075354,0.09732786323020658,0.020105286506650787
1789141178438829000,3.1138291015625,0.0404101369416488,0.10767282911427967,-0.008731890629547033
1789141178448801000,3.123801025390625,0.04656942211615517,0.1223397079665482,-0.046226099817803616
1789141178458773200,3.133773193359375,0.011625255442238216,0.0986081180795302,-0.024631807399420075
1789141178468745000,3.143744873046875,0.0006249005811928962,0.09321650070606621,-0.016751323926074167
1789141178478717200,3.15371728515625,-0.02482371863452587,0.08938257036410073,0.006895201999277026
1789141178488690200,3.163690185546875,-0.03254857794313986,0.06104893999489461,0.015152289634480103
1789141178498662000,3.173661865234375,0.005870944244951948,0.055428840752099556,0.011871073097733276
1789141178508634000,3.183634033203125,-0.014776641821542121,0.0510157612286983,-0.0002833861590895467
1789141178518605800,3.193605712890625,-0.014781242465959838,0.006704064658821062,0.04184540366265968
1789141178528579000,3.2035791015625,-0.03384875177756352,-0.007337738432008575,0.029547725691371603
1789141178538551000,3.213551025390625,-0.026836067659984506,-0.022461472565311478,-0.0022344539530401502
1789141178548523000,3.22352294921875,-0.035958630027884034,-0.04433288748622378,-0.005835344329137763
1789141178558495000,3.233494873046875,-0.05582710380813044,-0.060800400716874294,-0.0034603388312282155
1789141178568467200,3.24346728515625,-0.03850823962339588,-0.07397371523879297,0.018964441771182172
1789141178578440000,3.25343994140625,-0.05823734382198422,-0.06440377290939579,-0.030470197597238857
1789141178588412200,3.263412109375,-0.07749272962786519,-0.08405234490231728,-0.07585989969601206
1789141178598383900,3.2733837890625,-0.035804165867411655,-0.10934808335375987,-0.03012526293060672
1789141178608356000,3.283356201171875,-0.047851085212890186,-0.08611299586993539,-0.0035962317269376196
1789141178618328000,3.293328125,-0.054791240341060865,-0.10509823407029724,-0.02999041452377455
1789141178628300800,3.30330078125,-0.04717335073561404,-0.1473263219063938,0.0357851723558981
1789141178638273000,3.31327294921875,-0.03576001508707217,-0.16692750203557472,0.09366221287264294
1789141178648245000,3.323244873046875,-0.04628883621329069,-0.16707394100260076,0.05970135535449323
1789141178658217000,3.333217041015625,-0.06887498745679456,-0.18813851833247913,0.05026587704328837
1789141178668189000,3.34318896484375,-0.05872983552659071,-0.18431905453645012,0.03737728514055928
1789141178678162200,3.353162109375,-0.04661902352310045,-0.18341169966524853,0.03952257567201302
1789141178688134000,3.3631337890625,-0.05042735465092663,-0.1586725655637663,0.0017604846135777289
1789141178698106000,3.373106201171875,0.004174000664799964,-0.15935298501550574,-0.02335887900625285
1789141178708077800,3.383077880859375,-0.019931199808061673,-0.12565212089139693,-0.04392027714080808
1789141178718051000,3.393051025390625,-0.04058121319664806,-0.13606916913687886,-0.01055487297859913
1789141178728023000,3.40302294921875,-0.007001561541369196,-0.148748267542239,0.015992253816545496
1789141178737995000,3.4129951171875,-0.03337634579415893,-0.1488224438358882,0.024873870807282095
1789141178747967000,3.422967041015625,-0.02823723553606095,-0.16514061216282844,0.020972766072435266
1789141178757939200,3.432939208984375,0.006966092815464836,-0.14346245603432975,0.033430363296481275
1789141178767912000,3.442911865234375,0.00025855235954983625,-0.13286588990347376,0.04800311846094958
1789141178777884000,3.4528837890625,-0.012998573141137226,-0.1529174470020794,0.039390021594054574
1789141178787856100,3.462856201171875,0.006142433021122487,-0.1363717605038302,0.011454151649495854
1789141178797827800,3.472827880859375,-0.002724962490399764,-0.08917535145556302,-0.042958197936238784
1789141178807800000,3.482800048828125,0.013673399298249801,-0.08599963870280664,-0.052650527110110756
1789141178817773000,3.49277294921875,0.06327084660525742,-0.0847844893172538,-0.030986574853694774
1789141178827745000,3.5027451171875,0.05801597819123828,-0.08465804157515021,-0.03986009499432988
1789141178837717000,3.512717041015625,0.0694149062608297,-0.11045835229141843,0.011769095601402376
1789141178847689000,3.52268896484375,0.035167488962312345,-0.12143153610059167,0.039279785258474344
1789141178857661000,3.532660888671875,0.04052128938772498,-0.17451343150152143,0.03391330570976916
1789141178867634200,3.54263427734375,-0.026474448270488633,-0.2030749800160696,0.03661570065717274
1789141178877606000,3.55260595703125,-0.025615279924428875,-0.1803639482953305,0.010948211494750889
1789141178887578000,3.562578125,-0.015355275869813192,-0.1618581512662549,-0.021992658224266638
1789141178897550000,3.572550048828125,0.010661757982611523,-0.16688476078453504,-0.00871811265166384
1789141178907522800,3.582522705078125,0.04892898996704486,-0.09807148051742913,-0.06670739890766275
1789141178917495000,3.5924951171875,0.09679151890710129,-0.037078207046855854,-0.09908235875048525
1789141178927467000,3.602467041015625,0.0887181020030304,-0.0416670126404613,-0.04823654794615914
1789141178937439000,3.61243896484375,0.09620179583106868,-0.005008196918195336,-0.058836696560980915
1789141178947411000,3.622410888671875,0.09067972838888488,-0.01702153780369322,-0.02073483874125398
1789141178957384200,3.63238427734375,0.1014770799190044,-0.028834857472959326,0.021708109576609687
1789141178967356000,3.64235595703125,0.1465218713594358,-0.01210429381193114,0.047542533183603505
1789141178977328000,3.652328125,0.12622830535840274,0.02472688829113757,-0.005955971669270254
1789141178987299800,3.6622998046875,0.10500091721536063,-0.011203722643655357,0.030301467103797396
1789141178997272000,3.67227197265625,0.08757224307531668,0.00153646857495988,0.023138652186763965
1789141179007245000,3.6822451171875,0.10726056040283756,0.03471004184129375,-0.018675310468383086
1789141179017217000,3.692217041015625,0.13078165218588317,0.06912942051459685,-0.04216251053273124
1789141179027189000,3.70218896484375,0.13578296727907316,0.10616042153877084,-0.0694159355768989
1789141179037161200,3.7121611328125,0.1801824065932077,0.11990190158014243,-0.031753881172257165
1789141179047134000,3.722134033203125,0.20615583825969935,0.1504724012178203,-0.08179440962344477
1789141179057106000,3.73210595703125,0.20127486197324368,0.16534580517710118,-0.0484531624292248
1789141179067078100,3.742078125,0.17561617585827485,0.1533158106780426,-0.01504821084162303
1789141179077049900,3.7520498046875,0.15034528090805618,0.1255081156274365,-0.026732990731229728
1789141179087022000,3.76202197265625,0.16796786554931287,0.135532925901837,-0.015112169816981127
1789141179096995000,3.7719951171875,0.13093506231307012,0.15143007639440742,-0.014165702091344575
1789141179106967000,3.781967041015625,0.149665469530771,0.13709987198917298,-0.02437723816854673
1789141179116939000,3.79193896484375,0.1647609781971113,0.18145221390734992,-0.02468172768959981
1789141179126911000,3.801910888671875,0.16750481538019213,0.22376693555461155,-0.02646651279081722
1789141179136883000,3.811883056640625,0.1729374231274092,0.21954184438647853,-0.034416035388510076
1789141179146856200,3.821856201171875,0.2118672236323405,0.23292611181136763,-0.005246820655583586
1789141179156828000,3.831827880859375,0.1828021853885114,0.2643482854590353,0.009981518113653156
1789141179166800100,3.841800048828125,0.18470912020956287,0.2529743244310851,0.013150394073846414
1789141179176772000,3.851772216796875,0.17959733106174197,0.2556189362715271,0.001770195727165159
1789141179186744000,3.861744140625,0.15415567808353747,0.2504833320991497,0.05300416969009346
1789141179196717800,3.8717177734375,0.1322243079826902,0.2657632585285254,0.06931894476778092
1789141179206689500,3.881689453125,0.14394270143042512,0.2705928500235249,0.040409313615669566
1789141179216661800,3.891661865234375,0.11833341389824838,0.27160801449932187,0.016967307718348975
1789141179226633500,3.901633544921875,0.11173870033187029,0.31026572912342537,-0.020388895951522133
1789141179236605700,3.911605712890625,0.10643668585140866,0.32069888840218214,-0.004298525033251819
1789141179246578700,3.92157861328125,0.09414681271998922,0.36244614008294307,-0.04772857712626414
1789141179256550700,3.931550537109375,0.08550098748665524,0.4015698583608074,-0.05801554472841775
1789141179266522600,3.941522705078125,0.09587435564384537,0.43252763444765424,-0.038682125346401725
1789141179276494800,3.951494873046875,0.11617262493333035,0.47046483394406435,-0.027667801560060046
1789141179286467600,3.961467529296875,0.11681035647614442,0.5015562383955389,-0.0457838418316182
1789141179296439600,3.971439453125,0.11349248031518515,0.4973000888677716,0.019843418545860584
1789141179306411800,3.981411865234375,0.12383750899266277,0.5181766680248506,0.07589522161891334
1789141179316383500,3.991383544921875,0.09612944099868725,0.5010410117223765,0.058734987270381976
1789141179326355700,4.001355712890625,0.10272521584047105,0.45353117031502993,0.07028008551279982
1789141179336328700,4.01132861328125,0.06724823389845769,0.41837969933158825,0.05027753683515238
1789141179346300700,4.02130078125,0.03172957810631055,0.35315423045009287,0.06589483195631989
1789141179356272600,4.031272705078125,-0.021098012992511427,0.3188926816737836,0.018182361430290648
1789141179366244600,4.04124462890625,-0.057625463041414124,0.30504270130407457,0.007901332587292252
1789141179376216600,4.051216552734375,-0.05271803155312707,0.29443067409718243,0.035648760723584715
1789141179386189800,4.06118994140625,-0.01587796626029698,0.29970880218523765,0.02764583277368134
1789141179396161500,4.07116162109375,-0.010685453489206392,0.29877740801740177,-0.03291543595704613
1789141179406133800,4.0811337890625,-0.0682226352451278,0.2429534193200038,0.034923064686006415
1789141179416105700,4.091105712890625,-0.08559550855706548,0.23383123875145317,0.06376160241572475
1789141179426077700,4.10107763671875,-0.08645012046827556,0.1979961413233499,0.07739094675762605
1789141179436050700,4.11105078125,-0.1014911870711946,0.19597230461355053,0.03788290534445514
1789141179446022700,4.121022705078125,-0.1087988552278611,0.16777450422859128,0.08833510202334316
1789141179455994600,4.13099462890625,-0.1232992946625091,0.17137704650556532,0.02386374414513287
1789141179465966600,4.140966552734375,-0.13728670120094366,0.13683293149815054,0.03315533720597256
1789141179475938600,4.1509384765625,-0.15202352625844073,0.1705642063405457,0.016618361795477963
1789141179485911600,4.16091162109375,-0.15791289484108278,0.15914110250558972,-0.04931611975682125
1789141179495883800,4.1708837890625,-0.12475964694405733,0.13630646758987477,0.011624467467737282
1789141179505855500,4.18085546875,-0.12200662567864029,0.12133299747144444,0.03512700999656651
1789141179515827700,4.19082763671875,-0.14550421041846354,0.07762388152558189,0.020813784222824018
1789141179525800700,4.20080078125,-0.18809000127433537,-0.004970748027102047,0.10145877179856937
1789141179535772700,4.210772705078125,-0.2364981605590253,-0.013063519971983259,0.051867924056138666
1789141179545744600,4.22074462890625,-0.243958217374001,-0.05475937827956168,0.08975713046152643
1789141179555716900,4.230716796875,-0.25491458733898303,-0.07951438264286914,0.052289718258941034
1789141179565688600,4.2406884765625,-0.27087412530192906,-0.10217189761437843,0.0777473081663308
1789141179575661600,4.25066162109375,-0.2717290780330928,-0.1025921845417132,0.017566056957531006
1789141179585633800,4.2606337890625,-0.23117813042869728,-0.13367707415487382,0.025123848746353438
1789141179595605500,4.27060546875,-0.2622778213398087,-0.11932725494998046,-0.011756546548669877
1789141179605577700,4.28057763671875,-0.2675219893727736,-0.15774320126279473,-0.013330291641682354
1789141179615549400,4.290549560546875,-0.29877137828455225,-0.19003654145650284,0.008357552155312632
1789141179625522700,4.300522705078125,-0.3003872703838639,-0.2127771083943248,0.01855480526221762
1789141179635494700,4.31049462890625,-0.27896249702769627,-0.23141149812743356,0.04900291110009545
1789141179645466600,4.320466552734375,-0.313191781094782,-0.2679767043615794,0.04630050298525144
1789141179655438600,4.3304384765625,-0.3249564308928773,-0.30738176332671924,0.058480772466008205
1789141179665410800,4.340410888671875,-0.3274896533627357,-0.3101967455800061,0.016902030648344966
1789141179675383600,4.350383544921875,-0.31795431996747425,-0.3227292068914617,0.009084372732508934
1789141179685355800,4.360355712890625,-0.3183612163859697,-0.3459784362821701,0.004463535225946929
1789141179695327700,4.37032763671875,-0.2912869791603361,-0.33757952550218034,-0.07511986349230396
1789141179705299700,4.3802998046875,-0.2956604808551713,-0.31568352762276713,-0.10434513766560032
1789141179715272700,4.390272705078125,-0.2992832196822496,-0.3097804130679121,-0.018393103132938685
1789141179725244700,4.40024462890625,-0.29062180671930826,-0.34546328540910365,-0.0010504529615250934
1789141179735216600,4.410216552734375,-0.2895909925648225,-0.37053843759602456,-0.01136921038191526
1789141179745188600,4.420188720703125,-0.29964563229099983,-0.3808822258961186,0.015217122981532365
1789141179755160600,4.43016064453125,-0.28719637610290577,-0.4064886886862361,0.06531540040158665
1789141179765133600,4.440133544921875,-0.2862004729192341,-0.43184549326272703,0.06541063143115695
1789141179775105800,4.450105712890625,-0.27550449296503227,-0.4270756316762992,-0.042342084007775796
1789141179785077500,4.460077392578125,-0.22824848303355758,-0.4010930349134337,-0.08501458693850618
1789141179795049700,4.4700498046875,-0.2202182516528586,-0.3627646862046581,-0.09264499193004397
1789141179805021700,4.480021728515625,-0.20769363265157018,-0.4017757984549235,-0.0526612577316674
1789141179814994700,4.48999462890625,-0.18870640495880606,-0.4347102027018494,-0.05612164653682001
1789141179824966700,4.499966552734375,-0.17917277349900743,-0.4328431815870579,-0.029438655202440052
1789141179834939000,4.50993896484375,-0.21311814655095568,-0.4179558946361967,-0.006098149294710929
1789141179844910600,4.51991064453125,-0.14622331765666863,-0.4410969669992882,0.05389661322943501
1789141179854882800,4.5298828125,-0.17543798253054452,-0.44137060393340927,0.015244732897045504
1789141179864855800,4.539855712890625,-0.16187146152133028,-0.44607767695978967,0.024842106081016207
1789141179874827500,4.54982763671875,-0.1431290810781768,-0.40136136087172647,0.024602305866539973
1789141179884799700,4.5597998046875,-0.11022588512127675,-0.3658748860949258,-0.0039856603014671145
1789141179894771500,4.569771484375,-0.11063634181412342,-0.37282498218045973,0.002478875738277838
1789141179904743700,4.57974365234375,-0.07874901892291997,-0.34162608517469745,-0.04907782921516541
1789141179914716700,4.589716552734375,-0.04617877565918319,-0.3059034739938506,0.008822816236269902
1789141179924688600,4.599688720703125,-0.03988333181502412,-0.2739672347232801,0.006326493743808729
1789141179934660600,4.60966064453125,-0.010250576623306733,-0.28475344027856336,0.0179325879922424
1789141179944632600,4.619632568359375,0.008658698639568996,-0.2641049796166238,0.02483682460687491
1789141179954605600,4.62960546875,-0.02219524234109422,-0.25749140599218445,0.08522280777763121
1789141179964577800,4.639577880859375,0.006478604091806968,-0.23673893111858246,0.0627821397521049
1789141179974549500,4.649549560546875,0.018775021744226357,-0.20100059079548774,0.043632905895409996
1789141179984521700,4.659521728515625,0.037575626673300985,-0.16506274203633864,0.05279497842210799
1789141179994493700,4.66949365234375,0.05381270699842292,-0.13653369176440447,-0.018628824696414966
1789141180004466400,4.679466552734375,0.10657101468703596,-0.11579564504153614,-0.05211464881765027
1789141180014438700,4.689438720703125,0.09623113871254754,-0.09966273256181736,-0.07522583305831222
1789141180024410600,4.69941064453125,0.12853764967478587,-0.10100277770663375,-0.017897091521050363
1789141180034382600,4.709382568359375,0.14012522908004332,-0.0992168729183241,0.00689995645050195
1789141180044354600,4.7193544921875,0.16158297531586868,-0.1338251957106419,0.07910731676874913
1789141180054327800,4.729327880859375,0.14678001130694673,-0.1433082715388702,0.09751611944271871
1789141180064299500,4.739299560546875,0.10972367189259372,-0.13858752715589862,0.10823069127406643
1789141180074271700,4.749271728515625,0.1032148910777885,-0.15633643193030405,0.1060416341204595
1789141180084243500,4.759243408203125,0.10464333359356148,-0.13231412715457536,0.07900157789024313
1789141180094215700,4.769215576171875,0.12166877166734748,-0.07666584816333172,0.031458521201839056
1789141180104188700,4.779188720703125,0.1344448385710217,-0.05226767614129952,0.07065711308800883
1789141180114160600,4.78916064453125,0.14713796593093742,-0.011383362975680555,0.04834813195411639
1789141180124132600,4.799132568359375,0.18344809455097372,0.019658449744357438,-0.007850509406907073
1789141180134104800,4.809104736328125,0.18435784383479373,0.06005867808222829,-0.03521994388586497
1789141180144076500,4.81907666015625,0.17304536737165552,0.0675051097893637,-0.03653406595886265
1789141180154049500,4.829049560546875,0.18940059660712916,0.07897324704965998,-0.07135449938586318
1789141180164021800,4.839021728515625,0.1846823014955369,0.08192694013279772,-0.05025097401792845
1789141180173993500,4.848993408203125,0.19215795272697567,0.07309252899089907,0.020610151808287847
1789141180183965700,4.858965576171875,0.19100603957423745,0.09344763457341343,-0.00455594952842133
1789141180193937400,4.8689375,0.1720048954526233,0.10989793773627674,0.0048891884536312255
1789141180203910400,4.878910400390625,0.15386758211285695,0.09490083861584449,0.014830955359245246
1789141180213882400,4.88888232421875,0.18617656957477005,0.08158834953231615,0.03151779111643245
1789141180223854300,4.898854248046875,0.15587957483982856,0.10319929535622248,-0.0017541892731437686
1789141180233826300,4.908826416015625,0.16926428222559556,0.09436912116103244,-0.011950855411535824
1789141180243799600,4.918799560546875,0.1809283172488501,0.09865381376977655,-0.0018980692456044908
1789141180253771300,4.928771240234375,0.21265445595949808,0.10266507890702821,0.011089508125007422
1789141180263743500,4.938743408203125,0.17983531063192645,0.10996637421670913,-0.013237736730345314
1789141180273715500,4.948715576171875,0.16834097171593002,0.08421242575098034,0.015086103767249741
1789141180283687400,4.9586875,0.10889054717355562,0.059309667728463675,0.030082784104661156
1789141180293660400,4.968660400390625,0.11592581956775966,0.030702338664761273,0.09036252255425425
1789141180303632400,4.97863232421875,0.10231494097776274,0.02047499680534094,0.04327452978660412
1789141180313604400,4.988604248046875,0.12885148042763064,-0.0010895731908813077,0.02459619028391669
1789141180323576600,4.99857666015625,0.08034420031759174,0.0187382487464898,0.016378441040780584
1789141180333548300,5.00854833984375,0.08274651154521992,0.008435797009297853,-0.005450019152540022
1789141180343521300,5.018521240234375,0.07786196282334791,0.0068035508907621466,0.014304548118005142
1789141180353493500,5.028493408203125,0.06300765018817686,0.026214085849060764,-0.0008171988175970975
1789141180363465200,5.03846533203125,0.06609777283644948,0.008522836033363809,0.042546637545552296
1789141180373437400,5.0484375,0.07657753926562587,0.03275610658134931,-0.0019306229728399509
1789141180383409400,5.058409423828125,0.09909799778902895,0.06662249946373013,0.036113461534971365
1789141180393382400,5.06838232421875,0.014189623560794118,0.05942255168096614,-0.0019430272800682442
1789141180403354400,5.078354248046875,0.05631970062947938,0.047686629528791165,0.019654045723024847
1789141180413326600,5.08832666015625,0.04211006867455415,0.08316238121692941,0.010921654602543239
1789141180423298300,5.09829833984375,0.048939642596684686,0.062103030468055286,-0.01211885917288994
1789141180433270500,5.1082705078125,0.049322651542742825,0.048909656884112106,-0.004301532222444598
1789141180443243500,5.118243408203125,0.02636045252749084,0.06493669609523618,-0.02471283707908402
1789141180453215500,5.128215576171875,0.007258992752775962,0.01989930140466625,-0.02679099848730928
1789141180463187500,5.1381875,-0.021035223100469323,-0.004953171319815712,0.0008371414118082811
1789141180473159400,5.148159423828125,-0.025673200488256664,-0.003160602476849566,0.02777967870350248
1789141180483132400,5.15813232421875,-0.019756395618284326,-0.024582970605578045,0.020484446871546262
1789141180493104400,5.1681044921875,-0.03594709990635761,-0.025376685013664184,0.0009793454695435128
1789141180503076400,5.178076416015625,-0.02298713026494135,-0.006392490544866466,-0.009202265827744279
1789141180513048300,5.18804833984375,-0.04303078198322984,-0.026998967084118385,0.013652791042872633
1789141180523020500,5.1980205078125,-0.03244005828873426,-0.04920736583915426,0.05584551318156407
1789141180532993300,5.2079931640625,0.00302004841420921,-0.005909595697529584,0.006204768081071941
1789141180542965500,5.217965576171875,0.017151272120460095,-0.012708709804629568,0.005160406101196526
1789141180552937500,5.2279375,0.02494819848709214,0.0024449643384986484,-0.05704766840675307
1789141180562909400,5.237909423828125,0.023366172827782326,0.018601827563103586,-0.06824904049016563
1789141180572881400,5.24788134765625,-0.006988374163434242,-0.011742268328902128,-0.04498609659711423
1789141180582854400,5.2578544921875,-0.011056144987884792,0.00775545061605502,-0.04935811311285251
1789141180592826400,5.267826416015625,0.05582025237179331,0.018699191230287942,-0.03291721401615033
1789141180602798300,5.27779833984375,0.06873578351307791,-0.0003036215233145388,0.030989685291331184
1789141180612770300,5.287770263671875,0.03764978687165909,-0.03322004954691757,0.03111850069948154
1789141180622742500,5.297742431640625,-0.018816369622740192,-0.08438168671031351,0.03157316718457385
1789141180632715500,5.307715576171875,-0.035770212714286924,-0.08640930370495423,-0.029221851036081808
1789141180642687200,5.317687255859375,-0.036162091470842,-0.09759217306297169,-0.03501360760006888
1789141180652659500,5.327659423828125,-0.04998504598758028,-0.055373076581057265,-0.059760321397199716
1789141180662631400,5.33763134765625,-0.009973865071969169,-0.043791562572730584,-0.03316497471293736
1789141180672603400,5.347603271484375,0.007229318321747765,-0.01867132978682931,-0.04928274137775211
1789141180682576400,5.357576416015625,0.02050797946451515,0.0103662048025372,-0.08657352378735225
1789141180692548600,5.367548583984375,0.03773756800853971,0.029218714698452594,-0.028454015163834737
1789141180702520300,5.377520263671875,0.005475797520534667,0.047286461091565916,-0.06896232824359111
1789141180712492500,5.387492431640625,-0.013486420740314177,0.040231782801153866,-0.03414088302173516
1789141180722464300,5.39746435546875,-0.04758302347887836,0.06919330555864835,-0.05702470739464339
1789141180732437200,5.407437255859375,-0.00924119837205442,0.0955084284463978,-0.02464593964267905
1789141180742409500,5.417409423828125,0.0179692055953757,0.19216136740067358,-0.038476580214801014
1789141180752381400,5.42738134765625,0.060713391849168796,0.19914102466363628,0.07823025964583381
1789141180762353400,5.437353515625,0.08858221115027806,0.1639738312775086,0.08503696666794967
1789141180772325600,5.44732568359375,0.08048410844278943,0.15287822206473659,0.0393313873262073
1789141180782298400,5.45729833984375,0.045731218348410936,0.1496549147328458,0.0020974596322096088
1789141180792270300,5.467270263671875,0.05483812597016838,0.1579961634495972,-0.035099881842495975
1789141180802242300,5.4772421875,0.04536968848085119,0.14758608011875438,-0.020023699142800142
1789141180812214300,5.48721435546875,0.026269817557177663,0.13033229385888298,-0.09674007870480182
1789141180822187500,5.4971875,0.04558717826787859,0.1098552553189641,-0.026384876772238892
1789141180832159200,5.5071591796875,0.06006470069841148,0.10492716233942502,0.04151742234113866
1789141180842131500,5.51713134765625,0.08143619090287779,0.07703953365611803,0.03720214460478269
1789141180852103400,5.527103515625,0.05500641010233773,0.03703440002087814,0.04350156263961162
1789141180862075400,5.537075439453125,0.034286891891081445,-0.018646842985282335,0.03401705025314592
1789141180872048400,5.54704833984375,0.00856764810980939,-0.050239410417144595,0.024303942295006837
1789141180882020400,5.557020263671875,-0.008250938306883733,-0.09159929056677485,0.05929525325280367
1789141180891992300,5.566992431640625,-0.002414223188368708,-0.09360083925473112,-0.022326458024956055
1789141180901964500,5.576964599609375,0.032001311298881834,-0.0863999733168429,-0.027540186300461157
1789141180911936300,5.586936279296875,0.043355747724785794,-0.0823191360789054,0.014108546852213955
1789141180921909200,5.5969091796875,0.02210945381706386,-0.093737870575666,-0.012354180998700191
1789141180931881500,5.606881591796875,0.021526914371606785,-0.08884305725968543,-0.01374174610526705
1789141180941853200,5.616853271484375,-2.633785255136706e-05,-0.08864586994582041,-0.018782868481579076
1789141180951825400,5.626825439453125,0.027235462160414184,-0.08539401714925869,-0.027819249353011503
1789141180961797400,5.63679736328125,-0.0032243067523782458,-0.08819110530516756,-0.017256610679525577
1789141180971770400,5.646770263671875,-0.007438958813143528,-0.09153244051324724,0.021335225347712206
1789141180981742300,5.656742431640625,-0.023189760913760266,-0.08240854513356818,-0.004642656593856846
1789141180991714600,5.666714599609375,0.004032588414218656,-0.07332927329493047,0.020757325166116468
1789141181001686300,5.676686279296875,0.02059299545764045,-0.036544373029628784,0.009960875311045309
1789141181011658500,5.686658447265625,0.0697260436744756,-0.0058936946074964166,0.0009933624916970082
1789141181021631500,5.696631591796875,0.017613924724984024,-0.020418603602956366,0.029998367699840288
1789141181031603500,5.706603515625,0.03260025459178623,0.006335274400328743,-0.012875974940543758
1789141181041575400,5.716575439453125,0.02743868239206602,0.03321960170219403,-0.013127156578457604
1789141181051547400,5.72654736328125,0.02604056726796388,0.04179485703576756,0.03538163320103915
1789141181061519400,5.736519287109375,0.019026488449963172,0.04181773134755838,0.03815764925758574
1789141181071492400,5.746492431640625,0.048344207967204476,0.05573770047656415,-0.015600680806846713
1789141181081464300,5.75646435546875,0.058274387633467255,0.05364544493430697,0.005058065297648484
1789141181091436300,5.766436279296875,0.05557829977321138,0.06715592156708164,-0.026389640319065967
1789141181101408500,5.776408447265625,0.05402672816073556,0.04924564542007788,-0.04049464465948981
1789141181111380200,5.786380126953125,0.04157227797519923,0.023424169847282482,-0.03974817636938232
1789141181121353500,5.796353515625,0.03895890695279594,0.024778404663146996,-0.04751895166872514
1789141181131325400,5.806325439453125,0.0436116325868281,0.03121221170017779,-0.05629575055141352
1789141181141297400,5.81629736328125,0.06316743642020888,0.02673931658611956,0.009724325847665404
1789141181151269400,5.826269287109375,0.06385476876902514,0.02203983191293312,0.04687846229520224
1789141181161241300,5.836241455078125,0.05837042837289615,0.002237543203118506,0.0505178696208934
1789141181171214300,5.84621435546875,0.0614314209501327,-0.01610432942009493,0.0579862108954529
1789141181181186600,5.8561865234375,0.05721857689649106,-0.030867689128806504,0.0627141425481092
1789141181191158300,5.866158203125,0.04565046079744852,-0.03590555055769867,-0.0006481153242330471
1789141181201130000,5.8761298828125,0.03647857108652727,-0.06718643625245484,-0.0029480718061420078
1789141181211102000,5.88610205078125,0.016856694097856378,-0.04807170614948767,-0.03860027495505714
1789141181221075000,5.896074951171875,0.02273224213266835,-0.06706360352311767,-0.06220702489083887
1789141181231047000,5.906046875,0.04616357137690103,-0.0851604191947832,-0.030754620856373087
1789141181241019100,5.91601904296875,0.050156055261821514,-0.056542186530716486,-0.008909498041760644
1789141181250990800,5.925990966796875,0.07412207205017696,-0.037204672147555004,-0.028138544615404125
1789141181260963800,5.9359638671875,0.06210161299198564,-0.05954797823812386,0.03171121172156464
1789141181270936000,5.94593603515625,0.07070174464245431,-0.07218266663334313,0.046023353773920146
1789141181280907800,5.95590771484375,0.03244151705280601,-0.055506501069362085,0.02932995953417708
1789141181290880000,5.9658798828125,0.012903205256302673,-0.06364108173018514,0.0042561763981858085
1789141181300851700,5.975851806640625,0.05173555149150882,-0.06025417008569756,0.021532627653193553
1789141181310825000,5.985824951171875,0.052012109769563886,-0.02207513457773404,0.01626130503123518
1789141181320797000,5.995796875,0.06687179923614765,-0.016364072138674024,-0.02255160012159586
1789141181330769000,6.005768798828125,0.04475176702283041,-0.006925076138003852,-0.018980022779491897
1789141181340740900,6.015740966796875,0.03356084873718204,-0.029299180870782513,-0.016111813946302594
1789141181350713000,6.025713134765625,0.0694855003380938,-0.02946478013904354,-0.015394466579822307
1789141181360685800,6.035685791015625,0.07961787030206696,-0.006871628810605573,-0.0032193088912580293
1789141181370658000,6.045657958984375,0.059776244706195886,-0.026181793580958315,-0.009041946689003653
1789141181380630000,6.055630126953125,0.06030061725711903,-0.058857764769922216,0.047319345898784115
1789141181390602000,6.06560205078125,0.02691729020350516,-0.03708969815953574,0.018224398368155773
1789141181400574000,6.075573974609375,0.027545402755004993,-0.05873289451976387,0.04009665181136589
1789141181410546700,6.085546630859375,0.029866385148427026,-0.04475293599845344,-0.01625861340160503
1789141181420519000,6.095518798828125,0.021465046892554285,-0.05207796097467877,-0.03171894736638695
1789141181430491000,6.105490966796875,0.04771705012456797,-0.020010503734481776,-0.027575010624563006
1789141181440462800,6.115462890625,0.06631303031814716,0.00459219392937192,-0.016954769339567157
1789141181450434800,6.125434814453125,0.06199825153495519,0.0018736869523274546,-0.046510735842203825
1789141181460408000,6.135407958984375,0.11599513407379336,0.013083283743153588,-0.04192741463356469
1789141181470379800,6.1453798828125,0.08845832600031642,0.06653933157549302,-0.009598361314464978
1789141181480352000,6.15535205078125,0.0739475354298283,0.06093805840409713,-0.023226844003388498
1789141181490323700,6.16532373046875,0.08322250498366969,0.04773088974758433,-0.00985968201198527
1789141181500296000,6.1752958984375,0.050072604729836545,0.09217757652752008,0.006046108014144277
1789141181510269000,6.18526904296875,0.050526317020814414,0.10032318750014635,-0.018720430507806293
1789141181520241000,6.195240966796875,0.08095476951080337,0.10249250090076585,-0.00819544507943658
1789141181530212900,6.205212890625,0.05813671729623128,0.12488498930395905,-0.015781780433977276
1789141181540185000,6.21518505859375,0.09673555072297367,0.1510989401212848,-0.04736073427205539
1789141181550156800,6.22515673828125,0.11828182531509501,0.15945390525363395,0.017683166299873182
1789141181560129800,6.2351298828125,0.10191295414639755,0.19081152064883466,0.004141542694727648
1789141181570102000,6.24510205078125,0.11490387557596662,0.18810885177552453,0.020589685154970984
1789141181580073700,6.25507373046875,0.10435541154841484,0.18742874187240793,0.05767125192652003
1789141181590046000,6.2650458984375,0.1262405380570093,0.19942327765846984,0.04149057110698099
1789141181600017700,6.275017578125,0.11580605636615188,0.22495510980958888,-0.0015573870408585964
1789141181609991000,6.284990966796875,0.07331174627070888,0.21527834023967127,0.02717025637242388
1789141181619963000,6.294962890625,0.07297573092705038,0.23878293056279648,-0.013968862336607418
1789141181629934800,6.304934814453125,0.06447147756572295,0.26989614421634134,-0.06689221835351072
1789141181639906800,6.31490673828125,0.08685745631245434,0.2496241716025621,-0.021799418043583124
1789141181649879000,6.324879150390625,0.09278476653245181,0.3172832092565661,-0.017614952846289993
1789141181659851800,6.334851806640625,0.10807487424211404,0.33761418502567586,-0.019013928182149527
1789141181669824000,6.344823974609375,0.10385946610768568,0.31902697444408695,0.007321371873776247
1789141181679796000,6.3547958984375,0.10034094782699393,0.31958554425036384,0.024541521928897737
1789141181689768000,6.364767822265625,0.09257260415924827,0.30176114235095125,0.047429320136487145
1789141181699741000,6.374740966796875,0.0797698813027351,0.30177998030862885,-0.007109026532554946
1789141181709713000,6.384712890625,0.0894600112235766,0.28597497487105955,-0.03258783147520299
1789141181719684900,6.394684814453125,0.0759411014448894,0.28005541490861874,-0.04692377200962488
1789141181729656800,6.40465673828125,0.06599173611840918,0.23926420864097117,-0.035658810329903715
1789141181739628800,6.41462890625,0.07177255330695533,0.24015003126966455,-0.059613972446177624
1789141181749601800,6.424601806640625,0.060017286267946335,0.2397657876408961,-0.07013945264193529
1789141181759574000,6.434573974609375,0.06285005412611491,0.2150277795130185,-0.0195486853072441
1789141181769545700,6.444545654296875,0.07668043198027005,0.2116815259170323,0.01172063091677432
1789141181779518000,6.45451806640625,0.07223172131773557,0.23388579175861737,0.0019430389294397435
1789141181789490000,6.464489990234375,0.03750902847463518,0.19969822534961226,0.05431075791101175
1789141181799463000,6.474462890625,0.015217582462933718,0.1915708618817826,0.08043245543680469
1789141181809435000,6.484434814453125,0.01731969025383346,0.19939316412991046,0.07454241286905167
1789141181819407000,6.494406982421875,0.018700828129600822,0.2161544518458967,0.04740389646563116
1789141181829378800,6.50437890625,0.046624014185081136,0.20866391660428812,0.04798627566804157
1789141181839351000,6.51435107421875,0.031292243061603,0.21286574212183662,0.030010327186415046
1789141181849324000,6.524323974609375,0.04970082787502279,0.20396191465285052,0.023828653720051152
1789141181859295700,6.534295654296875,0.02573287854899878,0.24230581692442202,-0.017136080639166634
1789141181869268000,6.54426806640625,0.017899451193327382,0.23471895051971167,0.0012866678454760258
1789141181879239700,6.55423974609375,-0.0007770227073327655,0.22522591730076574,0.02252955625310159
1789141181889212000,6.5642119140625,-0.0017503063735991899,0.2373531609820178,0.029667469898591012
1789141181899185000,6.574184814453125,-0.03369295216189718,0.2488309922469872,0.024081908985617816
1789141181909156900,6.584156982421875,-0.01718498226522664,0.24228098023925163,0.025030693096140207
1789141181919128800,6.59412890625,-0.023652060547518353,0.2519757800388878,0.028753793885371193
1789141181929101000,6.60410107421875,-0.0054191640402779925,0.25756818500467127,0.04954434343567779
1789141181939072800,6.61407275390625,0.0024877720178488254,0.24414420059617575,0.027489573405114976
1789141181949046000,6.6240458984375,-0.0008927323693950381,0.2392474897555878,0.009636163044384421
1789141181959018000,6.63401806640625,-0.004241429657372995,0.23872535506670817,0.009874950499062354
1789141181968990000,6.643989990234375,-0.019994885123925308,0.23362188593428804,0.03748839050847565
1789141181978962000,6.6539619140625,-0.06477088491800582,0.21659209093049067,-0.0025493372314945462
1789141181988934000,6.663933837890625,-0.08232383367783336,0.17553492422663383,0.016552485073528845
1789141181998907000,6.673906982421875,-0.08162857406010954,0.16645008344436368,0.03673755782861512
1789141182008878800,6.68387890625,-0.07558228496006626,0.16077102950443936,0.038969501768941275
1789141182018850800,6.693850830078125,-0.06536965603092233,0.14181608126906145,0.03236424443864579
1789141182028822800,6.70382275390625,-0.07155761932722149,0.09880300957838911,0.05158860837914311
1789141182038795000,6.713794921875,-0.06720879635508323,0.0816975539104221,0.050962504117422064
1789141182048767700,6.723767822265625,-0.10460345093010152,0.09300693690777835,0.01896148624996234
1789141182058740000,6.733739990234375,-0.10062669324991079,0.05983505321180486,0.04666035292680917
1789141182068712000,6.7437119140625,-0.10354105576521574,0.046125664222658146,0.06049743755821618
1789141182078684000,6.753683837890625,-0.10041108925466123,0.07204593262005254,0.035593320249655384
1789141182088656000,6.76365576171875,-0.10672924069521919,0.046173857217590444,0.01733120960351543
1789141182098629000,6.773629150390625,-0.11880105548071934,-0.0002861844604492275,0.03030331510512442
1789141182108600800,6.783600830078125,-0.17745398703871076,0.014337914250550405,-0.022194852867616865
1789141182118573000,6.793572998046875,-0.12180868717923916,-0.003338424505507362,-0.013467144116487693
1789141182128544800,6.803544677734375,-0.1264417939762548,-0.014549793169699508,0.03346216186947404
1789141182138517000,6.81351708984375,-0.11947174597296839,0.013461961737834264,0.008174920292915921
1789141182148490000,6.823489990234375,-0.13818894768428114,0.017622229125636626,0.02942002359605519
1789141182158461700,6.833461669921875,-0.14889955182697398,-0.013719070152861064,0.0574800398640877
1789141182168434000,6.843433837890625,-0.16833687928871705,-0.019701033433559226,0.06749339912204957
1789141182178406000,6.853406005859375,-0.1691268882141592,0.00802633542210795,0.023326623974375366
1789141182188377900,6.8633779296875,-0.13279654682073638,0.004389547096952948,0.023977246099171873
1789141182198351400,6.873351318359375,-0.1280446278435519,0.029092368897299083,-0.007424487198081909
1789141182208323600,6.883323486328125,-0.1265127739268212,0.02426123833814835,-0.026236896616833247
1789141182218295300,6.89329541015625,-0.13082985150994383,0.02024477588637324,-0.027361653899305834
1789141182228267500,6.903267578125,-0.13809741809192785,0.01540897498111781,-0.01698667917826736
1789141182238239500,6.913239501953125,-0.1378833292875148,0.016853139780648868,-0.030005029393936143
1789141182248212200,6.923212158203125,-0.16401063606614352,-0.011901201046433616,-0.02979223419366364
1789141182258184400,6.933184326171875,-0.1583365154123981,-0.039340254245754026,-0.027962562264133045
1789141182268156400,6.943156494140625,-0.1711322454446073,-0.048790259403477185,-0.020590612698353685
1789141182278128400,6.95312841796875,-0.15903463433579318,-0.07129569825856111,-0.01658318744880385
1789141182288101400,6.963101318359375,-0.16126194719870574,-0.08445164755896792,0.028443182522167834
1789141182298073600,6.973073486328125,-0.17787677591391052,-0.08296015765072812,0.01959606261777798
1789141182308045300,6.98304541015625,-0.16697721806616822,-0.10507093319118793,-0.02010055358989221
1789141182318017500,6.993017578125,-0.1744579323743326,-0.11937292495981981,-0.016589673716122723
1789141182327989200,7.0029892578125,-0.18137090180248025,-0.13865243838675623,-0.01789576061831955
1789141182337962500,7.01296240234375,-0.18708691187693577,-0.1413037992673858,0.004648911233820267
1789141182347934500,7.0229345703125,-0.18444778796670347,-0.168033920480155,0.027005186950914844
1789141182357906400,7.032906494140625,-0.16613353271058057,-0.18484937275313404,0.05000445060863642
1789141182367878400,7.04287841796875,-0.18466492992772351,-0.1766081935493262,0.052005990614111694
1789141182377850600,7.0528505859375,-0.17094846462046298,-0.19320338663199751,0.07228407410529986
1789141182387823400,7.0628232421875,-0.1907183320984051,-0.21055939511103045,0.030277991922498804
1789141182397795300,7.07279541015625,-0.16634829924658148,-0.21520284422842434,0.00864830938879884
1789141182407767600,7.082767578125,-0.18616278561966468,-0.21337757565857882,-0.0153573400204374
1789141182417739300,7.0927392578125,-0.14909090719895704,-0.20336899312012915,-0.047079408990561705
1789141182427711500,7.10271142578125,-0.1470867669124372,-0.20787853101890713,-0.05837505329897038
1789141182437684500,7.1126845703125,-0.16474949859577506,-0.23154310388531393,0.0038541336618680947
1789141182447656400,7.122656494140625,-0.16192266586616774,-0.20415436384413616,-0.015607017429220923
1789141182457628400,7.13262841796875,-0.15519896275314154,-0.22802332990523808,0.004533909707765619
1789141182467600400,7.142600341796875,-0.16798666480735563,-0.2162802605760698,-0.002923375918945968
1789141182477572400,7.152572265625,-0.15415795066067306,-0.24988799975338344,0.04600005476502734
1789141182487545600,7.162545654296875,-0.1581166496342219,-0.24907304255334423,0.04032450553354194
1789141182497517300,7.172517333984375,-0.14357401952857232,-0.20082227637885164,0.00557948576359844
1789141182507489500,7.182489501953125,-0.1429771022381496,-0.22599328832215174,0.021459013994075637
1789141182517461500,7.19246142578125,-0.13032002890632363,-0.2489069603686205,0.019035068240926455
1789141182527433500,7.20243359375,-0.1325752683168315,-0.2262052276839785,-0.010782247094852484
1789141182537406500,7.212406494140625,-0.15967381541573053,-0.22453414681169523,-0.014970922253721382
1789141182547378400,7.22237841796875,-0.11165449133009689,-0.21654103542160358,-0.023973307023407057
1789141182557350400,7.232350341796875,-0.10811589935945048,-0.226202456035226,-0.02117144380372281
1789141182567322400,7.242322265625,-0.09789305431361743,-0.21800426590491023,-0.032700419466161576
1789141182577294300,7.25229443359375,-0.1381649032652503,-0.20856843614930198,-0.007859275265931493
1789141182587267300,7.262267333984375,-0.09916886367033444,-0.20101161587621813,0.012424149740578058
1789141182597239600,7.272239501953125,-0.10283511059568355,-0.2102420937048967,0.042285196356615734
1789141182607211300,7.282211181640625,-0.1172360328392592,-0.2295620639368331,0.05917682588327635
1789141182617183500,7.29218359375,-0.08002778751734844,-0.23420520095621217,0.05072786277738929
1789141182627155500,7.302155517578125,-0.1001707152701388,-0.23308044274800493,0.0447279790632477
1789141182637128400,7.31212841796875,-0.035460494734051544,-0.1919392083495799,0.03047217324967991
1789141182647100400,7.322100341796875,-0.06359136400712782,-0.20010547074553645,0.004118570224699548
1789141182657072600,7.33207275390625,-0.026853627315543842,-0.19312291446237034,0.0005598200272707133
1789141182667044400,7.34204443359375,-0.07144815763862415,-0.1740280014911461,0.0026995510149912983
1789141182677016600,7.3520166015625,-0.04108765496868346,-0.16613416806063172,0.0009510518045148799
1789141182686989600,7.361989501953125,-0.07120378793282553,-0.16467748261835344,0.006515741543588436
1789141182696961300,7.371961181640625,-0.006894600303754743,-0.13459297353016328,0.00804288472272078
1789141182706933500,7.38193359375,-0.009290873445604857,-0.09083622546297643,-0.019374496745211446
1789141182716905500,7.391905517578125,-0.014907928703738183,-0.13172016128559502,-0.004459488744459037
1789141182726878500,7.40187841796875,-0.005422970118308609,-0.1291685955786555,0.009722037102132241
1789141182736850400,7.411850341796875,-0.0025090194774878777,-0.12740917407095606,0.024032739427402767
1789141182746822400,7.421822509765625,0.02852905353697821,-0.11854865006915193,0.033205040670465674
1789141182756794400,7.43179443359375,0.04200694153301427,-0.10397266748330723,0.00018569946021087153
1789141182766766600,7.4417666015625,0.04153630453523318,-0.08954513797713651,-0.008177150745247459
1789141182776738300,7.45173828125,-0.014301575053775556,-0.08349679005451789,-0.006577021929533307
1789141182786711600,7.461711669921875,0.001708934299323339,-0.10855614835174555,0.0007065092951621804
1789141182796683500,7.47168359375,0.02841150622467364,-0.060770226198161505,-0.04182940262458712
1789141182806655500,7.481655517578125,0.04421432279651556,-0.029108065970635456,-0.028165564308435212
1789141182816627500,7.49162744140625,0.04330614145327315,-0.011877597840020444,-0.03947486550006511
1789141182826600400,7.501600341796875,0.04638865447793808,-0.01278205186035495,-0.010620404610415253
1789141182836572400,7.511572509765625,0.04620870561671867,0.031617905443314394,-0.014678643688460058
1789141182846544400,7.52154443359375,0.05456519449398659,0.015922892695058154,0.05298701917723854
1789141182856516400,7.531516357421875,0.07538268504863244,0.0654903917182402,0.01048039703725222
1789141182866488600,7.541488525390625,0.04785636015918973,0.059462192366217394,0.008899895367097342
1789141182876461600,7.551461669921875,0.06295063323802363,0.04756019053981674,0.02604642950609295
1789141182886433300,7.561433349609375,0.0633806686688043,0.07890910262077651,-0.015644653511668407
1789141182896405500,7.571405517578125,0.054321816574088175,0.09992425406857168,-0.023350918112273276
1789141182906377500,7.58137744140625,0.0728651464236258,0.08219416757521844,-0.016384922736561138
1789141182916349400,7.591349365234375,0.07560637408597762,0.06961178588502731,-0.01577364486837594
1789141182926322400,7.601322509765625,0.054594618498705685,0.03795389778494755,0.02025105790368717
1789141182936294700,7.611294677734375,0.06011013730066766,0.0001982274378454227,0.019251049227710936
1789141182946266400,7.621266357421875,0.027973386749674558,-0.012762040765515535,-0.00466275763518492
1789141182956238600,7.631238525390625,-0.011714514456568102,-0.05083457998947688,0.02754256071563982
1789141182966210300,7.641210205078125,-0.008301197001066052,-0.08201448514243305,0.05757788020760634
1789141182976183300,7.651183349609375,-0.006162747390518983,-0.0663398538633293,0.04007562977007561
1789141182986155500,7.661155517578125,-0.0119707609162649,-0.04523178441891762,0.009150723719004801
1789141182996127500,7.67112744140625,-0.01952802122304871,-0.069493563944638,-0.011400601100437672
1789141183006099500,7.681099365234375,-0.00968574270209411,-0.06852027044251918,0.0015805787645230044
1789141183016071700,7.69107177734375,-0.029183493465348924,-0.05999093635292586,-0.008390914699691129
1789141183026044400,7.70104443359375,-0.029230853285161822,-0.05880439350078845,-0.062095741921873476
1789141183036016400,7.711016357421875,-0.007094363498327451,-0.05339516260113991,-0.04849482104407217
1789141183045988400,7.72098828125,-0.007061339618806512,-0.04456385132081848,-0.008412747480354029
1789141183055960300,7.730960205078125,0.007485159009344577,-0.028994035880589224,0.000701557016866805
1789141183065932500,7.7409326171875,0.008923026896670322,-0.038613802666845116,0.014167460731106868
1789141183075905300,7.7509052734375,-0.0014476222371113808,-0.04940556475593004,0.020001231823288005
1789141183085877500,7.76087744140625,-0.016802207036228957,-0.04474226446693269,0.009046899543552903
1789141183095849500,7.770849365234375,-0.04225522205856809,-0.041344192417851366,0.03331340157046949
1789141183105821400,7.780821533203125,-0.05040658801587019,-0.04871983925408493,0.012676875744740764
1789141183115793400,7.79079345703125,-0.025484404053225766,-0.03880731716191852,0.02566958929328184
1789141183125766400,7.800766357421875,-0.024520785426911586,-0.036023095904710346,0.03192019142913492
1789141183135738400,7.81073828125,0.005622463430945348,-0.04546190861446789,0.0037699680499422073
1789141183145710600,7.820710693359375,-0.02668244926320679,-0.0935585159755551,0.03026551595146443
1789141183155682300,7.830682373046875,-0.04150940719612904,-0.10588729172448894,0.056867295467420954
1789141183165654500,7.840654541015625,-0.03156696564303141,-0.10533911513445131,-0.03002030494425359
1789141183175627500,7.85062744140625,-0.04020125569105451,-0.13446671576915403,-0.003354173216051384
1789141183185599200,7.86059912109375,-0.05016658664701883,-0.1244693288694537,-0.04312950437393264
1789141183195571500,7.870571533203125,-0.054265465564339595,-0.14445307445170016,-0.07374802407401533
1789141183205543200,7.880543212890625,-0.06887347234438995,-0.17003581953963728,-0.04455287176377662
1789141183215515400,7.890515380859375,-0.06009092728378466,-0.13016303865424506,-0.029474273187230685
1789141183225488400,7.90048828125,-0.020030000561776985,-0.10194197709250356,-0.019036169628639323
1789141183235460400,7.91046044921875,0.013167455189423343,-0.10543017231525076,-0.007469532551063454
1789141183245432300,7.920432373046875,-0.010385162341068649,-0.09539848163384741,0.02094848202582885
1789141183255404300,7.930404296875,-0.008382519348280607,-0.10048610695371755,0.022796184388087844
1789141183265376300,7.940376220703125,-0.03289812354021655,-0.11929271588209353,0.04534376878325863
1789141183275349500,7.950349609375,-0.014015777634740073,-0.10551315453247606,0.010817903046300282
1789141183285321200,7.9603212890625,0.026904201910763037,-0.07868066726677457,0.010633949077853965
1789141183295293400,7.97029345703125,0.0247932949313379,-0.06525726351738884,-0.024802435700802577
1789141183305265400,7.980265380859375,0.028571462371077834,-0.06862014410239002,-0.01635155292866483
1789141183315238100,7.990238037109375,0.038068367706921756,-0.05619695880252814,-0.04057718314316768
1789141183325210400,8.00021044921875,0.060224224217611026,-0.06282890663204954,-0.03624695428363618
1789141183335182300,8.010182373046876,0.057322642481172435,-0.0684744966962095,-0.021443257097084806
1789141183345154300,8.020154296875,0.04506286507417,-0.08784021720650419,-0.02154651890099914
1789141183355126300,8.030126220703124,0.08943364047706474,-0.09320970564765024,-0.007037545235163085
1789141183365099500,8.040099609375,0.08448448772031554,-0.09127934228849235,0.0006578395268905345
1789141183375071200,8.0500712890625,0.049253725085091585,-0.1354677546056683,0.001205875792360784
1789141183385043500,8.06004345703125,0.05882866348091336,-0.1446710415269424,-0.02091596301349719
1789141183395015200,8.07001513671875,0.02232354466310551,-0.1421493910746663,-0.01910194062524216
1789141183404987400,8.0799873046875,0.05814677300601774,-0.12120275475500608,-0.007013237738932999
1789141183414960400,8.08996044921875,0.06532849956608554,-0.12204480794397743,-0.009096724432288105
1789141183424932400,8.099932373046874,0.07813911667979463,-0.10482654583125761,-0.01844109905526466
1789141183434904300,8.109904296875,0.11778672203833296,-0.07873758717264887,-0.025033365551577872
1789141183444876500,8.11987646484375,0.13062946940643805,-0.06443012896468311,-0.017258248930476762
1789141183454848300,8.12984814453125,0.09974591003642372,-0.08133174338532541,0.03035471294498608
1789141183464821200,8.1398212890625,0.12030534489936462,-0.07258720532512299,-0.0018712672268149583
1789141183474793200,8.149793212890625,0.0864545866502912,-0.06496193887037359,-0.019107303024259625
1789141183484765200,8.15976513671875,0.09501734531463948,-0.047605002250526274,-0.0033072293348088487
1789141183494737400,8.1697373046875,0.06741447555043106,-0.04466816496591862,0.028444422889347676
1789141183504709000,8.179709228515625,0.12452260901473731,-0.009931408483244256,-0.012295029403195868
1789141183514682400,8.189682373046875,0.1265842381330861,0.004765712119462356,-0.03677788452114217
1789141183524654300,8.199654296875,0.15912160490471752,0.019025345611770304,-0.008361445029019773
1789141183534626300,8.209626220703125,0.11435846890203628,0.003148701747571034,0.006069108049397148
1789141183544598300,8.219598388671875,0.09752962703344151,0.025412731211413173,-0.04052631406900227
1789141183554570200,8.2295703125,0.09017692232722255,0.004090409608100338,0.021323849407073985
1789141183564543200,8.239543212890625,0.10733344393645727,0.024440031455649082,0.0472706494754721
1789141183574515500,8.249515380859375,0.13226473195028696,0.046222427262843924,0.02828450682979356
1789141183584487200,8.259487060546874,0.11008665003481082,0.013174457948150907,0.05437238580132557
1789141183594459400,8.26945947265625,0.11738865999671835,-0.006841434631655341,0.05726253555744034
1789141183604431400,8.279431396484375,0.07393620645570964,-0.01009535569569554,0.008022806402722602
1789141183614404000,8.289404052734374,0.04295886126128275,-0.027249572321582222,0.0026446814932483656
1789141183624376300,8.299376220703126,0.09462025278327041,-0.014492952975240657,-0.034147458100868305
1789141183634348300,8.309348388671875,0.09891483096218955,-0.001994402849382397,-0.03022540668926434
1789141183644320300,8.3193203125,0.083270449588249,-0.005728193886112915,-0.024036572191573447
1789141183654292200,8.329292236328126,0.09036806262078484,-0.007384925454943867,0.0005863322000151407
1789141183664265500,8.339265380859375,0.06774666335175222,0.0029593854445041645,-0.010711195418018928
1789141183674237200,8.3492373046875,0.0638369498748445,-0.0033639658433158703,0.015840687424459307
1789141183684209400,8.35920947265625,0.044666306712785785,-0.010021563926445305,-0.02725826377869164
1789141183694181000,8.36918115234375,0.051966759696299145,-0.036323442624379795,-0.0539339666183174
1789141183704153300,8.3791533203125,0.03721631229311023,-0.026392059218080317,-0.05208713409690038
1789141183714126300,8.389126220703124,0.0724761498110644,0.00601659875956647,-0.02914190265585734
1789141183724098300,8.399098388671876,0.07199247459520705,0.0016702605358760243,-0.010774972680129146
1789141183734070300,8.4090703125,0.08907258343244784,-0.002467942171678481,0.0035853560448265947
1789141183744042500,8.41904248046875,0.054569082932527026,0.01567081682634691,-0.01587770885330034
1789141183754014200,8.42901416015625,0.067802867797297,-0.0011050263897134822,0.019702743298046912
1789141183763987200,8.4389873046875,0.04317692665138678,-0.020667384596351434,0.003725549327899963
1789141183773959400,8.44895947265625,0.021487963170150653,-0.015440542269402537,0.011856007306404043
1789141183783931100,8.45893115234375,0.020659943666355415,0.010025601593018622,-0.007604942331315363
1789141183793903400,8.4689033203125,0.016257135126176818,0.022610782052847677,-0.023604315672213265
1789141183803875300,8.478875244140625,0.023940840391624533,0.030292454292200403,0.014876658142263965
1789141183813848300,8.488848388671874,0.028478090916262595,0.056302502365347444,-0.0015022305194241036
1789141183823820300,8.4988203125,0.06785710950201299,0.04887268368156722,-0.018766438399787224
1789141183833792300,8.508792236328125,0.07098610918314573,0.07764548971500457,-0.019032209804158873
1789141183843764200,8.51876416015625,0.054920969900851456,0.07209551018760546,0.007939243949533594
1789141183853736400,8.528736328125,0.052598577619645946,0.06561164618583555,-0.011007189618187134
1789141183863709200,8.538709228515625,0.03902672558174604,0.0821455480952765,-0.04911205409302188
1789141183873681400,8.548681396484374,0.009724441509723344,0.08128669765269911,-0.04932306565172648
1789141183883653400,8.5586533203125,0.0020330112950013206,0.07903843125968055,-0.023056917167048524
1789141183893625300,8.568625244140625,0.03147726593525299,0.08700878303581715,-0.00621942212101811
1789141183903597300,8.578597412109374,0.04322505910485368,0.08514817165369437,0.015192981377170088
1789141183913570300,8.5885703125,0.05990879275075558,0.08388821291159915,0.03271691071276462
1789141183923542300,8.598542236328125,0.06400656446148999,0.05432660835458081,0.06425233712367501
1789141183933514200,8.60851416015625,0.03381640689441878,0.03809609688121804,0.06936934715831723
1789141183943486200,8.618486328125,-0.009809208165831829,0.024404873285881003,0.04168529228197976
1789141183953459200,8.628459228515625,-0.030264248360588806,0.008569115987398757,0.01248983850075535
1789141183963431400,8.638431396484375,-0.030430207853488298,0.024972394637504024,-0.048573328511576926
1789141183973403100,8.648403076171874,-0.01735243574709119,0.04753108111908421,-0.07890488223700291
1789141183983375400,8.658375244140625,0.017766089569630158,0.06752569441136205,-0.08899276581729242
1789141183993347300,8.668347412109375,0.016574786081711205,0.0682813094783936,-0.0903326238825678
1789141184003320300,8.6783203125,-0.0015253854541328804,0.04550359751472291,-0.04785961517440432
1789141184013292300,8.688292236328126,0.033481092600432014,0.0468280426924922,0.03294419618012446
1789141184023264500,8.698264404296875,0.021322930101657325,0.05674254497709982,0.040488066447213034
1789141184033236200,8.708236328125,0.012113691668035428,0.03631009113809634,0.04187351275803407
1789141184043208400,8.71820849609375,-0.03130742752083946,-0.024847132956281416,0.05773960231965901
1789141184053181400,8.728181396484375,-0.055709818410361045,-0.07436773072820073,0.04803421552309311
1789141184063153200,8.738153076171875,-0.0786734878008097,-0.06887383376837956,-0.01816753537619068
1789141184073125400,8.74812548828125,-0.09490223785944356,-0.09721601959738894,-0.0051911191648960995
1789141184083097300,8.758097412109375,-0.016413028218623657,-0.07255464416212178,-0.006679405268167936
1789141184093069300,8.7680693359375,0.025585373894140655,-0.022207914510534395,-0.01900361146105814
1789141184103042300,8.778042236328124,0.01885195550721679,-0.03065930877539641,-0.01069624192537163
1789141184113014300,8.78801416015625,0.023643494373031225,-0.07507837849821854,0.010370924786864194
1789141184122986200,8.797986328125,-0.008988937236729902,-0.08731312892766507,-0.011482918313938762
1789141184132958500,8.80795849609375,-0.028160158624284816,-0.10383038755731741,0.012148232086286492
1789141184142930200,8.81793017578125,-0.04857286035117934,-0.12373083395002608,-0.030134507773531456
1789141184152903400,8.8279033203125,-0.030836426519220434,-0.12097077799321261,-0.021608249988941255
1789141184162875400,8.83787548828125,-0.014610249076140096,-0.09314919644740573,-0.004207739239937032
1789141184172847400,8.847847412109376,-0.009640588415925754,-0.08446117890432925,0.0036090416267149338
1789141184182819300,8.8578193359375,-0.004719380918101482,-0.0787685342971528,0.015766479239045558
1789141184192791300,8.867791259765625,0.009520866253298132,-0.06611673977230803,0.04331357487141659
1789141184202765000,8.87776513671875,0.030083727921021198,-0.07095948489378379,-0.0207804982959627
1789141184212736800,8.88773681640625,-0.00019381807104700563,-0.08265012362079614,0.03960808742294207
1789141184222709000,8.897708984375,0.0030164271810398384,-0.04061876909412515,0.013423091245631293
1789141184232681000,8.907680908203124,0.02985050765093367,-0.01845457114142991,0.006501514077576287
1789141184242653000,8.91765283203125,0.04653119634567783,0.029792282591396494,0.07075662921368858
1789141184252626000,8.9276259765625,0.04114099124285166,0.05507300583803138,0.06494048968747408
1789141184262598100,8.93759814453125,0.04664964553609914,0.07632654037378911,-0.015162606688552764
1789141184272569900,8.94756982421875,0.03925519246960427,0.05834651618521574,0.023951747073676914
1789141184282542000,8.9575419921875,0.04768034495688624,0.09474808613407369,-0.034090664958952105
1789141184292513800,8.967513671875,0.055479486170227625,0.09494443837777163,-0.022842215675210723
1789141184302486800,8.97748681640625,0.043305263408916675,0.07915700719744982,0.025291731421321014
1789141184312459000,8.987458984375,0.01093543075127298,0.09024819702782935,-0.01122593632301717
1789141184322431000,8.997430908203125,0.0427180603637912,0.08066258793813362,0.015011394204326367
1789141184332403000,9.00740283203125,0.04419683930473853,0.09189042501453405,0.025362563850322317
1789141184342375200,9.017375244140624,0.025466004142782977,0.10891049169377273,0.013243427587845464
1789141184352348000,9.027347900390623,0.03929621506768064,0.1032747152656901,0.001671957914401936
1789141184362320000,9.03731982421875,0.019723978843523567,0.10258123394710249,0.01876306381630878
1789141184372292000,9.0472919921875,0.045532209770099724,0.13027259038530573,0.04215909003834477
1789141184382263800,9.057263916015623,0.05235613150473979,0.14890618308058046,-0.04214499899342802
1789141184392236000,9.067236083984374,0.05571632913261906,0.14161271749224885,-0.030530613214071824
1789141184402209000,9.077208984375,0.07231980079923744,0.17511384004355593,-0.034494605287073675
1789141184412181000,9.087180908203123,0.0680549553200582,0.16239721566484827,-0.004982684609574417
1789141184422153000,9.097153076171876,0.07813885307239467,0.15688991406013544,-0.03349894721326011
1789141184432125000,9.107125,0.07165179560582899,0.14886527155649926,-0.03228844365666517
1789141184442097000,9.117096923828123,0.08857661281913375,0.14061244375539644,-0.035788527405138396
1789141184452070000,9.12706982421875,0.07161364192550365,0.10249467443841809,0.01224948107306274
1789141184462041900,9.137041748046874,0.05005496262810064,0.10362615128616821,-0.0032007660246490964
1789141184472013800,9.147013916015624,0.056286394002307207,0.11344881776540985,-0.05219246943220922
1789141184481986000,9.156986083984377,0.052981908361563905,0.09035198710405988,-0.033307183494637786
1789141184491958000,9.1669580078125,0.0744892437757288,0.041672460064809,-0.006118835066769499
1789141184501931000,9.176930908203126,0.0510094580739934,0.04803183435903452,-0.03888476825375465
1789141184511903000,9.186903076171877,0.04606404803799914,0.06971058632542557,-0.08606554610278871
1789141184521875000,9.196875,0.05306460680932705,0.04169016931135828,-0.023735210912827976
1789141184531847000,9.206846923828126,0.05321406543324981,0.05970628630204242,0.024102564720449554
1789141184541819000,9.21681884765625,0.05276394321799779,0.06365820592222315,0.01042846465018612
1789141184551791900,9.2267919921875,0.06456854953905126,0.04966483045210378,-0.004476310659286036
1789141184561764000,9.23676416015625,0.03278332550779968,0.04417672586477412,0.004863082595294564
1789141184571735800,9.24673583984375,0.03806616147451525,0.05791723160678946,-0.023668051154176598
1789141184581708000,9.2567080078125,0.02670541950760474,0.06558583592182117,-0.020184366905028776
1789141184591680000,9.266679931640626,0.03961131455901275,0.08311606525907024,-0.01542723649057616
1789141184601652700,9.27665283203125,0.04901560175330651,0.074425256143471,0.03749447049334256
1789141184611625000,9.286625,0.04684848855370404,0.08973218318607255,-0.0030089144823258057
1789141184621597000,9.296596923828124,0.05404542881601497,0.06002436301962823,0.0016252057148512002
1789141184631569000,9.30656884765625,0.023931034961601073,0.02157907304948828,0.024362748717662617
1789141184641541000,9.316541015625,0.0034987598840610025,0.010174536326702684,0.016716352271592377
1789141184651514000,9.32651416015625,-0.01290187622394615,0.008514048534518726,-0.0138513855071898
1789141184661485800,9.33648583984375,0.02991787406810913,-0.03189664518317311,0.019006240869257295
1789141184671458000,9.3464580078125,-0.012083920216165592,-0.044730957302870945,-0.003470056195661324
1789141184681429800,9.3564296875,-0.009119321058919709,-0.06065360344872822,0.02241363260360195
1789141184691402000,9.366402099609376,-0.050782233337230684,-0.08899530448467641,0.0598309516211239
1789141184701375000,9.376375,-0.022853764210716512,-0.10849510093612502,0.039948244053427694
1789141184711347000,9.386346923828125,-0.07306316065595017,-0.090279499354523,0.04438670391104493
1789141184721319000,9.39631884765625,-0.043132104153570966,-0.096717227561478,0.06102272476622322
1789141184731291100,9.406291015625,-0.06786588538309499,-0.09801874663350633,0.02448593372877682
1789141184741262800,9.416262939453125,-0.06158979097422318,-0.12793486319957104,0.015070326749095605
1789141184751235800,9.42623583984375,-0.06642373676126093,-0.13004607245477123,-0.02359904991691258
1789141184761208000,9.4362080078125,-0.022820955725495935,-0.08468899527899874,0.0032263707771321704
1789141184771180000,9.446179931640623,-0.05262913799152663,-0.05668877465655435,-0.043123906309326665
1789141184781152000,9.456152099609374,-0.014448413415604112,-0.09543579994821323,-0.00504779737702964
1789141184791124700,9.466124755859376,-0.07012848160259993,-0.07336534265105629,-0.0012635926612689329
1789141184801097000,9.476096923828123,-0.05150042980441199,-0.06923121165294642,-0.01746686040833384
1789141184811069000,9.48606884765625,-0.04503220618665822,-0.04947029211604071,-0.027364481875184515
1789141184821041000,9.496041015625,-0.07740926157771577,-0.06228758708839955,0.01909028091023444
1789141184831012900,9.506012939453123,-0.015775352773866238,-0.05298767786814693,0.010040472266460177
1789141184840984800,9.51598486328125,-0.036467202599187655,-0.03294836361981402,0.022730101006999712
1789141184850957800,9.525957763671874,-0.017314807308700823,-0.003318755583678833,0.02413731983838834
1789141184860930000,9.535929931640624,0.010960559359746722,-0.015318233117417136,0.012736682231298016
1789141184870901800,9.54590185546875,0.0062751530638755545,-0.005220515492998421,-0.05528664101517586
1789141184880874000,9.5558740234375,-0.013669983575483144,-0.006633085513198534,-0.04754542858350809
1789141184890846000,9.565845947265624,-0.02551377923021271,-0.011818817695020951,-0.06360260874213154
1789141184900819000,9.57581884765625,-0.015208411365960312,-0.023068442946550166,-0.03852494875442348
1789141184910791000,9.585791015625,-0.004758576786240121,0.010434642201257269,-0.03310319513577669
1789141184920763100,9.59576318359375,0.029032647567891253,0.029783769987904364,-0.02388171844407915
1789141184930734800,9.60573486328125,0.03333046855165468,0.023053715134797745,0.000528540961169792
1789141184940707000,9.61570703125,0.04275016605067278,0.003980081011236438,0.017848109139761138
1789141184950680000,9.62568017578125,-0.013532840602441918,0.0009893792853286926,-0.007280782112691603
1789141184960651800,9.63565185546875,-0.03368873948408956,-0.023763498282534185,0.03922325315191014
1789141184970624000,9.6456240234375,-0.01771572253765849,-0.01967194876666875,0.026738292638076446
1789141184980595700,9.655595703125,0.003278683381825964,0.0018973832878113955,-0.015134315213444978
1789141184990569000,9.66556884765625,0.0007675164363489607,0.022907182237948933,-0.02306267739458206
1789141185000541000,9.675541015625,-0.020396262718028135,0.035378252929326,-0.04578409159715027
1789141185010513000,9.685512939453124,-0.018441745327457394,0.03927992732110068,-0.045816192506401926
1789141185020484900,9.69548486328125,0.016977122500699906,0.039833739961564446,-0.06899698067799537
1789141185030457000,9.70545703125,0.001843281190175674,0.06055639054916698,-0.05532658220751739
1789141185040429800,9.715429931640625,0.008968357007203427,0.0839100865265428,-0.07077551938666216
1789141185050402000,9.725402099609376,0.05316162698284998,0.08457536315034607,-0.031424945104293264
1789141185060374000,9.7353740234375,0.037474928871195114,0.06543935391531924,-0.0026429674047741243
1789141185070346000,9.745345947265625,0.006989342864772377,0.055915954120498455,0.007306253796751135
1789141185080318000,9.75531787109375,0.010321632912926685,0.043723636690524446,0.008131414737968879
1789141185090291000,9.765291015625,0.0005047099181911298,0.057823149927217786,0.036445786307956016
1789141185100263000,9.775262939453125,0.0023865845053371777,0.05762464273981154,0.007580009998664499
1789141185110235000,9.78523486328125,-0.018286600891902368,0.06114995875088997,-0.027519847657704346
1789141185120206800,9.795206787109375,-0.05554157824099904,0.07612489996109462,-0.037033350275217966
1789141185130178800,9.8051787109375,-0.02066554472201362,0.08682147755716314,-0.010074392580807619
1789141185140152000,9.815152099609374,0.017486450902553675,0.12017299546992515,-0.006100159624989945
1789141185150123800,9.825123779296876,0.04648448720978024,0.14071987784485665,0.009609272598976778
1789141185160096000,9.835095947265623,0.07989928010468657,0.1391724655592339,0.018646655582247217
1789141185170068000,9.84506787109375,0.047482891422637286,0.1219450721457494,0.027256556556539534
1789141185180040000,9.8550400390625,0.007008718922255232,0.10215130217693325,0.008535741698538444
1789141185190013000,9.865012939453123,-0.022219520315265855,0.08681445635770836,0.03377009952777314
1789141185199984400,9.874984375,-0.020728785491277487,0.09199853722024587,0.022829774133762422
1789141185209956000,9.8849560546875,-0.010098153023366278,0.07919679184257489,0.041893086451761055
1789141185219928300,9.89492822265625,0.033416968369200925,0.10983376410130138,0.04668312351641851
1789141185229900300,9.904900390625,0.014179877760619419,0.11691170819433698,0.07517092642083008
1789141185239873300,9.914873291015626,0.028678921232156145,0.09642377110836257,0.10772994760028183
1789141185249845200,9.92484521484375,0.00024863809635592473,0.06264732942287685,0.07903156693924761
1789141185259817500,9.9348173828125,-0.026861277523900697,0.05558584689817197,-0.020037029825456312
1789141185269789200,9.9447890625,-0.03580048387284333,0.012557866866791804,0.02072820806288129
1789141185279761400,9.954761474609375,-0.036972821890989695,0.06483297422770755,-0.005395579890934188
1789141185289734400,9.964734375,-0.014166002594938405,0.10524167279961642,-0.020511423785513253
1789141185299706000,9.9747060546875,-0.0018930612689232373,0.08324093582770391,0.012412009198048487
1789141185309678300,9.98467822265625,0.005552559347258641,0.07414116676709086,0.046237223476923
1789141185319650000,9.994650146484377,-0.05602781991483334,0.07019812841649824,0.016518933183806313
1789141185329622300,10.004622314453124,-0.01199757347689102,0.024576558664332348,0.08847254416226896
1789141185339595300,10.01459521484375,-0.06386661856723776,0.00258921653898483,0.06729989386709288
1789141185349567200,10.024567138671877,-0.05434210990907092,0.007779060483049191,0.023948743784543036
1789141185359539200,10.034539306640625,-0.06324550893580719,-0.02354544243218774,0.014966644981048794
1789141185369511400,10.044511474609376,-0.08650185913668394,-0.03216234659511157,0.043896184279987316
1789141185379483100,10.054483154296875,-0.07678426795933257,-0.01817041399337186,0.0022421291997371845
1789141185389456400,10.064456298828125,-0.04504681286893708,-0.010372944870070035,-0.010906776142833977
1789141185399428400,10.074428466796874,-0.037867275805277247,0.021977254335113248,-0.020051021320121577
1789141185409400300,10.084400390625,-0.03856317203112985,0.044195334755452245,-0.030690309582079894
1789141185419372300,10.094372314453125,-0.06907793059700269,-0.012206880580209231,0.010729077307176631
1789141185429344300,10.10434423828125,-0.07663584095970342,-0.009839492722425541,-0.03365595383553247
1789141185439317200,10.114317138671876,-0.09534650190615812,-0.0021780458257736274,-0.023032408326753028
1789141185449289200,10.124289306640623,-0.08311475171113164,0.0012557601623963566,-0.01094143062719119
1789141185459261200,10.13426123046875,-0.07007167858129747,0.00739303284105725,-0.0249532679300734
1789141185469233200,10.144233154296876,-0.05526563032549241,-0.0005060529750169867,0.014952314676196654
1789141185479205400,10.154205322265623,-0.04758917605757668,-0.006419401128073188,0.0035451648743044547
1789141185489178000,10.16417822265625,-0.04095048642125049,-0.02717822402111119,0.07467333621002444
1789141185499150300,10.174150390625,-0.05562047412002783,-0.0001711759234640021,0.0211716067251572
1789141185509122300,10.184122314453123,-0.06572650909579572,-0.04124148992342131,-0.005979227253191641
1789141185519094300,10.19409423828125,-0.059172325779901995,-0.035492508676685665,0.0210099712471342
1789141185529066200,10.204066162109376,-0.09537641401704525,-0.04071520908966667,-0.0043698319374864385
1789141185539039500,10.21403955078125,-0.06740543733274232,-0.06551903179195535,0.027951338234693205
1789141185549011200,10.22401123046875,-0.05030823205299044,-0.032500319384807796,0.00956052861853093
1789141185558983400,10.2339833984375,-0.033353916424783435,-0.03198120103356871,-0.04193941859343548
1789141185568955100,10.243955078125,-0.052052453510049536,-0.07950914042321448,0.012845176113130295
1789141185578927400,10.25392724609375,-0.0703440316256333,-0.09730385448821757,0.035891206789246816
1789141185588900400,10.263900390625,-0.08585686907639001,-0.1021666390905649,-0.0019162167822069053
1789141185598872000,10.2738720703125,-0.054626330822090244,-0.10846898610964366,-0.005337270620956919
1789141185608844300,10.28384423828125,-0.04071877614620471,-0.10449711645983746,0.03706354574542046
1789141185618816300,10.293816162109374,-0.05697381759916902,-0.09300340933939924,0.03899654080683114
1789141185628788200,10.303788330078126,-0.059501305803909346,-0.09753182105930742,0.03766450315127291
1789141185638761200,10.31376123046875,-0.06160670375265209,-0.08687201335714442,0.009084814493091673
1789141185648733400,10.3237333984375,-0.033851265234978896,-0.0696729833140935,-0.00673146774177954
1789141185658705200,10.333705078125,-0.0036621954313507633,-0.037769224417971294,-0.02797415913571598
1789141185668677400,10.343677490234375,-0.02460680758651782,-0.022884987212645085,-0.023617817755950093
1789141185678649000,10.353649169921876,0.04898689131928666,-0.016281440926956256,-0.04403574162012594
1789141185688622300,10.363622314453124,0.04677535685112804,-0.009435420804960565,-0.022628171184754783
1789141185698594300,10.37359423828125,0.0033235455184160204,0.014013404329534573,-0.002980223793104134
1789141185708566300,10.383566162109377,0.016301768618054026,-0.021116986408120375,0.03305371591963966
1789141185718538200,10.393538330078124,0.023959357421685906,-0.024109700258719773,0.021823656089539557
1789141185728510500,10.403510498046876,0.035546848377965026,-0.006741179183059568,0.06100408916671285
1789141185738483200,10.413483154296877,0.04930819774112354,0.010478403384211434,0.01413543439222153
1789141185748455200,10.423455078125,0.054899750800007835,-0.011258116132541117,0.021527140146015093
1789141185758427400,10.433427490234376,0.03691091590025013,-0.037564158728772674,0.010743803016479488
1789141185768399400,10.4433994140625,0.0524329181406534,-0.039332531359895784,0.015397409057087875
1789141185778371300,10.453371337890625,0.05400497146656748,-0.0249076676155675,0.006037705152022897
1789141185788344300,10.46334423828125,0.04987723135055622,-0.023948435654463637,-0.021114651064683816
1789141185798316300,10.47331640625,0.07363959947072524,-0.02589686762764402,-0.029810879623309243
1789141185808288300,10.483288330078125,0.06895991366712502,-0.02209003020085951,-0.013921446420901797
1789141185818260200,10.49326025390625,0.07614640559941833,-0.006145190832097359,-0.013698786421333424
1789141185828232200,10.503232177734375,0.047673651744708744,-0.006441198337431358,-0.03399474874754207
1789141185838205400,10.513205322265623,0.06740647722477976,0.006800508452460739,-0.01212118422074268
1789141185848177200,10.52317724609375,0.044237577888071894,0.04258670059797999,-0.01248042547998048
1789141185858149400,10.5331494140625,0.056675329767194214,0.04105465388890374,-0.00021020134613058202
1789141185868121300,10.543121337890623,0.056942079926564124,0.04493129686322857,0.011845533875592385
1789141185878093300,10.55309326171875,0.11110818526340248,0.0733084039564775,0.005961632973749572
1789141185888066300,10.56306640625,0.10888954690785758,0.07921184932452607,-0.007755882713280511
1789141185898038300,10.573038330078123,0.09146495194734675,0.06022239155621922,0.011159789254177179
1789141185908010200,10.58301025390625,0.11218776137030961,0.07985524684597461,-0.06626178202365746
1789141185917982500,10.592982421875,0.04547713332716491,0.05193922377988141,-0.006530050433623131
1789141185927954200,10.6029541015625,0.06412767984437269,0.07332590046950252,-0.00961102156510824
1789141185937927200,10.61292724609375,0.03174229929625253,0.05063518905616943,0.004273823664623019
1789141185947899400,10.6228994140625,0.0534263304607068,0.06060984717358312,0.012832919898269313
1789141185957871000,10.63287109375,0.08234574468808692,0.07329976045431481,-0.001790305002469501
1789141185967843300,10.64284326171875,0.08846454553024276,0.07370631417328133,-0.006162137290273371
1789141185977815300,10.652815185546874,0.06401271788624414,0.03998815693466163,0.05470816691021524
1789141185987788300,10.662788330078126,0.05530104125712899,0.026072908580338845,0.006286288926409967
1789141185997760300,10.67276025390625,0.05497294279420459,0.02307967701092734,-0.022432076921729084
1789141186007732500,10.682732421875,0.01973014291167471,0.04520215014836763,-0.015996050552499367
1789141186017704200,10.6927041015625,0.02627438640991771,0.009746266495692766,-0.015123240531617463
1789141186027676400,10.702676513671875,-0.005276136821368454,0.006793513313411204,-0.05631135569040241
1789141186037649200,10.712649169921876,-0.0048355693024127976,-0.006066498517384502,-0.031114967433670156
1789141186047621400,10.722621337890626,0.014005981045437068,0.004814533181913509,-0.021828192161196757
1789141186057593300,10.73259326171875,0.03828784725696499,0.020736022215642618,-0.06731512194006446
1789141186067565300,10.7425654296875,0.034972214039790436,-0.011518601745418217,-0.022578734310520935
1789141186077537300,10.752537353515624,-0.007939219739529131,-0.02992796603062406,-0.01595580865563691
1789141186087510300,10.76251025390625,0.001028348031394072,-0.023637727816327076,0.0171419404289459
1789141186097482200,10.772482177734377,-0.024528256392716868,-0.01724336138186091,0.03204732998854894
1789141186107454200,10.7824541015625,-0.01619748741235828,-0.012492136913891937,-0.011362587836480484
1789141186117426200,10.79242626953125,-0.04022917674557462,-0.01861891783119945,0.0001768677316695172
1789141186127398100,10.802398193359377,-0.039617318642894264,0.006816469590240475,0.004024980078695325
1789141186137371400,10.812371337890625,-0.05160619891839936,0.01950293520309905,-0.012017173100790274
1789141186147343000,10.822343017578126,-0.0191873451665061,0.017281477497431207,-0.028464037494837488
1789141186157315300,10.8323154296875,-0.04377544189016333,0.029716670392376198,-0.008909300442903773
1789141186167287300,10.842287353515625,-0.017257461754834474,0.04804698206791002,-0.013685363704718253
1789141186177259300,10.85225927734375,0.021457890004004644,0.03029604862420549,-0.032154341545276986
1789141186187232300,10.862232177734375,-0.020000366010805168,0.0037272347122664705,0.015477264026804447
1789141186197204200,10.872204345703125,-0.010359562138514305,0.045783082410709434,-0.028751231075377436
1789141186207176000,10.882176025390624,-0.04466079820964306,-0.013901908737366256,-0.007640244504091917
1789141186217148000,10.89214794921875,-0.06588743384337499,-0.005655595574250425,-0.038859213776896544
1789141186227119900,10.902119873046876,-0.10271281985719789,-0.01970560912076035,-0.026612923983943132
1789141186237092900,10.9120927734375,-0.061977518116227474,-0.024856631824813145,-0.04802864406917757
1789141186247064800,10.92206494140625,-0.04303103895903924,-0.014717361155592587,-0.030202469115239636
1789141186257036800,10.932036865234377,-0.06953662861633858,0.01905549012275248,-0.09181533992867569
1789141186267008800,10.9420087890625,-0.06934187802577413,-0.026986581764334223,-0.03795606602631098
1789141186276981000,10.95198095703125,-0.08690131113654007,-0.050676508988048104,0.03334075583787893
1789141186286954000,10.9619541015625,-0.08990675798965844,-0.013679291473414098,0.015668222785282373
1789141186296925700,10.97192578125,-0.02254745871076905,-0.016573817114242027,0.04152266758970588
1789141186306898000,10.98189794921875,-0.009670835126734945,-0.010602401792860535,0.04786567596112171
1789141186316870000,10.991869873046875,-0.03805511485860269,-0.01347003769228483,0.021376323029822217
1789141186326841900,11.001841796875,-0.07168737984290328,-0.05505930206350752,0.02962788295620804
1789141186336814800,11.01181494140625,-0.084658942328381,-0.016017784048346036,-0.020147815523668594
1789141186346787000,11.021787109375,-0.08207798545299134,-0.000137341478921259,-0.03760810633539342
1789141186356758800,11.0317587890625,-0.05315236192429626,-0.014118686672611883,-0.003221124695920896
1789141186366731000,11.04173095703125,-0.021573625803252353,0.011438054344603998,-0.0065889460236276285
1789141186376702700,11.05170263671875,-0.043864365825284794,0.014697628320624453,-0.03440019554656452
1789141186386675700,11.06167578125,-0.052535314905041194,-0.03121417905826525,-0.03403590322883817
1789141186396648000,11.07164794921875,-0.07137369459016618,-0.03405145302171874,-0.025176157614706478
1789141186406620000,11.081619873046876,-0.07252136053047943,-0.01373319642852036,-0.005196569537609997
1789141186416592000,11.091591796875,-0.07005674242829048,-0.011732561567245727,-0.011172442173178402
1789141186426564000,11.101564208984374,-0.015115972945651404,-0.004272401980383335,4.522505139564573e-05
1789141186436536800,11.111536865234376,-0.020126547601645776,-0.006744466976880427,-0.01309727597399064
1789141186446508800,11.1215087890625,-0.015970547886996492,-0.020970529909588323,-0.006352416690317783
1789141186456481000,11.13148095703125,-0.04950348198646316,-0.013577470238079349,-0.010283142000286629
1789141186466452700,11.14145263671875,-0.04513346124228435,0.006889105745032554,-0.05066067370942548
1789141186476425000,11.151425048828123,-0.02260071320985778,-0.01339502832064139,-0.005585384839138594
1789141186486398000,11.16139794921875,-0.020624889308802203,-0.00028850977203197166,0.01894620486820476
1789141186496370000,11.171369873046874,0.017009950544177047,0.012535016215979966,-0.005413103773752763
1789141186506342000,11.181341796875,-0.019363516406903772,0.016352551709985598,0.009504607693418064
1789141186516313900,11.19131396484375,-0.028802166663123702,0.005709510971985575,-0.0005730992724962387
1789141186526285800,11.201285888671874,-0.0014042462492094743,-0.012305911447275645,0.025023810259692573
1789141186536258800,11.2112587890625,-0.006728858404350252,0.015866127583672465,0.028709232175716626
1789141186546230800,11.221230712890623,-0.015400327443845153,0.0012273695220521028,0.0358568262527178
1789141186556203000,11.231203125,0.0021047480651629393,-0.00418473841892476,0.06246458028811523
1789141186566175000,11.241175048828126,-0.009932548677786493,0.055864268088260616,0.005620924688653924
1789141186576147000,11.25114697265625,0.010979667343008068,0.04114491481604502,0.07191582780351158
1789141186586120000,11.261119873046876,0.01088466480567144,0.07387729708430811,-0.03138784514371512
1789141186596092000,11.271091796875,0.009675481967726848,0.060873630202242714,-0.010900583792782683
1789141186606063900,11.28106396484375,0.002659742683065274,0.09056781927295189,-0.0032261249337958587
1789141186616035800,11.291035888671876,0.028059162736595485,0.08289597115785345,0.02190924191521531
1789141186626007800,11.3010078125,0.026073803461793638,0.08739521695314975,0.011427495691049125
1789141186635980800,11.310980712890624,0.009136187939860551,0.07601677745933672,-0.004386044952833342
1789141186645953000,11.320953125,-0.0031819087610854943,0.04646747772794109,0.06578512417965944
1789141186655924700,11.3309248046875,-0.03434499209412923,0.023383127678988036,0.06647295603528908
1789141186665897000,11.34089697265625,-0.02684815899835419,0.0027277652987157414,0.04877267346929866
1789141186675869000,11.350868896484377,-0.022494117915347656,-0.002508774571632047,0.04046563315709614
1789141186685842000,11.360842041015625,0.00266767336735041,0.01581124708586616,0.034587950451583416
1789141186695814000,11.37081396484375,0.005734868427315637,0.016517275390008742,0.03738738556532385
1789141186705786000,11.3807861328125,-0.010914402171556195,-0.012484689366125215,0.023049680915898478
1789141186715757800,11.3907578125,-0.020959009848649336,-0.019484394463168256,-0.027718318078943437
1789141186725730000,11.40072998046875,-0.03547838044978564,-0.025201055119058863,-0.026710129918980363
1789141186735703000,11.410703125,0.024084186717312505,-0.023202946577435733,-0.0019274885893917969
1789141186745674800,11.4206748046875,0.011748299545515881,-0.0007444910908220889,-0.007043072771531245
1789141186755647000,11.43064697265625,-0.005853505518472606,-0.004809926282694173,0.010468650067465776
1789141186765618700,11.44061865234375,0.004588460087938388,-0.052446752737941145,0.046360380736631034
1789141186775591000,11.4505908203125,-0.018217775533102817,-0.06323267026198523,0.07629647205057859
1789141186785564000,11.46056396484375,-0.021606935381713835,-0.018433030064236047,0.04756170295306282
1789141186795536000,11.470535888671876,-0.008840483010164525,-0.056172774735102876,0.04951681452723466
1789141186805507800,11.4805078125,0.01534340086686051,-0.05063741885832161,0.07143988888992414
1789141186815480000,11.49047998046875,-0.042651171842518494,-0.020718200366852214,0.04337815573525832
1789141186825451800,11.50045166015625,-0.010021533795249863,-0.027869554944328356,0.01644992868652319
1789141186835425000,11.510425048828123,-0.0019859860695881906,-0.01744526917574314,-0.02875693467888868
1789141186845397000,11.52039697265625,0.012332924026676474,-0.0009000798713244857,-0.06960971874723387
1789141186855369000,11.530368896484376,0.017074325535428297,0.02052697321432464,-0.09018863201096872
1789141186865341000,11.5403408203125,0.0400372028408662,0.0011101343032280176,-0.0830050294180545
1789141186875313000,11.55031298828125,-0.022144909669098496,-0.027407540173990226,-0.09977999325803182
1789141186885286000,11.560285888671874,0.033222285740268497,-0.002609592084564342,-0.07599845365621569
1789141186895257900,11.5702578125,-0.006845156105776484,-0.00899208532220769,-0.025329253564166865
1789141186905229800,11.580229736328125,0.030812215020433777,-0.01752915276731175,0.00417607076222605
1789141186915201800,11.590201904296874,0.006604744520837454,-0.03660284624306225,-0.007062423659620651
1789141186925174000,11.600174072265624,0.03480788677455305,-0.04791583319334863,-0.010633219458573744
1789141186935146800,11.610146728515623,0.015874354202856843,-0.0823268356504452,-0.027288666873683153
1789141186945119000,11.620118896484374,0.022552392276003082,-0.1094886150078177,-0.01944386466995826
1789141186955091000,11.630091064453126,0.046159615273543224,-0.10913441206006423,-0.05556013225401487
1789141186965063000,11.64006298828125,0.049082009691938315,-0.10857784903372086,-0.036926877365071976
1789141186975035000,11.650034912109374,0.05861116087654096,-0.10402509431926427,0.033962612454404996
1789141186985008000,11.660008056640624,0.06922712336094815,-0.0885892437971094,-0.018638830767630232
1789141186994979800,11.669979736328123,0.06323046061403934,-0.09406868450532804,0.003917800486573979
1789141187004952000,11.6799521484375,0.055031117804305044,-0.09262201804035472,0.02895103359906545
1789141187014923800,11.689923828125,0.05224301544043496,-0.07215838630713006,-0.04524072355306998
1789141187024896000,11.69989599609375,0.06597690721449495,-0.04800767878190848,-0.055823563667059234
1789141187034869000,11.709868896484377,0.04883540575754684,-0.02627857724926154,-0.045401724027581844
1789141187044840700,11.7198408203125,0.09902554023726748,0.006814536170133588,-0.04729309779728337
1789141187054813000,11.72981298828125,0.1211248474132809,0.03896513092410604,-0.004533245069244651
1789141187064785000,11.739784912109377,0.1251261254740772,0.08176985470556913,-0.015874229959158725
1789141187074756900,11.7497568359375,0.1488589588972525,0.10157764364168456,0.001553104691175324
1789141187084729900,11.759729736328126,0.13149599753786137,0.1020033983181113,0.04222099291936733
1789141187094702000,11.7697021484375,0.11126101874721445,0.09695158759552343,-0.02075132285179941
1789141187104673800,11.779673828125,0.11501137574920543,0.09410691190568832,-0.06317670897042084
1789141187114646000,11.78964599609375,0.040823270944063926,0.09503938585108199,-0.06543497620658817
1789141187124617700,11.79961767578125,0.08667918125752594,0.10806091183177033,-0.009934367184065698
1789141187134591000,11.809591064453125,0.09830450465547345,0.15653157334260315,0.019352157044570047
1789141187144563000,11.81956298828125,0.12500498637200394,0.18451312961343433,-0.028337511584889896
1789141187154535000,11.829534912109375,0.12772939591548166,0.1716532024421233,0.0008508574624862648
1789141187164507000,11.8395068359375,0.11137531797349484,0.15780927473054795,0.02040232749366939
1789141187174479000,11.84947900390625,0.10252795263780418,0.13532246603995338,0.02311241767389974
1789141187184451800,11.859451904296876,0.1082394479626868,0.13989997135372526,-0.01571234259615312
1789141187194423800,11.869423828125,0.06810196627009885,0.14168881977115283,-0.026534295440258943
1789141187204397000,11.87939697265625,0.04420198466811797,0.12815232949355485,-0.0012745063103697062
1789141187214368800,11.88936865234375,0.07929109141005009,0.13966206974373505,-0.012169208008761475
1789141187224341000,11.899341064453123,0.052302829112371774,0.15550457491707487,0.021379678389442446
1789141187234314000,11.90931396484375,0.07631181349617515,0.17555898705503248,0.013392893040068743
1789141187244285700,11.91928564453125,0.0862725269454225,0.1459263085628379,-0.0038258875916789576
1789141187254258000,11.9292578125,0.05055060236957564,0.13711100012896363,0.0035113033679453984
1789141187264230000,11.93922998046875,0.050512156411214405,0.12869350325628995,0.026586557189481348
1789141187274201900,11.949201904296874,0.05501452112919875,0.11613862015448628,0.01543234495013701
1789141187284174800,11.9591748046875,0.026476257340155372,0.11195348854752277,0.025034407810771486
1789141187294147000,11.96914697265625,0.028988308358120458,0.14449232475647814,0.027008391043810275
1789141187304118800,11.979118896484374,-0.008455828233173509,0.15046256734614682,0.042757247823042036
1789141187314091000,11.989091064453126,0.01176986856396295,0.15073283261555442,0.00904940650892403
1789141187324062700,11.999062744140623,-0.012178416067018529,0.126086653061166,0.028638778156299775
1789141187334036000,12.009035888671876,-0.026042314003775255,0.1335955535324737,0.004258222417466967
1789141187344008000,12.019008056640626,0.00781631486169578,0.14841379844488897,-0.05000343159456662
1789141187353980000,12.02897998046875,0.04348601562385233,0.1512690738316462,-4.9366223000055685e-05
1789141187363951900,12.038951904296876,-0.011618414166551579,0.1563100674393878,0.05445974130504948
1789141187373923800,12.048923828125,-0.016179768219061683,0.14012719390229786,0.0015977570962279514
1789141187383896800,12.058896728515624,-0.04656371470648335,0.12503755324859653,-0.008591413125435097
1789141187393868800,12.068868896484377,-0.08150943574667804,0.13939926577942247,-0.00273679274023004
1789141187403840800,12.0788408203125,-0.08809010268700568,0.15965570954703276,-0.041508871863600354
1789141187413813000,12.08881298828125,-0.06864891498196803,0.14024123985341663,-0.03397644547839336
1789141187423785000,12.098784912109377,-0.12914609267358346,0.12705274014365428,-0.048288890782381265
1789141187433757700,12.1087578125,-0.07861031454785858,0.11782451625017096,-0.0247084435232678
1789141187443730000,12.11872998046875,-0.10855077633496248,0.12875705938607,-0.03692379604823802
1789141187453702000,12.128701904296875,-0.1081257740341277,0.0780124137904485,-0.005050392001442122
1789141187463673900,12.138673828125,-0.11370242903701917,0.06325062810902664,-0.014069977169180372
1789141187473645800,12.148645751953126,-0.1374364086918644,0.04924170259604914,0.025533125314820933
1789141187483617800,12.15861767578125,-0.1730381327338742,0.04589395941769401,0.044288088891647294
1789141187493590800,12.1685908203125,-0.14088745750569712,0.03782020373369491,-0.021827498901319655
1789141187503563000,12.17856298828125,-0.1599038872096442,0.03962727962064709,-0.04070424091223504
1789141187513534700,12.18853466796875,-0.1830739278476623,0.055786178841688676,-0.02899492654293992
1789141187523507000,12.1985068359375,-0.14377907506080498,0.03163799035158785,-0.02539617722597247
1789141187533480000,12.20847998046875,-0.1275175946914572,0.013975979329379579,-0.04684368052218137
1789141187543452000,12.218451904296876,-0.15660089620392603,-0.008020836089959231,-0.009448165696770913
1789141187553424000,12.228423828125,-0.15512027903358386,-0.03260496006875011,0.020237930728254923
1789141187563396000,12.23839599609375,-0.1683981408453517,-0.08237382142052224,0.06223405441249317
1789141187573367800,12.248367919921876,-0.1573578900069372,-0.10046286621170211,0.02531205785679173
1789141187583340000,12.258340087890623,-0.1935624877660715,-0.13969988609662454,0.04021223522236739
1789141187593313000,12.26831298828125,-0.18931315555907363,-0.16013471886026717,0.036071701582543594
1789141187603284700,12.27828466796875,-0.19904290703537683,-0.16644784579459518,0.019095503442339665
1789141187613257000,12.288257080078123,-0.20813954007807045,-0.15768491253627062,0.010888579906957853
1789141187623228700,12.298228759765625,-0.1857105430966179,-0.1467550122445709,-0.053613559196269575
1789141187633201000,12.308200927734376,-0.19069530090355347,-0.16816793976420308,-0.028128053741027195
1789141187643174000,12.318173828125,-0.21323155646012248,-0.18435761856406724,0.001954068393261761
1789141187653145900,12.328145751953125,-0.1933230743560759,-0.19874913197916194,0.007312281152389646
1789141187663117800,12.338117919921874,-0.18591465638262045,-0.18776076104217648,0.03389628803858959
1789141187673090000,12.348090087890624,-0.16892472756237545,-0.19049247365651073,0.07810945934622338
1789141187683061800,12.358061767578125,-0.14138391378652693,-0.1763808731585938,0.06709358835844091
1789141187693035000,12.368034912109374,-0.17529075959384496,-0.18911423598675514,0.07242086857278349
1789141187703007000,12.378007080078126,-0.17555914924672325,-0.18622799737460966,0.03052083868391362
1789141187712979000,12.38797900390625,-0.18087468250552935,-0.19887974796619645,0.03590650977435958
1789141187722951000,12.397950927734374,-0.16446703696730378,-0.17482256608291458,-0.021178824605139205
1789141187732923000,12.4079228515625,-0.1022643970928875,-0.13183366584503106,-0.01495151158858527
1789141187742895900,12.417895751953123,-0.13430393114135483,-0.13087480019384354,0.0017184274063441268
1789141187752867800,12.427867919921876,-0.12226866507929476,-0.13758614955361373,-0.01907522791408591
1789141187762839800,12.43783984375,-0.12611288181430858,-0.13516843516260166,-0.006169883699626765
1789141187772811800,12.447811767578123,-0.1288030793824576,-0.13153563527677087,0.019963663673229166
1789141187782784000,12.457783935546876,-0.14176359309784425,-0.14729789756763526,-0.013321389909932884
1789141187792756700,12.4677568359375,-0.1351629744218113,-0.1691719377325719,-0.016688936699402294
1789141187802729000,12.47772900390625,-0.15129163084294292,-0.16234274998652792,-0.0038106225844442908
1789141187812701000,12.487700927734377,-0.12943522204159444,-0.15257835024752373,0.015705156140108166
1789141187822673000,12.4976728515625,-0.0749987732981197,-0.14468975795044675,-0.012280525711866714
1789141187832644900,12.507644775390624,-0.10161207830868522,-0.15331853738824747,-0.03609732685279457
1789141187842618000,12.5176181640625,-0.08170009861583799,-0.15705198488031985,-0.024990817816598187
1789141187852589800,12.52758984375,-0.11411441702211489,-0.16767517700018406,-0.06787940143954987
1789141187862562000,12.53756201171875,-0.13312245803034747,-0.19811793616185477,-0.039372187536407935
1789141187872533800,12.54753369140625,-0.09737725950778069,-0.2140868808384832,0.02029578555196063
1789141187882506000,12.557506103515625,-0.04504609126363967,-0.16800779319657963,-0.013936801097058742
1789141187892479000,12.56747900390625,-0.04844025232116731,-0.19464793504136155,0.026786279704543565
1789141187902450700,12.57745068359375,-0.03831069212979023,-0.23736139993271355,-0.0032410458488768786
1789141187912423000,12.5874228515625,-0.0629715415232159,-0.2209889529499249,-0.04009214903747734
1789141187922395000,12.597394775390624,-0.06250489150610793,-0.2268430868218955,0.009520762185081567
1789141187932366800,12.607366943359375,-0.05425629877581518,-0.22804769060269658,-0.012072452899091354
1789141187942339800,12.61733984375,-0.05278670082995122,-0.20201014095249545,-0.048515377381209035
1789141187952312000,12.62731201171875,-0.04666590319007114,-0.21574327190112008,0.030786910854090487
1789141187962283800,12.63728369140625,-0.0176388351033955,-0.21255549904769064,0.02206718533599323
1789141187972256000,12.647256103515623,0.011336487030703914,-0.17980566025409592,0.023467425979729593
1789141187982227700,12.657227783203124,0.04352268720388672,-0.1669227542331161,0.03678008953698611
1789141187992201000,12.667200927734376,0.0019678378252682123,-0.16278140089320797,0.01813200559425074
1789141188002173000,12.6771728515625,0.02406565149839997,-0.14107727600741965,0.01697261080039377
1789141188012145000,12.687144775390625,-0.01058588421597867,-0.12092977863285824,-0.025673250716984702
1789141188022116900,12.697116943359376,0.020706214589598877,-0.10976775411362998,0.0008076141708009266
1789141188032089000,12.707089111328123,0.029134191018715474,-0.07953327207673497,-0.007743540965088743
1789141188042061800,12.717061767578125,0.04721428144789238,-0.044778651100114954,-0.03745846867999689
1789141188052033800,12.72703369140625,0.08044235904286613,-0.06516595265632133,0.008141126895646358
1789141188062006000,12.737006103515624,0.07966788407513806,-0.07086956682329948,-0.04046397154911809
1789141188071977700,12.746977783203125,0.08614089903205056,-0.07010184365736005,-0.055804798666572536
1789141188081950000,12.756949951171874,0.10382104026656301,-0.06403130857978032,-0.01627398889641997
1789141188091923000,12.7669228515625,0.05168714228550169,-0.07353908563700783,0.011399389330003491
1789141188101895000,12.77689501953125,0.07438294697820318,-0.08359312213950033,-0.0143637364133166
1789141188111867000,12.786866943359374,0.0999597329787898,-0.10272040911115302,0.01336736997432425
1789141188121838800,12.7968388671875,0.07266376251878609,-0.09828260790511188,0.0026038365225650715
1789141188131810800,12.806810791015623,0.09688914973779957,-0.11341299582282371,0.012660982551890425
1789141188141784000,12.8167841796875,0.08952306894422585,-0.12243237342668375,-0.01695840079335662
1789141188151755800,12.826755859375,0.10623912338893034,-0.09977517176020788,0.030148353213465914
1789141188161728000,12.83672802734375,0.08889084160848225,-0.07394108712774443,0.006532867436496217
1789141188171700000,12.846699951171876,0.13544279747405058,-0.07351624753569354,0.013016155167278267
1789141188181672000,12.856671875,0.09376164785320651,-0.07804597682485687,-0.012615774232968205
1789141188191645000,12.86664501953125,0.11079762012756345,-0.0841997772698872,0.009448679350642052
1789141188201616600,12.87661669921875,0.07438577619408686,-0.05698331477540896,0.020966389302603736
1789141188211588600,12.886588623046874,0.09048006223183352,-0.051731009925959706,0.038239602552777856
1789141188221560800,12.896560791015624,0.11273847090537154,-0.059425399264303444,0.0514265231729415
1789141188231532500,12.906532470703125,0.1479791383554618,-0.024347175744773245,-0.002300230783184991
1789141188241505500,12.916505615234374,0.08370425499198478,-0.039677187696042816,0.07901005001894151
1789141188251477800,12.926477783203126,0.16352259020410237,-0.020534815953618744,0.04815827696467751
1789141188261449500,12.936449462890623,0.10116750775706701,-0.010814153582331825,-0.020133448498043202
1789141188271421700,12.946421630859374,0.09747084337446188,-0.014891707348698156,-0.010215553967622882
1789141188281393700,12.9563935546875,0.07373086771582892,-0.03420557647533918,-0.02840112828929224
1789141188291366700,12.96636669921875,0.05210190114258599,-0.015805920520210227,-0.0410547885631505
1789141188301338600,12.976338623046876,0.06509320832166406,-0.024539913029155723,0.0015492435922683282
1789141188311310600,12.986310546875,0.08851755814438056,-0.034149277820175745,-0.00412763236084591
1789141188321282600,12.996282470703123,0.08137030324004088,-0.012210822301498165,0.04021342696030895
1789141188331254800,13.0062548828125,0.07835407787413418,-0.04095952592581171,0.07842831037346984
1789141188341227500,13.0162275390625,0.12994888653981898,-0.04300861566756651,0.025997783582001124
1789141188351199700,13.02619970703125,0.08685588169177962,-0.06895394562865877,0.039570465786792235
1789141188361171700,13.036171630859377,0.06940849414938986,-0.06387223397071486,-0.026212604917173903
1789141188371143700,13.046143798828124,0.021786250068051294,-0.11680493812859688,-0.025970013537117767
1789141188381115600,13.05611572265625,0.01554874609499035,-0.11066781896904296,-0.011143361674994317
1789141188391088600,13.066088623046875,0.012726558968794148,-0.07179424448388695,0.03263817159039842
1789141188401060600,13.076060546875,0.10314636516317242,-0.04335039445521138,-0.015477539655066166
1789141188411032600,13.086032470703126,0.09495003312761927,-0.07145062221073234,0.011975423796936837
1789141188421004500,13.096004638671875,0.08076365207883907,-0.07129675853071976,0.01790561377723172
1789141188430976500,13.1059765625,0.023274316050323592,-0.10843939148542474,-0.024944964542552062
1789141188440949800,13.11594970703125,0.05179199466326895,-0.11591183446816414,0.014993281258146878
1789141188450921500,13.12592138671875,-0.020263354429361963,-0.06394229961239967,-0.026803848801147397
1789141188460893700,13.135893798828125,0.09115474735197493,-0.04317156916679613,-0.012084356098064878
1789141188470865700,13.14586572265625,0.05555246442391762,-0.02675005610192956,-0.06377444256023021
1789141188480837600,13.155837646484375,0.07653196701937177,-0.030640528689204572,-0.013402466272673476
1789141188490810600,13.165810546875,0.079782691563509,-0.011809576832412218,-0.06774382452520299
1789141188500782800,13.175782958984374,0.0678724031821671,-0.04258939176908928,0.0016602368614559056
1789141188510754600,13.185754638671876,0.08049571845473642,-0.02461530694356541,0.026364971568826254
1789141188520726800,13.195726806640623,0.09653968453675249,-0.005342695146043623,-0.0006233799876940834
1789141188530698500,13.205698486328124,0.10452179684559065,-0.03203152870052421,0.015578841126473515
1789141188540670700,13.215670654296876,0.03877031506123544,-0.03337273411273548,0.007137439019493028
1789141188550643700,13.225643798828123,0.032092759342209475,-0.019208017466741018,0.003990884839266685
1789141188560615400,13.235615478515625,0.041425629939747424,-0.018474504137449277,0.009055177682422316
1789141188570587600,13.245587646484376,0.07346608927176308,-0.007492102630679748,0.008644560636678488
1789141188580559600,13.2555595703125,0.09877064737495916,0.020820676270768522,-0.007509797294619873
1789141188590531600,13.265531494140625,0.10904399534804178,0.029534839076102347,-0.01876706319213317
1789141188600504600,13.275504638671874,0.09944136484086286,0.02009049442230191,0.009565112265860466
1789141188610476800,13.285476806640624,0.09234991650546019,0.04799788612158881,0.02442603611564922
1789141188620448500,13.295448486328125,0.08970272369178517,0.05242123082697348,0.012352341180765392
1789141188630420700,13.305420654296874,0.09751827965154725,0.06355175549217175,-0.012170783090194242
1789141188640392400,13.315392333984375,0.09198027064600696,0.04778204866683128,0.018384938360646353
1789141188650365700,13.32536572265625,0.07913232101639671,0.06966899126988271,-0.021247620126500482
1789141188660337700,13.335337646484374,0.06267119324390881,0.087127694303694,-0.040161910102715186
1789141188670309600,13.3453095703125,0.06566136497203835,0.10826819114738465,-0.04277074706242495
1789141188680281600,13.355281494140623,0.0953376814042855,0.12318734716746167,-0.014983389858524791
1789141188690253800,13.36525390625,0.116502598362544,0.14842152138588324,0.0182740490766761
1789141188700226600,13.3752265625,0.10133467642404174,0.13865021452371748,0.01641452119469541
1789141188710198500,13.385198486328123,0.11065066930619827,0.12412780980684232,0.04214232078881647
1789141188720170800,13.395170654296876,0.08537702319395038,0.14199392920561377,0.03013551302332364
1789141188730142700,13.405142822265624,0.06705386015056675,0.11709499805483983,0.023377270821991324
1789141188740114700,13.41511474609375,0.05312453058638635,0.07664786435239329,0.008564538935720989
1789141188750087700,13.425087646484377,0.03970619546780774,0.07789470045688095,0.008763071981708464
1789141188760059600,13.4350595703125,0.04867608527029437,0.12728236490992925,0.006102824192347597
1789141188770031600,13.445031494140624,0.07563059060394653,0.14545001272520175,-0.007794530134747547
1789141188780003600,13.455003662109377,0.09440832924844787,0.13617894133895983,-0.005351025012693733
1789141188789975600,13.4649755859375,0.07641331618875018,0.1360633319107792,-0.01751892525878466
1789141188799948800,13.47494873046875,0.10061861633474443,0.15945243052550628,-0.04024786452814486
1789141188809920500,13.48492041015625,0.09307783562141017,0.15230920157635183,0.003008400960464218
1789141188819892700,13.494892822265625,0.07281323196920429,0.1487449218134544,0.026456871366993696
1789141188829864700,13.50486474609375,0.06360859570247505,0.15015440421016646,0.02175267316736731
1789141188839836700,13.514836669921875,0.08181557726929789,0.18858297020368428,-0.007126856963630819
1789141188849809700,13.5248095703125,0.07587492669535384,0.17195552091636898,0.010270772359062982
1789141188859781600,13.53478173828125,0.0736782964689956,0.18740465055447614,-0.00368819331790562
