time,seconds_elapsed,z,y,x
1789997067975278600,1.573278564453125,0.19668428510227537,0.061018146595600904,0.022756899675558988
1789997067985349400,1.583349365234375,0.1364339618123952,0.10243629402447767,-0.05381320440758325
1789997067995421400,1.59342138671875,0.07076410511409545,0.12039715213880507,0.0580953730916494
1789997068005492500,1.603492431640625,0.03366495211351266,0.09034584213034617,0.14128204879982287
1789997068015563300,1.613563232421875,0.08354607861807482,0.19714193503724775,0.020574108051436498
1789997068025635300,1.62363525390625,0.1623221554604499,0.29137270223096023,-0.038725388819119765
1789997068035706400,1.633706298828125,0.1436908234256122,0.25879914589288056,0.03254944580513048
1789997068045777400,1.64377734375,0.1198159821216633,0.17555320021815987,0.10995184785138797
1789997068055849200,1.65384912109375,0.1372308010826287,0.20573522662958374,0.04288620556494177
1789997068065920300,1.663920166015625,0.1463929256320056,0.21385932412523917,0.0508893637816114
1789997068075991300,1.6739912109375,0.12863296578548675,0.20561197652639723,-0.06629495708312043
1789997068086062300,1.684062255859375,0.11432717920381472,0.21754869228254342,-0.15441216576149813
1789997068096134400,1.694134521484375,0.03939757939858038,0.1516758412265858,-0.03864062820374557
1789997068106205400,1.704205322265625,-0.01086914329589289,0.0681877279594736,-0.035944982598196694
1789997068116276200,1.714276123046875,-0.0043195246436282956,0.08917557359967086,-0.06576706958337313
1789997068126348300,1.724348388671875,0.04228079701582184,0.14830548997069334,-0.10701062960706796
1789997068136419300,1.73441943359375,0.03233268842125145,0.060479101572811056,0.03163535383949545
1789997068146490400,1.744490478515625,-0.009218963734021885,-0.06674382619357258,0.11834775116460698
1789997068156562400,1.7545625,0.03607969692508449,-0.013567072178770507,0.011630806302588817
1789997068166633500,1.764633544921875,0.10768344794968884,0.074703541878436,-0.06315805446412429
1789997068176704500,1.77470458984375,0.09974730307787749,0.048765693699787976,0.03703629030657963
1789997068186775600,1.784775634765625,-0.004934603504020748,0.00914688002009091,0.01893923965621981
1789997068196847400,1.794847412109375,0.004474600865503071,0.013273267732439973,0.11189235048557253
1789997068206918100,1.804918212890625,0.03411296543072811,0.10399629302315276,-0.03504372566270897
1789997068216989200,1.8149892578125,0.09932297308797416,0.17054845275838107,-0.12007162635383051
1789997068227061200,1.825061279296875,0.14011355534499267,0.09898964076092254,0.04558582574245453
1789997068237132300,1.83513232421875,0.09910167772851752,8.643173886385732e-05,0.07509037644576275
1789997068247203300,1.845203369140625,0.09444807173788507,0.054816482170532393,-0.010345342464488868
1789997068257274400,1.8552744140625,0.12195526352047809,0.12109494646133165,0.005477229342420425
1789997068267346400,1.865346435546875,0.1249651314521553,0.11829495574686313,-0.06753912485580797
1789997068277417500,1.87541748046875,0.0770805789870722,0.17398478810564563,-0.14418061463661913
1789997068287488500,1.885488525390625,0.05470495377252151,0.16049671453781517,-0.06715028621059771
1789997068297560600,1.895560546875,0.07446596919197414,0.03144707046939759,-0.015654637359850974
1789997068307631400,1.90563134765625,0.07232850169474003,0.11936763510020192,-0.24827452482165463
1789997068317702400,1.915702392578125,0.1648170678204205,0.12705164530226962,-0.0360036991322256
1789997068327774200,1.925774169921875,0.11325907656109006,0.023815069659964126,0.12619423861164955
1789997068337845200,1.93584521484375,0.041620227490201854,-0.019085898694750303,0.045843986272636195
1789997068347916300,1.945916259765625,0.07361451661261324,0.07184151040966497,-0.10733173497491702
1789997068357987300,1.9559873046875,0.1420877981222454,0.004413721865887849,-0.1072324261099484
1789997068368059400,1.966059326171875,0.11381139499465322,-0.06671734762378649,-0.14840110132143344
1789997068378130400,1.97613037109375,0.06432729637691424,-0.0866566548625414,0.008078880967513621
1789997068388201200,1.986201171875,0.01614204268225253,-0.14150648026025178,0.13748610344919962
1789997068398273500,1.9962734375,-0.022348618888808597,-0.055791494781802425,-0.18050492081563888
1789997068408344300,2.00634423828125,0.055345368434199266,-0.021293505229225303,-0.15123316617908739
1789997068418415400,2.016415283203125,0.08572170911395703,-0.07260382040361063,-0.09852032933577366
1789997068428486400,2.026486328125,0.009431026823030458,-0.16989016607220292,0.03980497099351029
1789997068438558500,2.036558349609375,-0.01194162679489301,-0.15918679162472446,0.08252950350487402
1789997068448629500,2.04662939453125,0.024946384509759355,-0.08462514815077027,0.07844085814314258
1789997068458700500,2.056700439453125,0.030963531777933755,-0.07933060772766908,0.03095094065267466
1789997068468772400,2.0667724609375,0.01001202043317336,-0.054754190849564476,0.05245615145479542
1789997068478843400,2.076843505859375,-0.005868047553530826,0.026306135447781955,0.0681287149644068
1789997068488914200,2.0869140625,-0.029766542543236855,0.049348387433065286,0.09016589897217529
1789997068498986200,2.096986328125,-0.009877749710485089,0.07565512012349873,-0.10856580493908073
1789997068509057300,2.107057373046875,0.06839448439697608,0.0696680007682175,-0.09750126683393494
1789997068519128300,2.11712841796875,0.12359028861259806,0.10705893869259664,-0.018552287542251095
1789997068529199400,2.127199462890625,0.15587517569347642,0.036752846302297845,0.24613993569099052
1789997068539271400,2.137271484375,0.14090572312773764,0.05295957533956013,0.07722062000187233
1789997068549342500,2.147342529296875,0.15999739620272954,0.17602648138542373,-0.06126185417455216
1789997068559413500,2.15741357421875,0.17907892327103972,0.14107868921523878,0.013698271553194056
1789997068569485300,2.1674853515625,0.18763883756778996,0.11090299703172077,0.033235453206500586
1789997068579556400,2.177556396484375,0.1427498734142968,0.19125273345584384,0.008325667137779654
1789997068589627400,2.18762744140625,0.19022144602467556,0.23187459137785638,0.05115361034083665
1789997068599699200,2.19769921875,0.21567174170657935,0.3143065620715604,-0.07660161303454258
1789997068609770200,2.207770263671875,0.21095625745866545,0.4224177877398366,-0.17742933764868163
1789997068619841300,2.21784130859375,0.20675988438102938,0.46335857536083147,0.01160400157056988
1789997068629912300,2.227912353515625,0.214716330282927,0.46789649231377933,0.1719340061282012
1789997068639984400,2.237984375,0.21085069479183755,0.5632912512858987,-0.04887696741840382
1789997068650055400,2.248055419921875,0.18101604201551913,0.6033163167597859,-0.0022604692109627596
1789997068660126500,2.25812646484375,0.2082861652373975,0.6013881787906747,0.0668094531761748
1789997068670198500,2.268198486328125,0.14784717939654243,0.5936927868109684,0.025777796534212322
1789997068680269300,2.278269287109375,0.08252289250204185,0.51396850227263,0.10635891754554137
1789997068690340400,2.28834033203125,0.1309372473181186,0.45799055228497343,0.12482525867658485
1789997068700411400,2.298411376953125,0.12091915997973936,0.4376285845228582,0.05135333723290899
1789997068710483200,2.308483154296875,0.12294799450953978,0.42503287170388987,0.07394373944932131
1789997068720554200,2.31855419921875,0.0973652798588968,0.3681549122233596,0.2184786765690573
1789997068730625300,2.328625244140625,0.021014935809757173,0.32543481708274613,0.08570444915645248
1789997068740697300,2.338697265625,-0.02705856953885152,0.2408070151809708,-0.027260440665220088
1789997068750768400,2.348768310546875,0.015158234556319872,0.20694065961236935,-0.1262456357365205
1789997068760839400,2.35883935546875,0.06033782349274142,0.1825389936467483,-0.06720078208484502
1789997068770911500,2.368911376953125,0.01672083586549081,0.1040273519529298,0.12266446058817762
1789997068780982300,2.378982177734375,-0.013027234354898175,0.010344150003807485,0.2291932987913188
1789997068791053300,2.38905322265625,-0.052794120423759264,0.04778254871828959,0.02461043235950216
1789997068801124400,2.399124267578125,-0.0709281011021265,0.050833859980703285,0.07029586711122587
1789997068811196400,2.409196533203125,-0.10010723747007513,0.05226514098299015,0.03228096216248738
1789997068821267500,2.419267333984375,-0.21746302680983257,0.025513892582573017,0.033046233555740066
1789997068831338500,2.42933837890625,-0.22956807485840275,-0.009807779808205389,0.1284029744898844
1789997068841410300,2.439410400390625,-0.09731632503944522,0.030270386948948614,0.15329400455536601
1789997068851481300,2.4494814453125,-0.031090559842360276,0.07957083831152384,0.11489334721071695
1789997068861552000,2.45955224609375,-0.1048327762160034,0.08236721870671876,0.16657098608366064
1789997068871624400,2.46962451171875,-0.17577011797425773,0.003705692253881744,0.2860112116837994
1789997068881695200,2.4796953125,-0.16839041179142247,-0.02614347164536772,-0.15516847648332835
1789997068891766300,2.489766357421875,-0.12207425493401378,-0.018853547454366733,-0.2570379290294866
1789997068901837300,2.49983740234375,-0.12361426364895502,-0.019106035560805923,-0.16184431454067122
1789997068911909400,2.509909423828125,-0.21190317921793972,-0.04856576051980018,-0.03967636694578977
1789997068921980400,2.51998046875,-0.24444224198324244,0.001723742860788647,-0.0668024341048276
1789997068932051500,2.530051513671875,-0.13994551571600553,0.0010245716036871159,0.12630921751380347
1789997068942123500,2.54012353515625,-0.06502912941058846,0.0669373904425182,-0.005944713446363694
1789997068952194600,2.550194580078125,-0.11602657271148636,0.04179176777534954,0.09942090182199764
1789997068962265300,2.560265380859375,-0.199760483131196,-0.04442381555229181,0.33812249707204006
1789997068972337200,2.570337158203125,-0.23300746019038257,-0.08675189068112327,0.12518927072753966
1789997068982408200,2.580408203125,-0.2502134196262565,-0.09945896251799483,-0.18301201485836832
1789997068992479200,2.590479248046875,-0.2021768645703164,-0.14015539424642715,-0.13306570493456135
1789997069002551000,2.600551025390625,-0.086335824641898,-0.11355664681106911,-0.08203587937784583
1789997069012623000,2.610623046875,-0.1308741329237353,-0.17490215170704868,0.02675904322042039
1789997069022694000,2.62069384765625,-0.2225343574708508,-0.1967930322957511,0.15261920912561355
1789997069032765000,2.630764892578125,-0.21228574259269384,-0.20907633916182913,0.01335635626253166
1789997069042837000,2.6408369140625,-0.2941873343484247,-0.23355373650354275,-0.19241904847857225
1789997069052908000,2.650907958984375,-0.3026586235571253,-0.27016895989110135,-0.1363952857488524
1789997069062979000,2.66097900390625,-0.35327448032575637,-0.2658214481373557,0.06255138867284643
1789997069073051000,2.67105078125,-0.3924537448468095,-0.31795740568081904,0.006202208453426651
1789997069083122000,2.681121826171875,-0.3054804156639108,-0.29146345663790246,-0.15962290126919482
1789997069093193000,2.69119287109375,-0.2876287723023688,-0.20984586812977393,-0.15367961221313137
1789997069103264000,2.701263916015625,-0.34997659107895196,-0.2540577542985767,0.13315516217237283
1789997069113336000,2.711336181640625,-0.2901847094427561,-0.36327860523178723,0.1849729437197445
1789997069123406800,2.72140673828125,-0.3131612654335477,-0.3415072983091743,-0.08193168920830222
1789997069133478000,2.731477783203125,-0.3323439618573921,-0.34877594816619634,-0.02904109987458207
1789997069143550000,2.741550048828125,-0.3100894510377972,-0.3321176298817712,0.02065228783408043
1789997069153621000,2.75162109375,-0.23931446236065093,-0.298481632430687,0.13824087314324257
1789997069163692000,2.761692138671875,-0.18740167623913873,-0.26374178531197157,0.20899903947962775
1789997069173764000,2.77176416015625,-0.20803078834854205,-0.2550158293593035,-0.03677300355953939
1789997069183835100,2.781835205078125,-0.25409922871873664,-0.293348646746271,-0.2047604824593292
1789997069193906200,2.79190625,-0.18941869758031876,-0.2502120767994371,-0.04899688956044431
1789997069203977000,2.80197705078125,-0.09433131284489998,-0.2782871108086509,0.18526815673899721
1789997069214048800,2.812048828125,-0.19414785220949307,-0.34089790791752117,-0.023122809055178457
1789997069224119800,2.822119873046875,-0.24309867658760967,-0.29464870216893835,-0.2838189482356905
1789997069234190800,2.83219091796875,-0.13055787424554052,-0.33410426131222143,0.10080849900735855
1789997069244263000,2.842262939453125,-0.01870865480416974,-0.30275198786550345,0.15503518871965505
1789997069254334000,2.852333984375,0.0048524175263150535,-0.26089182467239,0.18164483057807035
1789997069264405000,2.862405029296875,-0.036115697651745646,-0.20280625579865283,0.11092553918273085
1789997069274476000,2.87247607421875,-0.012294274768477486,-0.18534789175749106,-0.015111242288452429
1789997069284548000,2.882548095703125,0.06397373351989434,-0.16751109043592302,-0.031739195980888604
1789997069294619100,2.892619140625,0.10158157066535853,-0.1227712312770448,0.17070768827377406
1789997069304690000,2.90268994140625,0.08983882014880076,-0.01388173477227449,-0.002703363958167953
1789997069314762000,2.912761962890625,0.06522748043591993,0.07519783908888718,-0.22239802321715776
1789997069324833000,2.9228330078125,0.061502442749549566,0.0028877148844232807,-0.12360172141356808
1789997069334904000,2.932904052734375,0.15870629788227483,0.10099236106094911,-0.11669187663869575
1789997069344976000,2.942975830078125,0.22133801310389783,0.22248904914553233,-0.11298514708714243
1789997069355047000,2.953046875,0.1834696083903132,0.2169711024324474,0.0925664943924698
1789997069365118000,2.963117919921875,0.14224474567886558,0.2252267593233808,0.017756524506483226
1789997069375189000,2.97318896484375,0.2294044814255165,0.2718236486463092,-0.026506799862281685
1789997069385261000,2.983260986328125,0.2836913633340529,0.2806437749508019,0.07656429808268228
1789997069395331800,2.993331787109375,0.22213616354973367,0.27567504037579665,0.038448333959240945
1789997069405403000,3.00340283203125,0.13401542274361578,0.2668606387183266,-0.09168245074510492
1789997069415475000,3.013474853515625,0.11918747222788299,0.2677219741246177,-0.13733959592565417
1789997069425546000,3.0235458984375,0.17821691650872587,0.23653292697946307,0.038313550494095676
1789997069435617000,3.033616943359375,0.22344794412045785,0.182205021931821,0.1724487138575067
1789997069445689000,3.043689208984375,0.11901547691175139,0.10961269127856188,0.07180948230496795
1789997069455760100,3.053760009765625,0.0514937711489647,0.03081478906278305,0.10836671870575058
1789997069465831200,3.0638310546875,-0.009897152644479894,-0.015501465284038356,0.018513421530746112
1789997069475903000,3.073903076171875,-0.06947781402811086,-0.1028338383925366,-0.17758372177102677
1789997069485974000,3.08397412109375,-0.07238854820681648,-0.12752272057988334,-0.19513834734045676
1789997069496044800,3.094044921875,-0.019260583033211275,-0.11071548860849996,-0.11702306652091948
1789997069506115800,3.10411572265625,-0.041968133849579425,-0.14211139509860932,0.02849690648480727
1789997069516188000,3.11418798828125,-0.0895872408956535,-0.1968300419386549,0.12182942732098402
1789997069526259000,3.124259033203125,-0.10212869162410583,-0.29934551289234596,0.15892244161195676
1789997069536330000,3.134330078125,-0.14769651284323002,-0.3430814005122246,0.012636944106567388
1789997069546402000,3.144402099609375,-0.19959054950023958,-0.3542012514877849,0.015259970354951568
1789997069556473000,3.15447314453125,-0.20221759863522634,-0.3410177094957823,-0.08805977638398658
1789997069566544100,3.164544189453125,-0.22072937768364462,-0.3770637484652921,-0.18291842204631348
1789997069576616000,3.174615966796875,-0.16151871692610986,-0.3834942637915597,-0.21597262942111972
1789997069586687000,3.18468701171875,-0.11482505811686035,-0.3702714108413313,-0.07981579064573509
1789997069596758000,3.194758056640625,-0.17380092395132293,-0.4092836582513235,-0.060054454445623594
1789997069606828800,3.204828857421875,-0.2815526313162109,-0.44857198267678294,-0.024884477877554854
1789997069616900900,3.21490087890625,-0.19390800730026153,-0.4025385739602652,-0.04840378556876105
1789997069626972000,3.224971923828125,-0.10672227409418644,-0.32936054020543204,-0.04496041031063622
1789997069637043000,3.23504296875,-0.12642202116928627,-0.37569005700497826,0.1458918012592164
1789997069647115000,3.245114990234375,-0.20630622965097478,-0.33664185763715404,0.03480954374109885
1789997069657186000,3.25518603515625,-0.12171956745776323,-0.20538608917383186,-0.111510425697945
1789997069667257000,3.265257080078125,0.004527921259588779,-0.10637824040696794,0.025620249674853872
1789997069677329200,3.2753291015625,0.0051705077166545,-0.08465950514483028,0.027452549500333222
1789997069687400000,3.28539990234375,-0.10265056425457694,-0.056841211435192995,-0.1435188443314887
1789997069697471000,3.295470947265625,-0.07034921288079721,-0.017382790867618368,-0.035786976676798234
1789997069707542000,3.3055419921875,0.017839345246506662,0.05610009958954588,0.00012656871455267628
1789997069717613800,3.31561376953125,0.07984633785004451,0.08186465220414756,0.11875055525740337
1789997069727684900,3.325684814453125,0.0695816688958493,0.1285085921595017,0.014590757345771675
1789997069737756000,3.335755859375,0.08625432320453824,0.14135393441159336,-0.05318650581709032
1789997069747828000,3.345827880859375,0.14336535128604952,0.17340420044232058,-0.10069569406311855
1789997069757899000,3.35589892578125,0.16052651109345345,0.236552238276978,0.04898752991025891
1789997069767970000,3.365969970703125,0.14746926767915408,0.23572295653080078,0.0782722714911887
1789997069778042000,3.3760419921875,0.10235751495306893,0.2812844413542706,-0.06925349439345449
1789997069788113000,3.38611279296875,0.14864643934191332,0.23888675476727061,0.034127773080397036
1789997069798184000,3.396183837890625,0.25688508870838,0.24445170895791374,0.13832986179606768
1789997069808255000,3.4062548828125,0.25316608487346387,0.31756720994461124,0.07847329543050782
1789997069818327000,3.4163271484375,0.23954035092951373,0.33712632419760785,-0.12730795077092943
1789997069828398000,3.426398193359375,0.17725188672054962,0.249199146100947,-0.030921164096471294
1789997069838469000,3.43646923828125,0.1436466675890608,0.1970488144305464,-0.0004530209431927278
1789997069848541000,3.446541015625,0.13538594714667002,0.255539380720269,0.05570883761714948
1789997069858612000,3.456612060546875,0.20164554083347544,0.2736999033641531,0.048487346754978115
1789997069868682800,3.466682861328125,0.14600516453318949,0.1908282154142205,-0.10962152796640427
1789997069878755000,3.476755126953125,0.1208467602101588,0.07447018998336195,-0.1621450944173025
1789997069888825900,3.486825927734375,0.12554535454277205,0.08676721829841255,-0.17464811200926592
1789997069898897000,3.49689697265625,0.1605129215670307,0.05554071372132014,-0.011053977144776505
1789997069908968000,3.506968017578125,0.06696375840171721,-0.04897343321330826,0.04322726275412258
1789997069919040000,3.5170400390625,-0.02937194443062582,-0.0851376277422404,0.026849642294567922
1789997069929111000,3.527111083984375,-0.03543381783349418,-0.05783326145277749,0.16229816380319392
1789997069939182000,3.53718212890625,-0.038637340857841464,-0.026802052297359057,0.17824249330791456
1789997069949254100,3.547254150390625,-0.06356747180209658,-0.025265951981381415,-0.037657711685889786
1789997069959325200,3.5573251953125,-0.06539313501520715,-0.06302718362073625,0.09557698580031562
1789997069969396000,3.56739599609375,-0.026681106484833,-0.01146994778898368,0.08732511180942422
1789997069979467800,3.5774677734375,-0.025515334768337863,0.022474115261259867,0.02216292561365983
1789997069989538800,3.587538818359375,-0.017093948491631258,-0.012546821875336664,0.2774803536241453
1789997069999609900,3.59760986328125,-0.11618799231774203,-0.0660765581164573,0.36792129649446276
1789997070009681400,3.607681396484375,-0.17269773127387036,-0.08076624796114548,0.17685663132482027
1789997070019752400,3.61775244140625,-0.2066984810012125,-0.09005554973958416,0.15860820478743637
1789997070029823500,3.627823486328125,-0.24084837699016162,-0.16959105732753613,0.05999948478596035
1789997070039894500,3.63789453125,-0.2584903302345926,-0.171683720941644,-0.12493625318394339
1789997070049966600,3.647966552734375,-0.2113498811953778,-0.23705381309914686,0.13218006199373342
1789997070060037400,3.658037353515625,-0.22330525818889385,-0.2778722617490107,0.06478988153229615
1789997070070108400,3.6681083984375,-0.20379004252627675,-0.36633045105724743,0.13313493733659956
1789997070080180500,3.678180419921875,-0.17995444481136996,-0.3643859404977897,0.12505737259766989
1789997070090251500,3.68825146484375,-0.14557156035694618,-0.3715359733219615,0.13730184495050746
1789997070100322600,3.698322509765625,-0.13858778474728958,-0.3637883648255896,0.07431658204296379
1789997070110394400,3.708394287109375,-0.10937230514216056,-0.3480038475456549,-0.037982673260691574
1789997070120465400,3.71846533203125,-0.08629571991181421,-0.33253743646498696,-0.09745847253802392
1789997070130536400,3.728536376953125,-0.08700742879167954,-0.33186766613089147,0.06707320169664627
1789997070140607200,3.738607177734375,-0.05044858603621012,-0.2621105055296249,0.16674217607218272
1789997070150679600,3.748679443359375,-0.030066215644319657,-0.1924142806716353,0.15770539972274578
1789997070160750300,3.758750244140625,0.04016577777491449,-0.11535161871608085,0.08987123306991777
1789997070170821400,3.7688212890625,0.05094294319887003,-0.09513072675522924,0.1925701090846402
1789997070180893400,3.7788935546875,-0.013294911858112065,-0.06557577945349298,0.04770947154504235
1789997070190964500,3.788964599609375,-0.03703586295577424,0.0037389914127343173,-0.12305027128426914
1789997070201035500,3.799035400390625,-0.0014177510727602035,0.02331739681093402,0.008869851247703625
1789997070211107600,3.809107666015625,0.01725338192201797,0.04009487390540297,0.0625638413309482
1789997070221178600,3.8191787109375,0.0318949451898705,0.04004764024956722,0.06447399321588428
1789997070231249700,3.829249755859375,0.03744958860273099,0.028524474951478057,0.04974742954605472
1789997070241320400,3.839320556640625,0.035538563685173837,0.03775673702701758,0.03413682569956761
1789997070251392300,3.849392333984375,0.03368861218166018,0.016580906332266512,0.01991056026203055
1789997070261463300,3.85946337890625,0.031718468830026304,-0.030201316592199722,0.049703283270578796
1789997070271534300,3.869534423828125,0.02619372868265074,-0.06791624661077081,-0.015932386871040417
1789997070281606400,3.8796064453125,0.026763746641201236,-0.103944754538495,-0.13624023176501404
1789997070291677400,3.889677490234375,0.026687552011434624,-0.09623129661405672,-0.1265014905240291
1789997070301748500,3.89974853515625,0.036457542267070674,-0.10842047978452542,-0.02192447056082247
1789997070311820500,3.909820556640625,0.047477518215749206,-0.11410681202214172,-0.10996391626751138
1789997070321891600,3.9198916015625,0.029044236432149838,-0.11265061962729028,-0.14818140102886077
1789997070331962600,3.929962646484375,-0.025535353455982977,-0.11130682357369553,-0.09800516304198491
1789997070342033400,3.940033447265625,-0.0421488820131096,-0.07497139609385906,-0.11942019400365285
1789997070352105500,3.95010546875,-0.03783456386476681,-0.09592614104645857,-0.029599907584706018
1789997070362176500,3.960176513671875,-0.047891738283262486,-0.13843343339038744,-0.011257112500972995
1789997070372247600,3.97024755859375,-0.029969707033417406,-0.17784090014708695,-0.055165747856072096
1789997070382319400,3.9803193359375,0.008970884522670875,-0.1897491146475226,-0.09805946575784431
1789997070392390400,3.990390380859375,0.022808306619860677,-0.1914680319687037,-0.19627493682877245
1789997070402461400,4.00046142578125,0.012740639092181462,-0.1509216222812484,-0.16716579149959043
1789997070412533500,4.010533447265625,-0.03329334691416291,-0.16112906568885504,0.08757237598989841
1789997070422604500,4.0206044921875,-0.0883841524580702,-0.2193976069442203,0.06710687008955538
1789997070432675300,4.03067529296875,-0.13115485176401792,-0.2712788805407153,-0.13054410035494343
1789997070442747600,4.04074755859375,-0.13313547112164945,-0.26513111453474386,-0.1457494253751826
1789997070452818400,4.050818359375,-0.08617237482115504,-0.24437758313639021,-0.09896817809671214
1789997070462889500,4.060889404296875,-0.044702704375313346,-0.2237741289431902,-0.17910512249971272
1789997070472960500,4.07096044921875,-0.05413501131587719,-0.2612958222883809,-0.08819222774344213
1789997070483032600,4.081032470703125,-0.0469236098073057,-0.223543567253696,-0.2122885422704594
1789997070493103600,4.091103515625,-0.055685497577530364,-0.17426803275954988,-0.22357985679956804
1789997070503174700,4.101174560546875,-0.042378114174565606,-0.16934834455331213,-0.021249935170970652
1789997070513246500,4.11124658203125,-0.03408693951035368,-0.18202687311602656,0.0252936458818889
1789997070523317500,4.1213173828125,-0.022144953122530817,-0.12211311040588947,-0.1390631250554575
1789997070533388300,4.13138818359375,0.005229421063459806,-0.05405373699270425,-0.14408290998299142
1789997070543460400,4.14146044921875,0.10140865180976028,-0.055983840174305556,-0.016280954239118833
1789997070553531400,4.151531494140625,0.15977617951424328,-0.04526887025217659,0.051364792201591285
1789997070563602400,4.1616025390625,0.16289718917632653,0.04335293474764775,-0.10242339959426855
1789997070573673500,4.171673583984375,0.16779088211466003,0.13105253412048576,-0.22242356145999234
1789997070583745500,4.18174560546875,0.23170829599015402,0.12532960940712887,-0.041187863325906925
1789997070593816600,4.191816650390625,0.27906113155618256,0.13708167810426558,0.15121684883559555
1789997070603887600,4.2018876953125,0.3370450234459801,0.25519197921870085,0.09632879323413066
1789997070613959400,4.21195947265625,0.3204035411008838,0.36726955885238977,-0.014873720046950471
1789997070624030500,4.222030517578125,0.29334769349028483,0.453020523011638,-0.15863423608555138
1789997070634101500,4.2321015625,0.3399303027087045,0.46637174823947697,-0.0011871691608630977
1789997070644173300,4.24217333984375,0.3758881609124848,0.5321209439518101,0.11589912524789754
1789997070654244400,4.252244384765625,0.387294903360555,0.6610173440829764,-0.040782187120152406
1789997070664315400,4.2623154296875,0.3420230915716419,0.7684412224314164,-0.23708316752656802
1789997070674387500,4.272387451171875,0.29380608334038494,0.7152842880050297,-0.2243616474545708
1789997070684458500,4.28245849609375,0.284718375494861,0.5173427340451072,0.0414650178553604
1789997070694529500,4.292529541015625,0.23894502693247008,0.6007568741823364,0.07365279849253438
1789997070704600600,4.3026005859375,0.19789510170001182,0.6264065707797629,0.027666272466880443
1789997070714672600,4.312672607421875,0.13579269936838564,0.5723358429510162,-0.14179844653485754
1789997070724743400,4.322743408203125,0.11249019011288773,0.43557215622610174,-0.11337536098596683
1789997070734814500,4.332814453125,0.10963345579777162,0.4070780607267554,-0.210368363046773
1789997070744886300,4.34288623046875,0.11632393153544798,0.3517320345240572,0.08106558796382195
1789997070754957300,4.352957275390625,0.15308939093689578,0.2829945084191344,0.2375859354721141
1789997070765028400,4.3630283203125,0.11587165810669664,0.24221958536824695,0.027437276068114524
1789997070775100400,4.373100341796875,0.1128172055293996,0.1920739150348251,0.07609050484791502
1789997070785171500,4.38317138671875,0.02574171860986987,0.1450752460829712,0.07183664780083482
1789997070795242500,4.393242431640625,-0.03640834413427376,0.03142296437031563,0.05406684388667946
1789997070805314600,4.403314453125,-0.05335578961040621,-0.056670883704751644,0.1552161405579814
1789997070815385600,4.413385498046875,-0.06911377700693347,-0.06441225725802989,0.08500749026366605
1789997070825456400,4.423456298828125,-0.028982171166621107,-0.13440471786732133,0.1341825616754077
1789997070835527400,4.43352734375,-0.04857830999239772,-0.1714884135922458,0.18518604398465283
1789997070845599500,4.443599609375,-0.15908426925702,-0.19159094029358653,0.11706426894478862
1789997070855670500,4.45367041015625,-0.20902213981108672,-0.270966813139644,-0.004536736557136635
1789997070865741600,4.463741455078125,-0.2632394818817312,-0.3389625178715031,-0.024344031075892773
1789997070875813400,4.4738134765625,-0.26581370745105115,-0.34104887706636317,0.12091126776925608
1789997070885884400,4.483884521484375,-0.27335955750114577,-0.3426172928605061,0.16895986302874266
1789997070895955500,4.49395556640625,-0.28148951037892583,-0.3817064311248508,0.12883034846249275
1789997070906027500,4.504027587890625,-0.21188288881053222,-0.35756777199646045,-0.09888020603309777
1789997070916098600,4.5140986328125,-0.20119110267167703,-0.2937798276265956,-0.12132268906305761
1789997070926169300,4.52416943359375,-0.20141074267837528,-0.29317406327269463,0.1935290053032022
1789997070936240400,4.534240478515625,-0.23684491052539133,-0.40157276432983485,0.1649532176303716
1789997070946312400,4.5443125,-0.3141419326706756,-0.4572899289787562,-0.14597629296453424
1789997070956383500,4.554383544921875,-0.2846320575116217,-0.393385609062645,-0.257429833079511
1789997070966454500,4.56445458984375,-0.2529671327534793,-0.3735148619331286,0.07571639064995421
1789997070976526600,4.574526611328125,-0.15103103312417007,-0.4063414868323878,0.16977187125668597
1789997070986597600,4.58459765625,-0.13267804242761783,-0.44986294057604664,0.013701542417830045
1789997070996668700,4.594668701171875,-0.17692333037450092,-0.39717345852202895,0.042054719075498764
1789997071006740500,4.604740478515625,-0.2327857932665304,-0.3983101172323753,0.16488260559806492
1789997071016811500,4.6148115234375,-0.24018247135951068,-0.35168692891702286,-0.1400831320877223
1789997071026882300,4.62488232421875,-0.14287218797123805,-0.3593106059792169,-0.18385373615915698
1789997071036954400,4.634954345703125,-0.07202309727193892,-0.2866363094462153,0.01938418085822054
1789997071047025400,4.645025390625,-0.07998781984121688,-0.2937451914076134,0.22021149923790506
1789997071057096400,4.655096435546875,-0.16065626739109232,-0.26996656277821063,0.002587244468231932
1789997071067167500,4.66516748046875,-0.12246772482027238,-0.22396284118717216,-0.06224252933113153
1789997071077239600,4.675239501953125,-0.06955418383277241,-0.16786655117538848,0.05155541723200706
1789997071087310600,4.685310546875,-0.04514876952576037,-0.17733616600032304,0.051780279770102945
1789997071097381600,4.695381591796875,-0.0784915173566604,-0.24762001057716573,-0.01191289420422751
1789997071107453700,4.70545361328125,0.024620541361394306,-0.24404504403790367,-0.140478479626355
1789997071117524700,4.715524658203125,0.1039029913060389,-0.21553349598468552,-0.014170400955564703
1789997071127595500,4.725595458984375,0.04573865493960048,-0.18123213185022896,0.018755960459728778
1789997071137667300,4.735667236328125,-0.03877897192602126,-0.24218408645890133,-0.02067454838541358
1789997071147738400,4.74573828125,-0.04624019111386195,-0.23706188856556057,-0.023948136417585666
1789997071157809400,4.755809326171875,0.08603659495734235,-0.1390853003800467,0.007542022359030239
1789997071167880400,4.76588037109375,0.1649760355683963,-0.11969008501792021,0.09251135230768202
1789997071177952500,4.775952392578125,0.1039980805516894,-0.14226015862700636,-0.08883756088329588
1789997071188023600,4.7860234375,0.06604138577021872,-0.15590602642128684,-0.12455729128202152
1789997071198094600,4.796094482421875,0.06362205585166207,-0.05910835812097476,-0.17634526222567823
1789997071208166700,4.806166748046875,0.1152280481205295,-0.03741872402642257,-0.08670845689935701
1789997071218237400,4.816237548828125,0.11975673705280909,-0.08514370129201593,0.08096022103017592
1789997071228308500,4.82630859375,0.09789892486873418,-0.0708431868381482,0.11437856239379858
1789997071238380500,4.836380615234375,0.14343826970514376,-0.11128585067922092,0.17398321508722597
1789997071248451600,4.84645166015625,0.16624591164615737,-0.09111573821218065,-0.08245762182061085
1789997071258522600,4.856522705078125,0.19321394117193177,-0.12330473601601036,0.04255476229154825
1789997071268594400,4.866594482421875,0.22130384251249804,-0.08826839767954021,0.10174492433011921
1789997071278665500,4.87666552734375,0.2383875867550145,-0.07012545012323525,0.09698176030422814
1789997071288736500,4.886736572265625,0.15547749141095665,-0.01207589151136116,-0.03766713494775077
1789997071298808600,4.89680859375,0.12667578645260247,0.016569294705122486,-0.10354404246862875
1789997071308879600,4.906879638671875,0.13264109695215223,0.037970450139151055,-0.02944655065238259
1789997071318950400,4.916950439453125,0.1564386469236659,0.031545335578907215,0.25569815923625483
1789997071329021400,4.927021484375,0.24663138993419526,0.08170791732252246,0.16630331716486227
1789997071339093500,4.937093505859375,0.3019485459284095,0.21713767867002168,-0.035131250089596174
1789997071349164500,4.94716455078125,0.322337267015181,0.2602000850167623,0.12307313831342855
1789997071359235600,4.957235595703125,0.2562089079162653,0.2944256650542729,-0.02930185933257006
1789997071369307400,4.967307373046875,0.2489453610980372,0.28555335002621623,0.03490988875701022
1789997071379378400,4.97737841796875,0.2701310761457055,0.34446842881484696,0.0758864313450601
1789997071389449500,4.987449462890625,0.262959801517221,0.36723472411122543,-0.02566652104793193
1789997071399521500,4.997521484375,0.3110353705767616,0.3445636202106176,-0.11129689551373428
1789997071409592600,5.007592529296875,0.38546591046801304,0.34768421854797243,0.05846083272607237
1789997071419663400,5.017663330078125,0.35928750811730426,0.40023139910197475,-0.06052402999392692
1789997071429735400,5.0277353515625,0.2869262666287934,0.40189308389223527,-0.005633240338823976
1789997071439806500,5.037806396484375,0.3794561431355815,0.4264693088946695,0.00841684412073894
1789997071449877500,5.04787744140625,0.32517034308700193,0.4804007701853793,-0.016301914621372704
1789997071459948500,5.057948486328125,0.33240027993998245,0.4794070256412594,0.07623028575744736
1789997071470020600,5.0680205078125,0.34170272189083195,0.4698018827714398,0.17489134648581584
1789997071480091600,5.078091552734375,0.32333180498811914,0.5453899612556128,-0.03724305118960307
1789997071490162700,5.08816259765625,0.3104278809043984,0.5267265882841512,-0.06443934241116157
1789997071500234500,5.098234375,0.3032032727787106,0.5209287777847271,-0.02413222659330002
1789997071510305300,5.10830517578125,0.24079204474679383,0.5551750273466437,-0.0006750825935674066
1789997071520376300,5.118376220703125,0.26624285764898864,0.5735550548803912,-0.17907338102175777
1789997071530448400,5.128448486328125,0.2270093805128006,0.608315560091295,-0.2790181924960508
1789997071540519400,5.13851953125,0.17773243932383212,0.5729569215101605,-0.09720473499870659
1789997071550590500,5.148590576171875,0.16885497764152052,0.48593302485759293,0.12925515058800616
1789997071560661500,5.15866162109375,0.18192591437254022,0.41952321340007404,0.19493088810124554
1789997071570733600,5.168733642578125,0.1054392494559981,0.42872633850654396,-0.06640274755149506
1789997071580804600,5.1788046875,0.03879659313847647,0.42928798917381666,-0.1756365695991746
1789997071590875600,5.188875732421875,-0.009444220948197201,0.40270711118764446,-0.08663559095331269
1789997071600947700,5.19894775390625,-0.0014337628042197768,0.3689451201983737,-0.08501791058442584
1789997071611018500,5.2090185546875,0.011078547259390613,0.2980484936566851,0.009679890886910571
1789997071621089500,5.219089599609375,-0.011946505404565719,0.18848290452569225,0.09256966488447499
1789997071631161300,5.229161376953125,-0.09974067900847387,0.11289916797777519,0.01978984315863274
1789997071641232400,5.239232421875,-0.08366280047363846,0.05764867776091136,0.057954180578116
1789997071651303400,5.249303466796875,-0.07773431357461359,0.05892725730819946,-0.15299357234763672
1789997071661375500,5.25937548828125,-0.13186010048609736,-0.025738275461168386,-0.21983326648203147
1789997071671446500,5.269446533203125,-0.25488084542933587,-0.14211317636283313,-0.24772791454162274
1789997071681517600,5.279517578125,-0.2343813292298169,-0.08493241950548287,-0.558622360792202
1789997071691589600,5.289589599609375,-0.18616470002666294,-0.023647826696535187,-0.33479892101773584
1789997071701660700,5.29966064453125,-0.14279000448036117,0.0728361406602633,0.058221716828561546
1789997071711731500,5.3097314453125,-0.18808753877984416,-0.08434748795027282,0.2277417551293856
1789997071721802500,5.319802490234375,-0.23079580929933508,-0.12926160642078582,0.16893835934830007
1789997071731874600,5.32987451171875,-0.16771159472050853,-0.036181030482260096,0.0006828847963459684
1789997071741945600,5.339945556640625,-0.17262313248543543,-0.04850986434336603,-0.23576238627623305
1789997071752016600,5.3500166015625,-0.235740871764571,-0.2199641026339283,0.0036062212056540578
1789997071762088400,5.36008837890625,-0.17368664978952658,-0.26546002488166837,0.25906571038248244
1789997071772159500,5.370159423828125,-0.00598234464305324,-0.16023248065063322,0.10463304161104223
1789997071782230500,5.38023046875,-0.029134555949396127,-0.10580654378695155,0.17077710984235342
1789997071792302600,5.390302490234375,-0.08222879850275638,-0.039092552735257434,0.1154382075149078
1789997071802373400,5.400373291015625,-0.16514652383793374,-0.046209792998741187,0.068432423429523
1789997071812444400,5.4104443359375,-0.14256848441146586,0.021533153253839903,-0.10715273519433015
1789997071822516500,5.4205166015625,-0.06644974639651466,0.05568158056486908,0.016515683899200457
1789997071832587500,5.43058740234375,-0.02804046669019656,0.02985827592403232,0.19673716005251168
1789997071842658600,5.440658447265625,0.026576430498625743,0.0021871564868767147,0.1782672460152223
1789997071852729600,5.4507294921875,-0.037664437287731084,0.08281772223634107,-0.1319675869683976
1789997071862801700,5.4608017578125,-0.10485260661298092,0.14670191517999323,-0.16176695676862016
1789997071872872700,5.470872802734375,-0.08833024990733625,0.13139279904703932,-0.08338393094672264
1789997071882943700,5.48094384765625,-0.07138573347959293,0.12496839359848805,0.10155618567215402
1789997071893015600,5.491015625,-0.08831469162457671,0.12948018458664864,0.17134968025718245
1789997071903086300,5.50108642578125,-0.1085715580593134,0.12800554329819352,-0.05175862758237122
1789997071913157400,5.511157470703125,-0.08417505597414919,0.14013334427691063,-0.21802121870245342
1789997071923229400,5.5212294921875,-0.09216199633613842,0.062312720987608684,-0.04214611047291009
1789997071933300500,5.531300537109375,-0.09891064267838114,-0.005707327041491264,0.03453493405291242
1789997071943371500,5.54137158203125,-0.09254734953500048,-0.042364134137422044,0.21033347780595948
1789997071953443600,5.551443603515625,-0.12008949754435985,-0.036257968190998406,0.1499095671122689
1789997071963514600,5.5615146484375,-0.08415540819420454,-0.0510381478238842,0.019440356622414397
1789997071973585700,5.571585693359375,-0.07191900154316141,-0.09999313890360485,0.08333487191495453
1789997071983656400,5.581656494140625,-0.09456398372341497,-0.11059250931042114,0.21230206477326546
1789997071993728500,5.591728515625,-0.007985955036989635,-0.22288316536502104,0.5308574885918252
1789997072003799800,5.6017998046875,-0.09383557550171895,-0.21296053529460218,0.3432146402539022
1789997072013870800,5.611870849609375,-0.09149589844351153,-0.16179299077198162,0.07480640312087862
1789997072023943000,5.62194287109375,-0.0714221595918339,-0.24494390656048748,-0.017821764994763
1789997072034014000,5.632013916015625,-0.15230413091287343,-0.32070461954891305,0.06930219019837328
1789997072044084700,5.642084716796875,-0.1901380294557622,-0.28277986169922115,-0.05083619247362737
1789997072054156800,5.65215673828125,-0.16334144604369277,-0.28217814364979216,-0.05869855972810499
1789997072064227800,5.662227783203125,-0.14238013814240008,-0.2741858836516651,-0.012282218407837152
1789997072074299000,5.672298828125,-0.08539261511101696,-0.22764040477853956,0.09978460242683074
1789997072084371000,5.682370849609375,-0.07403422520353882,-0.16359416598627335,-0.08840920959155707
1789997072094442000,5.69244189453125,-0.0728773870937518,-0.2287256749892026,-0.036963945283831255
1789997072104513000,5.702512939453125,-0.07979979541887083,-0.1793327591779443,-0.07674922103946896
1789997072114584000,5.712583984375,-0.04149289167659866,-0.21862563458645948,0.009845529319984333
1789997072124655900,5.72265576171875,-0.05478411064600015,-0.1627274421147164,-0.29341487882191886
1789997072134727000,5.732726806640625,-0.01596920860944062,-0.1518672102260451,-0.282874426776418
1789997072144797700,5.742797607421875,0.02008660747672028,-0.17934349095954813,0.07340243319495175
1789997072154869800,5.752869873046875,0.024085038740812918,-0.12313959492332276,-0.17204722864240207
1789997072164940800,5.76294091796875,-0.024029724805124306,-0.1097190733631774,-0.35759205238211694
1789997072175011800,5.77301171875,0.026371522763792496,-0.0935117165209172,-0.18186924056476755
1789997072185084000,5.783083984375,0.09956198133022799,-0.026433434322156266,-0.04670470454104126
1789997072195155000,5.793155029296875,0.059772277097023804,-0.018784918283197814,-0.08688287662725576
1789997072205226000,5.80322607421875,0.11504752642836852,-0.023020652087956995,-0.0787473366128678
1789997072215298000,5.813298095703125,0.1530543905491658,-0.016437517001263748,0.05981519794266121
1789997072225369000,5.823369140625,0.1373129363996772,-0.02831171924147034,-0.08812042062824965
1789997072235439900,5.83343994140625,0.10521997181011038,-0.09759548651109044,-0.08755315849937163
1789997072245512000,5.843511962890625,0.12901393535811204,0.03372822799213045,-0.06061549235237494
1789997072255582700,5.853582763671875,0.1735096230366774,0.07796537598569936,0.04925015494172033
1789997072265653800,5.86365380859375,0.10400907848496775,0.13542302222696112,-0.13872224280359807
1789997072275724800,5.873724853515625,0.05599846828926427,0.0842091987570213,0.005615994004157852
1789997072285796900,5.883796875,0.0954866226710111,0.1689350520469109,-0.0526157063845912
1789997072295868000,5.893867919921875,0.15794767707672458,0.26475866076976706,-0.032308243738504
1789997072305939000,5.90393896484375,0.15128940910537456,0.33949483186580487,-0.23743212265725405
1789997072316011000,5.914010986328125,0.14681791589399404,0.3215961548953954,-0.04644872941107813
1789997072326082000,5.92408203125,0.16984923080025566,0.36233989149962875,-0.09671219915656193
1789997072336152800,5.93415283203125,0.15528169045919715,0.3751057955773078,-0.09775857632605449
1789997072346225000,5.944224853515625,0.13972129533782973,0.3645372471888539,-0.10559609129530176
1789997072356296000,5.9542958984375,0.16205511153638508,0.3593077833246591,-0.03910412442535648
1789997072366367000,5.964366943359375,0.14264501821930312,0.36559506273377557,-0.16199948580063495
1789997072376438800,5.974438720703125,0.1686035274029657,0.40700181397593826,-0.21197182030995954
1789997072386509800,5.984509765625,0.16592307221741776,0.3451994043076451,-0.012263130702214678
1789997072396580900,5.994580810546875,0.12971528716688843,0.3259381225553481,-0.0716893393117645
1789997072406652000,6.00465185546875,0.14082482596441426,0.2857653355407708,-0.10409682406206985
1789997072416724000,6.014723876953125,0.18142847212592367,0.3351523988785028,-0.18979600965169421
1789997072426795000,6.024794921875,0.1890414503723841,0.30663572396445926,-0.0985460284448731
1789997072436865800,6.03486572265625,0.18568938435381985,0.27509133100190675,-0.08494266228286759
1789997072446937900,6.044937744140625,0.15067953147173363,0.2288715012833211,0.05612195338426275
1789997072457009000,6.0550087890625,0.1298553223515091,0.24676068854464708,-0.11527313852952488
1789997072467080000,6.065079833984375,0.12435345104172235,0.22313228738577603,-0.03990391503385222
1789997072477151700,6.07515185546875,0.10764567678240242,0.21851108808851577,-0.04369381835053174
1789997072487222800,6.085222900390625,0.11245305646770945,0.23064272265700508,-0.020117723872963397
1789997072497293800,6.0952939453125,0.08026866921387475,0.20264175533959555,-0.03602415449761387
1789997072507366000,6.105365966796875,0.10213538779134404,0.16252509027273565,0.015533962271963825
1789997072517437000,6.11543701171875,0.10951111177123854,0.13969394526941947,0.12976701153952852
1789997072527507700,6.1255078125,0.14405945252544997,0.13810122280365403,0.037805826027990444
1789997072537578800,6.135578857421875,0.016690716520811815,0.15161188310428927,-0.13109130228253696
1789997072547650800,6.14565087890625,0.013001915408844584,0.11546640623064353,0.04182772598998668
1789997072557721900,6.155721923828125,0.0627194447126757,0.08608875719741906,0.21122833089735793
1789997072567793000,6.16579296875,0.01354341984321899,0.1854109845050319,-0.034130988225743876
1789997072577865000,6.175864990234375,-0.020986864715744274,0.14444670442412097,0.12960721927771737
1789997072587936000,6.18593603515625,-0.016250161040822147,0.10613865602330565,0.19537763684906875
1789997072598007000,6.196007080078125,-0.017938336019508713,0.1245487140278915,0.2450496530603445
1789997072608078800,6.206078857421875,0.013868704623334362,0.19953455243341695,0.14584232201284653
1789997072618150000,6.21614990234375,0.025550197258185182,0.17053631713823314,0.20383297879975096
1789997072628220700,6.226220703125,-0.05295000771511386,0.119252480463403,0.2709506722766594
1789997072638292700,6.236292724609375,-0.011159039974422887,0.12428915345107552,0.3798519318304458
1789997072648363800,6.24636376953125,0.03519719657290083,0.15025537607871817,0.30942456320703443
1789997072658434800,6.256434814453125,-0.004877871490134608,0.16392182435409502,0.3063676992324145
1789997072668507000,6.2665068359375,-0.04332600371098329,0.14414550150489083,0.4286016912522717
1789997072678578000,6.276577880859375,-0.08281876508478561,0.12518499068997452,0.3793267941269458
1789997072688649000,6.28664892578125,-0.07800309271225642,0.056018200810911856,0.22032693113742624
1789997072698720000,6.296719970703125,-0.16161676019668175,0.018129304410223843,0.13334277970670183
1789997072708792000,6.3067919921875,-0.16493993917213848,0.1091477551517949,0.32918942699695336
1789997072718863000,6.316863037109375,-0.05631551448663718,0.14488128118869428,0.35200196384373755
1789997072728934000,6.326933837890625,-0.131071736938914,0.06876057671951603,0.13098432241215918
1789997072739005700,6.337005615234375,-0.2142367507679991,0.05232321707745266,0.1080167012471804
1789997072749076700,6.34707666015625,-0.11340292559903552,0.09515183499681128,0.21072581360280698
1789997072759147800,6.357147705078125,-0.028841586299203484,0.09709887953532151,0.3295327436073775
1789997072769219800,6.3672197265625,-0.10076743504362316,-0.005080040748537038,0.3120055807886823
1789997072779291000,6.377290771484375,-0.142141038590041,-0.13014633787692909,0.2729633213267333
1789997072789362000,6.38736181640625,-0.1248385606255706,-0.10134246593143235,0.024153031389055488
1789997072799434000,6.39743408203125,-0.130353762167163,-0.09065529364248835,-0.04399463568846356
1789997072809505000,6.407505126953125,-0.06368779558390086,-0.12643747999893204,0.21675386580675307
1789997072819575800,6.417575927734375,-0.09723500262865797,-0.16560339978155786,0.275710963012107
1789997072829648000,6.42764794921875,-0.1569442892334951,-0.13550575493305914,0.141950237207357
1789997072839719000,6.437718994140625,-0.1190655407209083,-0.08618654596361486,0.12024000193282537
1789997072849790000,6.4477900390625,-0.20304690661365818,-0.035244509172752736,-0.09999448323311853
1789997072859861000,6.457861083984375,-0.24328094173766698,-0.07406279223266302,-0.2167387912042948
1789997072869932800,6.467932861328125,-0.2125361463840746,-0.10929905118786491,-0.09445558563220949
1789997072880003800,6.47800390625,-0.12670239944513081,-0.10034386786403225,-0.1884481317820897
1789997072890075000,6.488074951171875,-0.1391301539385728,-0.11965466769176088,-0.37029532909749774
1789997072900147000,6.49814697265625,-0.18773164547758553,-0.15504989433849234,-0.01649188631314673
1789997072910218000,6.508218017578125,-0.13955240835130758,-0.2184133632190685,0.34073702133967365
1789997072920288800,6.518288818359375,-0.22130713096448054,-0.23434770991959242,-0.19830800214127664
1789997072930360800,6.52836083984375,-0.2768283424690199,-0.24503308109057015,-0.2485214452222072
1789997072940432000,6.538431884765625,-0.29464713355603467,-0.20627569584301592,-0.2036455040870665
1789997072950503000,6.5485029296875,-0.22352166071351423,-0.20827047741654575,-0.3115952412503211
1789997072960575000,6.558574951171875,-0.2510678520659717,-0.18229996061604703,-0.33679245119408485
1789997072970646000,6.56864599609375,-0.22191246323053201,-0.1956824402395521,-0.04103046051676259
1789997072980717000,6.578717041015625,-0.20632641118614084,-0.23489725429161315,0.06877696955962548
1789997072990788000,6.5887880859375,-0.2144713758015751,-0.22616733885091164,-0.15535201272757712
1789997073000860000,6.59885986328125,-0.27735295421228345,-0.2162985128616556,-0.22396311079330758
1789997073010930200,6.60893017578125,-0.28301601340616406,-0.2827255800278524,-0.15600775634187672
1789997073021001200,6.619001220703125,-0.27786348748301165,-0.2895015790552442,-0.2106144281261664
1789997073031073000,6.629072998046875,-0.24770752682175667,-0.27085687148190657,-0.268883316324599
1789997073041144000,6.63914404296875,-0.1874874156745731,-0.2614144078744186,-0.17291174494718745
1789997073051215000,6.649215087890625,-0.15891169184062826,-0.25234750407469575,-0.08127526692504919
1789997073061287200,6.659287109375,-0.1938425598379713,-0.28248376570216516,0.06774927299181345
1789997073071358200,6.669358154296875,-0.2441750272532386,-0.31476429594670097,0.051456349853763
1789997073081429000,6.679428955078125,-0.3082754220460056,-0.3150002824790425,-0.038008084747288194
1789997073091501000,6.6895009765625,-0.3143949885750943,-0.29873472572481874,-0.048504707360376334
1789997073101572000,6.699572021484375,-0.1663718108604115,-0.3058818813140959,0.12318200332621361
1789997073111643100,6.70964306640625,-0.12147129706582675,-0.341459125434275,0.032655764861222125
1789997073121715000,6.71971484375,-0.05054135110408674,-0.36150527891639334,-0.03510695097931859
1789997073131786000,6.729785888671875,-0.13501884996401892,-0.3144129455777696,0.00937306739782501
1789997073141857000,6.73985693359375,-0.14208141268636068,-0.2092188251130939,0.003884541476778377
1789997073151928000,6.749927978515625,-0.1958023491290471,-0.2219207990887362,-0.003938840571434725
1789997073162000100,6.760000244140625,-0.2274330916173914,-0.28616244798785806,-0.053616278119091254
1789997073172071200,6.7700712890625,-0.14687648534834968,-0.33189600368277145,0.09806203567041752
1789997073182142000,6.780141845703125,-0.050370637693861894,-0.28251091290288055,0.028361372421358676
1789997073192214000,6.790214111328125,0.04040052346917815,-0.21552467196500824,-0.13561872546875017
1789997073202285000,6.80028515625,0.056192892488438076,-0.35748555376029073,0.26162735661325165
1789997073212356000,6.810356201171875,0.015268566771555815,-0.3892878830681353,0.22601821796422047
1789997073222428200,6.82042822265625,0.04758004337085748,-0.3860260578154142,0.10967117690636372
1789997073232499200,6.830499267578125,0.04407771911803687,-0.34697933010035087,-0.1247229998190744
1789997073242570200,6.8405703125,0.05793641580996967,-0.3239529302963644,-0.36159648904165387
1789997073252642000,6.85064208984375,0.022953880082919997,-0.44294026547187937,-0.08456100606214843
1789997073262713000,6.860713134765625,0.13202382596345347,-0.3586450451172198,-0.04123229694970948
1789997073272784000,6.870783935546875,0.173757278816364,-0.2873233857612415,0.38473571726402783
1789997073282855000,6.88085498046875,0.2199160003901674,-0.26897460768984843,0.34830381126253124
1789997073292927000,6.890927001953125,0.14333970138049704,-0.17305181947575202,-0.042173995720858254
1789997073302998000,6.900998046875,0.02970058423756908,-0.16598819786735733,0.007294345495476369
1789997073313069000,6.911069091796875,0.04562024012453463,-0.23715895085832842,0.1798769135575775
1789997073323141000,6.92114111328125,0.22811525131624957,-0.20497645716050486,0.3367037787267043
1789997073333212200,6.931212158203125,0.3026671737356874,0.02619844046131366,0.16659776121608957
1789997073343283200,6.941283203125,0.2660821715576099,0.13666635060737664,0.061272304676123254
1789997073353355300,6.951355224609375,0.31170949936361947,0.10318556600402189,-0.05892714567912305
1789997073363426300,6.96142626953125,0.34463289331078417,0.08986331669427328,0.17520589378516657
1789997073373497000,6.9714970703125,0.25430503283795547,0.09734070236413592,0.18717927180745528
1789997073383569000,6.98156884765625,0.13921036585835334,0.04076512569774284,0.08748623806055505
1789997073393640000,6.991639892578125,0.19312238007233853,0.028235967929114588,-0.04981298455604951
1789997073403711000,7.0017109375,0.335040628099716,0.10455341450794857,0.005810575573467005
1789997073413783000,7.011782958984375,0.37414971627436416,0.12397966692228345,0.07090388213014423
1789997073423854000,7.02185400390625,0.32274292085649986,0.1722491917359795,-0.10085820283854749
1789997073433925000,7.031925048828125,0.28871867115207817,0.19864578327017052,-0.06446058286772363
1789997073443997200,7.0419970703125,0.35044922071130025,0.2367278145068543,0.016258284385843584
1789997073454068200,7.052068115234375,0.4015296906496082,0.26629098685345093,-0.037097564498581224
1789997073464139000,7.062138916015625,0.40573537133085774,0.32643786655697493,-0.06695018964972035
1789997073474210000,7.0722099609375,0.38040741288257907,0.310320913701152,-0.007990435341937953
1789997073484282000,7.0822822265625,0.37051298143682293,0.36092341829597424,-0.13554732205838546
1789997073494353200,7.092353271484375,0.39455450913976187,0.4091408723434765,-0.169714666699456
1789997073504424200,7.102424072265625,0.43026930569188726,0.46645869060545087,-0.22745409643181466
1789997073514496000,7.11249609375,0.4994076620087435,0.5250115517244023,-0.10728774825262516
1789997073524567000,7.122567138671875,0.49485873328008195,0.5480411590360112,0.1062081362129576
1789997073534638000,7.13263818359375,0.45212461261503095,0.6218347251207222,-0.08628306240326462
1789997073544710100,7.142710205078125,0.38267419104204237,0.6826162233179457,-0.21016692778915283
1789997073554781200,7.15278125,0.47503642388893713,0.6755939957536415,-0.03191345316322099
1789997073564852000,7.16285205078125,0.3864697408681864,0.6929736514026986,-0.1094032459413542
1789997073574924000,7.172924072265625,0.3282257558825519,0.6933282954235845,-0.10526352863536995
1789997073584995000,7.1829951171875,0.41535689990450086,0.6998027155639154,-0.05463807157915862
1789997073595066000,7.193066162109375,0.4181313262266167,0.7263033811173049,-0.2791337201842139
1789997073605138200,7.20313818359375,0.31965694675687273,0.6657364602284704,-0.23138982368989564
1789997073615209200,7.213209228515625,0.2481080420477929,0.649002856388016,-0.2615952276160615
1789997073625280300,7.2232802734375,0.33174673576941277,0.5826587807972747,-0.17279378861396388
1789997073635351300,7.233351318359375,0.30762463867343715,0.5900117007170003,-0.2383340369619454
1789997073645423000,7.243423095703125,0.191748563781203,0.6136080972090602,-0.11587057901272374
1789997073655494100,7.253494140625,0.1834969196994004,0.4888444213481477,0.15295594891957118
1789997073665565000,7.26356494140625,0.1491839953458335,0.4439444480725108,-0.010418968064211517
1789997073675637000,7.273636962890625,0.08436205644957608,0.4122715142877761,-0.21603372873284696
1789997073685708000,7.2837080078125,0.12723490213826585,0.3814693671061613,-0.09835013718158495
1789997073695779000,7.293779052734375,0.18402200379269193,0.40827062240670986,0.16633042791291314
1789997073705851100,7.30385107421875,0.09399164475746202,0.30866528236852475,0.011378573599265918
1789997073715922200,7.313922119140625,0.05521344258601273,0.22119133188844592,-0.1643697586830368
1789997073725993200,7.3239931640625,0.04548044360583641,0.2734640380137678,-0.026595441144918592
1789997073736065000,7.33406494140625,0.018679663620685807,0.2849890727027045,0.10089652047430804
1789997073746136000,7.344135986328125,-0.03611941615280713,0.19074969270917652,0.027070223343236253
1789997073756207000,7.35420703125,-0.10857755399180302,0.19328991986408509,-0.05817543052645965
1789997073766279000,7.36427880859375,0.015774264344964886,0.28824194396441305,-0.11598103635101525
1789997073776350000,7.374349853515625,0.07171796903454894,0.27157424270971875,-0.0002748684354520153
1789997073786421000,7.3844208984375,-0.02947841682562026,0.20969098344649573,0.028591180419874657
1789997073796493000,7.3944931640625,-0.11526901192630003,0.13952798792376733,0.0059404646714195375
1789997073806564000,7.404564208984375,-0.12752641938856096,0.11570050597604266,0.00910036973116598
1789997073816635100,7.41463525390625,-0.06200715019300633,0.202027094067382,0.01974050450485857
1789997073826706200,7.4247060546875,-0.070069151459002,0.2149120885734821,0.14326790477404072
1789997073836778200,7.4347783203125,-0.0335619977129155,0.1956903824891428,0.06114902831645933
1789997073846849300,7.444849365234375,-0.04602519304379831,0.15743156202640268,0.11598923684286921
1789997073856920000,7.454920166015625,-0.09701732924274152,0.21860700282912143,-0.09810405955448936
1789997073866991900,7.464991943359375,-0.07034740984753653,0.23452601532492862,0.06557520302199989
1789997073877063000,7.47506298828125,-0.10376236404093832,0.19601851843362375,0.2314959379323706
1789997073887134000,7.485134033203125,-0.14198580674056321,0.060288364839587716,0.35544340525920975
1789997073897206000,7.4952060546875,-0.12256962353434227,0.11918304004406458,0.12445107203246068
1789997073907277000,7.505277099609375,-0.09850465695910496,0.265074175858293,-0.14044411992148426
1789997073917348000,7.51534814453125,-0.05068767538397512,0.15981336990466505,0.11289757259067301
1789997073927420200,7.525420166015625,-0.07912069087331788,0.19034290776188262,0.3636161724062974
1789997073937491200,7.5354912109375,-0.07751498746709179,0.07116160057974316,0.49745445569036784
1789997073947562200,7.545562255859375,-0.1171922856228144,0.06097257539731733,0.17830002039158022
1789997073957633000,7.555633056640625,-0.11013335782843287,0.05422844692144357,0.2687820217677275
1789997073967705000,7.565705078125,-0.22012131537913968,0.0365084902204018,0.18337159440123013
1789997073977776000,7.575776123046875,-0.3298001074417466,-0.043411606472824944,0.07451453119794073
1789997073987847200,7.58584716796875,-0.2450636565395586,-0.01879119274850146,0.11645989371076096
1789997073997919000,7.5959189453125,-0.10413044077685991,-0.013917739856841683,0.15053886700575758
1789997074007990800,7.60599072265625,-0.12283116402435013,0.0064434935098007925,-0.08644936673371996
1789997074018061800,7.616061767578125,-0.2131654774784343,-0.02241929670468331,0.25031760576031786
1789997074028134000,7.6261337890625,-0.2649486862622415,-0.04202270573203016,0.2583816187071537
1789997074038205000,7.636204833984375,-0.29793612706791356,-0.05375782311270362,-0.16905014155722203
1789997074048276000,7.64627587890625,-0.26941981740977267,-0.07131720150076372,-0.06412449107300928
1789997074058348000,7.65634814453125,-0.24242223527536047,-0.0071164594117609226,0.09614883406768014
1789997074068419000,7.666419189453125,-0.25203790780895485,-0.044131696304341855,0.06867597083484712
1789997074078489900,7.67648974609375,-0.2551340994012306,-0.07957488776783331,-0.019346535573567122
1789997074088561700,7.686561767578125,-0.2497953039739684,-0.04003073956246587,0.10261015835588473
1789997074098632700,7.6966328125,-0.22810305501597525,-0.04511855855950151,0.037461438073511044
1789997074108703700,7.706703857421875,-0.256255667509316,-0.08120859588026738,0.023735495596385187
1789997074118775800,7.71677587890625,-0.2989972194472593,-0.10759112357744655,0.10419071802822207
1789997074128846800,7.726846923828125,-0.23948434101338376,-0.12234049935789539,0.100531078138955
1789997074138918000,7.73691796875,-0.24456714420467565,-0.13236232836121944,0.005671859236524541
1789997074148989000,7.746989013671875,-0.26887622603877026,-0.14947281742372637,-0.10620037141547027
1789997074159061000,7.75706103515625,-0.2663590540683159,-0.09998111989093268,-0.07000879935896527
1789997074169132000,7.767132080078125,-0.23303593081303928,-0.12027527674686568,0.10560562829440642
1789997074179202800,7.777202880859375,-0.27695254089970556,-0.14295114579398627,0.03868715681996937
1789997074189275000,7.78727490234375,-0.25289640280600656,-0.13477811932127834,0.03780411658432356
1789997074199346000,7.797345947265625,-0.23337674401339703,-0.14558374874608118,-0.09192136300382067
1789997074209417000,7.8074169921875,-0.28071266264680333,-0.16458914535631725,-0.10903629963805965
1789997074219488800,7.81748876953125,-0.2951389360599409,-0.14346153621127386,-0.1132616243162062
1789997074229559800,7.827559814453125,-0.20255225683876865,-0.20007638728051527,0.2779134381823993
1789997074239630800,7.837630859375,-0.209494266282455,-0.19595896303457033,-0.026075709116128297
1789997074249703000,7.847702880859375,-0.28906847254263035,-0.16318191503468388,-0.1117651649798296
1789997074259774000,7.85777392578125,-0.26971162808265053,-0.17713779366142193,-0.004911604195126354
1789997074269845000,7.867844970703125,-0.2653184376227954,-0.16096323529648257,-0.061210304890116064
1789997074279917000,7.8779169921875,-0.2933829490114668,-0.11459951901682307,-0.21703219652358158
1789997074289987800,7.88798779296875,-0.22288971223768567,-0.17127102438622746,0.09021350210670015
1789997074300059000,7.898058837890625,-0.22329285055942166,-0.18651002255732252,-0.0728258943816073
1789997074310130000,7.9081298828125,-0.2349590675983645,-0.1749856454146099,-0.16964415824231124
1789997074320202000,7.918201904296875,-0.22195389713379632,-0.23083927778972843,0.1159104548020074
1789997074330273000,7.92827294921875,-0.2991407307985252,-0.19924756187438433,0.025304256422155662
1789997074340344000,7.938343994140625,-0.2914248882093948,-0.232544553851074,-0.17611879970411837
1789997074350416000,7.948415771484375,-0.32816009891120834,-0.29785456048833614,-0.018088511197194162
1789997074360487000,7.95848681640625,-0.34377904421229727,-0.35021956499032614,0.0624512758003952
1789997074370557700,7.9685576171875,-0.33971702943386534,-0.33312722071570433,-0.1329627695744265
1789997074380629800,7.978629638671875,-0.3577568395956258,-0.34741211617803186,-0.17269327426855013
1789997074390700800,7.98870068359375,-0.37049168691992945,-0.4001785308457209,0.0022183091104050353
1789997074400771800,7.998771728515625,-0.29856906567210567,-0.44116059938467683,0.003250224861982304
1789997074410844000,8.008843994140625,-0.28388829181035957,-0.4169542997693309,-0.055250002680692294
1789997074420915000,8.0189150390625,-0.27237628593743485,-0.4148343770992705,0.14164342927336293
1789997074430986000,8.028986083984375,-0.346240499882446,-0.5128563526308337,0.2356193120612199
1789997074441058000,8.03905810546875,-0.33594811549398346,-0.553362195064806,0.12822494637101498
1789997074451128800,8.04912890625,-0.2795115236516866,-0.4907860751217451,0.08510909264605188
1789997074461200000,8.059199951171875,-0.24214435899028597,-0.43751254255399263,0.009288662660543697
1789997074471272000,8.06927197265625,-0.23728026132401053,-0.4571927933007877,-0.2347596043270591
1789997074481342700,8.0793427734375,-0.22792762262484326,-0.5086563175428388,-0.029149181217535326
1789997074491413800,8.089413818359375,-0.17363027941704656,-0.5348514218760617,0.3122481377248994
1789997074501484800,8.09948486328125,-0.1197918142217677,-0.47845468668083946,0.31206779199778006
1789997074511556900,8.109556884765626,-0.08949083620572017,-0.42727000413832084,0.22468124590905633
1789997074521628000,8.1196279296875,-0.12116681450333952,-0.45163239262690347,0.09537297873403996
1789997074531699000,8.129698974609376,-0.10166923374165794,-0.43227010761501283,-0.1213675638720547
1789997074541771000,8.13977099609375,-0.020290289606156583,-0.4203196576460954,0.02323858331060014
1789997074551842000,8.149842041015624,0.029611070313024176,-0.4499465957425375,0.260732895682002
1789997074561912800,8.159912841796874,0.04331873894687567,-0.4031298692553289,0.2222906637662797
1789997074571985000,8.16998486328125,-0.03444852046024653,-0.2938979449531983,-0.057022331371370624
1789997074582055700,8.1800556640625,-0.06049958994303257,-0.2679158228537991,-0.11070501312462046
1789997074592126700,8.190126708984375,0.007837980163742146,-0.31201334832022243,-0.04546242090995543
1789997074602198800,8.20019873046875,0.09029068920544034,-0.23634118086566613,-0.049612597002471524
1789997074612269800,8.210269775390625,0.08319593262762567,-0.15855523498924395,-0.007347251279866792
1789997074622340900,8.2203408203125,0.05315702343807294,-0.13023015430401613,0.0675994874995419
1789997074632413000,8.230412841796875,0.1212881086399576,-0.06477989347736608,-0.1063679212911017
1789997074642484000,8.24048388671875,0.18377810907653225,-0.08247187688830898,-0.0013468862294210987
1789997074652555000,8.250554931640625,0.17009514989134836,-0.13628149886883154,0.16719161546041053
1789997074662627000,8.260626953125,0.1766576317538123,-0.07112304688382683,0.09411914376674908
1789997074672697900,8.27069775390625,0.22341954125534283,-0.019079485238408564,0.10816811980882975
1789997074682769000,8.280768798828126,0.22467448379274552,-0.015409007444481641,-0.004637478051542583
1789997074692840000,8.29083984375,0.22120313657429663,0.004886588931407996,-0.11299267389236475
1789997074702911700,8.300911865234376,0.2505001495486607,0.023374426312559222,-0.07160259966214644
1789997074712982800,8.310982666015626,0.2838919455175504,0.0325938497712108,0.05282836318575519
1789997074723053800,8.3210537109375,0.2789433554518938,0.03766589429814627,0.0806530177317069
1789997074733126000,8.3311259765625,0.2015560529249202,0.06982125836653912,-0.00263684324655466
1789997074743197000,8.341197021484374,0.2256553858886327,-0.0006539889399386123,0.016785563662500065
1789997074753268000,8.35126806640625,0.253378072657872,0.04483717348852327,-0.13795285794189674
1789997074763340000,8.361340087890625,0.2500340131184553,0.09375583416697533,-0.10004981268837318
1789997074773410800,8.371410888671875,0.23141268619660366,0.09139788910592286,-0.11768607726080527
1789997074783481900,8.38148193359375,0.18586421350740992,0.13853950164093595,-0.21881584946017946
1789997074793554000,8.391553955078125,0.24316908845714583,0.1773828153756457,-0.10698645014474978
1789997074803625000,8.401625,0.25503261197254795,0.24883401023557808,0.034126268938576315
1789997074813696000,8.411696044921875,0.20907492529262245,0.27489796311428394,0.043178174033480364
1789997074823767800,8.421767822265625,0.11004886693596559,0.24244594955001678,-0.19938403947376115
1789997074833838800,8.4318388671875,0.15475554172855588,0.23819493868799588,-0.2920398375287422
1789997074843910000,8.441909912109375,0.1693962396587434,0.224727433935835,-0.15692432008754142
1789997074853982000,8.45198193359375,0.20195789713950327,0.2834483641703042,-0.12577651487724836
1789997074864053000,8.462052978515626,0.15254801890705508,0.2694835713002068,0.025657761545549704
1789997074874123800,8.472123779296876,0.10483678749061473,0.21066813198613002,0.19624634490414006
1789997074884194800,8.48219482421875,0.10522253471993982,0.16956008305964781,0.11252455192371212
1789997074894267000,8.492266845703124,0.10227081244709361,0.2098865997088979,-0.09595454163895971
1789997074904338000,8.502337890625,0.14190792639028046,0.19119560852746362,-0.17464598809018758
1789997074914409000,8.512408935546874,0.06190374802252237,0.07067736340080086,-0.033531781679547776
1789997074924481000,8.52248095703125,0.044999334622853285,0.07750071457841264,-0.10314723849771061
1789997074934552000,8.532552001953125,0.04869800224240663,0.11174535137425273,-0.0357094642729322
1789997074944623000,8.542623046875,0.08574373995784014,0.05147443793993523,0.14359687911514488
1789997074954695000,8.55269482421875,0.05504063635390398,0.07200970064875035,-0.050461405087935285
1789997074964765700,8.562765625,0.027392460551769148,0.09132804092940315,-0.08326752283811216
1789997074974836700,8.572836669921875,0.08550167112635472,0.08574478885236893,-0.06541318797414325
1789997074984908800,8.58290869140625,0.09720328573894767,0.057899446580589015,-0.04058554608484834
1789997074994979800,8.592979736328125,0.08884262912479729,0.01274602500300955,0.053271425334585024
1789997075005051000,8.60305078125,0.053724857939013264,-0.08487759393755619,0.12635713626479736
1789997075015122400,8.613122314453125,0.0018997104597495106,-0.14177204493791662,0.015937627358072373
1789997075025193500,8.623193359375,-0.024736806901072352,-0.11324083649109506,-0.09087502513324587
1789997075035264500,8.633264404296876,0.0005733615999046716,-0.08646239934543952,0.03156044497427838
1789997075045336600,8.643336669921876,0.062208036120973705,-0.062036358639073294,0.03507993695996843
1789997075055407400,8.653407470703126,0.07481584600816303,-0.10045254444660395,0.08836892590564595
1789997075065478400,8.663478515625,0.08888520102153201,-0.07738351228783141,-0.028669202465089836
1789997075075549400,8.673549560546874,0.04423136803869178,-0.013894468958437359,-0.1741064618283253
1789997075085621200,8.683621337890624,0.040670454981686324,-0.02780678712702479,-0.059912985184525334
1789997075095692300,8.6936923828125,0.08527086574482468,-0.00014368557653147664,-0.009492916641563874
1789997075105763300,8.703763427734375,0.06942834525664536,0.05193324479695662,-0.049653871731510944
1789997075115835400,8.71383544921875,0.10222261445394029,0.08187218216635704,-0.037425871329711806
1789997075125906400,8.723906494140625,0.10019475664202479,0.09461920336564571,0.03534205134981855
1789997075135977500,8.7339775390625,0.14000707038491605,0.11352290045295431,0.016437815497016436
1789997075146049500,8.744049560546875,0.14749734507083165,0.15074262109243788,-0.06718580497389914
1789997075156120300,8.754120361328125,0.07859034493831493,0.20954140496939336,-0.1645972180542287
1789997075166191400,8.76419140625,0.05476469597251671,0.21779035148804657,-0.07801270149579098
1789997075176263400,8.774263427734375,0.10554022805567288,0.2562375113666334,-0.04901147122972305
1789997075186334500,8.78433447265625,0.1379739243149377,0.21715215885023728,0.03512801187570428
1789997075196405500,8.794405517578125,0.10977166295494861,0.18287466423234192,-0.09612276250201486
1789997075206477300,8.804477294921876,0.0979492315941478,0.17554286974752437,-0.14316892704671272
1789997075216548400,8.81454833984375,0.09525788520302884,0.2040080113014537,-0.177186740501836
1789997075226619400,8.824619384765626,0.09826717665613278,0.2196147000579505,-0.15901036023507345
1789997075236691500,8.83469140625,0.05689695902434188,0.19706701264084886,-0.1139335862771991
1789997075246762200,8.84476220703125,0.01966557545123275,0.17327666957426935,-0.17498364078391845
1789997075256833300,8.854833251953124,0.05845256773177033,0.19653136655768622,-0.08901254079265318
1789997075266904300,8.864904296875,0.06711190204037853,0.2525082933005291,-0.002780609461913242
1789997075276976400,8.874976318359375,0.0069207391133098905,0.19859219806682907,0.06353871295184896
1789997075287047400,8.88504736328125,0.03647310188882521,0.2006301556797585,0.03157978706369077
1789997075297118500,8.895118408203125,-0.031691607375444394,0.22482467885377846,0.07724849808371625
1789997075307190500,8.9051904296875,-0.05762215252912692,0.09319443572838228,0.36279413404714056
1789997075317261600,8.915261474609375,-0.04812741561936559,-0.01604021617491795,0.41078264094562056
1789997075327332600,8.92533251953125,-0.13536468271510313,-0.02248944114662581,0.32866282433116073
1789997075337404400,8.935404296875,-0.14840303357325876,-0.09924935188233666,0.10529757308703751
1789997075347475200,8.94547509765625,-0.17135656966099502,-0.19850031096608026,0.18260678198899377
1789997075357546200,8.955546142578125,-0.10864385572481187,-0.011325236433169423,0.02070296156952993
1789997075367618300,8.965618408203126,-0.08819217728951292,-0.021092912679907476,0.040332232734027806
1789997075377689300,8.975689453125,-0.18002237122242193,-0.0967959431677002,0.17223564758271598
1789997075387760400,8.985760498046876,-0.13851637791653457,-0.037849182186169894,0.01678876191831721
1789997075397832400,8.99583251953125,-0.11140249164711095,-0.04269558999697411,-0.17460241926837486
1789997075407903500,9.005903564453124,-0.1656514906030904,-0.09488543639180466,-0.10581719699251789
1789997075417974500,9.015974609375,-0.14696552800833987,-0.07024682987764642,0.07722472645184678
1789997075428046600,9.026046630859376,-0.12382424086137689,-0.06520310028633469,0.015538359915884115
1789997075438117600,9.03611767578125,-0.10805902655513314,-0.05457817048734548,-0.22556584931113854
1789997075448188400,9.0461884765625,-0.1957578077756964,-0.09994284578666152,-0.06705323879922997
1789997075458260200,9.05626025390625,-0.18154837676427665,-0.10638186778617073,-0.025977499112973666
1789997075468331300,9.066331298828125,-0.10261447321392929,-0.13399781604111602,-0.002880044156019855
1789997075478402300,9.07640234375,-0.12709687794692415,-0.13562014040623538,-0.09103946897554759
1789997075488474400,9.086474365234375,-0.1604109149033868,-0.17038481724835028,-0.0015757219306158162
1789997075498545400,9.09654541015625,-0.11018026688364045,-0.11772189589118896,-0.010556015239264605
1789997075508616400,9.106616455078123,-0.0579519687850963,-0.040083896683871266,0.1354294580897848
1789997075518687500,9.1166875,-0.11426642048154925,-0.05403619136075149,0.20936266084527475
1789997075528759600,9.126759521484376,-0.12433889004432115,-0.12660076325549607,0.2305299921849648
1789997075538830300,9.136830322265626,-0.1313537599347619,-0.0811315630255476,-0.04769936298302562
1789997075548901400,9.1469013671875,-0.13241911643100288,-0.07684263487219627,-0.1289157438030225
1789997075558973400,9.156973388671876,-0.1454106517681528,-0.17856531175758755,0.0707234358739482
1789997075569044200,9.167044189453126,-0.15744068989902915,-0.1365126676113629,-0.002987711297283963
1789997075579115300,9.177115234375,-0.1587137508340263,-0.13273225577871267,-0.1407626560061063
1789997075589187300,9.187187255859374,-0.24083579897097424,-0.16208689834741014,-0.32880376792630533
1789997075599258400,9.19725830078125,-0.22873854754105216,-0.18597966744455982,-0.3988883549513694
1789997075609329400,9.207329345703124,-0.16383678106406124,-0.16660985225455133,-0.3041340943385272
1789997075619401500,9.2174013671875,-0.1256030199215339,-0.17268492379083442,-0.11993757003251418
1789997075629472500,9.227472412109377,-0.14773390971168435,-0.22979389887931476,-0.0494942510212089
1789997075639543300,9.237543212890625,-0.20798108236162713,-0.26534230656917784,-0.19266382676608376
1789997075649615400,9.247615478515623,-0.22530115880798685,-0.23073218776798124,-0.19628298292586088
1789997075659686400,9.257686279296877,-0.20398273519162022,-0.2698426421047842,-0.0770149359487138
1789997075669757400,9.26775732421875,-0.23090175297709628,-0.3315704313471294,0.014205428839093646
1789997075679829200,9.277829345703124,-0.21688074210080618,-0.29937827800256306,-0.05690262333122923
1789997075689900300,9.287900390625,-0.19249023703300128,-0.27016320380667874,0.12231611800209578
1789997075699971300,9.297971435546875,-0.15922823631120134,-0.24731329833767857,0.16198022284301575
1789997075710042400,9.30804248046875,-0.20017107872884388,-0.2394214504241021,0.14603797996993925
1789997075720114400,9.318114501953126,-0.24732912705625074,-0.18204026566194456,0.03605050792716024
1789997075730185500,9.328185546875,-0.18349431561399634,-0.2224524855953879,0.28706705377634106
1789997075740256300,9.33825634765625,-0.12790788891034743,-0.20572892155274072,0.23940928734838715
1789997075750328300,9.348328369140624,-0.09604306380251601,-0.16079495911107194,0.038545076752017696
1789997075760399400,9.3583994140625,-0.10743704542451704,-0.1694170826096038,-0.05259812883270934
1789997075770470400,9.368470458984374,-0.11603865604360279,-0.22695497027046346,0.050110445526677976
1789997075780542500,9.37854248046875,-0.0694021860465361,-0.24664396095089097,0.036156447278674834
1789997075790613500,9.388613525390625,-0.08580686431649673,-0.2339471466918923,0.11890560542422393
1789997075800684500,9.3986845703125,-0.12353276560081641,-0.250170162295216,0.07216440105667012
1789997075810756400,9.40875634765625,-0.0455293164818595,-0.260150612865977,0.16544634023489546
1789997075820827400,9.418827392578123,0.05544839975972577,-0.20080719782487047,0.15805298807236604
1789997075830898200,9.428898193359377,0.09601475625061426,-0.25307737736812924,0.16960044095296825
1789997075840970200,9.43897021484375,0.08582288508876156,-0.26219838472096063,0.0021004050392140344
1789997075851041300,9.449041259765623,0.14283956402527287,-0.19910475833775626,0.0902374556814897
1789997075861112300,9.4591123046875,0.18361713668085708,-0.1480824697186412,0.2803889877847264
1789997075871184400,9.469184326171876,0.14099180848352583,-0.07121216601589384,0.09833297780217128
1789997075881255400,9.47925537109375,0.15141208168313597,-0.04513481859016877,0.15904270327889047
1789997075891326500,9.489326416015626,0.1791322464596646,-0.04276232492691957,0.17613288773439284
1789997075901398500,9.4993984375,0.19328245536958963,-0.08591516286897305,0.16533511597463685
1789997075911469600,9.509469482421874,0.18781255098013636,-0.027528242589027717,0.012759336309134688
1789997075921540600,9.51954052734375,0.20145095290164228,-0.03285255052582523,0.3017813456559949
1789997075931611400,9.529611328125,0.16627502141812475,-0.0138010268947865,0.34968697959334816
1789997075941683200,9.53968310546875,0.11248799474443029,0.02414863196441978,0.021552484946020075
1789997075951754200,9.549754150390624,0.12956202733352354,0.01834724633981451,-0.12570655303508393
1789997075961825300,9.5598251953125,0.16891937915956187,0.07486067681281505,-0.14582574209046442
1789997075971897300,9.5698974609375,0.17217314067655926,0.08719603547344172,-0.1123040914144609
1789997075981968400,9.579968505859377,0.11227261698472389,0.05486892922478785,-0.09910400283885584
1789997075992039400,9.590039306640625,0.09475590585103515,0.0782537141346029,-0.23908146663563767
1789997076002111500,9.600111572265623,0.05991456364474662,-0.008272983230250632,0.008192529441187032
1789997076012182300,9.610182373046875,0.04306421076691204,0.02527952290994679,-0.19334009325162912
1789997076022253300,9.62025341796875,0.03708409147411679,0.008789474191690072,-0.24019209200217645
1789997076032325400,9.630325439453124,0.09304330295928796,0.10606142517913515,-0.20875529775631183
1789997076042396400,9.640396484375,0.145610440502713,0.14036464883304936,-0.027873901373420287
1789997076052467500,9.650467529296876,0.07230132647009499,0.16606061850127743,-0.12652524614570734
1789997076062539300,9.660539306640626,0.054728730792603854,0.18402597634862203,-0.2306763590662447
1789997076072610300,9.6706103515625,0.06392178890410839,0.11908600846727842,0.02978616094121901
1789997076082681000,9.68068115234375,0.08624660651594905,0.1678516455960795,-0.020172638453287876
1789997076092753200,9.690753173828124,0.037736031030474064,0.18392437556117427,-0.1811328492446961
1789997076102824200,9.70082421875,-0.007899983128699424,0.15883168655591937,-0.11673109049381629
1789997076112895200,9.710895263671874,0.045158980117551546,0.11749687260531398,0.027216940021966743
1789997076122967300,9.72096728515625,0.04182971549412689,0.028167399155040233,0.039903791782919466
1789997076133038300,9.731038330078125,-0.04194702765792374,-0.04431457290553051,0.04656761138205178
1789997076143109400,9.741109375,-0.05459779197902003,-0.04530823864927509,0.04246992537813251
1789997076153181400,9.751181396484377,0.03481316590813259,0.039229079692489385,-0.0017038575641079422
1789997076163252500,9.76125244140625,0.02871841591133501,0.05500122093528771,0.12928801706483636
1789997076173323300,9.7713232421875,0.004363462119861873,-0.06192452092882799,0.2583015575464101
1789997076183394300,9.781394287109377,-0.04248456388925355,-0.148903486592309,0.02182996301551901
1789997076193466000,9.791466064453124,-0.05002459401062688,-0.09419194549551517,-0.189165140871896
1789997076203537200,9.801537109375,-0.006549614053320733,-0.13712204968229602,0.02916344108258189
1789997076213608200,9.811608154296875,0.01454184756764468,-0.16172628655662624,0.09838238063048652
1789997076223680300,9.82168017578125,0.015239944677879974,-0.18364308092475348,0.1053552936403644
1789997076233751300,9.831751220703126,-0.04197939267985042,-0.21396010731482457,-0.08495406618268846
1789997076243822300,9.841822265625,0.0007857860703533385,-0.19999141350725202,-0.2542116828520134
1789997076253894400,9.851894287109374,0.040963152296177016,-0.21046595381236657,-0.1301137616541198
1789997076263965400,9.86196533203125,0.010886254613139633,-0.26510926426029313,0.1723411990662026
1789997076274036200,9.8720361328125,0.001428087388083086,-0.3589943447245477,0.4001576403161185
1789997076284108300,9.8821083984375,-0.01777475123956706,-0.13687914772290552,0.0715769554947106
1789997076294179300,9.892179443359376,0.048717306112074386,0.01265689901973564,-0.044558934215469075
1789997076304250400,9.90225048828125,-0.017113655545930924,-0.16118733716669836,-0.09737852333213137
1789997076314322200,9.912322265625,-0.16415662966482705,-0.27551198065432936,0.047094241748491576
1789997076324393200,9.922393310546877,-0.0743035676118895,-0.151111164514218,0.1175665695086651
1789997076334464300,9.93246435546875,-0.029506728193799212,-0.09404150142520712,0.09360270227404859
1789997076344536300,9.942536376953123,-0.060231355186933525,-0.10290784682463146,-0.05383718180958252
1789997076354607400,9.952607421875,-0.041905504417119495,-0.007674581216043888,-0.04463701362880495
1789997076364678400,9.962678466796875,0.02667199463647634,0.0389398399783628,-0.04030746197148739
1789997076374750500,9.97275048828125,0.0432172676251166,-0.017679895323894405,0.04867237522443937
1789997076384821200,9.9828212890625,0.005275905937952968,-0.05332621801094956,-0.06905602985703459
1789997076394892300,9.992892333984376,0.04050699309462836,-0.032713630329761434,-0.14732669571868848
1789997076404964000,10.002964111328126,0.010392549120541768,0.030602021030401695,-0.1942242937761232
1789997076415035100,10.01303515625,-0.023024811995969473,0.01254315054357535,0.055124124895777574
1789997076425106200,10.023106201171874,-0.0005051191966022155,0.021747600115488482,-0.017920950034592882
1789997076435177200,10.03317724609375,0.019798213700437804,0.13052725224419376,-0.05400241206442098
1789997076445249300,10.043249267578124,0.05040048659208316,0.1238194756971771,0.0016532840517674023
1789997076455320300,10.0533203125,0.06885377180964715,0.09691882242218262,-0.04670920614534061
1789997076465391000,10.06339111328125,0.10214632239465676,0.13944008092209575,-0.03483860810594939
1789997076475463200,10.073463134765625,0.08164865321016197,0.11138460477436851,0.03302337919059742
1789997076485534200,10.0835341796875,0.040198283249726456,0.0912832567513169,0.10671284814379317
1789997076495605200,10.093605224609377,0.054202046941989365,0.10044872853063985,0.10564297587608813
1789997076505677300,10.10367724609375,0.08090133968870784,0.05750116696465179,0.1186463799740205
1789997076515748400,10.113748291015623,0.028735698574203866,0.005886083872796794,0.013391127970666146
1789997076525819400,10.1238193359375,-0.013624158552418103,-0.10791342659134612,0.14969763422529178
1789997076535891200,10.13389111328125,-0.05735408768717502,-0.11795190951325703,0.08787639242249222
1789997076545962200,10.143962158203124,-0.12017994878519177,-0.13674364133015066,-0.01693116572862667
1789997076556033300,10.154033203125,-0.1315019163355709,-0.13395358628593235,0.028132549928395405
1789997076566105300,10.164105224609376,-0.15705472633533876,-0.1928837469984601,0.06866609996661317
1789997076576176000,10.174176025390626,-0.16832512045493067,-0.2999937106287711,-0.0332554732430509
1789997076586247200,10.1842470703125,-0.08578463311066888,-0.31328609778633765,-0.030539724966855548
1789997076596319200,10.1943193359375,-0.08612332565956421,-0.303280002782462,0.04354393864862618
1789997076606390300,10.204390380859374,-0.08482376343734628,-0.266365899513595,0.03834680186719721
1789997076616461300,10.21446142578125,-0.09577506924283445,-0.30713990974144945,0.1329434318939425
1789997076626533400,10.224533447265625,-0.09541188019160021,-0.37925103010163724,0.2404321112408187
1789997076636604400,10.2346044921875,-0.07298973740141705,-0.39060262831597115,0.19546715299701262
1789997076646675500,10.244675537109377,-0.07569546474372682,-0.35167204651829026,0.004872310445109101
1789997076656747300,10.254747314453123,-0.05328362938452031,-0.34292186446866857,-0.03986629713888364
1789997076666818300,10.264818359375,-0.04801828424961216,-0.3500271582037576,-0.07829534031966172
1789997076676889000,10.27488916015625,-0.05615551399185221,-0.34392372101035357,-0.08765145928399272
1789997076686960000,10.284960205078123,-0.07643749533962824,-0.27007631783758856,-0.1802786282680973
1789997076697032200,10.2950322265625,-0.035281118215336034,-0.2343229022417301,-0.09530740913589424
1789997076707103200,10.305103271484375,0.01490546642339433,-0.23297951319440144,0.010724330543670448
1789997076717174300,10.31517431640625,-0.002580106481563954,-0.2351180899622769,-0.03359798337620959
1789997076727246300,10.325246337890626,0.024936970121773785,-0.1964591053108649,-0.13219143199237368
1789997076737317400,10.3353173828125,0.05388166921682244,-0.09904893105427558,-0.2074944383796653
1789997076747388400,10.345388427734376,0.05480812763719426,-0.1672657274805024,0.0048400690595840935
1789997076757460500,10.35546044921875,0.08590815644243945,-0.20972570873780402,0.01125221399517724
1789997076767531300,10.36553125,0.07318772673438147,-0.17597263924777679,0.09465692369473762
1789997076777602300,10.375602294921874,0.09481517551602929,-0.09063588439523215,0.02002794946564099
1789997076787674000,10.385674072265624,0.11218927502085517,-0.06218318840946403,0.0020576604293811433
1789997076797745200,10.3957451171875,0.137674660453202,-0.039573470498492996,-0.09034538429697592
1789997076807816200,10.405816162109376,0.19928079944019125,0.0029692583788340867,-0.07367606717753605
1789997076817888300,10.41588818359375,0.24312695755216812,0.020405225514975273,0.045985394391490415
1789997076827959300,10.425959228515625,0.23823210986393958,0.08505025238646136,0.1845554469911762
1789997076838030300,10.4360302734375,0.23569320039183428,0.09636321506535533,0.3132357957764065
1789997076848102400,10.446102294921875,0.27772594171736087,0.15396001851696353,-0.018473053474520523
1789997076858173400,10.45617333984375,0.29801555730603696,0.20040933077215156,-0.21388640796703184
1789997076868244200,10.466244140625,0.2975596582912679,0.18317968381730512,0.0960612096206764
1789997076878316300,10.47631640625,0.2951178997150476,0.16906064000896692,0.033383287757033184
1789997076888387300,10.48638720703125,0.28626988180075363,0.19571271802370327,0.0035546699713359703
1789997076898458400,10.496458251953126,0.4078771023739929,0.3067756796331294,-0.18745222230673322
1789997076908530200,10.5065302734375,0.3923853771789533,0.3175485943475541,-0.04211108812590667
1789997076918601200,10.516601318359376,0.33246390895809047,0.2361175749611328,0.04809080907460596
1789997076928672300,10.52667236328125,0.2872340802761179,0.29609269154079154,0.029782192104558066
1789997076938743300,10.536743408203124,0.3317472225557614,0.40692877943096195,0.0861943580941825
1789997076948815400,10.5468154296875,0.3615170338659064,0.4395046804971112,-0.023757448818866617
1789997076958886400,10.556886474609374,0.3962015736918283,0.5451398145223431,-0.3558051897507069
1789997076968957200,10.566957275390624,0.43587992999318076,0.5929117874751652,-0.25727801095910097
1789997076979029200,10.577029296875,0.4397144076409507,0.43155879044726586,0.006662615275117268
1789997076989100300,10.587100341796877,0.3626151041551148,0.563540346760248,-0.08691120270439276
1789997076999171300,10.59717138671875,0.4210274537118981,0.6972106666943882,0.0017086273020565645
1789997077009244000,10.607243896484375,0.49621368859776444,0.6918253007829037,-0.02982183276832324
1789997077019315000,10.61731494140625,0.41218216649780975,0.6801495159605971,-0.165014762674788
1789997077029386000,10.627385986328123,0.39633307101827986,0.6567814624312527,-0.1813496002413327
1789997077039458000,10.6374580078125,0.3665795860311009,0.6149020133091663,-0.163370547500291
1789997077049529000,10.647529052734376,0.4172881842217222,0.6033439963540366,-0.0942442919679771
1789997077059600000,10.657599853515626,0.4104936286767697,0.6246124341314977,-0.1990480172480483
1789997077069672000,10.667671875,0.38890309703554665,0.64143623927235,-0.2559555746250746
1789997077079743000,10.677742919921876,0.3747967175490115,0.6297518962269293,-0.21560388652571327
1789997077089814000,10.68781396484375,0.3514444231474512,0.5652917933929262,-0.023104245685115727
1789997077099885800,10.6978857421875,0.3427685485613271,0.48444911530907386,0.0738684031346653
1789997077109956900,10.707956787109374,0.2906182483812701,0.4671675595814571,-0.04109938587167553
1789997077120028000,10.71802783203125,0.2570901426045736,0.4705617351641353,-0.07735285380234538
1789997077130100000,10.728099853515625,0.29797706527830975,0.41756810895854213,-0.018335836590766798
1789997077140171000,10.7381708984375,0.21669167582088183,0.42790604430431317,-0.013169542595211779
1789997077150242000,10.748241943359377,0.15769390335980582,0.4753019129036633,0.06916414280947808
1789997077160314000,10.758314208984377,0.13304831724220242,0.44177009605320733,0.08272987563872232
1789997077170385000,10.768385009765623,0.0672009335368504,0.4036418342017288,0.06305368475971886
1789997077180456000,10.7784560546875,-0.009371251272591537,0.3509683391693436,0.08581808504474576
1789997077190527000,10.78852685546875,-0.07745135207163083,0.3595060104493593,0.025336207688881375
1789997077200599000,10.79859912109375,-0.1113985464832215,0.31320351281514747,0.034159374755890856
1789997077210670000,10.808670166015624,-0.16245818859280778,0.2769801541910511,-0.004403968150800333
1789997077220741000,10.8187412109375,-0.16706353459655449,0.2741756919673944,-0.008799585569877763
1789997077230813000,10.82881298828125,-0.14676080337926353,0.2707989353043172,-0.060864063106505564
1789997077240884000,10.838884033203126,-0.09312267936993114,0.28642267114835396,0.03446608548136677
1789997077250954800,10.848954833984376,-0.18867051093361203,0.21725930183421527,0.040037698302260484
1789997077261026800,10.85902685546875,-0.2567641099494619,0.15043624386476942,0.12660486420500858
1789997077271097900,10.869097900390624,-0.2416409977235267,0.15450320235907494,0.18014051589750818
1789997077281169000,10.8791689453125,-0.26375551618526927,0.1482021913521966,0.05436415794052088
1789997077291241000,10.889240966796876,-0.2774095471450455,0.06035833501320524,-0.03488162598357104
1789997077301312000,10.89931201171875,-0.2698421248749116,0.013284050581086214,0.03406227535861023
1789997077311383000,10.909383056640625,-0.23892604403790896,-0.022196185421835136,0.08237934428216202
1789997077321455000,10.919455078125,-0.3136525810029484,-0.0596907780399496,0.061153349650235674
1789997077331526100,10.929526123046877,-0.3381344127223705,-0.09743247374497044,0.22413060722212297
1789997077341597200,10.93959716796875,-0.3291612588523328,-0.13873533851047365,0.2668043889038723
1789997077351669000,10.9496689453125,-0.3895585064423167,-0.15051785837186,0.03776675427389116
1789997077361739800,10.95973974609375,-0.37361432504041703,-0.1552613616054972,-0.08005153964655647
1789997077371810800,10.969810791015624,-0.28450986757307034,-0.2524730609082115,0.11798144149389743
1789997077381883000,10.9798828125,-0.3125314505059375,-0.2862908619211856,0.23628986380155187
1789997077391954000,10.989953857421876,-0.40070987359335986,-0.30493400316875835,0.16260608734361606
1789997077402025000,11.00002490234375,-0.47498464654051303,-0.34709469530121656,0.19048979732870236
1789997077412097000,11.010096923828126,-0.4216316092825431,-0.32174398567853635,0.026367403375522357
1789997077422168000,11.02016796875,-0.29250190921236974,-0.35160323026582696,-0.13702844033505934
1789997077432239000,11.030239013671874,-0.30158267360903374,-0.45009281460728884,-0.0028344652392750212
1789997077442311200,11.040311279296876,-0.32638160019770085,-0.3906912279153597,0.027416497226602138
1789997077452382200,11.05038232421875,-0.310290625347472,-0.38120827317930034,0.05136993535086556
1789997077462453000,11.060452880859376,-0.3193356007339651,-0.4177719719688004,0.07111819181255429
1789997077472524000,11.07052392578125,-0.3143551204939821,-0.4257582751017612,-0.021732059257626665
1789997077482595800,11.080595947265625,-0.2515454694445455,-0.3643729907444433,-0.15261369071719194
1789997077492667000,11.0906669921875,-0.23102400243919016,-0.38121330940118353,0.13615472925449953
1789997077502738000,11.100738037109377,-0.21521898541476656,-0.42509226423051605,0.32720005370409105
1789997077512810000,11.11081005859375,-0.25174016446205566,-0.3496557835550199,0.05371285058342313
1789997077522881000,11.120881103515623,-0.21481251052355593,-0.2735721061054695,-0.062744520945971
1789997077532952000,11.1309521484375,-0.2003172684672788,-0.30096272232048704,0.04333070971458649
1789997077543024000,11.141024169921875,-0.22992994877664516,-0.265843489176626,-0.09966570951824273
1789997077553095000,11.151094970703124,-0.15280374786283082,-0.17362035664488185,-0.06962202319984642
1789997077563166000,11.161166015625,-0.14833058519064976,-0.1416699607520971,0.19153117602408176
1789997077573238000,11.171238037109376,-0.1505680544311046,-0.16562653550219408,0.06958954380883521
1789997077583309000,11.18130908203125,-0.15557434398168357,-0.1448233821876463,-0.07967542252349978
1789997077593380000,11.191380126953124,-0.1364373056319864,-0.14630928827413686,0.06863841545362162
1789997077603452000,11.201451904296874,-0.16318485610370728,-0.1416855728486455,0.048474904751508986
1789997077613523000,11.21152294921875,-0.1920485475015696,-0.13043077614185383,-0.22225868978671104
1789997077623594000,11.221593994140624,-0.16695308845908816,-0.11591111040804568,-0.17311013426624863
1789997077633666000,11.231666015625,-0.13656637096694194,-0.09039699574432829,-0.10623739724534884
1789997077643737000,11.241737060546876,-0.0845535614399009,-0.07819293014208287,-0.11424304171117847
1789997077653807900,11.251807861328125,-0.04943187032985722,-0.0868345703970586,-0.04359927283015903
1789997077663880000,11.2618798828125,-0.04607308837849596,-0.06178276958132716,-0.042388268368618656
1789997077673951000,11.271950927734377,-0.03954944340211867,-0.10025231204311529,-0.10561845512082133
1789997077684022000,11.28202197265625,-0.05042788217958041,-0.08818328495201977,-0.14184872645827643
1789997077694093800,11.29209375,-0.07080843084868409,-0.09417986929448133,-0.00472327252911265
1789997077704164900,11.302164794921875,-0.04687429874456995,-0.11532599450260939,0.0451120815300621
1789997077714236000,11.31223583984375,-0.02993083089494008,-0.12591248925198514,-0.043813705191480035
1789997077724307000,11.322306884765624,-0.030738611595790517,-0.12694575276364317,-0.11059563102818719
1789997077734379000,11.33237890625,-0.046815741500415974,-0.10786536584141437,-0.009353860040428633
1789997077744450000,11.342449951171876,0.00811652719658335,-0.05097484393308956,-0.06738114298775914
1789997077754520800,11.352520751953126,-0.018303020304823392,-0.037566164791822246,-0.037186381343109226
1789997077764593000,11.362593017578124,-0.03025557939300257,-0.07496466481205377,0.03796612499456565
1789997077774664000,11.372663818359374,-0.025692253594620868,-0.11250026458317788,-0.07901310589729682
1789997077784735000,11.38273486328125,-0.06457469998144291,-0.14540859633612715,-0.14815660816904977
1789997077794807000,11.39280712890625,-0.09477002845025302,-0.15933566253032486,-0.14758178679429293
1789997077804878000,11.402878173828125,-0.03425495466405126,-0.09144524771854358,-0.19554968562422453
1789997077814949000,11.41294921875,-0.03026714452480638,-0.11864863971817177,-0.13900820359582391
1789997077825021000,11.42302099609375,-0.039473843354153354,-0.17904185380667403,0.07079564681821254
1789997077835092000,11.433092041015623,0.0033432978476523,-0.19825211681363464,0.25242455338458064
1789997077845162800,11.443162841796877,-0.05046369450431097,-0.11400717493365867,0.032409620602486915
1789997077855234800,11.45323486328125,-0.08906165646415712,-0.10958509179901912,-0.08186949693322776
1789997077865305900,11.463305908203123,-0.08490272442148081,-0.11567853199063144,-0.03414824743394729
1789997077875377000,11.473376953125,-0.048294962003302314,-0.026189850955388096,-0.008081071137100465
1789997077885449000,11.483448974609376,-0.06060483239311209,0.015276292193405767,0.018974509886339256
1789997077895520000,11.49352001953125,-0.03377293316256087,-0.025878973919079243,0.1838342747056538
1789997077905591000,11.503591064453126,-0.023419706125172322,-0.03494286001591088,0.19664706840290963
1789997077915663000,11.5136630859375,0.012609285463304327,-0.032428222022289246,0.0019515960705613865
1789997077925734100,11.523734130859374,0.007527668296608438,-0.01020720345206777,-0.05415466700538503
1789997077935805200,11.53380517578125,0.006485588492428967,-0.055062098617572726,0.12081831187976301
1789997077945877000,11.543876953125,0.0319405758234883,-0.06895209188804931,0.17102181017651602
1789997077955947800,11.55394775390625,0.0245108996508088,-0.05176135591837101,0.23163608968057184
1789997077966018800,11.564018798828124,-0.002111543296233528,-0.09517440070367748,0.2520706816037926
1789997077976091000,11.5740908203125,-0.025887240578839756,-0.051046155498634546,0.0456061468841328
1789997077986162000,11.584161865234377,0.002885687147613431,-0.016685610043628403,-0.01524985098090825
1789997077996233000,11.59423291015625,0.012542204016756571,-0.04829911918307111,0.1742368865547312
1789997078006305000,11.604304931640623,0.05350240616481422,-0.08905185293790499,0.39148636296387834
1789997078016376000,11.6143759765625,0.020154470173117455,-0.0758649124288385,0.24104351510754204
1789997078026447000,11.624447021484375,-0.005895921022738259,-0.02186779255068466,-0.021752829295199047
1789997078036518100,11.63451806640625,-0.044380182896835645,-0.07478498759098665,0.07307882809554493
1789997078046590200,11.644590087890624,0.006605970904574197,-0.14221570300447803,0.12873053544108048
1789997078056661200,11.6546611328125,-0.0009037768290010939,-0.09606626263388501,0.18799387539170834
1789997078066732000,11.66473193359375,-0.03286163978850875,-0.07459627189109547,0.20546388474757885
1789997078076803800,11.674803955078126,-0.0369588815013029,-0.11159496795503808,0.03809875607354823
1789997078086875000,11.684875,0.014344420511658035,-0.12520136066322446,-0.12682927657688012
1789997078096946000,11.69494580078125,0.023275762056251887,-0.21773562174989233,0.19567901105499613
1789997078107018000,11.70501806640625,0.04586371915916416,-0.1874578441387186,0.19000356611047278
1789997078117089000,11.715089111328124,0.029657221082319402,-0.08039955451207517,0.0931759836145687
1789997078127160000,11.72516015625,-0.003095773931639358,-0.03900395894112319,0.12423970322634122
1789997078137232100,11.735232177734376,0.009046776939014567,-0.16459540716989027,0.09210827851330113
1789997078147303200,11.74530322265625,-0.01876320245264842,-0.14389085566325074,-0.17434179698375302
1789997078157374000,11.7553740234375,-0.020207117977118407,-0.11632303642724226,-0.07115565892894278
1789997078167446000,11.765446044921877,0.0006374169479537206,-0.19682106511614558,0.08229526677546757
1789997078177517000,11.77551708984375,-0.03745253236555931,-0.13297263341585017,-0.251736698006358
1789997078187588000,11.785588134765623,0.04135004683175677,-0.11259509519488922,-0.12601683119364285
1789997078197660000,11.795659912109375,0.07371099634597358,-0.1087024828256769,0.11410463845820544
1789997078207731000,11.80573095703125,0.028804942931268063,-0.08534096379750693,0.08858023292136759
1789997078217802000,11.815802001953124,-0.02602476891461449,-0.1333406375483184,-0.04637618569298945
1789997078227874000,11.8258740234375,0.05131995154314836,-0.23768927802737563,-0.04629930098659637
1789997078237945000,11.835945068359376,0.04402236068184692,-0.2623906564096485,-0.20017121695074475
1789997078248016100,11.84601611328125,0.049285946301902424,-0.23559371836291448,-0.19003119915904845
1789997078258087000,11.8560869140625,0.10066671718132551,-0.23004593167310017,0.020312157809976975
1789997078268159000,11.866158935546874,0.13659835290739686,-0.23717450934119266,0.1397847965895649
1789997078278230000,11.87622998046875,0.06091311101814434,-0.17990144370303449,-0.11449452268037427
1789997078288301800,11.8863017578125,0.06395629642089645,-0.11695300647742814,-0.11361639294061468
1789997078298372900,11.896372802734374,0.11948105122729881,-0.06821437233811793,0.010112259837845906
1789997078308444000,11.90644384765625,0.17312710297887066,-0.0791890287964007,0.2710923013392683
1789997078318516000,11.916515869140625,0.1287647135774468,-0.08566530020211455,0.025429437934647612
1789997078328587000,11.9265869140625,0.17978415697725325,-0.10379327851537964,-0.10517403602810682
1789997078338658000,11.936657958984377,0.2696971064345049,-0.08538753916791163,0.013303817594360594
1789997078348729000,11.94672900390625,0.2915022025517585,-0.09426470632319162,0.15067781589345364
1789997078358801200,11.95680126953125,0.2074410381697478,-0.04332040437612994,0.07540109064557338
1789997078368872000,11.966871826171875,0.15215247118502345,0.03574835073990426,-0.09533067209198555
1789997078378943000,11.97694287109375,0.2027217824269703,0.08986027301454518,-0.12076162871523673
1789997078389015000,11.98701513671875,0.22607965987415082,0.11506208853400694,-0.24016814745923157
1789997078399086000,11.997086181640626,0.1847876894294029,0.1256873807583211,-0.31335374111297376
1789997078409157000,12.0071572265625,0.2355479540736202,0.1382418975792284,-0.23831479389954996
1789997078419229000,12.01722900390625,0.3226733812151445,0.11172686892531511,0.05745799390729534
1789997078429300000,12.027300048828126,0.2899208457183619,0.1904367617676207,0.028775303451953727
1789997078439371000,12.03737109375,0.24174918962602163,0.1778417470069273,0.10132342242279424
1789997078449443000,12.047443115234374,0.21399205743282865,0.2276764322069205,-0.1838433016721543
1789997078459513900,12.057513916015624,0.2755287788051869,0.30054876312245893,-0.21919397382929937
1789997078469585000,12.0675849609375,0.3324325066439861,0.2226113141640265,0.02187803013220709
1789997078479657000,12.077656982421876,0.298670293772122,0.2005782255763284,-0.10114681407853394
1789997078489728000,12.08772802734375,0.1981743593290429,0.2606784929939874,-0.11172328599812548
1789997078499799000,12.097799072265625,0.21846366556921895,0.32994192626216484,-0.03329587168190893
1789997078509871000,12.10787109375,0.21379707501108236,0.42090365662955304,-0.07396743567606004
1789997078519942100,12.117942138671877,0.23911578509604015,0.3697592029727784,0.055688510350913586
1789997078530013200,12.12801318359375,0.2638293545771909,0.3437565411108868,0.07392672518020499
1789997078540085000,12.1380849609375,0.26355626858968,0.3665404003976172,-0.1128490241616196
1789997078550156000,12.148156005859375,0.18250872107129457,0.38570545380509375,-0.1895022366957946
1789997078560226800,12.158226806640624,0.17212708092461623,0.29463722699074774,-0.02929056166020888
1789997078570299000,12.168298828125,0.17117523289726413,0.2895528916235007,-0.0620116933336457
1789997078580370000,12.178369873046876,0.19608638282451912,0.2644350768037717,0.15975884709175892
1789997078590441000,12.18844091796875,0.1447804827357111,0.23864098630880345,0.20311316936262383
1789997078600512000,12.198511962890626,0.16122659514851304,0.2437103483001291,-0.12195109383726391
1789997078610584000,12.208583984375,0.19913156592972053,0.26745969258125885,-0.1767384968470002
1789997078620655000,12.218655029296874,0.250377452932349,0.2357110880058449,0.0023260509277216574
1789997078630726100,12.22872607421875,0.21128323722651599,0.1704117355675158,0.10280966167812683
1789997078640798200,12.238798095703125,0.12244234257622888,0.1682612522761338,-0.04180493402667515
1789997078650869200,12.248869140625,0.06804463725923636,0.2380524115098089,-0.16742641754504664
1789997078660940000,12.25893994140625,0.0988457965051586,0.2088802706286762,-0.0015026159777931421
1789997078671011800,12.26901171875,0.09454220339018621,0.1535388380354602,0.012118297028305063
1789997078681083000,12.279082763671877,0.047601908317943024,0.09424270244059642,0.06099983406489603
1789997078691154000,12.28915380859375,0.016034686451790722,0.06817787280267083,0.02730008077953711
1789997078701226000,12.29922607421875,0.03267003829616816,0.03227998066747522,-0.08096136069242978
1789997078711297000,12.309297119140624,0.006410825869679001,0.024113757343142563,-0.003385156473135991
1789997078721368000,12.3193681640625,-0.020504536675096555,-0.03962380102654132,0.021709421776113215
1789997078731440000,12.329440185546876,-0.06717316657318852,-0.06362872592125203,-0.16720454087959813
1789997078741511200,12.33951123046875,0.01790060720065636,-0.06699253876398135,-0.019413459119528256
1789997078751582000,12.34958203125,0.09928635572906232,-0.04585342675689345,0.09949940122300754
1789997078761654000,12.359654052734374,0.017865734373389557,-0.07072605194606704,0.14214396055898404
1789997078771725000,12.36972509765625,-0.07984580042034144,-0.1123469129981471,0.18001496707116238
1789997078781796000,12.379796142578124,-0.08071055916021602,-0.08427239238353511,0.1648877450453962
1789997078791868000,12.389867919921874,-0.08184675031937684,-0.061917394354520615,0.06776306679180077
1789997078801939000,12.39993896484375,-0.06380925590954771,-0.11557412770064085,-0.10456934141555073
1789997078812010000,12.410010009765625,-0.020850778482011407,-0.1482507131645837,-0.03291284761421366
1789997078822082000,12.42008203125,0.02956707914973432,-0.07118094689381854,0.20281368755125645
1789997078832153000,12.430153076171877,0.04228464703813773,-0.045894991766167834,0.1580675161636102
1789997078842224000,12.44022412109375,-0.009157670425211657,0.0043488292742439654,-0.051261692082110594
1789997078852296200,12.450296142578123,0.05534423116838313,0.012209922642994869,0.05423919179373401
1789997078862367000,12.460366943359375,0.055662338203146755,0.014213242870615456,-0.13959022476600685
1789997078872438000,12.47043798828125,0.02486350269988694,0.0664946031915515,-0.2604393298266234
1789997078882509000,12.480509033203123,0.09404537716617614,0.15649025928451443,-0.2176266312779478
1789997078892580900,12.490580810546875,0.1583662473609863,0.1968209984035166,-0.025854065070136288
1789997078902652000,12.50065185546875,0.15169741588781188,0.16514200875148155,0.11150113453998331
1789997078912723000,12.510722900390626,0.10873282583902916,0.23095137849443556,0.0030220065625591753
1789997078922795000,12.520794921875,0.1936845886363166,0.29847055990487403,0.045589210397550144
1789997078932866000,12.530865966796876,0.25904880289125853,0.27722799203199855,0.00791280038751541
1789997078942937000,12.54093701171875,0.2411826745835327,0.2557647191175619,-0.15107043676960627
1789997078953009200,12.551009033203124,0.18784457474411867,0.2836037770752912,-0.2125967129434285
1789997078963080000,12.561079833984374,0.2561371791249684,0.30410015023221715,-0.17171189426513833
1789997078973151000,12.57115087890625,0.2411430675191052,0.38145965034234025,-0.17161111311018729
1789997078983223000,12.58122314453125,0.20010753518390037,0.3560101150288885,0.04913367991462961
1789997078993294000,12.591294189453125,0.21337424202389504,0.36301852824891007,-0.0026065989346569767
1789997079003365000,12.601365234375,0.34109269722263835,0.36517304498963915,0.07832133662979124
1789997079013436700,12.611436767578123,0.34250260388924164,0.41054349272648527,0.06274674856359709
1789997079023507500,12.621507568359377,0.3104499974052158,0.4260123260039472,0.1256459982096564
1789997079033578500,12.63157861328125,0.2713021990178889,0.4227655677675703,0.08619004490029653
1789997079043650300,12.641650390625,0.22611492060278654,0.46800216059197747,0.0029794593536959972
1789997079053721300,12.651721435546875,0.25585368703736494,0.48145587095616904,-0.08930235663667938
1789997079063792400,12.66179248046875,0.22309844591742223,0.5058667694832741,-0.07522633412440385
1789997079073864400,12.671864501953126,0.2205155380616338,0.4807216276243473,0.05669580640028213
1789997079083935500,12.681935546875,0.16561228486730717,0.523082554424652,0.015362802274131974
1789997079094006500,12.692006591796876,0.1481576442229972,0.5901376251017061,-0.15658092830407644
1789997079104078600,12.70207861328125,0.16672024793682685,0.6157909963379662,-0.06421831787450694
1789997079114149600,12.712149658203124,0.16458014256445905,0.6191441959523905,0.13604942169686002
1789997079124220400,12.722220458984374,0.1080187259759485,0.5947975818590413,0.00727478043107114
1789997079134292500,12.73229248046875,0.030862819278675912,0.5961781853509931,-0.10683992313161277
1789997079144363500,12.742363525390624,0.11134168338144067,0.6000855542925811,-0.08391058411414865
1789997079154434600,12.7524345703125,0.034404867047951634,0.5249263677677197,-0.14933206792905745
1789997079164506400,12.76250634765625,-0.01925283031576682,0.44626270251027295,-0.18026862533993734
1789997079174577400,12.772577392578125,0.003367052338266131,0.4279773846982435,0.13011644693000401
1789997079184648400,12.7826484375,0.043218584805356314,0.4676961467818107,0.08778890870897722
1789997079194720500,12.792720458984377,-0.022738534060665307,0.48026788637703793,-0.13739313594427746
1789997079204791600,12.80279150390625,-0.017361847479299454,0.4667625275891501,-0.07829326400121168
1789997079214862600,12.812862548828123,-0.037287281575676255,0.3284047463878302,0.11322469829496576
1789997079224933400,12.822933349609375,-0.05793454649692455,0.2793014179125697,-0.16251074426531067
1789997079235005400,12.83300537109375,-0.12679557582895687,0.3489179594801694,-0.14624678044479547
1789997079245076500,12.843076416015624,0.04512024050929807,0.29657633852681387,0.25554563388609186
1789997079255147500,12.8531474609375,-0.0006995877801439274,0.1999737614061266,0.40682553246346315
1789997079265219300,12.86321923828125,-0.08023983381336944,0.1853636277320851,0.22344988869790086
1789997079275290400,12.873290283203126,-0.08645889523830022,0.20115578858177807,0.20084832819192086
1789997079285361400,12.883361328125,-0.09409287570428941,0.17719634075201046,0.11249515412528466
1789997079295433500,12.89343359375,-0.1580605533979193,0.13966105327322786,0.053202754112926416
1789997079305504500,12.90350439453125,-0.22094595272249365,0.08985699343232999,0.15014877799191648
1789997079315575300,12.9135751953125,-0.15970752450364847,0.08672400221146317,0.26953253312546166
1789997079325647600,12.923647705078125,-0.1285021850647628,0.11991635805415468,0.1766117739699553
1789997079335718400,12.933718505859376,-0.1432651897902278,0.07562582942026573,0.14727326146129324
1789997079345789400,12.94378955078125,-0.21969526067237086,0.017807503171540652,0.2839389432897267
1789997079355861500,12.953861572265623,-0.2756011108554589,0.014916865395145173,0.17308966507549214
1789997079365932500,12.9639326171875,-0.30024544824920335,-0.022219316620610333,0.06302593747196432
1789997079376003600,12.974003662109377,-0.3420643316462867,-0.09312382189643456,0.07272926612828118
1789997079386075400,12.984075439453123,-0.3401454101222972,-0.13544762029149712,0.034870381008277225
1789997079396146400,12.994146484375,-0.37714714643991576,-0.11488699325023963,-0.08000326042002143
1789997079406217500,13.004217529296875,-0.3479682060030479,-0.14074321250022803,0.10334900982071137
1789997079416288300,13.014288330078124,-0.32009123041806553,-0.18224459762254525,0.13300351239642597
1789997079426360300,13.0243603515625,-0.30138829833893166,-0.17611591239387867,-0.029122294935350106
1789997079436431400,13.034431396484376,-0.3089265951891007,-0.15642548304809303,0.05806608794941991
1789997079446503400,13.04450341796875,-0.27747257674041503,-0.19672655088513727,0.14766857411371423
1789997079456574500,13.054574462890624,-0.29687080159824125,-0.19250575611935689,0.07702981728896376
1789997079466645500,13.0646455078125,-0.261530095348209,-0.14065107400456223,0.04214273592471079
1789997079476716500,13.074716552734374,-0.22327412163598873,-0.14230107031831427,0.1211585437757852
1789997079486788600,13.08478857421875,-0.24304645919129256,-0.14913001224500513,0.07695661295560767
1789997079496859600,13.094859619140625,-0.19878951584374033,-0.1741621720460958,0.19604331408617207
1789997079506930700,13.1049306640625,-0.22310717290650164,-0.19112035492776686,0.0533971322619431
1789997079517002500,13.11500244140625,-0.25594528882509043,-0.24737171602155092,-0.2250539071357992
1789997079527073300,13.1250732421875,-0.2487133833580702,-0.2873927027808778,0.11215604786511926
1789997079537144300,13.135144287109377,-0.18432331383458656,-0.15559846071436534,0.08061080885230296
1789997079547216400,13.14521630859375,-0.2962438976675266,-0.12862034109690254,-0.12879827956028267
1789997079557287400,13.155287353515623,-0.3514322672925096,-0.18288882824814434,-0.08733080615483114
1789997079567358500,13.1653583984375,-0.2566420184936818,-0.1713218255664027,-0.0709068486415668
1789997079577430500,13.175430419921875,-0.18751825247514092,-0.11708778974451638,-0.14859678867773699
1789997079587501600,13.18550146484375,-0.2129214008688973,-0.15242321723282543,0.0240150795046142
1789997079597572600,13.195572509765626,-0.273715399990916,-0.2518707631742715,0.14492469041490763
1789997079607644700,13.205644775390626,-0.33893447046164393,-0.21763230743640036,-0.066787201935758
1789997079617715500,13.215715576171876,-0.280016714896437,-0.12428212473868443,-0.24064724717975833
1789997079627786500,13.225786376953126,-0.2353094775834888,-0.23946915056622878,0.21283196935297208
1789997079637858300,13.2358583984375,-0.20791966311124205,-0.22595548082013628,0.1875271689185511
1789997079647929300,13.245929443359374,-0.25581779399876103,-0.22256051672029814,0.02565629062587019
1789997079658000400,13.25600048828125,-0.27868154726645483,-0.2434752381369682,0.07060052359774517
1789997079668072400,13.266072509765625,-0.22991073270578813,-0.24372740329521003,-0.02053557168850988
1789997079678143500,13.2761435546875,-0.18807249880481053,-0.21744455838850282,-0.0026941893817670187
1789997079688214500,13.286214599609377,-0.21734312153459698,-0.24677106621968217,0.19278855962902602
1789997079698286600,13.29628662109375,-0.2464440233724128,-0.3052207875953107,0.19897638221569094
1789997079708357600,13.306357666015623,-0.2528906650133069,-0.2705954839963376,-0.06574783423637388
1789997079718428400,13.316428466796877,-0.2153516749499901,-0.30971819760265595,-0.02059484163107762
1789997079728500500,13.32650048828125,-0.16054171549199997,-0.3272046486046247,-0.006409412200985632
1789997079738571500,13.336571533203124,-0.1383644789821627,-0.3109212342647497,0.05839491722860527
1789997079748642600,13.346642578125,-0.16479421002049732,-0.2626130420500222,0.045368722159515505
1789997079758713600,13.356713623046875,-0.17944240470561953,-0.2627306699101822,0.04871076273356032
1789997079768785400,13.366785400390626,-0.18386893487221284,-0.2479762091934172,-0.03839582341485137
1789997079778856400,13.3768564453125,-0.10613194259957305,-0.2731336637496074,0.10585621727854097
1789997079788927500,13.386927490234376,-0.08986030474225556,-0.2608914110006184,0.02272972686279725
1789997079798999600,13.39699951171875,-0.09560846362989442,-0.25565459115512645,-0.052600124616185205
1789997079809070600,13.407070556640624,-0.061446642802792044,-0.22239938099424475,0.008842091191736361
1789997079819141400,13.417141357421874,-0.010666462871375298,-0.22489517867789277,0.16126377773332376
1789997079829213400,13.42721337890625,-0.016214761049071737,-0.24760217677135116,0.19774961054928336
1789997079839284500,13.437284423828125,-0.061841257331913556,-0.1924643237596868,-0.026514904402180853
1789997079849355500,13.44735546875,-0.02061026706943146,-0.1301581998605454,-0.09145182611643979
1789997079859427300,13.45742724609375,0.05890628725412677,-0.18777705499212183,0.04734565648822395
1789997079869498400,13.467498291015623,0.028708492788740485,-0.16625463722898232,-0.029233659223689035
1789997079879569400,13.4775693359375,0.04085474040376156,-0.13004869428688015,0.07098000261284546
1789997079889641500,13.487641357421875,0.04304880901980971,-0.07865068739043249,0.07717965378931116
1789997079899712500,13.49771240234375,0.09238324261148141,-0.04123215209798122,-0.07166226967417565
1789997079909783300,13.507783203125,0.10091876624882991,-0.014743623194669844,-0.05017952479798762
1789997079919855600,13.517855712890626,0.18851010647486055,-0.029567864422473403,0.004238662534543037
1789997079929926400,13.527926513671876,0.19467752723449658,-0.036256405466405184,0.03976549703397204
1789997079939997400,13.53799755859375,0.18702540971226722,-0.026849825768239754,0.053045290134495854
1789997079950069500,13.548069580078124,0.1754717028343293,0.0603118244172842,0.03448924226591594
1789997079960140500,13.558140625,0.18876261560924398,0.19803620612982867,-0.0583186566602912
1789997079970211600,13.568211669921874,0.2729834644885968,0.2622381247015396,-0.12062272310731093
1789997079980283400,13.578283447265624,0.3048867263689754,0.2745587463561708,-0.2320452740768315
1789997079990354400,13.5883544921875,0.30206691982593403,0.23287114461880137,-0.1199137711973916
1789997080000425500,13.598425537109376,0.30331922914646836,0.2753312629174246,-0.06712717053808986
1789997080010497500,13.60849755859375,0.23309676897481302,0.26824232036576334,0.07053148843506445
1789997080020568600,13.618568603515625,0.1921824825011061,0.18296791645892527,0.1830048340801281
1789997080030639600,13.6286396484375,0.19213525295915476,0.22438121110957648,0.02213609385700681
1789997080040710700,13.638710693359377,0.19766443175482787,0.3343186849898872,-0.2575407380999772
1789997080050782700,13.64878271484375,0.20111231909953944,0.2367966249835461,-0.15430971738983382
1789997080060853800,13.658853759765623,0.1366327547183769,0.16599052961565258,0.05603326059520735
1789997080070924800,13.6689248046875,0.21390415906240426,0.21586097341672908,0.11384877125996794
1789997080080996900,13.678996826171876,0.18790908021800248,0.24943756328891606,0.033669721625226814
1789997080091067600,13.689067626953126,0.08813002479245158,0.2614326251991713,0.021954018311759166
1789997080101138700,13.699138671875,0.06980985126382722,0.2431627764014689,0.018816555188041862
1789997080111210500,13.70921044921875,0.0915018755837031,0.21955809649693864,-0.00636580695581794
1789997080121281500,13.719281494140626,0.08275601456416601,0.20734785360556568,-0.07016632009564476
1789997080131352600,13.7293525390625,0.08756439714953697,0.16441330881894878,0.057719458772302265
1789997080141424600,13.739424560546874,0.11041542693566211,0.17797674795394267,0.019532977174090676
1789997080151495700,13.74949560546875,0.08744677775031795,0.1803129001123719,-0.053841038374173665
1789997080161566700,13.759566650390624,0.012134872904110862,0.08585639333880175,-0.02883954507805861
1789997080171638800,13.769638671875,0.06991324681347957,0.08515011575157987,-0.0017919852010821996
1789997080181709600,13.77970947265625,0.08817815841384592,0.11106003375403371,0.01989425364265603
1789997080191780600,13.789780517578125,0.06811384652818576,0.1567754389645867,-0.05654202932387538
1789997080201852700,13.799852783203123,0.05475759102146957,0.11754651635467153,0.03806795361447189
1789997080211923700,13.809923828125,0.033003188341841794,0.17537975713879453,-0.12049743465685098
1789997080221994800,13.819994873046875,0.04006739828965531,0.1721762595880536,-0.10262196856912596
