time,seconds_elapsed,z,y,x
1789997362468466400,0.056466552734375,-0.07120114567226264,-9.79875953901112,-0.3868426875418052
1789997362478536700,0.06653662109375,-0.0636728188269306,-9.797686941343546,-0.41433472477514294
1789997362488607500,0.076607421875,-0.059131147676147515,-9.796536017742753,-0.4413491710919887
1789997362498677500,0.086677490234375,-0.055256521032773884,-9.795306768208741,-0.46830805129669606
1789997362508748500,0.09674853515625,-0.053460833255038594,-9.794192669486998,-0.49125440792441366
1789997362518818600,0.106818603515625,-0.06312679318357259,-9.79285002270639,-0.5162247081277892
1789997362528889300,0.116889404296875,-0.0740085175434593,-9.791228558984399,-0.5447521893560886
1789997362538959600,0.126959716796875,-0.07173452646317892,-9.790136672094464,-0.5643158447429537
1789997362549030700,0.13703076171875,-0.07438705939911305,-9.78930314387977,-0.5782532577458769
1789997362559100400,0.147100341796875,-0.08130862969006411,-9.788132346534729,-0.5968470451872796
1789997362569171500,0.15717138671875,-0.07908967499895952,-9.78700831094086,-0.6152978439614176
1789997362579241500,0.167241455078125,-0.07172586366611067,-9.786000595203042,-0.6319852132596075
1789997362589312500,0.1773125,-0.07220332671843935,-9.785009830600023,-0.6471216267887503
1789997362599382500,0.187382568359375,-0.08118682994130066,-9.783838448733091,-0.6635508566074073
1789997362609453300,0.197453369140625,-0.08380504048252478,-9.782585818323492,-0.6814413911502808
1789997362619523600,0.207523681640625,-0.08115553062073885,-9.7816955914855,-0.6944270563863217
1789997362629594600,0.2175947265625,-0.08080449782651848,-9.78091116310954,-0.7054150449991226
1789997362639664400,0.227664306640625,-0.08336544348886236,-9.780264097377657,-0.7140487255707383
1789997362649734400,0.237734375,-0.08806955692605115,-9.779634567302464,-0.7220562370680272
1789997362659805400,0.247805419921875,-0.08733036506446078,-9.77880454621911,-0.7332903824616223
1789997362669875500,0.25787548828125,-0.0804779966853559,-9.778167417359352,-0.7425154530551284
1789997362679946500,0.267946533203125,-0.07715567472907714,-9.77766414401233,-0.7494816388059407
1789997362690016500,0.2780166015625,-0.07500428254858124,-9.77710592560768,-0.7569513170994818
1789997362700087600,0.288087646484375,-0.07323104863124899,-9.776450676569342,-0.7655423275731503
1789997362710157300,0.2981572265625,-0.06785979478852823,-9.775914085474609,-0.7728516276732087
1789997362720228400,0.308228271484375,-0.07313013640688731,-9.775386262208222,-0.7790324351999908
1789997362730298600,0.318298583984375,-0.07529423280532938,-9.774767253527045,-0.7865363080240786
1789997362740369700,0.32836962890625,-0.06595544987139292,-9.774555656602978,-0.7899936819363385
1789997362750439400,0.338439453125,-0.05984435114653315,-9.774334707328677,-0.793220096636936
1789997362760510500,0.348510498046875,-0.06485388640423771,-9.77371219151616,-0.8004547240655869
1789997362770580500,0.35858056640625,-0.05766095182599965,-9.773455001884699,-0.8041483178865164
1789997362780651500,0.368651611328125,-0.044076781840692275,-9.773816236412525,-0.8006022427774965
1789997362790721500,0.378721435546875,-0.04108331281286664,-9.77376772109568,-0.8013510153181851
1789997362800792600,0.38879248046875,-0.04903176933298818,-9.773220608606934,-0.8075530117634684
1789997362810862600,0.398862548828125,-0.04760160409912932,-9.772636671239137,-0.8146776029463857
1789997362820933600,0.40893359375,-0.04336010777158662,-9.772549577477573,-0.8159464538384228
1789997362831003400,0.41900341796875,-0.041796091591566796,-9.772451377800106,-0.8172019337922334
1789997362841074400,0.429074462890625,-0.03744565499683376,-9.772472420588135,-0.8171521763663738
1789997362851144400,0.43914453125,-0.031223209418565965,-9.772658883070946,-0.8151985580805688
1789997362861215500,0.449215576171875,-0.0367354061019374,-9.772774618405103,-0.8135722720529883
1789997362871285500,0.459285400390625,-0.04649141436752397,-9.772864634776115,-0.8119828839696943
1789997362881356500,0.4693564453125,-0.046402539640828036,-9.773290166711806,-0.8068855608306824
1789997362891426600,0.479426513671875,-0.0428524413772393,-9.773841955375671,-0.8003711374353617
1789997362901497600,0.48949755859375,-0.04003447504679206,-9.774081609350443,-0.7975766113460063
1789997362911567400,0.4995673828125,-0.032220705156470644,-9.774469147363304,-0.793165297709778
1789997362921638400,0.509638427734375,-0.028350873419223353,-9.775116797617077,-0.7852872578110546
1789997362931708700,0.519708740234375,-0.032598342829826286,-9.77527929470241,-0.7830989539865404
1789997362941779700,0.52977978515625,-0.03773808718832442,-9.775527131983637,-0.7797554887775331
1789997362951849500,0.539849365234375,-0.03416819737887708,-9.776166014409064,-0.7718656123105436
1789997362961920500,0.54992041015625,-0.03158428183289943,-9.77677099456489,-0.7642777144648134
1789997362971990500,0.559990478515625,-0.030930635663180144,-9.77718015988767,-0.7590475587263703
1789997362982061300,0.570061279296875,-0.03026212300118059,-9.777807351875305,-0.7509715120375156
1789997362992131600,0.580131591796875,-0.03425792148894397,-9.778181445884703,-0.7458912861637771
1789997363002202600,0.59020263671875,-0.03459742824215209,-9.778540926846862,-0.7411500829860568
1789997363012272600,0.600272705078125,-0.02623519872279139,-9.779637489911913,-0.7268948362056166
1789997363022343400,0.610343505859375,-0.018137041808472712,-9.780863816836476,-0.7104641450822353
1789997363032413400,0.620413330078125,-0.013513692856760462,-9.78143372567892,-0.7027013290610163
1789997363042484500,0.630484375,-0.007594806506307213,-9.782230429014563,-0.6915867183938622
1789997363052554500,0.640554443359375,0.0026679959373694146,-9.78371160748303,-0.67032729193978
1789997363062625500,0.65062548828125,0.010094506946863839,-9.78544354584217,-0.6444819990001619
1789997363072695600,0.660695556640625,0.014104009732994017,-9.78704630486369,-0.6195845813699066
1789997363082766600,0.6707666015625,0.014443263041164027,-9.78852163811326,-0.5958280408704653
1789997363092836600,0.680836669921875,0.017384893425542395,-9.79006886755526,-0.5697725027136504
1789997363102907400,0.690907470703125,0.02908133626837516,-9.791881469935179,-0.5372327171040698
1789997363112977400,0.700977294921875,0.041787442494230345,-9.793877612188458,-0.4986228178005665
1789997363123047700,0.711047607421875,0.0507287779426435,-9.795801273727417,-0.4583634342569858
1789997363133118500,0.721118408203125,0.057483165839989664,-9.797525613301993,-0.41900775808747853
1789997363143189500,0.731189453125,0.06634480081542861,-9.799138893717528,-0.3779571876335889
1789997363153259500,0.741259521484375,0.07077428029600996,-9.800677939853072,-0.3348134808253497
1789997363163329500,0.75132958984375,0.07279548392530996,-9.801945767831802,-0.294891001085937
1789997363173400300,0.761400390625,0.07937075696266256,-9.802962835919857,-0.25690692379688845
1789997363183470600,0.771470703125,0.09050049213371239,-9.803885211461782,-0.21459849876901133
1789997363193541600,0.781541748046875,0.09990656358362175,-9.804693605235219,-0.1685617556666955
1789997363203611600,0.791611572265625,0.10452243248177692,-9.80532605791986,-0.12266536174998618
1789997363213682400,0.801682373046875,0.10805089886886998,-9.805721779239176,-0.08086031053382903
1789997363223752400,0.81175244140625,0.11363436155701055,-9.805908826243877,-0.04017432647547684
1789997363233823500,0.821823486328125,0.11341599696543998,-9.805994750961661,-0.001322521018378029
1789997363243893500,0.8318935546875,0.10599517191546037,-9.806030406796932,0.03089901211563265
1789997363253964500,0.841964599609375,0.11005628387453034,-9.805812964653969,0.06565838488726876
1789997363264034600,0.85203466796875,0.12232474075192584,-9.805326642441749,0.1049587232735008
1789997363274105600,0.862105712890625,0.13381150919971987,-9.80461878643334,0.14808452909886835
1789997363284175600,0.872175537109375,0.12973800354995765,-9.804051215678452,0.1848170536905527
1789997363294246700,0.88224658203125,0.11798242809814401,-9.803661339578031,0.2114232662663795
1789997363304316700,0.892316650390625,0.11062020136760548,-9.803155728143453,0.237245434058737
1789997363314387700,0.9023876953125,0.11347389203198253,-9.802111187526583,0.27587087799124416
1789997363324457700,0.912457763671875,0.11411024457360618,-9.800731131345033,0.32098007618617264
1789997363334528800,0.92252880859375,0.11315203053331933,-9.799265150445699,0.3633077173711732
1789997363344598800,0.932598876953125,0.11479763318272307,-9.797598678538202,0.405302765600942
1789997363354669800,0.942669921875,0.11365157755329273,-9.795579155409335,0.45176513197049495
1789997363364739600,0.952739501953125,0.106290665997006,-9.793287829601764,0.5005831580881029
1789997363374810600,0.962810546875,0.10025197948780841,-9.79079718182981,0.548297058888711
1789997363384881000,0.972880859375,0.09774828957119025,-9.788094352611898,0.5950068241480737
1789997363394952000,0.982951904296875,0.09063549842392093,-9.78522201204598,0.6415594626169652
1789997363405021700,0.993021728515625,0.08194796877321786,-9.782003049999474,0.690007997835055
1789997363415092700,1.0030927734375,0.07260234053996391,-9.778410578465461,0.7401387139864265
1789997363425162800,1.013162841796875,0.06769409653253387,-9.774593650525809,0.789384244801104
1789997363435233800,1.02323388671875,0.06283802567033563,-9.770645205160974,0.8372185936436056
1789997363445303600,1.033303466796875,0.059399315359350294,-9.766747028678655,0.881760403746739
1789997363455374600,1.04337451171875,0.04766556814685464,-9.762964587530494,0.9233760972701013
1789997363465444900,1.05344482421875,0.031114958704542367,-9.759486682286857,0.9601117636669426
1789997363475516000,1.063515869140625,0.017482590779510792,-9.756513803955912,0.9902060192879288
1789997363485585700,1.073585693359375,0.012926036011782707,-9.75334861792326,1.0209771512571721
1789997363495656700,1.08365673828125,0.007989517470405553,-9.749607677829266,1.0561505367733537
1789997363505726700,1.093726806640625,0.0012026290999718183,-9.7461654284209,1.0874799602124838
1789997363515797800,1.1037978515625,-0.007078424228430958,-9.743587102365494,1.1103344007730482
1789997363525867800,1.11386767578125,-0.01135557867453317,-9.741457689121365,1.128840875257179
1789997363535938800,1.123938720703125,-0.013530573209613794,-9.739417707726359,1.1462751904651522
1789997363546008800,1.1340087890625,-0.020532415937341283,-9.73743793208599,1.1628733471099286
1789997363556079900,1.144079833984375,-0.026192419026989953,-9.736285839441418,1.1723651058156042
1789997363566149600,1.154149658203125,-0.028419369794882368,-9.735753339999913,1.1767221319813281
1789997363576220700,1.164220703125,-0.03355449049390154,-9.73538859834075,1.1796077704202383
1789997363586291000,1.174291015625,-0.03744457043473376,-9.735382168599962,1.1795396736200898
1789997363596361700,1.18436181640625,-0.03459633226360893,-9.736043262857198,1.174150235666707
1789997363606431700,1.194431640625,-0.027508780588873193,-9.73678852826655,1.1681464652072637
1789997363616502800,1.204502685546875,-0.027499720499583054,-9.737579970905184,1.1615406372014432
1789997363626572800,1.21457275390625,-0.029470712328585794,-9.738934308123588,1.1500715870734304
1789997363636643600,1.2246435546875,-0.029749360306607558,-9.74092577420175,1.1330826044801623
1789997363646713900,1.2347138671875,-0.03484714010334573,-9.744193836086987,1.1044781490255147
1789997363656785000,1.244784912109375,-0.029278562173794487,-9.747784554055333,1.0724909192647785
1789997363666855000,1.25485498046875,-0.012904707812675041,-9.750227271032333,1.0503585093684493
1789997363676924700,1.264924560546875,-0.006013090272815316,-9.752324535572528,1.0307757839549332
1789997363686995700,1.27499560546875,-0.0029651662381817005,-9.755279293724893,1.0024547485515474
1789997363697065700,1.285065673828125,0.004960768779111094,-9.758536834216118,0.970227572555095
1789997363707136800,1.29513671875,0.010162884591514012,-9.7615360160321,0.9395181076452136
1789997363717206800,1.305206787109375,0.007818104713788488,-9.76453578236997,0.9078448392044752
1789997363727277800,1.31527783203125,0.005960454761635628,-9.767899121323227,0.8709282632827758
1789997363737347800,1.325347900390625,0.0077894425915961615,-9.771431971624493,0.8303358483925461
1789997363747418600,1.335418701171875,0.016926564331946427,-9.774875390076637,0.7886061731006949
1789997363757488600,1.345488525390625,0.029629930611443703,-9.777819042313098,0.7508236279994249
1789997363767559700,1.3555595703125,0.037032610366668085,-9.78048504665196,0.714933107189834
1789997363777630000,1.3656298828125,0.042650009573739954,-9.783339267039299,0.6744160956233739
1789997363787700700,1.37570068359375,0.044164816317171784,-9.786348385727406,0.6291443638104945
1789997363797770800,1.385770751953125,0.04768556062211282,-9.789240015515684,0.5821461004659533
1789997363807841800,1.395841796875,0.05508151152573991,-9.792157948789,0.5301058608988299
1789997363817911800,1.405911865234375,0.06270035706558265,-9.795108030766247,0.4714888002246618
1789997363827982600,1.415982666015625,0.07241715213221031,-9.797778711280227,0.41067802889849986
1789997363838052900,1.426052978515625,0.07858840181278065,-9.79997242193222,0.3531870131121948
1789997363848124000,1.4361240234375,0.08011828739433549,-9.801830617019533,0.296778422267735
1789997363858193700,1.446193603515625,0.07970101183033548,-9.803419347515701,0.23875896216053513
1789997363868264700,1.4562646484375,0.0829709916780237,-9.804676069578528,0.17832703408412634
1789997363878334700,1.466334716796875,0.08912211645259521,-9.805552852413058,0.11639517717300914
1789997363888405800,1.47640576171875,0.09506826584013178,-9.806044435322285,0.05331323691131547
1789997363898475500,1.4864755859375,0.09512892825249582,-9.80618355153203,-0.010058832845283904
1789997363908546600,1.496546630859375,0.08852214126545004,-9.805931622597575,-0.0790755277425982
1789997363918616800,1.506616943359375,0.08378627184997313,-9.80513842639327,-0.15037374514774418
1789997363928687900,1.51668798828125,0.08383721658592112,-9.80381331526935,-0.22047436853246763
1789997363938757600,1.526757568359375,0.08320850849463604,-9.80198668436408,-0.2907512344000861
1789997363948828700,1.53682861328125,0.07908385717952623,-9.799630476626753,-0.3624638504255563
1789997363958898700,1.546898681640625,0.0775974728129804,-9.796608498457074,-0.4368434206379577
1789997363968969700,1.5569697265625,0.08006047452618367,-9.793177354964614,-0.5075858764570206
1789997363979039700,1.567039794921875,0.076108891922771,-9.789711140158772,-0.571094545097649
1789997363989110800,1.57711083984375,0.07152512149619869,-9.785843943336605,-0.6344628554195165
1789997363999180800,1.587180908203125,0.06919209827163722,-9.781763396024703,-0.6947719243012368
1789997364009251800,1.597251953125,0.06300512586554978,-9.777786893609166,-0.7491853592731058
1789997364019321600,1.607321533203125,0.05573784740946721,-9.773758368745446,-0.800580907728523
1789997364029392600,1.617392578125,0.04992776375806424,-9.76953578261435,-0.8509085346914828
1789997364039463000,1.627462890625,0.04547475270484574,-9.765179925492406,-0.8997716420598327
1789997364049534000,1.637533935546875,0.04052274718750268,-9.760689628335832,-0.9474772499561309
1789997364059603700,1.647603759765625,0.036107718640670645,-9.756060799491404,-0.9941606021326035
1789997364069674800,1.6576748046875,0.029214221383444962,-9.751174196493626,-1.041220386406034
1789997364079744800,1.667744873046875,0.02314007311851019,-9.74601988247037,-1.0885575993813574
1789997364089815800,1.67781591796875,0.01632277947771945,-9.741142047300935,-1.1314918281573803
1789997364099885800,1.6878857421875,0.011190091622737236,-9.736512049412728,-1.1707196036309002
1789997364109956900,1.697956787109375,0.005034765597083606,-9.73206734496355,-1.2071579675816
1789997364120027000,1.70802685546875,-0.0019847353713928896,-9.727879830145834,-1.240456572201848
1789997364130098000,1.718097900390625,-0.007726341056151432,-9.723592946606875,-1.273600570782274
1789997364140167700,1.728167724609375,-0.013982180301478365,-9.719269238188863,-1.3061306752480566
1789997364150238700,1.73823876953125,-0.0192398325432674,-9.714950790467858,-1.337802993840724
1789997364160308700,1.748308837890625,-0.02207854940079851,-9.710240713080763,-1.3715415973134337
1789997364170378800,1.758378662109375,-0.028678963729273525,-9.705513100036978,-1.4044817438848316
1789997364180449800,1.76844970703125,-0.03671602098145522,-9.701095283594727,-1.4344975274421274
1789997364190520800,1.778520751953125,-0.04106790518118068,-9.696718383684754,-1.4636821208722888
1789997364200590800,1.7885908203125,-0.04452013712744228,-9.692574123486876,-1.4907790943734347
1789997364210660600,1.79866064453125,-0.04995950603662058,-9.688827338173985,-1.5147612968549131
1789997364220731600,1.808731689453125,-0.0544411997616291,-9.68488239994049,-1.5396344568267464
1789997364230802000,1.818802001953125,-0.05811249041920528,-9.680952074754238,-1.5640150109760462
1789997364240873000,1.828873046875,-0.0649556023461977,-9.677508656302093,-1.5849251125358044
1789997364250942700,1.838942626953125,-0.06998275089240633,-9.674055300977825,-1.605655473614484
1789997364261013800,1.849013671875,-0.0724973777615698,-9.669776600745319,-1.6311150551721452
1789997364271083800,1.859083740234375,-0.08230617109374143,-9.66494728089273,-1.6590325512759387
1789997364281154800,1.86915478515625,-0.0950871623368468,-9.660222590458392,-1.6856598614387213
1789997364291224600,1.879224609375,-0.09987098994674161,-9.656085344523191,-1.7089283626928924
1789997364301295400,1.88929541015625,-0.10115294691552408,-9.652240944054721,-1.73043160784021
1789997364311365400,1.899365478515625,-0.1057250314708799,-9.648098437422513,-1.753113249117136
1789997364321436400,1.9094365234375,-0.11554288032576442,-9.643751932650805,-1.7762502329461276
1789997364331506400,1.91950634765625,-0.12408164915554225,-9.639967737936972,-1.7961057108864187
1789997364341577200,1.9295771484375,-0.12848356477576306,-9.637131637728213,-1.8109540281891823
1789997364351647500,1.9396474609375,-0.13074611201342196,-9.634569093763828,-1.824381811169535
1789997364361718500,1.949718505859375,-0.13142994782542808,-9.631628948658705,-1.8397966763138769
1789997364371788300,1.959788330078125,-0.13855279457583092,-9.629095046266913,-1.852488107843697
1789997364381859300,1.969859375,-0.14818320370037108,-9.627737786439061,-1.8587873541183768
1789997364391929300,1.979929443359375,-0.15191850863802245,-9.62796107380092,-1.8573298487864434
1789997364402000400,1.99000048828125,-0.1549064475407824,-9.628823243588208,-1.8526077887006103
1789997364412070400,2.0000703125,-0.15809821105310692,-9.629674891981482,-1.8479114475779235
1789997364422141400,2.010141357421875,-0.15802695418149232,-9.630832829844952,-1.8418702677175403
1789997364432211500,2.02021142578125,-0.15554489157479257,-9.633332245445251,-1.8289679699160157
1789997364442282500,2.030282470703125,-0.1495074928403832,-9.63717606139183,-1.8091110306710003
1789997364452352300,2.040352294921875,-0.13955329512157477,-9.640984221503137,-1.7895071894042194
1789997364462423300,2.05042333984375,-0.1320703098218888,-9.645369889241456,-1.7662898338153958
1789997364472493300,2.060493408203125,-0.12174611888006329,-9.651137366726994,-1.7352591741271317
1789997364482564400,2.070564453125,-0.10783507329425773,-9.657880411246419,-1.6982625917717813
1789997364492634400,2.08063427734375,-0.09333008953644893,-9.664821024164556,-1.6591816043578087
1789997364502705400,2.090705322265625,-0.08126252552601508,-9.67173474907577,-1.6190521308042107
1789997364512775400,2.100775390625,-0.07012844297341071,-9.678870592305064,-1.5763574829377234
1789997364522846500,2.110846435546875,-0.06203026665113866,-9.685766781559586,-1.5337769629701972
1789997364532916200,2.120916259765625,-0.05035510862492956,-9.692309335070847,-1.4923127336814999
1789997364542987300,2.1309873046875,-0.0375224511266686,-9.698737906813621,-1.4503291566938161
1789997364553057500,2.1410576171875,-0.020431727475265504,-9.705685533994435,-1.4034414410516618
1789997364563128600,2.151128662109375,-0.006341982017175177,-9.71267115509808,-1.3543871950253843
1789997364573198300,2.1611982421875,0.0030569829822794416,-9.718981068897246,-1.3083479129061102
1789997364583269400,2.171269287109375,0.013799658774846466,-9.724287358611821,-1.2682434276632963
1789997364593339400,2.18133935546875,0.022378473062289413,-9.72915642595291,-1.2301968978635967
1789997364603410400,2.191410400390625,0.03182576015528757,-9.733662505200504,-1.1937989389885215
1789997364613480400,2.20148046875,0.04638604516375344,-9.737665895622968,-1.16020171674788
1789997364623551500,2.211551513671875,0.06367163151684217,-9.741455935555695,-1.1271015573091805
1789997364633621500,2.22162158203125,0.07009333512741141,-9.745085816490649,-1.094872043225169
1789997364643692500,2.231692626953125,0.07148673028114717,-9.748694654637575,-1.0621807568483055
1789997364653762300,2.24176220703125,0.07767905928236432,-9.751716632807254,-1.0336216018401085
1789997364663833300,2.251833251953125,0.07974780098097399,-9.754248197111487,-1.0092975271183997
1789997364673903400,2.2619033203125,0.07835889477268793,-9.756297530856727,-0.9894081469085066
1789997364683974100,2.27197412109375,0.08402495771036483,-9.758156310465932,-0.9704203186482191
1789997364694044400,2.28204443359375,0.09409459850238636,-9.759734519568084,-0.9534683070644736
1789997364704115500,2.292115478515625,0.10101468008914961,-9.761142048278451,-0.9382331093359738
1789997364714185500,2.302185546875,0.09995845816764048,-9.76231635275483,-0.9260526960682124
1789997364724256300,2.31225634765625,0.09287980675199069,-9.763279644829034,-0.9165927207402884
1789997364734326300,2.322326171875,0.08798035340579226,-9.763663675710559,-0.9129746763736009
1789997364744397300,2.332397216796875,0.08885219520372338,-9.763312378054856,-0.9166411629918962
1789997364754467600,2.342467529296875,0.09369816479701548,-9.76252385802567,-0.9245129923455416
1789997364764538400,2.352538330078125,0.10038119535804725,-9.76132967980504,-0.9363632968761026
1789997364774608400,2.3626083984375,0.10400144994813017,-9.76022960960865,-0.9473649486880749
1789997364784679400,2.372679443359375,0.10010679886345751,-9.759498372724652,-0.955281347835809
1789997364794749200,2.382749267578125,0.09351068853405303,-9.758963535195589,-0.9613950814757496
1789997364804820200,2.3928203125,0.09077843229225836,-9.758266785103082,-0.9686970750521868
1789997364814890500,2.402890380859375,0.08608950729104689,-9.757528533956409,-0.9765425278555602
1789997364824960500,2.41296044921875,0.08613827833621762,-9.756607327458262,-0.98569752888754
1789997364835031300,2.42303125,0.08411967765595764,-9.755517194133997,-0.9966049996100366
1789997364845102300,2.433102294921875,0.07857059216145426,-9.754585466241837,-1.0061261305406688
1789997364855172400,2.44317236328125,0.07516340949989389,-9.753770642727613,-1.014250473350659
1789997364865242400,2.453242431640625,0.07622333491556346,-9.75299322861433,-1.0216120881598443
1789997364875313400,2.4633134765625,0.07470548683167434,-9.752355515232681,-1.0278009328626097
1789997364885383400,2.473383544921875,0.0707657179636415,-9.751860425192117,-1.0327689305335284
1789997364895454500,2.483454345703125,0.07080785377204883,-9.751476978832482,-1.0363642516117542
1789997364905524500,2.4935244140625,0.07131736506361049,-9.751171273884177,-1.0392034205604344
1789997364915595300,2.50359521484375,0.07001225554810371,-9.751227387985587,-1.0387743084281682
1789997364925665300,2.513665283203125,0.06800129475160502,-9.751716048285365,-1.0343024967763572
1789997364935736300,2.523736328125,0.07198685268985573,-9.752364283061027,-1.0278958446044475
1789997364945806300,2.533806396484375,0.07579355606301687,-9.753097273510694,-1.0206469694547355
1789997364955877400,2.54387744140625,0.07605426195897161,-9.754227738845348,-1.0097674096524716
1789997364965947400,2.553947509765625,0.07576306502663065,-9.755672092434763,-0.9957488942373544
1789997364976018400,2.564018310546875,0.06833318445393816,-9.757251470580696,-0.9807076116457581
1789997364986088200,2.574088134765625,0.06346130866783205,-9.758704591998457,-0.966446519646421
1789997364996159200,2.5841591796875,0.0641737038540421,-9.75979881697595,-0.9552956686221062
1789997365006229500,2.5942294921875,0.0669310945370933,-9.76114146375656,-0.9413055025186389
1789997365016300500,2.604300537109375,0.07096394851605874,-9.762789815485476,-0.9237300983395427
1789997365026370300,2.614370361328125,0.07212600999879651,-9.764551564460993,-0.9048293638408184
1789997365036441300,2.62444140625,0.07436339996231253,-9.766232064893842,-0.8863239853352308
1789997365046511400,2.634511474609375,0.08025487372027709,-9.767862296444177,-0.867652529547736
1789997365056582400,2.64458251953125,0.08360234838412142,-9.769503049388527,-0.8486372287586331
1789997365066652400,2.65465234375,0.08215109926303849,-9.770944480368495,-0.8320317655902355
1789997365076723500,2.664723388671875,0.08845775252603925,-9.772175483468175,-0.8167998557973652
1789997365086793500,2.67479345703125,0.09849269646401516,-9.773456755450367,-0.8001468271601945
1789997365096864500,2.684864501953125,0.1025560186464805,-9.774556825646757,-0.7860714669913053
1789997365106934300,2.694934326171875,0.10756738053509034,-9.775250653129815,-0.7767239390619098
1789997365117005300,2.70500537109375,0.11226794117516838,-9.775594936522841,-0.7717172898810356
1789997365127075300,2.715075439453125,0.1152696072091814,-9.77578315257132,-0.7688724949091672
1789997365137146400,2.725146484375,0.12284271847773343,-9.775714763510226,-0.7685610908724367
1789997365147216400,2.73521630859375,0.12452270745392888,-9.77554116050899,-0.770504772286117
1789997365157287400,2.745287353515625,0.12294964945092797,-9.77539093838334,-0.7726544976659119
1789997365167357400,2.755357421875,0.12286201683324761,-9.77507646560669,-0.7766378682136535
1789997365177428500,2.765428466796875,0.12091291945893316,-9.774505387720465,-0.7840810238264501
1789997365187498200,2.775498291015625,0.12436448468491434,-9.773447987622022,-0.7966260326229035
1789997365197569300,2.7855693359375,0.12671316670291125,-9.77216437755227,-0.8118829307265579
1789997365207639600,2.7956396484375,0.12700008475235663,-9.77061831715405,-0.830244662977755
1789997365217710600,2.805710693359375,0.1207176708814688,-9.768910344192385,-0.8510130179792642
1789997365227780400,2.8157802734375,0.11562622036081738,-9.766752289375662,-0.8760985785927623
1789997365237851400,2.825851318359375,0.11026599936876445,-9.764328277099132,-0.903382306837663
1789997365247921400,2.83592138671875,0.10901741494662127,-9.761709619033336,-0.9313916459433734
1789997365257992200,2.8459921875,0.10333904051664285,-9.75909096096754,-0.9590845395110547
1789997365268062500,2.8560625,0.09235887901727109,-9.756572256144882,-0.985486078093946
1789997365278133500,2.866133544921875,0.08540965353441424,-9.753582426679134,-1.015240653431788
1789997365288203300,2.876203369140625,0.08269177287784404,-9.750481538054347,-1.0448154152233153
1789997365298274300,2.8862744140625,0.07805610330067575,-9.74763959262669,-1.071361330712959
1789997365308344000,2.896343994140625,0.07240163490267004,-9.74473218074739,-1.0978731978025287
1789997365318415000,2.9064150390625,0.06814770378523971,-9.741887312710285,-1.1230938560377806
1789997365328485400,2.9164853515625,0.06004836298576556,-9.7394323207736,-1.1446565032221376
1789997365338556200,2.92655615234375,0.05831039217805955,-9.737112937915324,-1.1643228152658789
1789997365348626200,2.936626220703125,0.0567592263464583,-9.734904614216088,-1.182712604567781
1789997365358697200,2.946697265625,0.04730070775668137,-9.733231128045915,-1.1968241320285946
1789997365368767200,2.956767333984375,0.03689982114972081,-9.73186393134594,-1.2082432055350392
1789997365378838000,2.966838134765625,0.039036490685120225,-9.73063117468059,-1.2180711373925208
1789997365388908000,2.976907958984375,0.037045408199448134,-9.730085815757512,-1.2224790900278837
1789997365398979000,2.98697900390625,0.029882681529805995,-9.73012731681168,-1.2223300369460135
1789997365409049300,2.99704931640625,0.027367915380035992,-9.730159465515612,-1.222135098895803
1789997365419120000,3.0071201171875,0.03072727684449637,-9.730168233343958,-1.2219799083340912
1789997365429190100,3.017190185546875,0.026755715465557293,-9.73063409729004,-1.218361279445514
1789997365439261200,3.02726123046875,0.020839424643456003,-9.731517894387245,-1.2114048113711178
1789997365449331200,3.037331298828125,0.01860941769373021,-9.732171974381805,-1.2061780166335403
1789997365459402000,3.047402099609375,0.016205263178428866,-9.732952895626426,-1.1998930911451577
1789997365469472300,3.05747216796875,0.012604785292828454,-9.734160517850517,-1.1901060758199542
1789997365479543300,3.067543212890625,0.008623876130231656,-9.73533248423934,-1.1805095415655522
1789997365489613000,3.077613037109375,0.010419142641214421,-9.736087686520815,-1.174243101581931
1789997365499684000,3.08768408203125,0.01533535875090165,-9.73691829212606,-1.1672889715950936
1789997365509754000,3.097754150390625,0.019576126709370874,-9.73812766791582,-1.1570895030114798
1789997365519825200,3.1078251953125,0.02509906169917667,-9.739361009103058,-1.1465577337335795
1789997365529895200,3.117895263671875,0.026482188903936183,-9.740596103855967,-1.1359901624899358
1789997365539966200,3.12796630859375,0.028998448324471245,-9.741790866598487,-1.125630242647603
1789997365550036200,3.1380361328125,0.029368927887966856,-9.742989136472344,-1.1152058062016963
1789997365560106200,3.148106201171875,0.025414856499945744,-9.744158180251716,-1.1050482770636678
1789997365570177000,3.158177001953125,0.028464147368236443,-9.74523428505063,-1.0954412944804877
1789997365580247000,3.1682470703125,0.03513899918938987,-9.74596201480329,-1.0887587479766458
1789997365590318000,3.178318115234375,0.04188447312791831,-9.746692667165398,-1.08195980855152
1789997365600388000,3.18838818359375,0.04569676142507233,-9.747663558024167,-1.0730139932908118
1789997365610459100,3.198459228515625,0.043122294127452186,-9.74883552441299,-1.0624220182582735
1789997365620529200,3.208529052734375,0.04274014010918326,-9.749939101740717,-1.0522552829004823
1789997365630600200,3.21860009765625,0.041915539553039706,-9.75103566480577,-1.0420748843435197
1789997365640670000,3.228669921875,0.03969214158225804,-9.752057993590832,-1.032553241956234
1789997365650741000,3.238740966796875,0.0430672303388128,-9.753006672617792,-1.0234236676264554
1789997365660811300,3.248811279296875,0.04942226648791693,-9.75388520901799,-1.0147320463225245
1789997365670882300,3.25888232421875,0.051620794878923335,-9.755012751743196,-1.0037149777457117
1789997365680952000,3.2689521484375,0.05022729926048778,-9.756583946582674,-0.988401819410175
1789997365691023000,3.279023193359375,0.049892706144414836,-9.758296595719456,-0.9713636639129369
1789997365701093000,3.289093017578125,0.052628419285197736,-9.759942609360813,-0.9545341827303171
1789997365711164200,3.2991640625,0.0570348695166409,-9.761533093422651,-0.9378829076588153
1789997365721234200,3.309234130859375,0.06265769610079006,-9.763106626349687,-0.920988471481204
1789997365731305200,3.31930517578125,0.06838306061080657,-9.764758485209942,-0.9028938657335936
1789997365741375200,3.329375244140625,0.0753285688997712,-9.76655121384561,-0.8827177044715732
1789997365751446300,3.3394462890625,0.07642801804165356,-9.768356217440962,-0.8624057149354368
1789997365761516000,3.34951611328125,0.07224924821939785,-9.770013336998224,-0.8438033057961613
1789997365771587000,3.359587158203125,0.06516560553479939,-9.771750536054371,-0.8240314144860953
1789997365781657300,3.3696572265625,0.0674195173748536,-9.773460847103594,-0.8033092367138713
1789997365791728400,3.379728271484375,0.07711950743715279,-9.775236040082573,-0.780516170951724
1789997365801798100,3.389798095703125,0.08281431241212413,-9.777115277957916,-0.7560081179652363
1789997365811869200,3.399869140625,0.08894458619491197,-9.778908006593584,-0.7317211603835224
1789997365821939200,3.409939208984375,0.09510970296221785,-9.780711841145157,-0.7063916349463164
1789997365832010200,3.42001025390625,0.09789708692473359,-9.782623227724432,-0.6790107299372553
1789997365842080000,3.430080078125,0.09793995795208028,-9.784582545098662,-0.650189051535353
1789997365852151000,3.440151123046875,0.09971409148513338,-9.786474642455577,-0.6207857007879763
1789997365862221300,3.45022119140625,0.09963668800052254,-9.788065126517415,-0.5951802810188382
1789997365872292400,3.460292236328125,0.09845369789418763,-9.78950772654116,-0.5711562852222473
1789997365882362000,3.470362060546875,0.09710474923695438,-9.790898888638615,-0.5470419442610814
1789997365892433200,3.48043310546875,0.09660033424561842,-9.792113525125384,-0.5249467611026019
1789997365902503200,3.490503173828125,0.09818671752107329,-9.79305226728022,-0.5068121886707843
1789997365912574000,3.500573974609375,0.09495075867399573,-9.794027834314107,-0.4882486502371728
1789997365922644200,3.510644287109375,0.09407947399849072,-9.794888250535726,-0.47085470357220616
1789997365932715300,3.52071533203125,0.09886865363693796,-9.79536405135393,-0.45983982695247977
1789997365942785300,3.530785400390625,0.09751060835779644,-9.79573756084144,-0.452121069268696
1789997365952856000,3.54085595703125,0.09797991550313308,-9.796029237264394,-0.4456538460159674
1789997365962926000,3.550926025390625,0.09917923568976111,-9.796210439050197,-0.44138011421952394
1789997365972997000,3.5609970703125,0.10207163266302086,-9.796201671221851,-0.44091574811078604
1789997365983067400,3.5710673828125,0.10257035769908689,-9.796118084591626,-0.44264867285061626
1789997365993138200,3.58113818359375,0.10169630567776039,-9.7959608482033,-0.4463240368951112
1789997366003208200,3.591208251953125,0.10165226560663432,-9.795691383612155,-0.452214300510101
1789997366013279200,3.601279296875,0.10137332080109045,-9.795314366993308,-0.46035833440124985
1789997366023349200,3.611349365234375,0.09896744696944951,-9.794984696647525,-0.4678263321943581
1789997366033420000,3.621419921875,0.09591585911279543,-9.794709386837482,-0.47420145671684294
1789997366043490000,3.631489990234375,0.09641177113726734,-9.794330616652966,-0.4818447380116209
1789997366053561000,3.64156103515625,0.09511427867263555,-9.794020235529542,-0.48840522903837263
1789997366063631000,3.651631103515625,0.09655787421022541,-9.793727974584698,-0.4939192797521129
1789997366073702100,3.6617021484375,0.09503182455357163,-9.793382522147894,-0.5010152293624356
1789997366083772200,3.671772216796875,0.09085978129962459,-9.793000829353929,-0.5092069748528302
1789997366093843200,3.68184326171875,0.08912534045614301,-9.792694539883732,-0.5153175666876137
1789997366103913000,3.691912841796875,0.09036154032074846,-9.792407539635896,-0.5205698611926287
1789997366113984000,3.70198388671875,0.08876112851994111,-9.792226922371983,-0.5242484035748988
1789997366124054300,3.71205419921875,0.08398943887241184,-9.792127553650737,-0.5268690344020724
1789997366134125300,3.722125244140625,0.07492542232582346,-9.7921748999238,-0.5273463330576196
1789997366144195000,3.732195068359375,0.07025969097053165,-9.792073193114996,-0.5298471734300255
1789997366154266000,3.74226611328125,0.068643309849035,-9.79183996888101,-0.5343422563595697
1789997366164336000,3.752336181640625,0.06691571430487092,-9.791755797728895,-0.536096370017901
1789997366174407200,3.7624072265625,0.06298548501674085,-9.791910111507773,-0.5337734434956685
1789997366184477200,3.772477294921875,0.06536264421055094,-9.792052150326967,-0.5308779777824878
1789997366194548200,3.78254833984375,0.06686194285759701,-9.792201787930727,-0.5279176301395521
1789997366204618200,3.7926181640625,0.06514522033389657,-9.792650116220116,-0.5197654494745656
1789997366214689300,3.802689208984375,0.06689859420671128,-9.793399473282694,-0.505227257566899
1789997366224759000,3.812759033203125,0.062296520938468165,-9.794248783588408,-0.4890743604715913
1789997366234830000,3.822830078125,0.051650975388055666,-9.795195124527812,-0.47105519458036865
1789997366244900400,3.832900390625,0.04446652551037259,-9.79618705817461,-0.4507135405583307
1789997366254971400,3.842971435546875,0.04863236735239625,-9.79715736451149,-0.4286667996514588
1789997366265041200,3.853041259765625,0.057443084991350764,-9.798122994673252,-0.4048211560964584
1789997366275112200,3.8631123046875,0.06251375758545473,-9.799174549552797,-0.37770657387338574
1789997366285182700,3.8731826171875,0.07004422158894594,-9.800170574852825,-0.34945454858560115
1789997366295253800,3.883253662109375,0.07784784911116585,-9.801136205014586,-0.3194297780042514
1789997366305323800,3.89332373046875,0.08037735845563002,-9.802107095873355,-0.2874076778595336
1789997366315394600,3.90339453125,0.08467224263795652,-9.802987385839224,-0.25419888868089763
1789997366325464800,3.91346484375,0.08814314275206997,-9.803753109514712,-0.22145645663868635
1789997366335535900,3.923535888671875,0.08057620549597777,-9.804540460500121,-0.1867505059711635
1789997366345606000,3.93360595703125,0.07986866914797573,-9.805126735955476,-0.1532274814778939
1789997366355676700,3.9436767578125,0.08298430781732313,-9.805561035719514,-0.12026492214528843
1789997366365746700,3.95374658203125,0.07995807359763421,-9.805969616520404,-0.08337553562461399
1789997366375817700,3.963817626953125,0.07956333865900524,-9.80622212997675,-0.04553925560868811
1789997366385887700,3.9738876953125,0.08487462420910596,-9.80627824407816,-0.008694100955384783
1789997366395958800,3.983958740234375,0.0960838634903077,-9.806141465955973,0.026841103610512798
1789997366406028800,3.99402880859375,0.10027483064043335,-9.805962602257727,0.05858532752876635
1789997366416099800,4.004099853515625,0.09648796904548071,-9.805778477862477,0.08826355426134541
1789997366426169600,4.014169677734375,0.09038599890857003,-9.805540577453375,0.1165790915057063
1789997366436240600,4.02424072265625,0.09032215815843082,-9.805214414238929,0.1413260495482944
1789997366446310700,4.034310546875,0.09147007695138454,-9.804863116583228,0.16327793351225553
1789997366456381700,4.044381591796875,0.09170619639535434,-9.804472071439028,0.18514944571638478
1789997366466451700,4.05445166015625,0.09350698960646986,-9.804007961058616,0.20754207745147868
1789997366476522800,4.064522705078125,0.09096523270178586,-9.803530991196633,0.22991121871313078
1789997366486592800,4.0745927734375,0.09346581734586507,-9.803077986732125,0.24755227200696242
1789997366496662800,4.084662841796875,0.09335351607780903,-9.802743640211224,0.26053470410630103
1789997366506733600,4.094733642578125,0.0878902274369262,-9.802386497336625,0.27543928164094683
1789997366516804600,4.1048046875,0.08613436021292582,-9.801984346276521,0.2899730896344408
1789997366526875000,4.114875,0.08823157908734865,-9.801683902025221,0.2993696078047156
1789997366536946000,4.12494580078125,0.0934268370423466,-9.80165175332129,0.29882227612026036
1789997366547015700,4.135015625,0.09674880280559882,-9.801770995786786,0.29377801660904657
1789997366557086700,4.145086669921875,0.09469886627215891,-9.80189316086173,0.2904098918828182
1789997366567156700,4.15515673828125,0.09003409846466966,-9.802090729260444,0.2851435140535235
1789997366577227800,4.165227783203125,0.09614199601886793,-9.802477682751416,0.2693965856769122
1789997366587297800,4.1752978515625,0.10251480072010308,-9.802996738189458,0.24723829242065548
1789997366597367800,4.185367919921875,0.1031032133336179,-9.803511701974273,0.22562398811429737
1789997366607438800,4.19543896484375,0.10492348756333812,-9.80400036227405,0.20233736668154595
1789997366617510000,4.205510009765625,0.10235758259808644,-9.804612941214442,0.1717780325657688
1789997366627579600,4.21557958984375,0.09746001068172044,-9.805240133202075,0.13468428257941267
1789997366637649700,4.225649658203125,0.09813313330346718,-9.805684954360126,0.0964171596984379
1789997366647720700,4.235720703125,0.10204805999118834,-9.80593980590403,0.05919880608487874
1789997366657790700,4.245790771484375,0.09496703395536168,-9.806166600397228,0.02129126919733826
1789997366667861800,4.25586181640625,0.09441842362927272,-9.806173614659905,-0.02078255020693177
1789997366677931800,4.265931884765625,0.0961991330335848,-9.8059585106045,-0.0657928705876693
1789997366688002800,4.2760029296875,0.09020794806107878,-9.805650467568636,-0.10715883626681752
1789997366698072600,4.286072509765625,0.07649829766573384,-9.805245393899083,-0.1473039275146555
1789997366708143600,4.2961435546875,0.07064737968044354,-9.80450655823052,-0.19247719478858633
1789997366718214000,4.3062138671875,0.07095148176013026,-9.803522223368287,-0.23726912546157836
1789997366728285000,4.316284912109375,0.06938581247914116,-9.802448456656933,-0.2785222510165535
1789997366738354700,4.326354736328125,0.06746557130655273,-9.801342541241645,-0.31546514868959785
1789997366748425700,4.33642578125,0.06735282708050216,-9.800202139034866,-0.34914277922268955
1789997366758495700,4.346495849609375,0.06314410051140003,-9.799023158383369,-0.381523794073984
1789997366768566800,4.35656689453125,0.0626507823028136,-9.797720843613147,-0.41368126583509146
1789997366778636800,4.36663671875,0.06140752250975929,-9.79648691790402,-0.44209443650133906
1789997366788707800,4.376707763671875,0.05894883164549246,-9.795324303865431,-0.4674725503206253
1789997366798777900,4.38677783203125,0.05799642172490712,-9.794121942338347,-0.49214737470876424
1789997366808849000,4.396848876953125,0.06177512741286773,-9.792893861848116,-0.5155659519581124
1789997366818918700,4.406918701171875,0.06438506331609097,-9.791935245949029,-0.5331174638049677
1789997366828989700,4.41698974609375,0.06884485573654528,-9.791122760522365,-0.5473161215599626
1789997366839059700,4.427059814453125,0.07492049498895649,-9.790517780366539,-0.55723129330948
1789997366849130800,4.437130859375,0.079492903771298,-9.790089325821398,-0.5641009598832577
1789997366859200800,4.44720068359375,0.08441022156774997,-9.789856686109303,-0.5674088423222303
1789997366869271800,4.457271728515625,0.0972676847137045,-9.789672561714053,-0.5685357274603098
1789997366879341800,4.467341796875,0.10850417732801287,-9.789547474029659,-0.568648795913346
1789997366889412600,4.47741259765625,0.11300046583395451,-9.789781867307424,-0.5637351222455501
1789997366899482600,4.487482666015625,0.10896971248053014,-9.790452313914894,-0.5527993022114038
1789997366909553700,4.4975537109375,0.11263612603358923,-9.791246094641089,-0.5377706599056721
1789997366919624000,4.5076240234375,0.12160135838082059,-9.792003635010122,-0.5217938865622506
1789997366929694700,4.51769482421875,0.13036336890668607,-9.792909059417248,-0.5023117719789967
1789997366939764700,4.5277646484375,0.14373220650772564,-9.79391326802373,-0.4785331657782197
1789997366949835800,4.537835693359375,0.15378527975743636,-9.795133749729395,-0.44955611415151503
1789997366959905800,4.54790576171875,0.1569990176395513,-9.796449508503079,-0.4187245937645435
1789997366969976600,4.5579765625,0.1591835220717825,-9.797673497340083,-0.3881498611502349
1789997366980046800,4.568046875,0.16866766372658312,-9.798765968751907,-0.3551832649633288
1789997366990118000,4.578117919921875,0.1708796772202477,-9.800011000376939,-0.3177333493499085
1789997367000187600,4.588187744140625,0.17697925447067245,-9.801067231431603,-0.2795543522769585
1789997367010258700,4.5982587890625,0.1878434888396412,-9.801914203649758,-0.24000287954071536
1789997367020328700,4.60832861328125,0.19055945153376086,-9.802799754312634,-0.198006972794421
1789997367030399700,4.618399658203125,0.18958121761875227,-9.80355261850655,-0.15748839032538234
1789997367040469800,4.6284697265625,0.18910623878445476,-9.804098561951518,-0.11941581276897341
1789997367050540800,4.638540771484375,0.19020479287719352,-9.804454535782337,-0.08289437364470213
1789997367060610800,4.64861083984375,0.195139436267782,-9.804598328167199,-0.046556501793256024
1789997367070681900,4.658681884765625,0.19509360609836876,-9.804704711151123,-0.009185713547363411
1789997367080751600,4.668751708984375,0.18738818282019346,-9.804826876226066,0.02546884714292828
1789997367090822700,4.67882275390625,0.18703723222436383,-9.804698281410335,0.05736790542986709
1789997367100892700,4.688892578125,0.19248596261693163,-9.804351659929752,0.08962306997836567
1789997367110963700,4.698963623046875,0.1948037563063204,-9.80400094679594,0.11831695728213526
1789997367121033700,4.70903369140625,0.19171461291825398,-9.803748433339596,0.1418385656476952
1789997367131104800,4.719104736328125,0.18963711252445353,-9.803447989088296,0.1637583739729598
1789997367141174800,4.7291748046875,0.18836146656544878,-9.803138192486763,0.18266577567448838
1789997367151245800,4.739245849609375,0.19558489674665033,-9.802689864197372,0.19855222211964427
1789997367161315600,4.749315673828125,0.1987917116976343,-9.802292389312386,0.21433933637617156
1789997367171386600,4.75938671875,0.1877144190998748,-9.80219126702547,0.22848772524865343
1789997367181457000,4.769456787109375,0.17719914429904893,-9.802107680395245,0.24016205215780062
1789997367191528000,4.77952783203125,0.175428189103771,-9.801900175124405,0.2497302918994799
1789997367201597700,4.78959765625,0.17705776306698098,-9.801724818557501,0.2553929755699821
1789997367211668700,4.799668701171875,0.17999445583969353,-9.801577519041299,0.25893682218929753
1789997367221738800,4.80973876953125,0.18467022909838704,-9.801441909962891,0.26082325699040665
1789997367231809800,4.819809814453125,0.1822855259189382,-9.801497439542413,0.26037589681539686
1789997367241879800,4.8298798828125,0.16935374629460273,-9.801697346028686,0.26159088036203754
1789997367251950800,4.839950927734375,0.16037377303596584,-9.80185575146079,0.26134764619069173
1789997367262020900,4.850020751953125,0.15752360776923596,-9.802013572371006,0.25707230695905164
1789997367272092000,4.860091796875,0.1582304591306485,-9.802216985988617,0.2488013039536774
1789997367282161700,4.87016162109375,0.15690923873055726,-9.802460147094726,0.23991072601154445
1789997367292232400,4.880232421875,0.14959242204432374,-9.802765852043033,0.23195574841909108
1789997367302302700,4.890302734375,0.141021102651814,-9.803074479600786,0.2241663549182005
1789997367312373800,4.900373779296875,0.13579343113140202,-9.803313549053668,0.2167773406454362
1789997367322443800,4.91044384765625,0.13010479103573597,-9.80353508284986,0.21016685473080723
1789997367332514600,4.9205146484375,0.13036038236515596,-9.803674783581494,0.20343920870991422
1789997367342584600,4.93058447265625,0.13788430246342903,-9.803696410891414,0.19720084404330698
1789997367352655600,4.940655517578125,0.1412640902279876,-9.803718038201332,0.19375501443836837
1789997367362725600,4.9507255859375,0.13691845310595818,-9.803772983258963,0.19411553658014163
1789997367372796400,4.96079638671875,0.12601776831727474,-9.803844294929505,0.19783894101744517
1789997367382866700,4.97086669921875,0.1151905506236013,-9.803900993552803,0.2016454571609385
1789997367392937700,4.980937744140625,0.11064690671144052,-9.80385130919218,0.2065393849486485
1789997367403007700,4.9910078125,0.11489710236866958,-9.803636205136776,0.21421044929949565
1789997367413078500,5.00107861328125,0.12226517431810498,-9.80329425983131,0.22549869950050486
1789997367423148500,5.0111484375,0.12511117486637086,-9.802933025303483,0.23926881137881426
1789997367433219600,5.021219482421875,0.12004984548934734,-9.80256477651298,0.25634368215724823
1789997367443289600,5.03128955078125,0.11985683453474193,-9.80204338298738,0.2756198623722419
1789997367453360600,5.041360595703125,0.12154645898896269,-9.801475227710604,0.2944611217686906
1789997367463430700,5.0514306640625,0.12258814092846587,-9.800836929807067,0.31459837579242883
1789997367473501700,5.061501708984375,0.12016705126138404,-9.800223181822895,0.3340235360240564
1789997367483571500,5.071571533203125,0.12081450058575718,-9.799635152801871,0.3506544989598915
1789997367493642500,5.081642578125,0.12417692622356116,-9.799073427265881,0.3648462885826826
1789997367503712800,5.091712646484375,0.12496989409900269,-9.798521054080128,0.379147018472664
1789997367513783800,5.10178369140625,0.1207190591209568,-9.797988554638623,0.3940034460166469
1789997367523853600,5.111853515625,0.11638160530538298,-9.797591664275526,0.40505565897207707
1789997367533924600,5.121924560546875,0.11937758138412609,-9.79721172504723,0.41327476739343255
1789997367543994600,5.13199462890625,0.1206965276287403,-9.796844060778618,0.42150688142683357
1789997367554065700,5.142065673828125,0.11970071239126845,-9.796518482086062,0.4292774788957089
1789997367564135400,5.152135498046875,0.12085119760064407,-9.79635715404451,0.4326401967944577
1789997367574206500,5.16220654296875,0.1162602804806549,-9.796445416849851,0.4319061468988657
1789997367584276700,5.17227685546875,0.11363040690110064,-9.796711374309659,0.42653380621075626
1789997367594347800,5.18234765625,0.11176476829284801,-9.797026431608199,0.41972763332724566
1789997367604417500,5.19241748046875,0.11096324265161528,-9.797433258843421,0.4103547882935032
1789997367614488600,5.202488525390625,0.10610798464016988,-9.797949976193904,0.39915494702830906
1789997367624558600,5.21255859375,0.10158735627741552,-9.798619838279485,0.38357108199261125
1789997367634629600,5.222629638671875,0.1030096076328773,-9.79932068002522,0.3647839274035766
1789997367644699600,5.23269970703125,0.10336942652175202,-9.79995430175364,0.3472521066378802
1789997367654770700,5.242770751953125,0.09924505833443253,-9.800497907111048,0.33282606986779717
1789997367664840700,5.2528408203125,0.09768221119819208,-9.800987151932716,0.31858075995948165
1789997367674911700,5.262911865234375,0.10252086513470858,-9.801467044404149,0.30185051963394505
1789997367684981500,5.2729814453125,0.10350477073867805,-9.801899590602517,0.28705451704030854
1789997367695052500,5.283052490234375,0.09760962088601663,-9.802314601144195,0.2747356634162366
1789997367705122800,5.293122802734375,0.09539517797324806,-9.802634919139741,0.26384695219313725
1789997367715193600,5.303193603515625,0.09213521719607524,-9.802928349128365,0.25392346927300097
1789997367725263600,5.313263671875,0.09300411811824888,-9.803183200672269,0.2435769751678221
1789997367735334700,5.323334716796875,0.10085653038537129,-9.803338683494925,0.23399149203039704
1789997367745404700,5.33340478515625,0.10002467353795655,-9.803488321098685,0.22803030033735558
1789997367755475500,5.343475341796875,0.0841797281469684,-9.80372037628889,0.22436505582807584
1789997367765545700,5.353545654296875,0.0756902874847874,-9.80396236835122,0.21672597578437997
1789997367775616800,5.36361669921875,0.07962156251911073,-9.804244107902049,0.20218937304560095
1789997367785686800,5.373686767578125,0.08423999783368781,-9.80448376187682,0.18813452594177796
1789997367795757600,5.383757568359375,0.08481628161799162,-9.804669055315852,0.1779348381624557
1789997367805827600,5.39382763671875,0.08152151438891887,-9.804947872257232,0.1635467222499661
1789997367815898600,5.403898681640625,0.08034055184288881,-9.80530443060994,0.1412509567517787
1789997367825968600,5.41396875,0.0829422953065019,-9.80562241051793,0.11536582499211653
1789997367836039400,5.424039306640625,0.08291887789829634,-9.805867325189709,0.0921070962132886
1789997367846109700,5.434109619140625,0.0800412127032876,-9.806077168548107,0.06938969406981486
1789997367856180700,5.4441806640625,0.07522531402127351,-9.806268891727925,0.04278262754403986
1789997367866250500,5.45425048828125,0.0763527745480882,-9.806347217661141,0.010777147457271348
1789997367876321500,5.464321533203125,0.07809096455150283,-9.80631331539154,-0.022968034169985913
1789997367886391600,5.4743916015625,0.08135082486397587,-9.806153740915656,-0.05581558425421826
1789997367896462600,5.484462646484375,0.08444038837715051,-9.805888952499627,-0.08846871231147088
1789997367906532600,5.49453271484375,0.08616432609292678,-9.80549264665842,-0.12356251151910982
1789997367916603600,5.504603759765625,0.08767559830555692,-9.804923322337865,-0.16176763854715973
1789997367926673700,5.514673583984375,0.09015488443328067,-9.804199099716543,-0.19982348416447637
1789997367936744700,5.52474462890625,0.08778911428316495,-9.80349416631758,-0.23276881836764513
1789997367946814500,5.534814453125,0.08336329719754866,-9.802714414116739,-0.26502533005643636
1789997367956885500,5.544885498046875,0.08662903012838215,-9.801678641328214,-0.3000124174865894
1789997367966955800,5.554955810546875,0.08895684288828633,-9.800539992687106,-0.33450145573411133
1789997367977026800,5.56502685546875,0.09406570120146497,-9.799363350123166,-0.3661053852656856
1789997367987096600,5.5750966796875,0.09652832845533266,-9.798225286003946,-0.39475919628739353
1789997367997167600,5.585167724609375,0.09955908358651212,-9.79693407714963,-0.4249258960900828
1789997368007237600,5.595237548828125,0.0972343760991469,-9.795468680772185,-0.45795956616383043
1789997368017308700,5.60530859375,0.09602385866506956,-9.793846048006415,-0.49168257020860906
1789997368027378400,5.61537841796875,0.10019455021214671,-9.792114109647274,-0.5242947999998927
1789997368037449500,5.625449462890625,0.10634551972309127,-9.790417242601514,-0.553902514212951
1789997368047519700,5.635519775390625,0.10906907206862233,-9.78880103957653,-0.5812339905897155
1789997368057590800,5.6455908203125,0.11205319331279023,-9.78699252884984,-0.6104335623933002
1789997368067660500,5.65566064453125,0.11749032459910959,-9.785084649401902,-0.639303938775137
1789997368077731600,5.665731689453125,0.12113059906391427,-9.783172678300737,-0.6672665891949087
1789997368087801600,5.675801513671875,0.11987502777855842,-9.781302208253742,-0.6943523837149143
1789997368097872600,5.68587255859375,0.1174201180402655,-9.779370363408326,-0.7214661622203886
1789997368107942700,5.695942626953125,0.11295354881915264,-9.77747943509519,-0.7473525908879936
1789997368118013700,5.706013671875,0.1033340355479624,-9.775902979558706,-0.7690409833438694
1789997368128083700,5.716083740234375,0.10048174225622787,-9.774321847847103,-0.7892545540068298
1789997368138154800,5.72615478515625,0.09951535404263995,-9.772692200818657,-0.8093000015612691
1789997368148224500,5.736224609375,0.09377890188302844,-9.77127122810483,-0.8269717787869274
1789997368158295600,5.746295654296875,0.08662918539200909,-9.770012752476333,-0.8424597822327167
1789997368168365800,5.75636572265625,0.07875415943427942,-9.768795193380116,-0.8572214441653341
1789997368178436600,5.7664365234375,0.0659310460824985,-9.767634917429088,-0.8714069867104292
1789997368188506600,5.776506591796875,0.04842907246579416,-9.766446584427356,-0.8857624059297143
1789997368198577700,5.78657763671875,0.03610758392664138,-9.764879481241106,-0.9034526686601341
1789997368208647700,5.796647705078125,0.030428876136522738,-9.763096104955673,-0.9227184370789676
1789997368218718500,5.806718505859375,0.025323141362192107,-9.761413266435264,-0.940506680291146
1789997368228789500,5.81678955078125,0.0236573087755125,-9.75983914898634,-0.9567496668227017
1789997368238859800,5.82685986328125,0.02616775722648017,-9.758430451232194,-0.9709528180897236
1789997368248929800,5.8369296875,0.02036939826220041,-9.75741104505658,-0.9812774474229663
1789997368259000600,5.84700048828125,0.009334711830306331,-9.75674059844911,-0.9880917305476963
1789997368269071600,5.857071533203125,0.006825406165298773,-9.755705994704366,-0.9982735904093831
1789997368279141600,5.8671416015625,0.007317145479796454,-9.75455974727869,-1.0093912698164582
1789997368289212400,5.87721240234375,0.002741485865265713,-9.753777072468399,-1.0169505260895937
1789997368299282400,5.887282470703125,0.0010460443051393668,-9.752910226505994,-1.0252375851806252
1789997368309353500,5.897353515625,-0.0018698762492473178,-9.751865685889124,-1.0351235308356583
1789997368319423500,5.907423583984375,-0.005114776026489562,-9.751098208647965,-1.0423231600161642
1789997368329494500,5.91749462890625,-0.003505082942805893,-9.750763277605175,-1.045463430803269
1789997368339564500,5.927564453125,0.00248547041498241,-9.750572138947248,-1.0472573284827171
1789997368349635600,5.937635498046875,0.00037535506257536325,-9.750389768117666,-1.048962378834933
1789997368359705300,5.947705322265625,-0.005015044833172578,-9.750243637645244,-1.0502969153743236
1789997368369776400,5.9577763671875,-0.006046333813646924,-9.750061851337552,-1.0519790963076054
1789997368379846700,5.9678466796875,-0.006283400251576677,-9.749734519079327,-1.0550059698481111
1789997368389917700,5.977917724609375,-0.01189978796178475,-9.749607093307375,-1.056132635790482
1789997368399987500,5.987987548828125,-0.014468615536484866,-9.74954104233384,-1.056707951460406
1789997368410058500,5.99805859375,-0.011335456051822984,-9.74950538649857,-1.0570754695985465
1789997368420128500,6.00812841796875,-0.010539396603574277,-9.749763160651922,-1.0547104940328746
1789997368430199600,6.018199462890625,-0.011675430879200576,-9.749912213733792,-1.0533127560641615
1789997368440269600,6.02826953125,-0.009137233621493214,-9.749774851089715,-1.05459315126352
1789997368450340600,6.038340576171875,-0.007045717260427772,-9.749553901815414,-1.0566609705135226
1789997368460410600,6.04841064453125,-0.006487026215030346,-9.74950538649857,-1.0571152170870453
1789997368470481700,6.058481689453125,-0.005206975221433094,-9.74982044379711,-1.0541979414008558
1789997368480551400,6.068551513671875,0.001364290929782146,-9.750154205796122,-1.0511352658946067
1789997368490622500,6.07862255859375,0.00011338616016259948,-9.750518947455287,-1.0477464271739125
1789997368500692500,6.0886923828125,-0.0024240685025128184,-9.750931035387515,-1.043905168510601
1789997368510763500,6.098763427734375,0.002512590461115178,-9.751115159782767,-1.0421665812149643
1789997368520833500,6.10883349609375,0.006488722698483616,-9.751196408325432,-1.0414072872802616
1789997368530904600,6.118904541015625,0.011626349306775955,-9.751368257761001,-1.0397408884380013
1789997368540974600,6.128974609375,0.018206615896365838,-9.751491591879725,-1.0384982679657637
1789997368551045600,6.139045654296875,0.018692037351219912,-9.751610834345222,-1.0373585964113474
1789997368561115400,6.149115478515625,0.0181225121012656,-9.751808402743935,-1.035506757999584
1789997368571186400,6.1591865234375,0.02639319316294277,-9.751532508412003,-1.0379349349945783
1789997368581256700,6.169256591796875,0.03155442555075278,-9.751113990738988,-1.0417135767504573
1789997368591327500,6.179327392578125,0.030420366319792808,-9.751195239281653,-1.040997829696536
1789997368601397500,6.1893974609375,0.03192196195520228,-9.751561149984598,-1.0375239430408925
1789997368611468500,6.199468505859375,0.03255929174436023,-9.751994865226745,-1.0334160693306476
1789997368621538600,6.20953857421875,0.0325841042419197,-9.752532040843366,-1.028333066977933
1789997368631609300,6.219609375,0.03408498292469885,-9.75316040187478,-1.0222848728548735
1789997368641679600,6.2296796875,0.036292575971572656,-9.753762459421157,-1.0164473258078097
1789997368651750700,6.239750732421875,0.03402096407804638,-9.754700617054104,-1.0074851439341903
1789997368661820700,6.249820556640625,0.032579293352772945,-9.755736974364519,-0.9974580362427979
1789997368671891500,6.259891357421875,0.03263098472410347,-9.756758134105802,-0.9874230375058949
1789997368681961500,6.26996142578125,0.03513090264790226,-9.758070385748148,-0.9742854696437716
1789997368692032500,6.280032470703125,0.040274270585458724,-9.759310156676174,-0.961581690089032
1789997368702102800,6.290102783203125,0.04490973466665018,-9.760498489677905,-0.9492384874749928
1789997368712173600,6.300173583984375,0.04629026577223558,-9.76190777195394,-0.9345568319760262
1789997368722243600,6.31024365234375,0.051177791218622586,-9.763371414765714,-0.9188784935899078
1789997368732314600,6.320314697265625,0.056362842873437326,-9.764707631805539,-0.9042674191091209
1789997368742384400,6.33038427734375,0.05289493386743124,-9.765886612457036,-0.8916539481863379
1789997368752455400,6.340455322265625,0.042334970541507935,-9.767091312071681,-0.8789378936719149
1789997368762525400,6.350525390625,0.04087817759562749,-9.768255095154046,-0.8659840848788618
1789997368772596500,6.360596435546875,0.04540469227647408,-9.76925696567297,-0.8543729959316552
1789997368782666500,6.37066650390625,0.05256062387914862,-9.769956638374923,-0.8459157679054886
1789997368792737500,6.380737548828125,0.05821812905103434,-9.770672093167901,-0.8372399286925792
1789997368802807600,6.3908076171875,0.05873666389926802,-9.771692668387294,-0.8251978279169648
1789997368812878600,6.400878662109375,0.058294724251469594,-9.77272727213204,-0.8128952495742588
1789997368822948400,6.4109482421875,0.05901894687279127,-9.773678873768448,-0.8013327490091323
1789997368833019400,6.421019287109375,0.05722494416206609,-9.774760823786258,-0.7881585754636674
1789997368843089700,6.431089599609375,0.05452593260274734,-9.775991242364048,-0.7729348489772528
1789997368853160700,6.44116064453125,0.054752265871642156,-9.777262577474117,-0.7566564258061349
1789997368863230500,6.45123046875,0.05757152911003213,-9.778594118338823,-0.7390193545676768
1789997368873301500,6.461301513671875,0.0636394097476732,-9.780123812124133,-0.7179722556900232
1789997368883371500,6.47137158203125,0.07182736954551655,-9.78173124732077,-0.694943189214915
1789997368893442600,6.481442626953125,0.07729475440620444,-9.783627436330914,-0.6671191435482352
1789997368903512600,6.4915126953125,0.07643827000760939,-9.785861478993295,-0.6336212169636041
1789997368913583600,6.50158349609375,0.07264035272910259,-9.788160403585433,-0.5975056552264839
1789997368923653600,6.511653564453125,0.07291319202084559,-9.790228442031145,-0.5625776593061164
1789997368933724700,6.521724609375,0.0820853588167578,-9.791996620747446,-0.5295560449963436
1789997368943794400,6.53179443359375,0.08766935122786089,-9.793829681393504,-0.4935245448134839
1789997368953865500,6.541865478515625,0.08464539116364904,-9.795947404199838,-0.4501377134317532
1789997368963935500,6.551935546875,0.08754987130034714,-9.798042915174365,-0.4013226464562118
1789997368974006500,6.562006591796875,0.0880069126191549,-9.800000478982925,-0.3502156326185912
1789997368984076500,6.57207666015625,0.07921993204881436,-9.80187328711748,-0.29560720479758457
1789997368994147600,6.582147705078125,0.08003954133600927,-9.803307703834772,-0.24312364190975203
1789997369004217600,6.592217529296875,0.08484900571065955,-9.80448551544249,-0.18777561123520134
1789997369014288400,6.602288330078125,0.07934448087709024,-9.805475695523619,-0.12939235018375328
1789997369024358400,6.6123583984375,0.07662660935367457,-9.80612743743062,-0.0660684406926157
1789997369034429400,6.622429443359375,0.08489603232331573,-9.806282335731387,0.00001698844895482239
1789997369044499700,6.632499755859375,0.09116679228902794,-9.805976046261192,0.07000176612013019
1789997369054570500,6.642570556640625,0.09123437763252296,-9.805299169912933,0.1347141297284048
1789997369064640500,6.652640625,0.09314645833154209,-9.804347568276524,0.19098978750873355
1789997369074711600,6.662711669921875,0.09081417945907451,-9.803145206749438,0.24590161872310562
1789997369084781600,6.672781494140625,0.08278853865005076,-9.801806651622057,0.29682253540409725
1789997369094852400,6.682852294921875,0.08570269079739228,-9.800198047381638,0.34518746572565284
1789997369104922600,6.692922607421875,0.09404152574143372,-9.798463186413048,0.38942612816374744
1789997369114993700,6.70299365234375,0.09745852197753264,-9.796778594326973,0.4289669516418129
1789997369125063700,6.713063720703125,0.10393628489058464,-9.794983527603744,0.4668072913449257
1789997369135134500,6.723134521484375,0.10759049654919653,-9.793139945563674,0.5032207035174593
1789997369145204500,6.73320458984375,0.10538600877486169,-9.791509129491448,0.534421386010386
1789997369155275500,6.743275634765625,0.10662208990845828,-9.790168820798396,0.5581945853836834
1789997369165345500,6.753345458984375,0.1119272014460992,-9.78917454906404,0.5743826633902266
1789997369175416600,6.76341650390625,0.10979244530657306,-9.788676536414027,0.5832271371683105
1789997369185486600,6.773486572265625,0.11404335334985516,-9.788294843620061,0.588793575656414
1789997369195557600,6.7835576171875,0.1244579077225644,-9.7879640042305,0.5921899035638198
1789997369205627400,6.79362744140625,0.12409488309645093,-9.787987385106087,0.5918741886781528
1789997369215698400,6.803698486328125,0.12033549403031356,-9.788199566552043,0.5891140397824347
1789997369225768400,6.8137685546875,0.1245583084902726,-9.788587104564904,0.5817471642762422
1789997369235839500,6.823839599609375,0.12618715180112047,-9.789358088937401,0.5682900456035509
1789997369245909500,6.833909423828125,0.12977259993930346,-9.790363466587662,0.5498589744431898
1789997369255980500,6.84398046875,0.13554058888149448,-9.791391056069731,0.5298121021166443
1789997369266050600,6.854050537109375,0.13658281881026924,-9.792423321726918,0.5100838672852144
1789997369276121600,6.86412158203125,0.1348710555894766,-9.793554371583461,0.4883483112193644
1789997369286191400,6.87419140625,0.14088589543220587,-9.794774268767236,0.46144857732336964
1789997369296263200,6.88426318359375,0.14968414631523191,-9.795992996907234,0.43187849170695986
1789997369306333200,6.894333251953125,0.15014737991280852,-9.797097158756852,0.4058862280447036
1789997369316404200,6.904404296875,0.15046780750621108,-9.798085000750422,0.38118502710629254
1789997369326474200,6.91447412109375,0.15446615642737596,-9.798948924103378,0.3565550282405689
1789997369336545300,6.924545166015625,0.15663962800893932,-9.799629307582974,0.33631939187627286
1789997369346615000,6.934614990234375,0.16066484667072073,-9.800293908971547,0.3143238331673667
1789997369356686000,6.94468603515625,0.1648329809345305,-9.800933960440755,0.2913534380769357
1789997369366756000,6.954756103515625,0.16191389688374475,-9.80146587536037,0.274637372407224
1789997369376827100,6.9648271484375,0.15460264228861778,-9.801819511103629,0.2661013983227312
1789997369386897200,6.974897216796875,0.14541377551965415,-9.802050981771945,0.2627950867863372
1789997369396968200,6.98496826171875,0.13554769447571596,-9.802199450331926,0.26248280596677215
1789997369407038200,6.9950380859375,0.1330447352114599,-9.80217431589067,0.2646917872531339
1789997369417109000,7.00510888671875,0.1315507977261208,-9.802031692549585,0.27064508790066466
1789997369427180000,7.015179931640625,0.12902353513767012,-9.80177976361513,0.2808294685130007
1789997369437250000,7.02525,0.13345741679873316,-9.801418529087304,0.291204512859229
1789997369447321000,7.035321044921875,0.13423417332489043,-9.801040927946566,0.3032404944213107
1789997369457391000,7.04539111328125,0.13098059662273154,-9.800575064000487,0.31932153185680506
1789997369467462100,7.055462158203125,0.1326934832215309,-9.799985865935684,0.33624804367311295
1789997369477532200,7.0655322265625,0.13587162006730213,-9.799371533429621,0.352461000392586
1789997369487603200,7.075603271484375,0.13447317884569054,-9.798784088930487,0.368955039075762
1789997369497673000,7.0856728515625,0.1376823044847697,-9.7979955689013,0.38818255784343925
1789997369507744000,7.095743896484375,0.14275416438896207,-9.79713632172346,0.40755401512645184
1789997369517814300,7.105814208984375,0.14114587980895302,-9.796414437189698,0.4251174731394276
1789997369527885300,7.11588525390625,0.12951967549100518,-9.795804196336865,0.44254850041177124
1789997369537955000,7.125955078125,0.12318735806378535,-9.795210906618832,0.45722438375707714
1789997369548026000,7.136026123046875,0.11600513667580671,-9.79469477379024,0.4699979771450162
1789997369558096100,7.14609619140625,0.1159034846659284,-9.794193838530779,0.4803605638684705
1789997369568167200,7.156167236328125,0.1241301553392317,-9.793547357320785,0.49132206633314485
1789997369578237200,7.1662373046875,0.1266538468642626,-9.792992646047473,0.5016324844779446
1789997369588308000,7.176307861328125,0.12386923024756834,-9.792710906496643,0.5077766863213852
1789997369598378200,7.186378173828125,0.12373418742474168,-9.792630826997756,0.5093619827514514
1789997369608449300,7.19644921875,0.12292006716341711,-9.792777541992068,0.5067073035242036
1789997369618519000,7.20651904296875,0.12057027090056799,-9.793124163472651,0.5005775685975328
1789997369628590000,7.216590087890625,0.1229323695225641,-9.793421100592612,0.49416112568397075
1789997369638660000,7.22666015625,0.12791299834619274,-9.793803377908468,0.4852316770361736
1789997369648731100,7.236731201171875,0.13256155480439774,-9.7945100648731,0.46947742386963215
1789997369658801200,7.24680126953125,0.14160189821445382,-9.795510766348242,0.4453224221045151
1789997369668872200,7.2568720703125,0.15118855039565823,-9.796479903641343,0.4201427899993956
1789997369678942200,7.266942138671875,0.15411264854827894,-9.79735902456343,0.39796803879868237
1789997369689013200,7.27701318359375,0.15672230132371187,-9.79827497036457,0.3736769895637408
1789997369699083000,7.2870830078125,0.1686358438162133,-9.79918740903437,0.3433003368047997
1789997369709154000,7.297154052734375,0.18200711083635687,-9.800046071690321,0.31043044245801865
1789997369719224300,7.307224365234375,0.18751186399878933,-9.80096260201335,0.2763158635460771
1789997369729295000,7.317295166015625,0.1898906488941051,-9.801835293194651,0.24155586287006733
1789997369739365000,7.327365234375,0.19260175275001673,-9.802612122786044,0.20514310828465968
1789997369749436200,7.337436279296875,0.1976516017518006,-9.80321827198565,0.16801546516185625
1789997369759506200,7.347506103515625,0.20969421398406848,-9.80355028041899,0.12959812928838654
1789997369769577000,7.357576904296875,0.21791498463954775,-9.803828512838482,0.08858595461612567
1789997369779647200,7.367647216796875,0.22577369878329334,-9.803951846957206,0.044454752874188125
1789997369789718300,7.37771826171875,0.2342824925999157,-9.80385072467029,-0.0019302212844915629
1789997369799788300,7.387788330078125,0.2398344641712494,-9.803586520776152,-0.050622773984633385
1789997369809859000,7.397859130859375,0.24718643436925483,-9.803041746374964,-0.09832408929830416
1789997369819929000,7.40792919921875,0.24653544138092545,-9.802519768327475,-0.1421965761719737
1789997369830000000,7.418000244140625,0.24565736163845284,-9.801761643436551,-0.18852853022804483
1789997369840070000,7.42806982421875,0.24822562295757233,-9.800565127128362,-0.24027380543658508
1789997369850141000,7.438140869140625,0.24799740369226783,-9.799066413003205,-0.29526056505069137
1789997369860211200,7.448211181640625,0.24650893696648998,-9.797277191498875,-0.3506808389775455
1789997369870282200,7.4582822265625,0.2458460891435854,-9.795191032874584,-0.40516635280493646
1789997369880352000,7.46835205078125,0.24112439438393338,-9.792859375056624,-0.4606089846940711
1789997369890423000,7.478423095703125,0.23424517453052102,-9.790287478742004,-0.5155504621280357
1789997369900493000,7.4884931640625,0.22727593830609694,-9.787489956977963,-0.5689963307093828
1789997369910564000,7.498564208984375,0.21828807400194927,-9.784580791532992,-0.6202500595413148
1789997369920634000,7.508634033203125,0.20836296538030727,-9.781641815471648,-0.6681541856843978
1789997369930705200,7.518705078125,0.1993176352678798,-9.778443896213174,-0.7160153494685888
1789997369940775200,7.528775146484375,0.2007103317352943,-9.774732766735553,-0.764630035033822
1789997369950846200,7.53884619140625,0.20045370835941284,-9.771174197471142,-0.8089260536823422
1789997369960916000,7.548916015625,0.19540690983124076,-9.767980954387783,-0.8477973438683897
1789997369970987000,7.558987060546875,0.18635390786901115,-9.765093416252732,-0.8823973134107888
1789997369981057300,7.569057373046875,0.17623084725616497,-9.762692784851788,-0.9105738988421856
1789997369991128300,7.57912841796875,0.16802516457196323,-9.760646373715996,-0.933772476665303
1789997370001198000,7.589197998046875,0.16029895423408597,-9.758682380166649,-0.9554091389339416
1789997370011269000,7.59926904296875,0.1530012075745035,-9.756894912227988,-0.9746617556102574
1789997370021339100,7.609339111328125,0.15120733729451893,-9.755271694940328,-0.9910445159386843
1789997370031410200,7.61941015625,0.14681868301467038,-9.753917942243813,-1.0049396972350775
1789997370041480200,7.629480224609375,0.13631096133263781,-9.753369660711288,-1.0117162056326865
1789997370051551000,7.639551025390625,0.12823108785203657,-9.753228790935873,-1.0141332767117768
1789997370061621200,7.649621337890625,0.11909027974219061,-9.753174430400133,-1.0157659924801439
1789997370071692300,7.6596923828125,0.10863818810437806,-9.753111886557937,-1.0175406009372323
1789997370081762000,7.669761962890625,0.09733038381952792,-9.753222945716976,-1.0176214841537177
1789997370091833000,7.6798330078125,0.09047042578901164,-9.753189043447374,-1.0185765929214656
1789997370101903000,7.689903076171875,0.0843856259826105,-9.75304875819385,-1.0204567806448788
1789997370111974100,7.69997412109375,0.07876590467100031,-9.75282722439766,-1.0230088032152502
1789997370122044200,7.710044189453125,0.08399038872048259,-9.75252736466825,-1.0254408526677639
1789997370132115200,7.720115234375,0.08276381520074792,-9.752238026332854,-1.0283020873177795
1789997370142185200,7.730185302734375,0.06938518685805611,-9.752067930462957,-1.0309051094230264
1789997370152256000,7.740256103515625,0.05427112672461662,-9.751617848607896,-1.0360488289870322
1789997370162326000,7.750325927734375,0.044008876836788835,-9.750943310347198,-1.0428554402619599
1789997370172397000,7.76039697265625,0.03941691853718366,-9.749732180991769,-1.0542987714268266
1789997370182467300,7.77046728515625,0.03494967574592447,-9.747810857540369,-1.0720636337634175
1789997370192538000,7.7805380859375,0.03248328334910329,-9.745459910500049,-1.0933064744088798
1789997370202609200,7.790609130859375,0.03127334587033838,-9.743041158920526,-1.114695518592
1789997370212679200,7.80067919921875,0.02362106841835193,-9.740268187075852,-1.1388703210361302
1789997370222750200,7.810750244140625,0.016971284823084715,-9.737040457201003,-1.1662528334803879
1789997370232820000,7.820820068359375,0.010915684853348647,-9.733544431778787,-1.1951370557244867
1789997370242891000,7.83089111328125,0.004019894032692537,-9.729463884466886,-1.2279640242449938
1789997370252961300,7.840961181640625,-0.0012538379838733817,-9.724788293871283,-1.2644606942541896
1789997370263032300,7.8510322265625,-0.007982460396067472,-9.719674896380305,-1.3031649573102593
1789997370273102000,7.86110205078125,-0.017148149502131855,-9.713967624649404,-1.344960025988519
1789997370283173000,7.871173095703125,-0.022598828681546727,-9.707588152745366,-1.3901798084184527
1789997370293243000,7.881242919921875,-0.026788453257957007,-9.700852122488618,-1.4363694587938487
1789997370303314000,7.89131396484375,-0.033724659429036546,-9.693381348216533,-1.4858055437445639
1789997370313384000,7.901384033203125,-0.04285772490713279,-9.68557388933599,-1.5356450949296354
1789997370323455000,7.911455078125,-0.05498338034693152,-9.678208913525939,-1.5810264976620674
1789997370333525000,7.92152490234375,-0.07279080775019246,-9.671092359519005,-1.62329181420058
1789997370343596000,7.931595947265625,-0.09112464278088882,-9.664366266134381,-1.661959836899489
1789997370353666000,7.941666015625,-0.10749692738107405,-9.657462478095292,-1.7006654151298104
1789997370363737000,7.951737060546875,-0.11856999132828787,-9.650464582031965,-1.7392093730576335
1789997370373806800,7.961806884765625,-0.1262307169482112,-9.644577862080931,-1.7710406816042958
1789997370383878000,7.9718779296875,-0.13025383498445153,-9.640240709659457,-1.7942058686144648
1789997370393948200,7.9819482421875,-0.13313662387914954,-9.636798460251093,-1.8123899062111972
1789997370404019200,7.992019287109375,-0.13860689938324502,-9.63385597705841,-1.8275676015987992
1789997370414089000,8.0020888671875,-0.15145050753378309,-9.631792614787816,-1.8373958987824617
1789997370424160000,8.012159912109375,-0.16833611195096745,-9.630177580806613,-1.844383273451775
1789997370434230000,8.02222998046875,-0.1773046322338283,-9.628918520656228,-1.8501045737080275
1789997370444300800,8.03230078125,-0.17693804567744956,-9.627904375177621,-1.8554045798122882
1789997370454371000,8.04237109375,-0.16742897051079197,-9.62798094754517,-1.8558881255455315
1789997370464442000,8.052442138671875,-0.16386645572362465,-9.629097968876362,-1.8504085250906646
1789997370474512100,8.06251220703125,-0.16966801814185453,-9.631051441031694,-1.8396904394604265
1789997370484583000,8.0725830078125,-0.16983073442289603,-9.633744917899369,-1.825516222026944
1789997370494653000,8.08265283203125,-0.16231347239427268,-9.636603814461827,-1.8110552966065703
1789997370504724000,8.092723876953125,-0.15135665523787029,-9.639411857619882,-1.797006897509843
1789997370514794000,8.1027939453125,-0.14502473053629508,-9.642004212200641,-1.783575169006735
1789997370524865000,8.112864990234375,-0.14651854015747084,-9.644890581291913,-1.767770427761972
1789997370534935000,8.12293505859375,-0.14510660013346932,-9.648281392773985,-1.7492817081302403
1789997370545006000,8.133006103515624,-0.14016998398150315,-9.651956866416334,-1.729295151156187
1789997370555075800,8.143075927734374,-0.1340656574907247,-9.655307930409908,-1.7109785732209681
1789997370565147000,8.15314697265625,-0.13318565978580155,-9.658581252992153,-1.6924677878879009
1789997370575217000,8.163216796875,-0.13476460867347195,-9.662292382469772,-1.67103132436648
1789997370585288000,8.173287841796874,-0.13316316482620313,-9.666383451175689,-1.6473288156092165
1789997370595358000,8.18335791015625,-0.11977252638530916,-9.670414898648858,-1.6245397684350609
1789997370605429000,8.193428955078126,-0.11375348529149777,-9.6739717143476,-1.6036591852307318
1789997370615499000,8.2034990234375,-0.10954404176976532,-9.677623222592473,-1.5817703017666935
1789997370625570000,8.213570068359376,-0.09748810426504351,-9.680883685693145,-1.5624845865383743
1789997370635639800,8.223639892578126,-0.0838019626094494,-9.68422890446782,-1.5424312479384243
1789997370645710800,8.2337109375,-0.06615620574103669,-9.688563718801737,-1.515830095130205
1789997370655781000,8.243781005859375,-0.05227949168309569,-9.693004916119575,-1.4877205835856497
1789997370665852200,8.25385205078125,-0.052083119727624576,-9.696994862538576,-1.4614979087010025
1789997370675922000,8.263921875,-0.04918314680268522,-9.700480366566776,-1.4382855215482413
1789997370685993000,8.273992919921875,-0.04515701025887392,-9.704164023515581,-1.4133477719075977
1789997370696063000,8.28406298828125,-0.03854620468383655,-9.708272043356299,-1.385056912446767
1789997370706134000,8.294134033203125,-0.02808210066453321,-9.712406366682051,-1.356010120052099
1789997370716204000,8.3042041015625,-0.022804858947929458,-9.7162916836828,-1.3279866793558002
1789997370726275000,8.314275146484375,-0.017835848638502648,-9.72015011267662,-1.2995207555890083
1789997370736345000,8.324344970703125,-0.007656232678718515,-9.723971716791391,-1.2707036802969873
1789997370746416000,8.334416015625,0.000045118693107997385,-9.72774071393609,-1.2415516739621757
1789997370756486000,8.34448583984375,0.0036785823398211505,-9.73145184341371,-1.2121144940104336
1789997370766557000,8.354556884765625,0.0074759122423274675,-9.73542483869791,-1.1797634724386035
1789997370776627000,8.364626953125,0.016979546902998115,-9.739145320525765,-1.1485514648340642
1789997370786698000,8.374697998046875,0.02957325025445316,-9.742749482497572,-1.1172893344774841
1789997370796768000,8.38476806640625,0.034088825699465815,-9.746098208403588,-1.0875596013199538
1789997370806839000,8.394839111328125,0.03596082098326878,-9.74885364459157,-1.0625221176318824
1789997370816909000,8.404908935546874,0.04285465616721194,-9.751223880854248,-1.04027696807608
1789997370826980000,8.41497998046875,0.05004978270253632,-9.753711021494865,-1.0163678308308124
1789997370837049900,8.4250498046875,0.05205704457145184,-9.756585115626454,-0.9883088804297149
1789997370847121000,8.435120849609374,0.058196862500719725,-9.759077516964078,-0.9630231941342353
1789997370857191200,8.445191162109374,0.06585265621719881,-9.761266551440954,-0.9400761068541557
1789997370867262000,8.455261962890624,0.06818803579562809,-9.76356898316443,-0.9156602621957659
1789997370877333000,8.4653330078125,0.0759980747923255,-9.765856217318772,-0.8903171466246247
1789997370887403000,8.475403076171874,0.08635222248099744,-9.76779916808009,-0.8677700915127992
1789997370897474000,8.48547412109375,0.08193374845162034,-9.76964801081717,-0.8471422409605235
1789997370907543800,8.495543701171876,0.07123281488558277,-9.771536601042747,-0.8260620435308664
1789997370917614800,8.50561474609375,0.0726993940065382,-9.773286659580469,-0.8049725668162107
1789997370927685000,8.51568505859375,0.07331638882714324,-9.775118551182747,-0.7823590223394334
1789997370937756200,8.525756103515626,0.07211504108021036,-9.776956288003921,-0.7591439317729324
1789997370947826000,8.535825927734376,0.08230788812679238,-9.778557877981662,-0.7371682468082755
1789997370957897000,8.54589697265625,0.0903905289532151,-9.779915722331404,-0.7179504091843962
1789997370967967000,8.555967041015625,0.08895680635566823,-9.781403330540657,-0.6975644045639783
1789997370978038000,8.5660380859375,0.08636958460775203,-9.783007843127846,-0.6750345197826624
1789997370988108000,8.57610791015625,0.08746877802130766,-9.784449274107812,-0.6536725097369402
1789997370998179000,8.586178955078125,0.09266915054284036,-9.785649297547339,-0.6347238444432616
1789997371008249000,8.5962490234375,0.10103494655904359,-9.786780931925772,-0.6157249833323061
1789997371018320100,8.606320068359375,0.10982429261640644,-9.788063957473636,-0.5933986217664554
1789997371028390000,8.616389892578125,0.11666838635751045,-9.78945395052731,-0.5686710077451542
1789997371038461000,8.6264609375,0.12628479435616172,-9.790679108408092,-0.5450247957523912
1789997371048531000,8.636531005859375,0.1321957354329992,-9.791883808022737,-0.5214584075301886
1789997371058602000,8.64660205078125,0.1343221895350609,-9.79329542838633,-0.4936697254378348
1789997371068672000,8.656672119140625,0.13349147433196193,-9.794754395022988,-0.46408042366430163
1789997371078743000,8.666742919921875,0.13788960882620885,-9.79598130646944,-0.4360636684371158
1789997371088813000,8.67681298828125,0.1460554344240576,-9.79704513630867,-0.4085846733484417
1789997371098884000,8.686884033203125,0.1590301398746669,-9.797867558607459,-0.38327798079755154
1789997371108953900,8.696953857421875,0.1664776794016361,-9.79877882823348,-0.35583518953341986
1789997371119025000,8.70702490234375,0.16916364881629123,-9.799652688458561,-0.3295041589034721
1789997371129095200,8.71709521484375,0.17278023187825456,-9.80042191926539,-0.30371971103930845
1789997371139166200,8.727166259765625,0.1747064507004805,-9.801177121546864,-0.27704520073393357
1789997371149236000,8.737236083984374,0.16918923991527407,-9.801982008188963,-0.25076971794981506
1789997371159307000,8.74730712890625,0.16394344821628182,-9.80262205965817,-0.22828074970077722
1789997371169377000,8.757376953125,0.16438960281489415,-9.803051683247089,-0.2086735291668214
1789997371179447800,8.76744775390625,0.17191568747079,-9.803251005211472,-0.1925783170755021
1789997371189518000,8.77751806640625,0.17727730583548545,-9.803374923852086,-0.18108829722469671
1789997371199589000,8.787589111328124,0.17724250851674003,-9.80355378755033,-0.1712424826506525
1789997371209659100,8.7976591796875,0.17886373477671294,-9.803653740793466,-0.16358961154362187
1789997371219730000,8.80772998046875,0.17969366452852262,-9.803697579935193,-0.16006103555867449
1789997371229800000,8.817800048828126,0.17619643352990969,-9.803752524992824,-0.16060250375792384
1789997371239871000,8.82787109375,0.1749912041923031,-9.803713362026214,-0.16420206261985004
1789997371249941000,8.83794091796875,0.17470067854681984,-9.803602887389063,-0.17099261780912056
1789997371260012000,8.848011962890626,0.17345641410676763,-9.803416424906253,-0.18258224384319036
1789997371270082000,8.85808203125,0.17461203214898705,-9.803133516311645,-0.1961494170279242
1789997371280153000,8.868153076171875,0.16980134393163024,-9.802961666876078,-0.20857872702283783
1789997371290222300,8.878222412109375,0.15682477531749756,-9.802952899047732,-0.21889252443481236
1789997371300293000,8.888293212890625,0.14943639123239555,-9.802801507878304,-0.23056389220189302
1789997371310363400,8.89836328125,0.15190488197146915,-9.802392342555523,-0.24586042819619178
1789997371320434400,8.908434326171875,0.15390539900576694,-9.80191361912787,-0.2630532810647972
1789997371330504200,8.918504150390625,0.15315809690295717,-9.801430219525098,-0.2809177861172706
1789997371340575200,8.9285751953125,0.15307478426736779,-9.800826992934942,-0.30124104596609247
1789997371350645200,8.938645263671875,0.15542636149534955,-9.800063022825121,-0.3240294172868132
1789997371360716300,8.94871630859375,0.15404683503676206,-9.799348737075924,-0.3455713139440864
1789997371370786300,8.958786376953125,0.14229380773506126,-9.798842541119456,-0.36445747192818667
1789997371380857300,8.968857421875,0.13816006893119773,-9.798271463233231,-0.3810078804410994
1789997371390927400,8.97892724609375,0.13887213532384485,-9.79760277019143,-0.3975936890609562
1789997371400998400,8.988998291015625,0.13760491013331339,-9.796990775772928,-0.41282395488601176
1789997371411068200,8.999068115234374,0.13948160899169743,-9.796413852667808,-0.4256488035371527
1789997371421139200,9.00913916015625,0.13898457358921879,-9.79618705817461,-0.4310158469956368
1789997371431209200,9.019209228515624,0.12899503969554788,-9.79641151458025,-0.4290569680128246
1789997371441280300,9.0292802734375,0.12244056741762906,-9.796574011665582,-0.4272560195380822
1789997371451350300,9.039350341796874,0.12988971437979488,-9.796319744643569,-0.4308479065502062
1789997371461421300,9.04942138671875,0.13293225128031336,-9.796105809631943,-0.4347726057132706
1789997371471492400,9.059492431640624,0.12989754149322397,-9.796068400231004,-0.43652953238319603
1789997371481562400,9.069562255859376,0.1276102799394168,-9.796005856388806,-0.43860750770103185
1789997371491633200,9.079633056640626,0.12842798953047022,-9.795746328669786,-0.44413953246288
1789997371501703200,9.089703125,0.13615998115516267,-9.795437701112032,-0.44860363573227074
1789997371511774200,9.099774169921876,0.14014991844100877,-9.795472187903522,-0.44661297337170686
1789997371521844500,9.109844482421876,0.1331756315821316,-9.795881937748193,-0.43971652838885783
1789997371531915300,9.119915283203126,0.12331649173563346,-9.796230312794446,-0.4347965711107477
1789997371541985300,9.1299853515625,0.1189473550070077,-9.796350139781833,-0.43330326381307094
1789997371552056300,9.140056396484376,0.12189187489314936,-9.79635540047884,-0.43238176505398
1789997371562126300,9.150126220703125,0.12606910577886737,-9.79633552673459,-0.43165597153007984
1789997371572197000,9.160197021484375,0.12711164623489601,-9.796322082731127,-0.4316309101540595
1789997371582267400,9.170267333984375,0.1261125430617947,-9.796394563445448,-0.43027839956656094
1789997371592338400,9.18033837890625,0.1301871172906365,-9.79648691790402,-0.4269533102644607
1789997371602408400,9.190408447265625,0.13137801670879126,-9.796799052593112,-0.4193336655735969
1789997371612479200,9.200479248046875,0.13419407877651973,-9.796953366371989,-0.414850090418756
1789997371622549200,9.21054931640625,0.14272057264661417,-9.796883808267117,-0.4136463771848008
1789997371632620300,9.220620361328125,0.14595744480914435,-9.796734755185247,-0.41605058878231793
1789997371642690300,9.230690185546875,0.1477737369834911,-9.796672211343049,-0.416826943449676
1789997371652761300,9.24076123046875,0.14659706702008843,-9.796758136060834,-0.4152409163672477
1789997371662831400,9.250831298828125,0.14793806069972923,-9.796830032253265,-0.4130814367784187
1789997371672902400,9.26090234375,0.1448720972578507,-9.796883223745226,-0.41288434330374
1789997371682972200,9.27097216796875,0.14312494306326842,-9.796806066855787,-0.4152959344901144
1789997371693043200,9.281043212890625,0.1418146550491452,-9.796826525121928,-0.41530214503519236
1789997371703113200,9.29111328125,0.1371927765353117,-9.797053319615125,-0.41146030184999105
1789997371713184300,9.301184326171875,0.13220902417283503,-9.797197111999989,-0.4096738568246364
1789997371723254300,9.311254150390624,0.1305295192538295,-9.797089559972285,-0.41278680121339856
1789997371733325300,9.3213251953125,0.12197488613463937,-9.79715502642393,-0.4138315610259771
1789997371743395300,9.331395263671874,0.11547982502691446,-9.79722926070392,-0.413917814537324
1789997371753466400,9.34146630859375,0.11408785921186208,-9.797264916539191,-0.413484245425649
1789997371763536100,9.3515361328125,0.1267492335301358,-9.796889653486012,-0.4186759688498452
1789997371773607200,9.361607177734374,0.1429980196148157,-9.796347217172384,-0.4260467533461749
1789997371783677400,9.371677490234376,0.13877102217008358,-9.796535433220862,-0.4230977308148518
1789997371793748500,9.38174853515625,0.12864914886732584,-9.796914203405379,-0.4174984495030716
1789997371803818200,9.391818359375,0.12948091438319534,-9.796889068964123,-0.4178245031196624
1789997371813889300,9.40188916015625,0.13221359075009823,-9.796587455669044,-0.42399844251424074
1789997371823959300,9.411959228515625,0.13131563726337625,-9.79645009302497,-0.4274489117616787
1789997371834030300,9.4220302734375,0.13534612575531937,-9.796496270254254,-0.4251235740866512
1789997371844100400,9.432100341796875,0.13640136129613964,-9.79648457981646,-0.425089562219195
1789997371854171400,9.44217138671875,0.1367143362354487,-9.796181797477603,-0.43187432698849587
1789997371864241400,9.452241455078125,0.1392918220406398,-9.795694890743494,-0.4419565624006092
1789997371874312400,9.4623125,0.13479122268576174,-9.795575648277998,-0.44600185573603957
1789997371884382200,9.47238232421875,0.12840556763610803,-9.795455236768722,-0.4504759689427912
1789997371894453200,9.482453369140625,0.1356467161370907,-9.794777775898575,-0.46295832429919387
1789997371904523300,9.492523193359375,0.14414437663834542,-9.793860661053657,-0.4794819544030353
1789997371914594300,9.50259423828125,0.14709559112675488,-9.793207750102876,-0.49176754507832227
1789997371924664300,9.512664306640625,0.1387258313214872,-9.792659468570351,-0.5049396362645552
1789997371934735400,9.5227353515625,0.13504398273727855,-9.791941091167926,-0.5196402156597003
1789997371944805400,9.532805419921875,0.14051740917968564,-9.790765617647766,-0.5399663067864254
1789997371954876200,9.542876220703125,0.14195643814001233,-9.789754979300499,-0.5576051681231707
1789997371964946200,9.5529462890625,0.14519004063322208,-9.789000946062803,-0.569869387216866
1789997371975017200,9.563017333984375,0.1542068296377547,-9.78814637506008,-0.5820628791619092
1789997371985087500,9.57308740234375,0.16125725960591808,-9.787162624719738,-0.5965254485500976
1789997371995158300,9.583158203125,0.1678288200159557,-9.786138542369008,-0.6113165923055262
1789997372005228300,9.593228271484374,0.1801566789303906,-9.785147193244098,-0.6235579419802874
1789997372015299300,9.60329931640625,0.1803482559797354,-9.784704710173607,-0.6304187676604837
1789997372025370400,9.613370361328125,0.16862099330695346,-9.78473627435565,-0.6331715734999627
1789997372035440000,9.623440185546874,0.16638019211022181,-9.784633398503065,-0.6353424877982586
1789997372045511200,9.63351123046875,0.16832741718785837,-9.784479669246076,-0.6372066011697054
1789997372055581400,9.64358154296875,0.16992296101730317,-9.784390821918844,-0.6381318993210792
1789997372065652500,9.653652587890624,0.16951869106534867,-9.784436999148129,-0.6375188089240342
1789997372075722200,9.66372216796875,0.1755943029182963,-9.784396082615851,-0.6364975030522794
1789997372085793300,9.673793212890626,0.18581249446868894,-9.784396082615851,-0.6335788391266017
1789997372095863300,9.68386328125,0.18419683943297713,-9.785058345916866,-0.6237506880734115
1789997372105934300,9.693934326171876,0.18028940193196757,-9.78609587227106,-0.6084471743490547
1789997372116004400,9.70400439453125,0.18131792299579827,-9.787152687847614,-0.5908861274888738
1789997372126075400,9.714075439453126,0.1843900056512095,-9.787883924731611,-0.5776566800922155
1789997372136145400,9.7241455078125,0.19475430940771474,-9.788418177738786,-0.5650833585167303
1789997372146216400,9.734216552734376,0.2025984835694544,-9.789201437070965,-0.5485290044810622
1789997372156286200,9.7442861328125,0.1972484643110074,-9.790724116593598,-0.5227035122204572
1789997372166357200,9.754357177734375,0.19501707026343792,-9.79230583282709,-0.49306967718545347
1789997372176427300,9.76442724609375,0.19987941560279576,-9.793324069958924,-0.4703534029865637
1789997372186498300,9.774498291015625,0.20107781334081665,-9.793970551168918,-0.45615131116546687
1789997372196568300,9.784568359375,0.1986985535214655,-9.794493698260187,-0.4458780466932803
1789997372206639400,9.794639404296875,0.18946339992536232,-9.795158299648762,-0.43516854622829704
1789997372216709400,9.80470947265625,0.1791689830672927,-9.795861479482054,-0.42357320283949373
1789997372226780200,9.8147802734375,0.1745367749556899,-9.796443663284181,-0.411806850265339
1789997372236850200,9.82485009765625,0.17245490891402587,-9.797015325692296,-0.39889826885350044
1789997372246921200,9.834921142578125,0.17236237179236485,-9.797654208117724,-0.38291499270405616
1789997372256991500,9.844991455078125,0.16978671261807904,-9.79833108446598,-0.3664138666929677
1789997372267062300,9.855062255859375,0.16450018704989924,-9.798938402709364,-0.35233185758758334
1789997372277132300,9.86513232421875,0.15909876639777792,-9.799492529460787,-0.3391552363567054
1789997372287203300,9.875203369140625,0.15691367744365706,-9.80000807776749,-0.3249563228733837
1789997372297273900,9.88527392578125,0.15914658759487793,-9.800392693170904,-0.3120753601208329
1789997372307345000,9.895344970703125,0.1680599801570177,-9.80058733896017,-0.30104459181223064
1789997372317415000,9.905414794921874,0.1781841915473342,-9.800751589611172,-0.2896208238643594
1789997372327486000,9.91548583984375,0.18593535366337746,-9.80096260201335,-0.27735616637924687
1789997372337556000,9.925555908203124,0.18628292499203233,-9.80133611150086,-0.26361420288318765
1789997372347627000,9.935626953125,0.18022053794683887,-9.801770411264895,-0.25140394246643405
1789997372357697000,9.945697021484374,0.17657264643115922,-9.802100081610678,-0.2409030432508327
1789997372367767800,9.955767822265624,0.17485265423813834,-9.802412216299771,-0.22915029907692222
1789997372377837800,9.965837890625,0.17102958881864322,-9.802744809255003,-0.21754711944153532
1789997372387908900,9.975908935546874,0.17149136111149563,-9.803006675061583,-0.20501374628394842
1789997372397979100,9.985979248046876,0.1769573348998092,-9.803177939975262,-0.19179624505341053
1789997372408050000,9.9960498046875,0.17985073652006683,-9.803238730251788,-0.18586833457546306
1789997372418120000,10.006119873046876,0.1857661345763132,-9.803153974577784,-0.18453109462233258
1789997372428191000,10.01619091796875,0.18440909394416957,-9.803221779116988,-0.1823404527102597
1789997372438261000,10.026260986328126,0.1764115923842415,-9.80344155934751,-0.17840192595124243
1789997372448331800,10.036331787109376,0.17560126238204538,-9.803498257970809,-0.17598302824124692
1789997372458401800,10.04640185546875,0.1803900858274661,-9.803412917774915,-0.17598096414832398
1789997372468472800,10.056472900390625,0.18093208374967798,-9.803411164209246,-0.175469434429612
1789997372478544000,10.0665439453125,0.17586902820644898,-9.803491828230023,-0.17606568328971042
1789997372488614000,10.07661376953125,0.17205385383246466,-9.80346026404798,-0.18147954329829663
1789997372498685000,10.086684814453125,0.17540685405479742,-9.803270294433831,-0.18838574249017984
1789997372508755000,10.0967548828125,0.18025272318338975,-9.80306804986,-0.19433370937546715
1789997372518824700,10.10682470703125,0.18398474931856615,-9.80288158737719,-0.20013353649433702
1789997372528895700,10.116895751953125,0.18371860919566824,-9.802792740049957,-0.20469213138045741
1789997372538966800,10.126966796875,0.1829869887191802,-9.802647194099425,-0.21219456116613
1789997372549037000,10.137037109375,0.1848454030022025,-9.802431505522131,-0.22041043645078315
1789997372559108000,10.147108154296875,0.1867534833795391,-9.802253226345776,-0.22658830310180783
1789997372569177900,10.157177734375,0.18969001175547018,-9.802045721074938,-0.2330122717346996
1789997372579249000,10.167248779296875,0.19318645730279385,-9.80185399789512,-0.23810491869859396
1789997372589319000,10.17731884765625,0.1933268338878639,-9.801755798217654,-0.24209442672617731
1789997372599390000,10.187389892578125,0.19139732713000848,-9.801697346028686,-0.24598062050975858
1789997372609460000,10.1974599609375,0.19354321658490226,-9.801610836789012,-0.24776631661644205
1789997372619531000,10.207531005859375,0.19128287043748424,-9.801607329657672,-0.24958164067640898
1789997372629601000,10.21760107421875,0.19327645540749652,-9.801524912071228,-0.2513043180168606
1789997372639671800,10.227671875,0.19951460087839512,-9.801386380383372,-0.25183992273090405
1789997372649741800,10.237741943359374,0.2043094704721123,-9.80129577949047,-0.2514870176400058
1789997372659812900,10.247812744140624,0.20279639902804045,-9.801440740919112,-0.24703831286914646
1789997372669883100,10.257883056640624,0.20447660719994454,-9.801457107532023,-0.24499942745268344
1789997372679954000,10.267953857421874,0.2092593114318326,-9.801353062635659,-0.24514079041844233
1789997372690024000,10.27802392578125,0.20665627106027676,-9.801554138165711,-0.2392393660886213
1789997372700095000,10.288094970703124,0.2071422827452421,-9.801723064991831,-0.2317924476161599
1789997372710165000,10.2981650390625,0.20740544545976444,-9.801830617019533,-0.22689124983744693
1789997372720235800,10.30823583984375,0.20599090248672292,-9.801906020343303,-0.22494473714586347
1789997372730305800,10.318305908203126,0.20240014798576011,-9.80200538906455,-0.22381955077452584
1789997372740376800,10.328376953125,0.1949366619709879,-9.802193605113029,-0.2221645135764964
1789997372750447000,10.338447021484376,0.19169269334739072,-9.802319861841202,-0.21948862716443834
1789997372760518000,10.348517822265626,0.19315202531022949,-9.802280698874592,-0.220006276096683
1789997372770588000,10.358587890625,0.1919770815130323,-9.802219908598065,-0.22368721136543898
1789997372780659000,10.368658935546875,0.19332175585394723,-9.802070855516195,-0.2289368755219504
1789997372790728700,10.378728759765625,0.18742203029086812,-9.8020989125669,-0.2326640062863007
1789997372800799700,10.3887998046875,0.17691835459629074,-9.802183083719015,-0.23730576767753808
1789997372810870000,10.3988701171875,0.16817330433838068,-9.802163794496655,-0.24431807585870846
1789997372820941000,10.408941162109375,0.16501606415016576,-9.801903097733854,-0.2565878113777377
1789997372831010800,10.4190107421875,0.16455913242921233,-9.801582779738306,-0.2688407601587474
1789997372841081900,10.429081787109375,0.16906276399139314,-9.801231482082605,-0.27865265419688073
1789997372851152000,10.43915185546875,0.17096565673695877,-9.80105378742814,-0.28377556843487545
1789997372861223000,10.449222900390625,0.1734316267253831,-9.80086732494533,-0.28865499277319756
1789997372871293000,10.45929296875,0.1759316268475726,-9.800559281909464,-0.2975099331463687
1789997372881364000,10.469364013671875,0.17792754990514367,-9.800302092278002,-0.3047014338193461
1789997372891434000,10.47943408203125,0.1760463758010417,-9.80030676845312,-0.305566087824665
1789997372901505000,10.489505126953125,0.175962953567598,-9.800283972099423,-0.3063855875140056
1789997372911574800,10.49957470703125,0.17760620899628846,-9.80013959519267,-0.31002606290820983
1789997372921645800,10.509645751953125,0.18035274949176236,-9.800031458643078,-0.3118219333490357
1789997372931715800,10.5197158203125,0.18604222983764485,-9.800017430117725,-0.3089201109603047
1789997372941787000,10.529786865234374,0.18989905139626934,-9.800136672583221,-0.3027411483307369
1789997372951858000,10.53985791015625,0.18968420306919143,-9.800317874369025,-0.2969911882355809
1789997372961928000,10.549927978515624,0.18911418462889268,-9.800580324697494,-0.2885365905579179
1789997372971999000,10.5599990234375,0.1852936582263559,-9.801095288482308,-0.2730877683450468
1789997372982069000,10.570069091796874,0.17740982790766283,-9.801700853160023,-0.2561489085038192
1789997372992139800,10.580139892578124,0.1685507593486458,-9.802229845470189,-0.24140399677660315
1789997373002209800,10.590209716796876,0.17155821580262853,-9.802411047255992,-0.23172177526643498
1789997373012280800,10.60028076171875,0.17576317494548857,-9.80250924693346,-0.22423308174517004
1789997373022351000,10.61035107421875,0.17960335589656606,-9.802739548557996,-0.21076882094563915
1789997373032422000,10.620421875,0.17865529792411253,-9.803149882924556,-0.19159712401842696
1789997373042492000,10.630491943359376,0.17564634363278744,-9.803504687711596,-0.17555207121176644
1789997373052563000,10.64056298828125,0.1780401251678355,-9.803690565672516,-0.16230194635326042
1789997373062633000,10.650633056640626,0.17569842087989673,-9.803956523132324,-0.14827232502223922
1789997373072703700,10.660703857421876,0.17138483199710025,-9.804254629296064,-0.13273058209521696
1789997373082774000,10.67077392578125,0.16944129671389235,-9.804490191617608,-0.11681198694612831
1789997373092845000,10.680844970703125,0.169055092141591,-9.804669055315852,-0.10145114441080949
1789997373102914800,10.690914794921875,0.17027383854789657,-9.80478186804056,-0.08738005855823866
1789997373112985900,10.70098583984375,0.16930380620565263,-9.804897018852829,-0.07566021657350938
1789997373123055900,10.711055908203125,0.16484474443756042,-9.805050748109817,-0.06491320624288636
1789997373133127000,10.721126953125,0.16390855956599115,-9.805108615776897,-0.05809356652302667
1789997373143197000,10.731197021484375,0.16599066306967286,-9.805091664642095,-0.054892007702472614
1789997373153268000,10.74126806640625,0.17152873397981747,-9.80500690896809,-0.053128199200611556
1789997373163338000,10.751337890625,0.17322163723651318,-9.804983528092503,-0.05179721089175436
1789997373173409000,10.761408935546875,0.17517510939184575,-9.80493384373188,-0.05433796771601773
1789997373183478800,10.771478759765625,0.17886841095183043,-9.804827460747957,-0.061212520527467125
1789997373193549800,10.7815498046875,0.183579200724978,-9.804664963662624,-0.0724156908274861
1789997373203619800,10.791619873046875,0.18345122696375474,-9.80455974972248,-0.08563361674970947
1789997373213691000,10.80169091796875,0.18022150606121867,-9.804472071439028,-0.10124516437677666
1789997373223761000,10.811760986328125,0.1737250019150786,-9.804331786185502,-0.12365140451211482
1789997373233832000,10.82183203125,0.1634257992840372,-9.804068166813254,-0.1546965676497668
1789997373243902000,10.83190185546875,0.1551286389240995,-9.803639712268113,-0.18699180391374975
1789997373253973000,10.841972900390624,0.14966309439404868,-9.80308558551669,-0.21799199539851397
1789997373264042800,10.852042724609374,0.14688824111954307,-9.802398772296309,-0.24863376536704598
1789997373274113800,10.86211376953125,0.14850224305428564,-9.801435480222105,-0.2832163271169178
1789997373284184000,10.87218408203125,0.1480354292601347,-9.800116798838973,-0.3258706977719441
1789997373294254300,10.88225439453125,0.1399062550114002,-9.798678290468454,-0.36977691338527946
1789997373304324400,10.892324462890626,0.13200818610480056,-9.79715736451149,-0.4107252655737102
1789997373314395400,10.9023955078125,0.12970969077092595,-9.795312028905748,-0.45324576244968917
1789997373324465200,10.912465087890626,0.1303048436524812,-9.793187876358628,-0.4968892354736104
1789997373334536200,10.9225361328125,0.12985802233358845,-9.790992412140964,-0.5385146466733888
1789997373344606500,10.9326064453125,0.12858608443532138,-9.788833188280462,-0.5767168054262176
1789997373354677500,10.942677490234376,0.12274773367065936,-9.78695395040512,-0.608985519009456
1789997373364747300,10.952747314453125,0.11624437052547,-9.785039641216397,-0.6402236839685589
1789997373374818300,10.962818359375,0.11312454887134954,-9.783047590616345,-0.6704910311341286
1789997373384888300,10.972888427734375,0.1158846977670677,-9.781230312061309,-0.6960499083478003
1789997373394959400,10.98295947265625,0.11142311524832621,-9.779750302636623,-0.717235685043782
1789997373405030400,10.993030517578125,0.10372529988787137,-9.778433374819159,-0.7361235600609332
1789997373415100400,11.003100341796875,0.0969140763699077,-9.77716262423098,-0.7537238064203411
1789997373425171500,11.01317138671875,0.09261999590517953,-9.775739313429593,-0.7724776797942817
1789997373435241500,11.023241455078125,0.0960568293529097,-9.774324770456552,-0.7897555623315274
1789997373445312300,11.033312255859375,0.10610139050260185,-9.773046421083807,-0.8041619810856878
1789997373455382300,11.04338232421875,0.10991297554685733,-9.771669872033595,-0.8202440779671073
1789997373465453300,11.053453369140625,0.11278444846309721,-9.76994553245902,-0.8401367461126297
1789997373475523600,11.063523681640625,0.11143540847431868,-9.768400056582689,-0.8580984461955725
1789997373485594400,11.073594482421875,0.1108725869597867,-9.767048641973734,-0.8734050286598503
1789997373495664400,11.083664306640625,0.11058549538040532,-9.765926359945535,-0.8859002800304442
1789997373505735400,11.0937353515625,0.0972069949018769,-9.764904615682363,-0.8986533786196261
1789997373515805400,11.103805419921875,0.08620561708454043,-9.763781164610386,-0.9118893653549254
1789997373525876200,11.113876220703125,0.08344851866243407,-9.762827224886417,-0.9222964122746139
1789997373535946500,11.123946533203124,0.07973714258964174,-9.76207786782384,-0.9305217312410473
1789997373546017500,11.134017578125,0.07966723742489702,-9.761192317160964,-0.9397790966689586
1789997373556087600,11.144087646484374,0.08408407661961391,-9.76041665661335,-0.9474053537636995
1789997373566158300,11.154158447265624,0.0803958987593185,-9.760067697045207,-0.9513165358580649
1789997373576228400,11.164228271484374,0.0734296901756199,-9.759978265196084,-0.9527960338260978
1789997373586299400,11.17429931640625,0.06926365197077393,-9.759831550201772,-0.9546108281631022
1789997373596369200,11.184369140625,0.06218022391530685,-9.759642165109515,-0.9570340367220341
1789997373606440200,11.194440185546876,0.05727543224028777,-9.75936977790892,-0.9601189971253276
1789997373616510500,11.204510498046876,0.05751997245273087,-9.758831433248519,-0.9655386840865016
1789997373626581500,11.21458154296875,0.06262754755769856,-9.758398302528262,-0.9695930740438401
1789997373636651300,11.2246513671875,0.061297463431139475,-9.758103703495859,-0.9726385061543434
1789997373646722300,11.234722412109376,0.04930167688212823,-9.757679925125837,-0.9775590114217251
1789997373656792300,11.244792236328125,0.039047432204242796,-9.757091311582922,-0.9838782775711268
1789997373666863400,11.25486328125,0.04056909338014666,-9.755828159779309,-0.9962730642419307
1789997373676933400,11.264933349609375,0.045641199879511256,-9.754306064778566,-1.0108483367569745
1789997373687004400,11.27500439453125,0.048111741011776024,-9.752779293602705,-1.0253661069311202
1789997373697074400,11.285074462890625,0.0456357382531045,-9.751175950059293,-1.0406026198338716
1789997373707145500,11.2951455078125,0.036702531312219795,-9.749379714292287,-1.0576490317028016
1789997373717215200,11.30521533203125,0.02485848527579801,-9.747191264337301,-1.0779741729814558
1789997373727286300,11.315286376953125,0.01950245640167268,-9.744704708218574,-1.1003412684164942
1789997373737356500,11.3253564453125,0.02139206269069109,-9.741824184346198,-1.1255173568576573
1789997373747427600,11.335427490234375,0.017026886326196835,-9.73867127327323,-1.1525567549526692
1789997373757497300,11.345497314453125,0.0006576576224339078,-9.73529215222895,-1.1808781556822359
1789997373767568400,11.355568359375,-0.012977317532803862,-9.731447167238592,-1.2120998809631913
1789997373777638400,11.365638427734375,-0.01690634695275803,-9.727580554938315,-1.2426945603869854
1789997373787709400,11.37570947265625,-0.01572092400238616,-9.723688808196782,-1.2728067900560796
1789997373797780200,11.3857802734375,-0.014827186608122428,-9.719382635435462,-1.3052899866402148
1789997373807850200,11.395850341796875,-0.020591034806380047,-9.714369775709509,-1.342013743403554
1789997373817921300,11.40592138671875,-0.03813116445940686,-9.709700614854693,-1.3750003594651818
1789997373827991600,11.415991455078125,-0.048222275014431215,-9.705430682450533,-1.4045222220256923
1789997373838062300,11.426062255859375,-0.04867200067646336,-9.701250181895494,-1.433092775210738
1789997373848132400,11.43613232421875,-0.05235054762531072,-9.696973819750546,-1.4616216812111436
1789997373858203400,11.446203369140624,-0.05483076533479616,-9.69247241667807,-1.4910989739775657
1789997373868273200,11.456273193359374,-0.05767091153101064,-9.688628016209602,-1.5157672590270637
1789997373878344200,11.46634423828125,-0.05675131246806122,-9.685494394358992,-1.5356975557692347
1789997373888414500,11.47641455078125,-0.05180702446629293,-9.682573538476229,-1.5541810147039592
1789997373898485500,11.486485595703124,-0.05128992352331988,-9.679283264759182,-1.5745567171260713
1789997373908555300,11.49655517578125,-0.04698939048491884,-9.676501525086165,-1.5917005980201064
1789997373918626300,11.506626220703126,-0.04447976401785854,-9.674808165171742,-1.602030707246065
1789997373928696300,11.5166962890625,-0.04667160237317439,-9.673763624554873,-1.6082646331995725
1789997373938767400,11.526767333984376,-0.05066195521755144,-9.672886841720342,-1.6134050648279488
1789997373948837400,11.53683740234375,-0.048031930940947494,-9.671763390648364,-1.6202113838419316
1789997373958908400,11.546908447265626,-0.04021566769944038,-9.67059843852222,-1.6273695850335061
1789997373968978400,11.556978515625,-0.03287191962379729,-9.669863694506883,-1.63188954667598
1789997373979049500,11.567049560546875,-0.026586220100568606,-9.670348847675323,-1.6291219816587865
1789997373989119200,11.577119140625,-0.021769944675930308,-9.671557054421305,-1.6220061583042145
1789997373999190300,11.587190185546875,-0.02397225419291062,-9.672544896414875,-1.6160715075582266
1789997374009260500,11.597260498046875,-0.022525363869825378,-9.673214173978566,-1.6120893060542643
1789997374019331300,11.607331298828125,-0.01241629867464653,-9.673454996997117,-1.6107495818831026
1789997374029401300,11.6174013671875,-0.006522717441275017,-9.674107907947898,-1.606855643184483
1789997374039472400,11.627472412109375,-0.0032186124179323086,-9.67544470950961,-1.5987921637162565
1789997374049542400,11.63754248046875,0.009569847747698076,-9.677032270962,-1.5891279710531234
1789997374059613400,11.647613525390625,0.024855699663667474,-9.679144148549437,-1.5760544083379209
1789997374069683200,11.65768310546875,0.03553208559362683,-9.681410339915752,-1.561862362986803
1789997374079754200,11.667754150390625,0.04175231181534473,-9.68342810947895,-1.5491533958002923
1789997374089824500,11.677824462890625,0.04442579620776232,-9.685192196542024,-1.5380087553210555
1789997374099895600,11.6878955078125,0.04700701290657743,-9.68678268060386,-1.5278795754946768
1789997374109965300,11.69796533203125,0.04316500532459468,-9.688431616854666,-1.5175028506480157
1789997374120036400,11.708036376953125,0.03793461440742248,-9.69006535553634,-1.507182386033237
1789997374130107400,11.718107421875,0.034868313038826454,-9.69163421228826,-1.4971389847941696
1789997374140177400,11.728177490234375,0.03152497341069393,-9.693103115797042,-1.487655555525422
1789997374150247400,11.738247314453124,0.02522717017442919,-9.69450421476662,-1.4786296607658267
1789997374160318500,11.748318359375,0.02181598034132039,-9.695765028482676,-1.4703941857315599
1789997374170388500,11.758388427734374,0.017474416606209707,-9.696548872336745,-1.4652743584997951
1789997374180459300,11.768459228515624,0.010599793012812733,-9.696844640412927,-1.4633863527961075
1789997374190530300,11.7785302734375,0.007416114054710488,-9.69700596845448,-1.4623295372195542
1789997374200600300,11.788600341796876,0.003541717452666489,-9.697169050061703,-1.4612608850747346
1789997374210671400,11.79867138671875,0.0048353979669278485,-9.697410457602142,-1.4596518424429
1789997374220741400,11.808741455078126,0.006713309251575265,-9.697578215384484,-1.458536282416433
1789997374230812400,11.8188125,0.002901794418445206,-9.697671154364944,-1.4579299870863556
1789997374240882400,11.82888232421875,-0.004505904290602484,-9.697909054774046,-1.456334826849401
1789997374250953500,11.838953369140626,-0.017807733363937584,-9.698059276899695,-1.4552375331319867
1789997374261023200,11.849023193359375,-0.02876070089570712,-9.698188456237316,-1.454198253212124
1789997374271094300,11.85909423828125,-0.032651783200248606,-9.698193716934323,-1.4540822256170212
1789997374281164300,11.869164306640625,-0.03474012693176046,-9.698331664100289,-1.4531224406741559
1789997374291235300,11.8792353515625,-0.039865612152754325,-9.698194301456212,-1.4539080380938947
1789997374301305600,11.8893056640625,-0.046720944240503014,-9.697776368305087,-1.4564870948016642
1789997374311376600,11.899376708984375,-0.054415352934319525,-9.69769511976242,-1.4567590436108409
1789997374321446700,11.90944677734375,-0.060116879911022256,-9.697700964981317,-1.4565028768926858
1789997374331517700,11.919517578125,-0.06269642524255906,-9.697763508823513,-1.4559642399713397
1789997374341587500,11.92958740234375,-0.06971855156484526,-9.698242816773057,-1.4524461488477884
1789997374351658500,11.939658447265625,-0.07604725226287264,-9.698867086151242,-1.447963742736727
1789997374361728800,11.949728759765625,-0.07917085047638975,-9.699425889077782,-1.4440424776397645
1789997374371799800,11.9597998046875,-0.08007054839562625,-9.700274614861607,-1.438275730806589
1789997374381869600,11.96986962890625,-0.07632343885574955,-9.701753455242514,-1.4284675996281206
1789997374391940600,11.979940673828125,-0.07233673927318304,-9.70334569287002,-1.417828716713935
1789997374402010600,11.9900107421875,-0.07284031401430256,-9.705108026367425,-1.4056864434994756
1789997374412081700,12.00008154296875,-0.07009491059656721,-9.706996616593003,-1.392729346770793
1789997374422151700,12.010151611328125,-0.058325201588124036,-9.709214877164364,-1.3777280308634041
1789997374432222700,12.02022265625,-0.048562480453960596,-9.711490420880914,-1.3619833492428064
1789997374442292700,12.030292724609374,-0.0455260125346249,-9.71377297886014,-1.3457102598339319
1789997374452363800,12.04036376953125,-0.04149124059320893,-9.71623206245005,-1.3279590606965124
1789997374462433500,12.05043359375,-0.03258384623030433,-9.718411744576692,-1.312169809281826
1789997374472504600,12.060504638671874,-0.025875404950091614,-9.72093044939935,-1.293538174048066
1789997374482574600,12.07057470703125,-0.02254038790902123,-9.723794606658815,-1.271888944558799
1789997374492645600,12.080645751953124,-0.01952334392607445,-9.726531338146328,-1.2508514172270893
1789997374502716400,12.09071630859375,-0.01962853731662035,-9.729054719144106,-1.2310666664354502
1789997374512786700,12.10078662109375,-0.017319113021710655,-9.731454181501269,-1.2119786657363176
1789997374522857700,12.110857666015624,-0.005019568598773912,-9.733656659981607,-1.19427525126338
1789997374532927500,12.120927490234376,0.003408560911660606,-9.735623576140403,-1.178145808108896
1789997374542998500,12.13099853515625,0.008841778926676489,-9.738020700410008,-1.1581232299733906
1789997374553068500,12.141068603515626,0.016156892850412986,-9.740675014311075,-1.1355061783652751
1789997374563139600,12.1511396484375,0.0224287739108433,-9.743363230481743,-1.1120874549854547
1789997374573209600,12.161209716796876,0.02827996589076938,-9.74603800264895,-1.0882674573283642
1789997374583280600,12.17128076171875,0.03231371948545566,-9.748415253174304,-1.0666445313241333
1789997374593350700,12.1813505859375,0.034938359767466315,-9.75066215531826,-1.0458311681371182
1789997374603421700,12.191421630859375,0.04068196090378333,-9.753004334530234,-1.0235421794395894
1789997374613491500,12.201491455078125,0.0466752967341803,-9.755334238782524,-1.0008324811119587
1789997374623562500,12.2115625,0.053999661972629835,-9.757719672614336,-0.9769136992555111
1789997374633632800,12.2216328125,0.05513295858518686,-9.760123226624726,-0.9525312454100697
1789997374643703800,12.231703857421875,0.05583266325318254,-9.762462483227253,-0.9282117737982422
1789997374653773600,12.241773681640625,0.056125892312405626,-9.764781866085528,-0.9034623132713139
1789997374663844600,12.2518447265625,0.057619980494794436,-9.766966808909178,-0.879440801692754
1789997374673914600,12.26191455078125,0.06483860207013785,-9.769118433985113,-0.8547038353212177
1789997374683985700,12.271985595703125,0.07056609917173627,-9.771149647551775,-0.8306823237426578
1789997374694055700,12.2820556640625,0.07583851401617285,-9.773292504799365,-0.8045908740222454
1789997374704126700,12.292126708984375,0.08243459237953647,-9.77548679997325,-0.7768147591505199
1789997374714196700,12.30219677734375,0.0876322340878658,-9.777623227480053,-0.7488561273187399
1789997374724267800,12.312267822265625,0.09296936646527611,-9.779649764871596,-0.7212235125709324
1789997374734337500,12.322337646484375,0.09648223342443815,-9.781402746018767,-0.6965863533120602
1789997374744408600,12.33240869140625,0.09668711747992784,-9.782960496854782,-0.674319795642048
1789997374754478600,12.342478515625,0.10171442585634068,-9.784503634643555,-0.6507810260791331
1789997374764549600,12.352549560546874,0.10658701859507709,-9.786104055577516,-0.625454569381848
1789997374774619600,12.36261962890625,0.09945237180902622,-9.787783971488475,-0.5998333309890702
1789997374784690700,12.372690673828124,0.09598825762872584,-9.789310158142447,-0.5749668564863503
1789997374794760700,12.3827607421875,0.09545819673947989,-9.790805949658155,-0.5489924207417294
1789997374804831700,12.392831787109374,0.09722559913764707,-9.79223452115655,-0.5225513538660481
1789997374814901500,12.402901611328126,0.10197083916966802,-9.793692903271317,-0.4935028809709474
1789997374824972500,12.41297265625,0.10331300189308822,-9.795000478738546,-0.46654473141860214
1789997374835042800,12.423042724609376,0.09593329430478624,-9.796158416602015,-0.44324262015577404
1789997374845113600,12.433113525390626,0.09046433397494257,-9.796965056809782,-0.42621509565040466
1789997374855183600,12.44318359375,0.09167484227586536,-9.797392342311143,-0.4160288518745452
1789997374865254700,12.453254638671876,0.08940965555654838,-9.797700969868897,-0.4092137650322169
1789997374875325700,12.46332568359375,0.08238081636568531,-9.797981540375947,-0.40396534298472103
1789997374885395500,12.4733955078125,0.08151527644437738,-9.798195475387573,-0.39889625955950464
1789997374895466500,12.483466552734376,0.08585080316434614,-9.798242237138748,-0.39681295047942544
1789997374905536800,12.493536865234375,0.09394162729722447,-9.798092015013099,-0.3986747257633135
1789997374915607800,12.50360791015625,0.09419679850153624,-9.797863466954231,-0.40419831149037927
1789997374925677600,12.513677490234375,0.0884326089516282,-9.797433258843421,-0.41577147957999255
1789997374935748600,12.52374853515625,0.09015238194894044,-9.796584533059596,-0.43497919766865667
1789997374945818600,12.533818603515625,0.09318974035084247,-9.795579739931226,-0.4564082816012203
1789997374955889700,12.5438896484375,0.0915177520180121,-9.794655026301742,-0.4761813419550657
1789997374965959400,12.55395947265625,0.08750677194413728,-9.793861245575547,-0.4929498501980677
1789997374976030500,12.564030517578125,0.08745396404466592,-9.792989723438025,-0.5099821239437907
1789997374986100700,12.574100830078125,0.08675166099420747,-9.792110602515935,-0.5266973310969769
1789997374996171800,12.584171875,0.08430578394574113,-9.791295194479822,-0.5420423824081197
1789997375006241500,12.594241455078125,0.07729771354827097,-9.790513104191422,-0.5570110016223043
1789997375016312600,12.6043125,0.06917658104209695,-9.789535199069975,-0.5749839902842417
1789997375026382600,12.614382568359375,0.06525801022571977,-9.78835563389659,-0.5951730840930715
