time,seconds_elapsed,z,y,x
1791103772786993200,0.0409931640625,-0.5253753662109375,-1.105010986328125,-0.185028076171875
1791103772796965000,0.050965087890625,0.07489013671875,-1.2601776123046875,0.0949859619140625
1791103772806937300,0.060937255859375,-0.410858154296875,-0.843841552734375,-0.0394287109375
1791103772816909000,0.070908935546875,-0.5760955810546875,-0.632476806640625,-0.1276702880859375
1791103772826881300,0.08088134765625,-0.088165283203125,-1.0613555908203125,0.1337738037109375
1791103772836853000,0.09085302734375,-0.378814697265625,-0.597137451171875,0.12493896484375
1791103772846825200,0.1008251953125,-0.3425445556640625,-0.8997039794921875,-0.1039886474609375
1791103772856797200,0.110797119140625,-0.1757965087890625,-1.0274810791015625,-0.009033203125
1791103772866768100,0.12076806640625,-0.971160888671875,-0.8634033203125,0.14886474609375
1791103772876740000,0.130739990234375,-0.7369232177734375,-1.023895263671875,-0.0306854248046875
1791103772886712000,0.140712158203125,-0.56732177734375,-1.1533966064453125,0.0917205810546875
1791103772896684300,0.150684326171875,-1.103546142578125,-0.711029052734375,0.11968994140625
1791103772906656000,0.160656005859375,-0.472900390625,-1.1332244873046875,-0.106475830078125
1791103772916628200,0.170628173828125,-0.263885498046875,-0.8928375244140625,0.1327667236328125
1791103772926600200,0.18060009765625,-0.1233978271484375,-0.7987213134765625,0.0006256103515625
1791103772936572200,0.190572265625,-0.6821136474609375,-0.61962890625,-0.075653076171875
1791103772946544000,0.200544189453125,-0.2386932373046875,-1.0328826904296875,0.081451416015625
1791103772956515000,0.21051513671875,-0.2982940673828125,-0.71160888671875,-0.0185699462890625
1791103772966487300,0.2204873046875,-1.16778564453125,-0.4349365234375,-0.3627471923828125
1791103772976459000,0.230458984375,-0.830108642578125,-0.860076904296875,-0.1166229248046875
1791103772986431200,0.24043115234375,-0.726348876953125,-0.9756317138671875,0.223236083984375
1791103772996403200,0.2504033203125,-0.8713836669921875,-0.9031829833984375,-0.16571044921875
1791103773006375200,0.260375244140625,-0.4168548583984375,-0.934539794921875,-0.1597137451171875
1791103773016347100,0.27034716796875,-0.2073822021484375,-1.382049560546875,0.0760650634765625
1791103773026319000,0.280319091796875,-0.2707061767578125,-0.8241729736328125,-0.190948486328125
1791103773036290000,0.2902900390625,-0.2087554931640625,-0.71636962890625,-0.2735443115234375
1791103773046262000,0.300261962890625,-0.2562255859375,-0.49578857421875,-0.2568511962890625
1791103773056234200,0.310234130859375,-0.4374542236328125,-0.651123046875,-0.22174072265625
1791103773066206200,0.320206298828125,-0.237579345703125,-1.0216217041015625,-0.1073455810546875
1791103773076178200,0.33017822265625,-0.9101409912109375,-0.9624176025390625,-0.0516204833984375
1791103773086150100,0.340150146484375,-1.0417938232421875,-0.9002685546875,-0.178314208984375
1791103773096122000,0.3501220703125,-0.025909423828125,-1.0018768310546875,-0.2426605224609375
1791103773106094000,0.360093994140625,-0.361724853515625,-0.8283233642578125,-0.090179443359375
1791103773116066300,0.37006640625,-0.4589080810546875,-0.8301239013671875,-0.1186065673828125
1791103773126037200,0.380037353515625,-0.2082672119140625,-1.00701904296875,0.249603271484375
1791103773136009200,0.39000927734375,-0.3917083740234375,-0.763336181640625,0.1241455078125
1791103773145981200,0.399981201171875,-0.609344482421875,-0.8237762451171875,-0.0374298095703125
1791103773155953200,0.409953125,-0.647735595703125,-0.8856353759765625,0.1778106689453125
1791103773165925000,0.419925048828125,-0.7274017333984375,-1.23095703125,0.142364501953125
1791103773175897000,0.42989697265625,-0.9525299072265625,-0.979034423828125,-0.1212005615234375
1791103773185869300,0.439869384765625,-0.646881103515625,-0.9295196533203125,-0.073760986328125
1791103773195841000,0.449841064453125,-0.6015472412109375,-0.6303253173828125,0.2805938720703125
1791103773205812200,0.459812255859375,0.28631591796875,-1.16552734375,0.0622711181640625
1791103773215784200,0.4697841796875,-0.1710205078125,-0.6858062744140625,0.1937408447265625
1791103773225756200,0.479756103515625,-0.4515533447265625,-0.6358642578125,0.087860107421875
1791103773235728100,0.48972802734375,0.217132568359375,-1.1861114501953125,-0.177581787109375
1791103773245700000,0.4997001953125,-0.4199371337890625,-0.7673187255859375,-0.056396484375
1791103773255672300,0.50967236328125,-1.2051239013671875,-0.613067626953125,-0.2646026611328125
1791103773265644000,0.51964404296875,-0.843841552734375,-1.10296630859375,-0.0220947265625
1791103773275616300,0.5296162109375,-0.4302825927734375,-1.3718414306640625,-0.033477783203125
1791103773285588000,0.539587890625,-1.20428466796875,-0.508056640625,0.02294921875
1791103773295559200,0.54955908203125,-0.3168182373046875,-1.0889892578125,0.090087890625
1791103773305531100,0.55953125,-0.20098876953125,-1.2835235595703125,0.20281982421875
1791103773315503000,0.569503173828125,-0.404998779296875,-0.6309051513671875,0.0733795166015625
1791103773325475300,0.579475341796875,0.1587982177734375,-0.9275054931640625,-0.1785430908203125
1791103773335447000,0.589447021484375,-0.024749755859375,-0.7668304443359375,-0.0771636962890625
1791103773345419300,0.599419189453125,-0.477508544921875,-0.6152801513671875,-0.1857757568359375
1791103773355391000,0.609390869140625,-0.7844085693359375,-0.388885498046875,-0.23614501953125
1791103773365363200,0.61936328125,-0.7762603759765625,-0.890777587890625,-0.3341827392578125
1791103773375335200,0.629335205078125,-0.9660797119140625,-0.916778564453125,-0.0795135498046875
1791103773385306000,0.63930615234375,-1.035125732421875,-1.1259307861328125,-0.0769805908203125
1791103773395278300,0.6492783203125,-0.6588134765625,-1.4524383544921875,-0.254852294921875
1791103773405250000,0.65925,-0.534393310546875,-1.303863525390625,-0.0736083984375
1791103773415222300,0.66922216796875,0.4844207763671875,-1.2960357666015625,0.0608062744140625
1791103773425194000,0.679194091796875,-0.2652740478515625,-0.788177490234375,-0.255859375
1791103773435166200,0.689166259765625,-0.5726318359375,-0.397308349609375,0.00067138671875
1791103773445138200,0.69913818359375,0.4445037841796875,-0.8526763916015625,0.0228271484375
1791103773455110100,0.709110107421875,0.2490692138671875,-0.8358917236328125,-0.192596435546875
1791103773465081000,0.7190810546875,-1.114990234375,-0.55126953125,-0.20343017578125
1791103773475053000,0.729052978515625,-0.4592742919921875,-0.69879150390625,-0.053955078125
1791103773485025300,0.739025390625,0.5095062255859375,-1.111846923828125,-0.22198486328125
1791103773494997000,0.7489970703125,-1.211944580078125,-0.30865478515625,-0.1817779541015625
1791103773504969200,0.75896923828125,-1.2037353515625,-0.5147247314453125,0.127105712890625
1791103773514941200,0.768941162109375,0.1595458984375,-1.6829681396484375,-0.0916595458984375
1791103773524913200,0.7789130859375,-1.3139801025390625,-0.8538360595703125,0.12200927734375
1791103773534885000,0.788885009765625,-0.79302978515625,-1.137542724609375,-0.14581298828125
1791103773544856000,0.79885595703125,-0.6390228271484375,-0.89190673828125,-0.1177215576171875
1791103773554828300,0.808828369140625,-0.658782958984375,-0.767852783203125,0.015869140625
1791103773564800000,0.818800048828125,-0.0984039306640625,-0.757415771484375,0.2310943603515625
1791103773574772200,0.828772216796875,0.0133209228515625,-1.0260162353515625,0.0818634033203125
1791103773584744200,0.838744140625,-0.52197265625,-0.438812255859375,0.0576629638671875
1791103773594716200,0.848716064453125,-0.4669036865234375,-0.7156829833984375,0.1066436767578125
1791103773604688100,0.858688232421875,-0.1125030517578125,-1.1240234375,-0.01885986328125
1791103773614660000,0.86866015625,-0.94525146484375,-0.4937896728515625,-0.1884765625
1791103773624632000,0.878632080078125,-0.44464111328125,-1.063446044921875,-0.1300811767578125
1791103773634603000,0.88860302734375,-0.193695068359375,-1.6683502197265625,-0.1746368408203125
1791103773644575200,0.8985751953125,-0.8266143798828125,-1.17816162109375,-0.078125
1791103773654547200,0.908547119140625,-0.8928375244140625,-0.9333038330078125,-0.2530364990234375
1791103773664519200,0.918519287109375,-1.441650390625,-0.1043548583984375,0.084442138671875
1791103773674491100,0.9284912109375,0.026763916015625,-0.970245361328125,-0.01849365234375
1791103773684463000,0.938463134765625,-0.231231689453125,-0.8643035888671875,0.130462646484375
1791103773694435000,0.94843505859375,-0.0868377685546875,-1.2702178955078125,0.0003662109375
1791103773704407300,0.9584072265625,-1.0096893310546875,-0.373992919921875,-0.1689453125
1791103773714378200,0.968378173828125,0.085693359375,-0.8538970947265625,-0.143951416015625
1791103773724350200,0.97835009765625,-0.2172088623046875,-0.6159515380859375,0.1643524169921875
1791103773734322200,0.988322265625,-0.9893646240234375,-0.641876220703125,0.0605010986328125
1791103773744294100,0.998294189453125,-0.62744140625,-0.6514129638671875,0.0793304443359375
1791103773754266000,1.00826611328125,-0.30743408203125,-1.2294158935546875,-0.0908050537109375
1791103773764238000,1.018238037109375,-1.2697601318359375,-1.196990966796875,0.0481414794921875
1791103773774210300,1.028210205078125,-0.678558349609375,-1.644439697265625,0.044036865234375
1791103773784182000,1.03818212890625,-0.52703857421875,-1.143951416015625,-0.0203704833984375
1791103773794153200,1.0481533203125,-0.5927734375,-0.6766510009765625,-0.06561279296875
1791103773804125200,1.058125244140625,0.161163330078125,-0.9309844970703125,-0.10150146484375
1791103773814097200,1.06809716796875,0.251129150390625,-0.77423095703125,0.052154541015625
1791103773824069000,1.078069091796875,-0.61053466796875,-0.5630645751953125,0.2284393310546875
1791103773834041000,1.088041015625,-0.8238983154296875,-0.481353759765625,0.0869293212890625
1791103773844013300,1.098013427734375,0.06085205078125,-1.06341552734375,-0.039581298828125
1791103773853985000,1.107985107421875,-0.2355194091796875,-1.065460205078125,-0.07159423828125
1791103773863957200,1.117957275390625,-0.5267486572265625,-0.9316253662109375,-0.19720458984375
1791103773873929000,1.127928955078125,-0.658050537109375,-1.0252532958984375,-0.081298828125
1791103773883900200,1.137900146484375,-0.3770599365234375,-0.9959716796875,-0.0074615478515625
1791103773893872000,1.1478720703125,-0.833343505859375,-0.5124664306640625,0.161346435546875
1791103773903844000,1.157843994140625,-0.247589111328125,-0.8390350341796875,0.008056640625
1791103773913816300,1.16781640625,-0.0179901123046875,-0.999755859375,0.16632080078125
1791103773923788000,1.1777880859375,-0.360137939453125,-0.8850860595703125,0.096588134765625
1791103773933760300,1.18776025390625,-0.28594970703125,-0.91937255859375,-0.071868896484375
1791103773943732000,1.19773193359375,-0.282379150390625,-0.8283538818359375,-0.1678009033203125
1791103773953704200,1.2077041015625,-0.3602752685546875,-0.76287841796875,-0.0201263427734375
1791103773963675100,1.217675048828125,-0.902557373046875,-0.6744384765625,0.0477752685546875
1791103773973647000,1.227647216796875,-0.401947021484375,-1.189300537109375,0.0351715087890625
1791103773983619300,1.237619384765625,-0.8198394775390625,-1.111083984375,0.0394134521484375
1791103773993591000,1.247591064453125,-0.5393218994140625,-1.184173583984375,-0.0159454345703125
1791103774003563300,1.257563232421875,-0.76629638671875,-0.8387298583984375,-0.002166748046875
1791103774013535000,1.267534912109375,0.1974029541015625,-1.372589111328125,0.0011749267578125
1791103774023507200,1.277507080078125,-0.4185791015625,-0.5784759521484375,0.105194091796875
1791103774033479200,1.287479248046875,-0.2458343505859375,-0.68896484375,-0.02398681640625
1791103774043451100,1.297451171875,0.130767822265625,-0.9456024169921875,0.058929443359375
1791103774053422300,1.30742236328125,-0.634368896484375,-0.5191802978515625,0.001861572265625
1791103774063394000,1.31739404296875,-1.08074951171875,-0.521331787109375,-0.2487640380859375
1791103774073366300,1.3273662109375,-0.5550689697265625,-0.9124755859375,-0.2081451416015625
1791103774083338000,1.337337890625,-0.7227325439453125,-1.395904541015625,0.136962890625
1791103774093310200,1.347310302734375,-1.45257568359375,-0.695037841796875,-0.1153564453125
1791103774103282200,1.3572822265625,-0.751007080078125,-1.305877685546875,-0.1847686767578125
1791103774113254100,1.367254150390625,-0.4999542236328125,-0.867950439453125,0.1357269287109375
1791103774123226000,1.37722607421875,-0.44317626953125,-0.600006103515625,-0.1027374267578125
1791103774133197000,1.387197021484375,-0.106536865234375,-0.4673309326171875,-0.197235107421875
1791103774143169300,1.397169189453125,-0.2147979736328125,-0.81170654296875,-0.1747283935546875
1791103774153141000,1.40714111328125,-0.910003662109375,-0.5695648193359375,0.091827392578125
1791103774163113200,1.41711328125,-0.45941162109375,-0.9021148681640625,-0.2362823486328125
1791103774173085200,1.427085205078125,-0.1087188720703125,-0.9714508056640625,-0.007537841796875
1791103774183057200,1.43705712890625,-0.813140869140625,-0.64691162109375,-0.1176605224609375
1791103774193029000,1.447029052734375,-0.6348419189453125,-0.9359893798828125,-0.1136932373046875
1791103774203001000,1.4570009765625,-0.44000244140625,-0.727325439453125,-0.0613861083984375
1791103774212972300,1.46697216796875,-0.3378753662109375,-0.7349700927734375,0.0827178955078125
1791103774222944000,1.476944091796875,-0.366912841796875,-0.961700439453125,-0.0247650146484375
1791103774232916200,1.486916259765625,-0.2410430908203125,-1.270782470703125,0.126190185546875
1791103774242888200,1.49688818359375,-0.3922576904296875,-1.1058349609375,0.0811767578125
1791103774252860200,1.506860107421875,-0.94195556640625,-0.77581787109375,0.034759521484375
1791103774262832000,1.51683203125,-0.72216796875,-0.632720947265625,-0.0146331787109375
1791103774272804000,1.52680419921875,-0.51025390625,-0.7554473876953125,0.159332275390625
1791103774282776000,1.536776123046875,-0.3262786865234375,-0.86083984375,0.110687255859375
1791103774292748300,1.546748291015625,-0.9544219970703125,-0.70379638671875,0.1884765625
1791103774302719200,1.55671923828125,-0.41973876953125,-1.0094451904296875,0.100677490234375
1791103774312691200,1.566691162109375,-0.491943359375,-1.01171875,-0.07958984375
1791103774322663200,1.5766630859375,-0.5214080810546875,-0.920196533203125,-0.0771636962890625
1791103774332635100,1.58663525390625,0.157623291015625,-1.15118408203125,0.025634765625
1791103774342607000,1.596607177734375,0.536865234375,-1.1077117919921875,-0.1255340576171875
1791103774352579000,1.6065791015625,-0.4434814453125,-0.6546173095703125,-0.2047271728515625
1791103774362551000,1.616551025390625,-0.4088897705078125,-0.7223358154296875,-0.01287841796875
1791103774372522800,1.626522705078125,-0.2747039794921875,-0.8767242431640625,-0.1969146728515625
1791103774382494000,1.636493896484375,-0.65765380859375,-0.80072021484375,-0.1533966064453125
1791103774392466000,1.6464658203125,-1.137359619140625,-0.600677490234375,-0.0272979736328125
1791103774402438000,1.65643798828125,0.0884246826171875,-1.3392333984375,-0.2228851318359375
1791103774412410000,1.66641015625,-0.53985595703125,-1.1461334228515625,-0.2257080078125
1791103774422381800,1.6763818359375,-0.650299072265625,-0.927581787109375,-0.11798095703125
1791103774432354000,1.68635400390625,-0.480072021484375,-0.823822021484375,-0.0866546630859375
1791103774442325800,1.69632568359375,-0.3423919677734375,-0.824676513671875,0.0310516357421875
1791103774452298000,1.706298095703125,-0.1446990966796875,-0.5603790283203125,0.052001953125
1791103774462270000,1.71627001953125,-0.4493865966796875,-0.934600830078125,-0.2048797607421875
1791103774472241000,1.726240966796875,-0.600677490234375,-1.0323944091796875,-0.1210174560546875
1791103774482213000,1.736213134765625,-0.0128326416015625,-1.1643218994140625,-0.074615478515625
1791103774492184800,1.746184814453125,-1.02789306640625,-0.6879119873046875,-0.1903076171875
1791103774502157000,1.756156982421875,-0.7116546630859375,-1.0613555908203125,-0.1447906494140625
1791103774512128800,1.766128662109375,-0.2603302001953125,-0.9314422607421875,0.0846099853515625
1791103774522101000,1.77610107421875,-0.7621612548828125,-0.7807464599609375,-0.100250244140625
1791103774532073000,1.786072998046875,-1.0984954833984375,-0.83929443359375,-0.0784149169921875
1791103774542045000,1.796044921875,-0.3094024658203125,-1.321868896484375,0.0831146240234375
1791103774552016100,1.80601611328125,-0.9378814697265625,-0.9987945556640625,0.0848846435546875
1791103774561987800,1.81598779296875,-0.873016357421875,-0.8992919921875,-0.16534423828125
1791103774571960000,1.8259599609375,0.1026611328125,-1.2873687744140625,0.0309600830078125
1791103774581931800,1.835931884765625,-0.3094329833984375,-0.6303558349609375,-0.0612640380859375
1791103774591904000,1.845904052734375,-0.5825042724609375,-0.3013458251953125,-0.1776885986328125
1791103774601876000,1.8558759765625,0.2770538330078125,-1.0740814208984375,0.043731689453125
1791103774611848000,1.865847900390625,-0.281005859375,-0.88165283203125,0.137115478515625
1791103774621820000,1.87581982421875,-1.37554931640625,-0.4246368408203125,-0.080474853515625
1791103774631790800,1.885790771484375,-0.638275146484375,-0.6954193115234375,-0.070037841796875
1791103774641763000,1.89576318359375,0.3425140380859375,-1.239288330078125,-0.051971435546875
1791103774651734800,1.90573486328125,-0.7811126708984375,-0.52496337890625,-0.0224151611328125
1791103774661707000,1.91570703125,-0.5616607666015625,-1.01312255859375,-0.0274200439453125
1791103774671679000,1.925678955078125,-0.4560546875,-0.850982666015625,-0.055267333984375
1791103774681651000,1.93565087890625,-0.683807373046875,-0.747406005859375,-0.0953826904296875
1791103774691623000,1.945622802734375,-0.7451324462890625,-0.671600341796875,0.081512451171875
1791103774701595000,1.955594970703125,-0.303802490234375,-1.0684051513671875,-0.2001190185546875
1791103774711566000,1.965566162109375,-0.6569366455078125,-0.80303955078125,-0.0748443603515625
1791103774721537800,1.975537841796875,-0.6095428466796875,-0.913330078125,-0.1614837646484375
1791103774731510000,1.985510009765625,0.3717803955078125,-1.4981536865234375,-0.152862548828125
1791103774741482000,1.99548193359375,-0.3639984130859375,-0.6876068115234375,-0.126617431640625
1791103774751454000,2.005453857421875,-0.7539520263671875,-0.606842041015625,-0.080780029296875
1791103774761426000,2.015426025390625,-0.3018951416015625,-0.621490478515625,-0.2166290283203125
1791103774771398000,2.02539794921875,-0.0439605712890625,-0.86590576171875,-0.123992919921875
1791103774781369900,2.035369873046875,-0.6085968017578125,-0.8682098388671875,-0.0703125
1791103774791342000,2.045342041015625,-0.457763671875,-1.2535552978515625,-0.247528076171875
1791103774801313000,2.05531298828125,-0.718994140625,-1.169677734375,-0.14093017578125
1791103774811285000,2.065284912109375,-0.9240875244140625,-0.8536376953125,-0.0449066162109375
1791103774821257000,2.075257080078125,-0.807586669921875,-0.9249725341796875,0.046051025390625
1791103774831229000,2.08522900390625,-0.2856597900390625,-1.0540008544921875,-0.07000732421875
1791103774841201000,2.095200927734375,-0.8310546875,-0.5894622802734375,0.04766845703125
1791103774851172900,2.1051728515625,-0.644927978515625,-0.759857177734375,-0.120635986328125
1791103774861145000,2.11514501953125,-0.4284820556640625,-1.1585693359375,0.1132354736328125
1791103774871116800,2.12511669921875,-0.73809814453125,-1.0527801513671875,0.18310546875
1791103774881088000,2.135087890625,-0.7237091064453125,-1.348052978515625,-0.0164794921875
1791103774891060000,2.14506005859375,-0.8394317626953125,-1.0805206298828125,-0.0619659423828125
1791103774901032000,2.155031982421875,-1.0068511962890625,-0.4562530517578125,0.058837890625
1791103774911004000,2.16500390625,-0.35302734375,-0.854827880859375,-0.13934326171875
1791103774920976000,2.174975830078125,0.41680908203125,-1.0922393798828125,0.1771240234375
1791103774930948000,2.184947998046875,0.0087127685546875,-0.904571533203125,0.1865692138671875
1791103774940919800,2.194919921875,-0.251251220703125,-0.8330841064453125,-0.0549468994140625
1791103774950892000,2.20489208984375,0.0497589111328125,-0.7597503662109375,0.0559844970703125
1791103774960863000,2.214863037109375,0.0459136962890625,-0.421417236328125,-0.0612335205078125
1791103774970835000,2.2248349609375,-0.5365753173828125,-0.397003173828125,-0.042999267578125
1791103774980807000,2.234806884765625,-0.6315155029296875,-0.533416748046875,0.0508575439453125
1791103774990779000,2.24477880859375,-0.189453125,-1.04461669921875,0.03839111328125
1791103775000751000,2.254751220703125,-0.7648468017578125,-0.92578125,-0.061767578125
1791103775010722800,2.264722900390625,-0.435455322265625,-1.22967529296875,-0.000152587890625
1791103775020695000,2.274695068359375,-0.7654571533203125,-0.7764129638671875,-0.06304931640625
1791103775030666800,2.284666748046875,-1.3455963134765625,-0.7034454345703125,0.020965576171875
1791103775040638000,2.294637939453125,-0.5951690673828125,-1.1048736572265625,0.04205322265625
1791103775050610000,2.30460986328125,-0.193145751953125,-1.2966461181640625,0.2202301025390625
1791103775060582000,2.314581787109375,-0.376861572265625,-1.1430511474609375,0.340057373046875
1791103775070554000,2.32455419921875,-0.9263458251953125,-0.728729248046875,0.1231536865234375
1791103775080525800,2.33452587890625,-0.080078125,-0.7388458251953125,0.0313262939453125
1791103775090498000,2.344498046875,0.405029296875,-1.0144500732421875,0.016204833984375
1791103775100469800,2.3544697265625,0.067840576171875,-1.108154296875,-0.0521087646484375
1791103775110442000,2.36444189453125,-1.3494110107421875,-1.02984619140625,-0.239166259765625
1791103775120414000,2.3744140625,-1.37664794921875,-0.8917236328125,-0.05902099609375
1791103775130385000,2.384385009765625,-0.14788818359375,-1.4151458740234375,-0.0845794677734375
1791103775140357000,2.394357177734375,-0.815765380859375,-0.9830169677734375,-0.1162261962890625
1791103775150328800,2.404328857421875,-1.0462799072265625,-0.851837158203125,-0.0526275634765625
1791103775160301000,2.414301025390625,0.1606292724609375,-1.098388671875,-0.001251220703125
1791103775170272800,2.424272705078125,0.072235107421875,-0.8886566162109375,-0.08349609375
1791103775180245000,2.434244873046875,-0.1275177001953125,-0.6341094970703125,0.0313720703125
1791103775190217000,2.444217041015625,-0.8646087646484375,-0.289794921875,0.0197906494140625
1791103775200188000,2.45418798828125,-0.6858978271484375,-0.7396697998046875,-0.1299591064453125
1791103775210160000,2.46416015625,-1.0445098876953125,-0.7088165283203125,0.0593109130859375
1791103775220131800,2.4741318359375,-0.4251861572265625,-0.896209716796875,0.0686492919921875
1791103775230104000,2.48410400390625,-0.9556732177734375,-0.6344757080078125,-0.0386962890625
1791103775240075800,2.49407568359375,-1.2316131591796875,-0.7195892333984375,0.1626434326171875
1791103775250048000,2.504048095703125,-0.006072998046875,-1.1947479248046875,0.157135009765625
1791103775260020000,2.51402001953125,-0.1462554931640625,-0.6527862548828125,-0.0365447998046875
1791103775269992000,2.523991943359375,-0.021453857421875,-0.4991455078125,0.0037841796875
1791103775279964000,2.5339638671875,-0.1094512939453125,-0.7714080810546875,-0.019378662109375
1791103775289934800,2.543934814453125,-0.5400543212890625,-0.76031494140625,0.0728759765625
1791103775299907000,2.553906982421875,-0.564971923828125,-0.7917938232421875,-0.0030364990234375
1791103775309878800,2.563878662109375,-0.5069427490234375,-0.7929534912109375,-0.28497314453125
1791103775319851000,2.57385107421875,-0.3394012451171875,-1.019073486328125,-0.3265228271484375
1791103775329823000,2.583822998046875,-0.7317962646484375,-1.0780181884765625,-0.196533203125
1791103775339795000,2.593794921875,-0.9397430419921875,-0.9186248779296875,-0.0848388671875
1791103775349767000,2.603766845703125,-0.6898345947265625,-0.74041748046875,-0.170257568359375
1791103775359739000,2.61373876953125,-0.03717041015625,-0.989654541015625,0.0608367919921875
1791103775369709800,2.623709716796875,0.748565673828125,-1.557464599609375,-0.0391387939453125
1791103775379681800,2.633681884765625,-0.471527099609375,-0.8120880126953125,-0.0858612060546875
1791103775389654000,2.643654052734375,-0.7305908203125,-0.747222900390625,0.02789306640625
1791103775399625700,2.653625732421875,-0.7064056396484375,-0.577728271484375,0.16265869140625
1791103775409598000,2.663597900390625,-0.51031494140625,-0.5772552490234375,-0.0869903564453125
1791103775419569700,2.673569580078125,-0.4819488525390625,-0.9010162353515625,-0.0199127197265625
1791103775429542000,2.6835419921875,0.260040283203125,-1.4082794189453125,-0.1053009033203125
1791103775439513900,2.693513916015625,-0.8925933837890625,-1.02789306640625,-0.05426025390625
1791103775449484800,2.70348486328125,-1.0277252197265625,-1.169158935546875,-0.13177490234375
1791103775459457000,2.71345703125,-0.2793121337890625,-1.220733642578125,0.1679229736328125
1791103775469428700,2.7234287109375,-0.1382293701171875,-0.9997406005859375,-0.153106689453125
1791103775479401000,2.73340087890625,-1.448944091796875,-0.43109130859375,-0.20477294921875
1791103775489372700,2.74337255859375,0.0321807861328125,-1.0007781982421875,0.118438720703125
1791103775499345000,2.753344970703125,0.4794769287109375,-1.2076263427734375,-0.1358489990234375
1791103775509316900,2.76331689453125,-0.6103057861328125,-0.2806549072265625,-0.367767333984375
1791103775519288800,2.773288818359375,-0.1516265869140625,-0.8020172119140625,-0.3086090087890625
1791103775529260000,2.783260009765625,-0.912506103515625,-0.63409423828125,-0.03387451171875
1791103775539231700,2.793231689453125,-0.8368377685546875,-0.927215576171875,-0.03460693359375
1791103775549204000,2.803203857421875,-0.7887420654296875,-1.0775146484375,-0.2775726318359375
1791103775559175700,2.81317578125,-1.0339813232421875,-1.1693267822265625,-0.1558685302734375
1791103775569148000,2.82314794921875,-0.821868896484375,-1.06121826171875,-0.0344390869140625
1791103775579119900,2.833119873046875,-1.0204620361328125,-0.8115997314453125,0.0718841552734375
1791103775589091800,2.843091796875,0.13140869140625,-1.137176513671875,-0.1978607177734375
1791103775599063800,2.853063720703125,-0.0724029541015625,-0.8095245361328125,-0.112823486328125
1791103775609034800,2.86303466796875,0.0478973388671875,-0.7725067138671875,-0.14642333984375
1791103775619007000,2.873007080078125,-0.43121337890625,-0.5576171875,-0.12457275390625
1791103775628978700,2.882978759765625,-0.3629913330078125,-0.5553131103515625,0.0980987548828125
1791103775638951000,2.892950927734375,-0.4144744873046875,-0.5545501708984375,-0.128570556640625
1791103775648923000,2.9029228515625,-0.2498931884765625,-1.06817626953125,-0.1511077880859375
1791103775658894800,2.912894775390625,-0.4232025146484375,-0.7792510986328125,0.050750732421875
1791103775668866800,2.92286669921875,-0.3564453125,-1.1881103515625,-0.0729522705078125
1791103775678838800,2.9328388671875,-1.1188507080078125,-0.7502288818359375,0.0725555419921875
1791103775688810000,2.94281005859375,-0.525299072265625,-1.0555572509765625,0.145263671875
1791103775698781700,2.95278173828125,-0.51593017578125,-0.795257568359375,0.032623291015625
1791103775708754000,2.96275390625,-0.8127593994140625,-0.6389617919921875,0.0915069580078125
1791103775718726000,2.972725830078125,-0.0287933349609375,-1.131256103515625,0.084625244140625
1791103775728697900,2.98269775390625,0.0387725830078125,-0.9752960205078125,0.27880859375
1791103775738669800,2.992669921875,-0.9848480224609375,-0.5089263916015625,0.01727294921875
1791103775748641800,3.002641845703125,-0.0646209716796875,-0.90557861328125,0.0877532958984375
1791103775758613800,3.01261376953125,0.07513427734375,-1.1857757568359375,0.0368804931640625
1791103775768584700,3.022584716796875,-1.0288238525390625,-0.5977020263671875,0.1084442138671875
1791103775778557000,3.032556884765625,-0.748138427734375,-1.0864105224609375,-0.0285797119140625
1791103775788529000,3.04252880859375,-0.1598968505859375,-1.2704925537109375,-0.1192779541015625
1791103775798500900,3.0525009765625,-1.21826171875,-0.550506591796875,-0.01995849609375
1791103775808472800,3.062472900390625,-0.1917877197265625,-0.8523101806640625,-0.1385650634765625
1791103775818444800,3.07244482421875,0.4023284912109375,-1.3593292236328125,-0.028839111328125
1791103775828416800,3.082416748046875,-0.6342926025390625,-0.48724365234375,0.1133880615234375
1791103775838389000,3.092388916015625,-0.9120330810546875,-0.488311767578125,-0.0431671142578125
1791103775848360000,3.10235986328125,-0.6372528076171875,-0.7814788818359375,-0.0879058837890625
1791103775858332000,3.112331787109375,-0.70770263671875,-0.8299560546875,-0.057037353515625
1791103775868304000,3.122303955078125,-1.328857421875,-0.65838623046875,-0.100494384765625
1791103775878275800,3.13227587890625,-0.3967437744140625,-1.4549713134765625,-0.3786468505859375
1791103775888247800,3.142247802734375,-0.980133056640625,-1.1078643798828125,-0.02392578125
1791103775898219800,3.1522197265625,-1.212890625,-0.504486083984375,-0.0857696533203125
1791103775908192000,3.16219189453125,0.163055419921875,-0.9212799072265625,-0.3418426513671875
1791103775918163700,3.172163818359375,0.6382904052734375,-1.1082763671875,-0.0397796630859375
1791103775928135000,3.182135009765625,-0.642669677734375,-0.6760406494140625,0.1289825439453125
1791103775938107000,3.19210693359375,-0.3891754150390625,-0.8445587158203125,-0.1082763671875
1791103775948078800,3.202078857421875,-0.418243408203125,-0.4371795654296875,-0.18115234375
1791103775958050800,3.21205078125,-0.3771209716796875,-0.4141693115234375,-0.2288970947265625
1791103775968022800,3.222022705078125,-0.721099853515625,-0.5087890625,-0.144866943359375
1791103775977995000,3.2319951171875,0.15216064453125,-1.4985504150390625,-0.0491943359375
1791103775987966700,3.241966796875,-0.7154083251953125,-1.0101318359375,0.088836669921875
1791103775997939000,3.25193896484375,-0.6305084228515625,-1.002899169921875,-0.1114044189453125
1791103776007910000,3.261909912109375,-0.6785430908203125,-0.68231201171875,-0.029876708984375
1791103776017881900,3.2718818359375,-0.3954925537109375,-0.822784423828125,0.0643157958984375
1791103776027853800,3.281853759765625,-0.555267333984375,-0.8119659423828125,0.281982421875
1791103776037825800,3.29182568359375,-0.262969970703125,-1.25592041015625,0.069610595703125
1791103776047798000,3.301798095703125,-0.69256591796875,-0.8065032958984375,0.26788330078125
1791103776057769700,3.311769775390625,-0.72174072265625,-0.7259674072265625,0.1245574951171875
1791103776067742000,3.321741943359375,-0.1593475341796875,-0.99468994140625,0.0602569580078125
1791103776077713700,3.331713623046875,-0.1766510009765625,-0.975860595703125,0.10626220703125
1791103776087684900,3.341684814453125,-0.854888916015625,-0.724700927734375,0.1320037841796875
1791103776097656800,3.35165673828125,-0.2880706787109375,-0.9870758056640625,-0.01495361328125
1791103776107628800,3.36162890625,-0.3673095703125,-1.1174163818359375,0.0829315185546875
1791103776117601000,3.37160107421875,-0.782623291015625,-0.975494384765625,0.0730133056640625
1791103776127572700,3.38157275390625,-0.7899322509765625,-1.153900146484375,-0.0247802734375
1791103776137545000,3.391544921875,-0.4608154296875,-0.9009246826171875,-0.040191650390625
1791103776147516700,3.4015166015625,-0.980316162109375,-0.579681396484375,0.03424072265625
1791103776157489000,3.411489013671875,-0.088165283203125,-1.1413116455078125,-0.0798797607421875
1791103776167459800,3.4214599609375,0.238555908203125,-1.28802490234375,0.0497894287109375
1791103776177431800,3.431431884765625,-0.6444549560546875,-0.708343505859375,0.020751953125
1791103776187404000,3.441404052734375,-0.43231201171875,-0.768096923828125,-0.2365570068359375
1791103776197375700,3.451375732421875,-0.569000244140625,-0.795501708984375,-0.0864105224609375
1791103776207348000,3.461347900390625,-0.417724609375,-0.9927215576171875,-0.2775115966796875
1791103776217319700,3.471319580078125,-0.798919677734375,-0.819915771484375,-0.1793670654296875
1791103776227292000,3.4812919921875,-0.4691314697265625,-0.796051025390625,-0.250457763671875
1791103776237264000,3.491263916015625,-0.4774627685546875,-0.9344635009765625,-0.198516845703125
1791103776247234800,3.50123486328125,-0.7209014892578125,-0.6609954833984375,-0.19293212890625
1791103776257207000,3.51120703125,-0.3869781494140625,-0.8567047119140625,-0.1386566162109375
1791103776267178800,3.5211787109375,-0.0234832763671875,-1.0671539306640625,-0.277984619140625
1791103776277151000,3.53115087890625,-0.598846435546875,-0.57904052734375,-0.2336273193359375
1791103776287122700,3.541122802734375,-0.2822113037109375,-0.6349639892578125,-0.287109375
1791103776297095000,3.551094970703125,-0.500579833984375,-0.7166595458984375,-0.06268310546875
1791103776307067000,3.56106689453125,-0.556243896484375,-0.9416656494140625,-0.0388031005859375
1791103776317038800,3.571038818359375,-0.907958984375,-0.795257568359375,-0.1149444580078125
1791103776327009800,3.581009765625,-0.7617645263671875,-0.8498687744140625,-0.2791595458984375
1791103776336981800,3.590981689453125,-0.6981048583984375,-0.76934814453125,-0.0496978759765625
1791103776346954000,3.6009541015625,-0.468505859375,-1.1549530029296875,0.0062713623046875
1791103776356925700,3.61092578125,-0.4143218994140625,-1.2042236328125,0.0324249267578125
1791103776366898400,3.6208984375,-0.1196136474609375,-1.0098724365234375,-0.0828399658203125
1791103776376870400,3.630870361328125,-0.0927886962890625,-0.866607666015625,-0.0909881591796875
1791103776386842400,3.64084228515625,-0.76324462890625,-0.472930908203125,0.0867919921875
1791103776396814300,3.650814453125,-0.4075775146484375,-0.667205810546875,0.1948394775390625
1791103776406785500,3.66078564453125,-0.1158447265625,-0.7337493896484375,-0.1330108642578125
1791103776416757200,3.67075732421875,-1.0720367431640625,-0.714508056640625,0.0915679931640625
1791103776426729500,3.6807294921875,-0.41015625,-0.870513916015625,0.1271209716796875
1791103776436701400,3.690701416015625,-0.67181396484375,-0.88397216796875,0.0762481689453125
1791103776446673400,3.70067333984375,-0.8906402587890625,-0.9469146728515625,0.0863494873046875
1791103776456645400,3.710645263671875,-0.2928009033203125,-1.382354736328125,0.1748046875
1791103776466617300,3.720617431640625,-0.307281494140625,-1.0143585205078125,0.0362548828125
1791103776476589600,3.730589599609375,-0.44635009765625,-0.9439544677734375,-0.1144561767578125
1791103776486560300,3.740560302734375,-0.198974609375,-0.81854248046875,0.05255126953125
1791103776496532500,3.750532470703125,0.030853271484375,-0.7129974365234375,-0.1476898193359375
1791103776506504400,3.76050439453125,-0.5774078369140625,-1.0611419677734375,-0.2742156982421875
1791103776516476400,3.770476318359375,-1.0120391845703125,-0.926971435546875,0.124847412109375
1791103776526448400,3.780448486328125,-1.0054168701171875,-0.996185302734375,-0.1705322265625
1791103776536420400,3.79042041015625,-1.4582977294921875,-0.5470733642578125,-0.322509765625
1791103776546392300,3.800392333984375,-0.2371063232421875,-1.125457763671875,0.002105712890625
1791103776556364500,3.810364501953125,-0.74114990234375,-1.05975341796875,-0.0052490234375
1791103776566335500,3.82033544921875,0.022369384765625,-1.4892425537109375,-0.1953125
1791103776576307500,3.830307373046875,-0.0295257568359375,-0.973968505859375,-0.0674591064453125
1791103776586279400,3.840279541015625,0.4642791748046875,-0.686370849609375,-0.34149169921875
1791103776596251400,3.85025146484375,-0.2293853759765625,-0.46832275390625,-0.32049560546875
1791103776606223400,3.860223388671875,-0.4203033447265625,-0.52667236328125,-0.0166015625
1791103776616195300,3.8701953125,-0.1445159912109375,-0.6799163818359375,-0.1349639892578125
1791103776626167600,3.88016748046875,-0.770965576171875,-0.3842926025390625,-0.2356414794921875
1791103776636139500,3.890139404296875,-0.414215087890625,-1.2129669189453125,-0.12469482421875
1791103776646110500,3.9001103515625,0.1519012451171875,-1.337799072265625,0.069732666015625
1791103776656082400,3.91008251953125,-1.0861053466796875,-0.94769287109375,-0.195098876953125
1791103776666054400,3.920054443359375,-0.9322662353515625,-0.6519927978515625,-0.09808349609375
1791103776676026400,3.9300263671875,-0.29052734375,-0.820404052734375,0.0794525146484375
1791103776685998300,3.939998291015625,-0.94012451171875,-0.1994476318359375,0.061370849609375
1791103776695970600,3.949970458984375,0.4539337158203125,-1.52093505859375,-0.0320892333984375
1791103776705942300,3.9599423828125,0.104736328125,-1.1455230712890625,0.1375732421875
1791103776715913500,3.96991357421875,-0.2758941650390625,-0.870880126953125,-0.19354248046875
1791103776725885400,3.979885498046875,-0.3517913818359375,-0.437652587890625,-0.183868408203125
1791103776735857400,3.989857421875,-0.3633575439453125,-0.206878662109375,-0.0505218505859375
1791103776745829400,3.999829345703125,0.1295928955078125,-0.493377685546875,-0.2244873046875
1791103776755801300,4.00980126953125,0.15960693359375,-1.358123779296875,-0.1748504638671875
1791103776765773600,4.019773681640625,-0.8357391357421875,-1.1674957275390625,0.1219940185546875
1791103776775745300,4.029745361328125,-1.5711212158203125,-1.061767578125,-0.053070068359375
1791103776785717500,4.039717529296875,-1.625701904296875,-0.983001708984375,-0.169281005859375
1791103776795688400,4.0496884765625,-1.59759521484375,-0.8231964111328125,-0.0487518310546875
1791103776805660400,4.059660400390625,-1.28460693359375,-1.1546783447265625,-0.0521087646484375
1791103776815632400,4.06963232421875,-1.0595855712890625,-1.187164306640625,0.1075592041015625
1791103776825604400,4.079604248046875,-0.6757659912109375,-1.0059051513671875,0.2686309814453125
1791103776835576600,4.08957666015625,0.151214599609375,-1.1467132568359375,0.22113037109375
1791103776845548300,4.09954833984375,-0.00634765625,-0.9422149658203125,-0.040313720703125
1791103776855520500,4.1095205078125,-0.2366485595703125,-0.531402587890625,-0.00689697265625
1791103776865492200,4.1194921875,0.05023193359375,-0.7900238037109375,-0.0291290283203125
1791103776875463400,4.12946337890625,-1.3970489501953125,-0.6049652099609375,-0.2371368408203125
1791103776885435400,4.139435302734375,-1.1761474609375,-0.9264678955078125,-0.203399658203125
1791103776895407400,4.149407470703125,-0.59515380859375,-0.9228515625,-0.0890655517578125
1791103776905379600,4.159379638671875,-0.8339691162109375,-1.1287078857421875,-0.2467193603515625
1791103776915351300,4.169351318359375,-0.620147705078125,-0.94171142578125,-0.0183563232421875
1791103776925323500,4.179323486328125,0.089080810546875,-1.1692047119140625,0.18878173828125
1791103776935295200,4.189295166015625,-0.693206787109375,-0.2635955810546875,-0.086273193359375
1791103776945267500,4.199267333984375,0.06280517578125,-0.53759765625,0.0313720703125
1791103776955238400,4.20923828125,-0.172515869140625,-0.474334716796875,0.160675048828125
1791103776965210400,4.21921044921875,-0.374267578125,-0.686004638671875,0.158294677734375
1791103776975182600,4.2291826171875,-0.1890106201171875,-0.4884490966796875,0.0978851318359375
1791103776985154300,4.239154296875,0.6891021728515625,-0.617584228515625,-0.002655029296875
1791103776995126500,4.24912646484375,0.1501312255859375,-0.3111419677734375,0.088165283203125
1791103777005098200,4.25909814453125,-0.70086669921875,-0.6383514404296875,-0.0076446533203125
1791103777015070500,4.269070556640625,-1.3910980224609375,-0.906982421875,0.2561492919921875
1791103777025041400,4.27904150390625,-0.4114837646484375,-1.72698974609375,-0.0146942138671875
1791103777035013400,4.289013427734375,-0.339385986328125,-1.8995819091796875,-0.303314208984375
1791103777044985600,4.298985595703125,-0.146514892578125,-1.39715576171875,-0.149078369140625
1791103777054957300,4.308957275390625,-0.6407928466796875,-1.1603851318359375,0.0528411865234375
1791103777064929500,4.318929443359375,-0.6231689453125,-0.8209381103515625,0.0406951904296875
1791103777074901200,4.3289013671875,0.1067962646484375,-0.848419189453125,0.0767059326171875
1791103777084873500,4.33887353515625,0.2278594970703125,-0.5451812744140625,0.2835235595703125
1791103777094845400,4.348845458984375,-0.4336090087890625,-0.575439453125,-0.01129150390625
1791103777104816400,4.35881640625,-0.4204864501953125,-1.0018768310546875,-0.18060302734375
1791103777114788600,4.36878857421875,-0.847808837890625,-0.8434600830078125,-0.1539459228515625
1791103777124760300,4.37876025390625,-0.977203369140625,-0.9514617919921875,-0.28656005859375
1791103777134732500,4.388732666015625,-0.5582427978515625,-2.052825927734375,-0.255828857421875
1791103777144704300,4.398704345703125,-2.2197113037109375,-0.9043731689453125,0.1453399658203125
1791103777154676500,4.408676513671875,-1.397613525390625,-1.0978240966796875,-0.265594482421875
1791103777164648400,4.4186484375,-0.5895233154296875,-1.538360595703125,-0.1018829345703125
1791103777174620400,4.428620361328125,-0.04400634765625,-1.2060089111328125,0.3391571044921875
1791103777184591600,4.438591552734375,-0.8256072998046875,-0.3646087646484375,0.198577880859375
1791103777194563300,4.448563232421875,0.750457763671875,-0.833740234375,-0.201568603515625
1791103777204535600,4.45853564453125,0.53900146484375,-0.6951446533203125,-0.084014892578125
1791103777214507300,4.46850732421875,-0.4663238525390625,0.1413726806640625,0.0230865478515625
1791103777224479500,4.4784794921875,-1.1578216552734375,-0.15985107421875,-0.2148590087890625
1791103777234451500,4.488451416015625,-0.5970611572265625,-0.967926025390625,-0.0123443603515625
1791103777244423400,4.49842333984375,-0.899505615234375,-0.9339447021484375,0.178955078125
1791103777254395400,4.5083955078125,-0.6138763427734375,-0.5171356201171875,0.05859375
1791103777264366300,4.518366455078125,0.2283477783203125,-0.913818359375,-0.2744140625
1791103777274338600,4.528338623046875,-0.616851806640625,-0.88092041015625,-0.0447235107421875
1791103777284310300,4.538310302734375,-0.686370849609375,-0.82159423828125,0.0128631591796875
1791103777294282500,4.548282470703125,-0.807464599609375,-0.4669036865234375,0.0009307861328125
1791103777304254500,4.55825439453125,-0.9524383544921875,-0.5230712890625,-0.00482177734375
1791103777314226400,4.568226318359375,-0.3190765380859375,-0.9565887451171875,0.1566162109375
1791103777324198400,4.578198486328125,-0.5608978271484375,-0.9377288818359375,0.2704620361328125
1791103777334169300,4.58816943359375,-0.620574951171875,-0.669891357421875,-0.1117401123046875
1791103777344141600,4.5981416015625,0.0016632080078125,-1.274932861328125,-0.239227294921875
1791103777354113300,4.60811328125,0.409912109375,-0.809173583984375,-0.0971221923828125
1791103777364084500,4.61808447265625,0.5410003662109375,-0.65606689453125,-0.3053131103515625
1791103777374056700,4.628056640625,-0.5159454345703125,-0.6434478759765625,-0.1618804931640625
1791103777384028700,4.638028564453125,-1.41033935546875,-0.8996429443359375,0.288665771484375
1791103777394000600,4.648000732421875,-0.360809326171875,-1.56549072265625,0.1193695068359375
1791103777403972600,4.65797265625,-0.77349853515625,-1.12255859375,-0.24676513671875
1791103777413943600,4.667943603515625,-0.424102783203125,-0.888214111328125,-0.1673126220703125
1791103777423915500,4.67791552734375,-0.4063568115234375,-1.1320037841796875,-0.221527099609375
1791103777433887500,4.687887451171875,-1.8937530517578125,-0.6679229736328125,0.1472625732421875
1791103777443859500,4.697859375,-0.5109710693359375,-1.4200439453125,-0.0517578125
1791103777453831700,4.707831787109375,-0.2019195556640625,-1.0565185546875,0.1308135986328125
1791103777463803600,4.7178037109375,-0.5806121826171875,-0.7016754150390625,0.0084991455078125
1791103777473775600,4.727775634765625,-0.6035614013671875,-0.9456939697265625,-0.1561737060546875
1791103777483747600,4.73774755859375,-0.4449005126953125,-1.4036102294921875,-0.003387451171875
1791103777493718500,4.747718505859375,-0.73773193359375,-1.020111083984375,-0.0447235107421875
1791103777503690500,4.7576904296875,-0.6630706787109375,-0.888763427734375,-0.06036376953125
1791103777513662500,4.767662353515625,-0.51190185546875,-0.9309234619140625,0.0555419921875
1791103777523634700,4.777634765625,-0.5064239501953125,-0.7739105224609375,0.261566162109375
1791103777533606700,4.787606689453125,-0.2617034912109375,-0.770721435546875,0.077606201171875
1791103777543578600,4.79757861328125,0.2062530517578125,-0.751800537109375,0.024932861328125
1791103777553550600,4.807550537109375,0.1449432373046875,-0.8339080810546875,-0.1586761474609375
1791103777563521500,4.817521484375,-0.4296875,-0.8368988037109375,-0.09246826171875
1791103777573493500,4.827493408203125,-0.2805328369140625,-0.9478759765625,0.0614166259765625
1791103777583465500,4.837465576171875,-0.55975341796875,-0.523162841796875,-0.11688232421875
1791103777593437700,4.847437744140625,-1.441192626953125,-0.347381591796875,-0.122589111328125
1791103777603409400,4.857409423828125,-0.4598388671875,-0.3391876220703125,-0.029815673828125
1791103777613381600,4.867381591796875,-0.12005615234375,-0.997314453125,-0.15667724609375
1791103777623353600,4.877353515625,-0.5660552978515625,-1.0081787109375,-0.0523834228515625
1791103777633325600,4.88732568359375,0.3859405517578125,-1.8284912109375,-0.031097412109375
1791103777643296500,4.897296630859375,-0.6428070068359375,-0.7546234130859375,-0.227752685546875
1791103777653268500,4.9072685546875,-0.566253662109375,-0.649658203125,-0.1864471435546875
1791103777663240700,4.91724072265625,-0.278961181640625,-0.7103271484375,-0.0344390869140625
1791103777673212400,4.92721240234375,0.223602294921875,-1.138641357421875,0.0293121337890625
1791103777683184600,4.9371845703125,-0.7351226806640625,-0.78558349609375,-0.129974365234375
1791103777693156600,4.947156494140625,-0.3072509765625,-1.0146026611328125,-0.16680908203125
1791103777703128600,4.957128662109375,-0.4400482177734375,-0.7488250732421875,-0.1410675048828125
1791103777713100500,4.9671005859375,-0.2277374267578125,-0.7588958740234375,-0.12347412109375
1791103777723071500,4.977071533203125,-0.6250457763671875,-0.9442138671875,0.0620880126953125
1791103777733043700,4.987043701171875,-0.2906951904296875,-1.37384033203125,-0.19537353515625
1791103777743015400,4.997015380859375,-1.0751953125,-0.741973876953125,0.001373291015625
1791103777752987600,5.006987548828125,-0.8441925048828125,-1.00732421875,-0.14080810546875
1791103777762959400,5.01695947265625,-0.9457855224609375,-0.9380645751953125,0.124542236328125
1791103777772931600,5.026931640625,-0.64654541015625,-1.1326141357421875,0.1589508056640625
1791103777782903600,5.036903564453125,-1.1996002197265625,-0.85882568359375,0.224822998046875
1791103777792874500,5.04687451171875,-0.4080810546875,-1.052642822265625,-0.094482421875
1791103777802846700,5.0568466796875,-0.5052947998046875,-0.8447418212890625,0.1134185791015625
1791103777812818400,5.066818359375,0.04815673828125,-1.0147857666015625,-0.06512451171875
1791103777822790700,5.076790771484375,-0.7690887451171875,-0.6122894287109375,-0.07843017578125
1791103777832762400,5.086762451171875,-0.4055023193359375,-0.9031219482421875,-0.023345947265625
1791103777842734600,5.096734619140625,-0.118499755859375,-0.90008544921875,-0.0919647216796875
1791103777852706600,5.10670654296875,-0.726165771484375,-0.2581329345703125,-0.104217529296875
1791103777862678500,5.116678466796875,-0.83673095703125,-0.14788818359375,-0.1320648193359375
1791103777872649700,5.126649658203125,0.1591339111328125,-1.0736846923828125,-0.273345947265625
1791103777882621400,5.136621337890625,-0.533538818359375,-0.925201416015625,0.0034942626953125
1791103777892593700,5.14659375,-0.8597259521484375,-0.86553955078125,0.0512542724609375
1791103777902565400,5.1565654296875,-0.4947357177734375,-0.917236328125,-0.19427490234375
1791103777912537600,5.16653759765625,-0.619781494140625,-0.739959716796875,-0.1037750244140625
1791103777922509600,5.176509521484375,-0.5850372314453125,-0.51898193359375,-0.03338623046875
1791103777932481500,5.1864814453125,-0.38641357421875,-0.9019622802734375,-0.0576934814453125
1791103777942452700,5.19645263671875,-0.185821533203125,-1.3027496337890625,0.0634613037109375
1791103777952424400,5.206424560546875,-0.643798828125,-0.989593505859375,0.119049072265625
1791103777962396700,5.216396728515625,-1.096771240234375,-0.38800048828125,-0.0244293212890625
1791103777972368400,5.226368408203125,-0.40155029296875,-0.9028167724609375,-0.2524566650390625
1791103777982340600,5.236340576171875,0.0882110595703125,-1.1439208984375,0.069305419921875
1791103777992312600,5.2463125,-0.2361602783203125,-1.2335968017578125,0.0612640380859375
1791103778002284500,5.256284423828125,-0.5644073486328125,-0.728240966796875,-0.19732666015625
1791103778012256500,5.266256591796875,-0.340301513671875,-0.654693603515625,-0.0133514404296875
1791103778022227500,5.2762275390625,-0.0860595703125,-0.87030029296875,0.100830078125
1791103778032199700,5.28619970703125,0.0977630615234375,-1.33770751953125,0.2375335693359375
1791103778042171400,5.29617138671875,-0.3856201171875,-1.030609130859375,0.1109771728515625
1791103778052143600,5.3061435546875,-1.02178955078125,-0.685028076171875,-0.0051116943359375
1791103778062115600,5.316115478515625,-0.817535400390625,-0.869537353515625,0.0345611572265625
1791103778072087600,5.326087646484375,-0.2186279296875,-1.1602783203125,0.2073516845703125
1791103778082059500,5.3360595703125,-0.89849853515625,-0.97271728515625,0.0740814208984375
1791103778092030500,5.346030517578125,-0.5989990234375,-1.00201416015625,0.0501251220703125
1791103778102002700,5.356002685546875,-0.0452880859375,-1.033660888671875,-0.003814697265625
1791103778111974400,5.365974365234375,-0.221221923828125,-0.8434600830078125,-0.05120849609375
1791103778121946600,5.375946533203125,-0.42352294921875,-0.652557373046875,0.0229339599609375
1791103778131918600,5.385918701171875,-0.1380615234375,-0.885711669921875,0.0835113525390625
1791103778141890600,5.395890625,-0.595245361328125,-0.94952392578125,-0.066497802734375
1791103778151862500,5.405862548828125,-0.87884521484375,-0.801849365234375,-0.032989501953125
1791103778161834500,5.41583447265625,-0.311248779296875,-0.96783447265625,-0.2802734375
1791103778171805700,5.4258056640625,-1.02215576171875,-0.734466552734375,-0.14404296875
1791103778181777400,5.43577734375,-0.77777099609375,-0.8350677490234375,0.0831146240234375
1791103778191749600,5.44574951171875,-0.2412872314453125,-0.9737091064453125,0.03570556640625
1791103778201721600,5.4557216796875,-0.51483154296875,-0.917938232421875,-0.025360107421875
1791103778211693600,5.465693603515625,-0.585235595703125,-0.7401123046875,0.10150146484375
1791103778221665500,5.47566552734375,-0.3741455078125,-0.8739166259765625,0.02618408203125
1791103778231637500,5.485637451171875,-0.544219970703125,-0.45263671875,-0.0591583251953125
1791103778241608700,5.495608642578125,-0.478912353515625,-0.65069580078125,0.0029754638671875
1791103778251580400,5.505580322265625,-0.2784576416015625,-0.968292236328125,-0.0995941162109375
1791103778261552600,5.515552734375,-0.3892059326171875,-0.9524688720703125,-0.039459228515625
1791103778271524600,5.525524658203125,-0.2953338623046875,-0.8439483642578125,-0.1831512451171875
1791103778281496600,5.53549658203125,-0.8213653564453125,-0.7614288330078125,-0.170745849609375
1791103778291468500,5.545468505859375,-0.921722412109375,-0.8538818359375,-0.053070068359375
1791103778301440500,5.5554404296875,-0.283416748046875,-0.9243011474609375,0.049652099609375
1791103778311412500,5.56541259765625,-0.623748779296875,-1.06585693359375,0.016693115234375
1791103778321383400,5.575383544921875,-0.468292236328125,-1.082977294921875,0.1172332763671875
1791103778331355600,5.585355712890625,-0.4459075927734375,-0.885833740234375,0.2027740478515625
1791103778341327600,5.59532763671875,-0.32733154296875,-0.8540802001953125,-0.1596221923828125
1791103778351299600,5.605299560546875,-0.94610595703125,-0.5497894287109375,-0.0168609619140625
1791103778361272600,5.6152724609375,-0.1661529541015625,-0.91827392578125,0.089111328125
1791103778371244500,5.62524462890625,0.1454010009765625,-1.1051025390625,-0.039764404296875
1791103778381216500,5.635216552734375,-0.603607177734375,-0.74652099609375,-0.1096038818359375
1791103778391187700,5.645187744140625,-0.5710296630859375,-1.01611328125,0.011871337890625
1791103778401159400,5.655159423828125,-0.84716796875,-0.7542877197265625,-0.133941650390625
1791103778411131600,5.665131591796875,-0.3969573974609375,-0.8668975830078125,-0.2325897216796875
1791103778421103400,5.675103271484375,-0.4240570068359375,-0.90863037109375,-0.0300140380859375
1791103778431075600,5.68507568359375,-0.8141937255859375,-0.7404632568359375,-0.105743408203125
1791103778441047600,5.695047607421875,-1.1067962646484375,-0.731048583984375,-0.0999603271484375
1791103778451019500,5.70501953125,-0.133209228515625,-1.0518646240234375,-0.042510986328125
1791103778460991700,5.71499169921875,-0.3981475830078125,-1.4072113037109375,0.0572357177734375
1791103778470962400,5.72496240234375,-1.3753814697265625,-0.59320068359375,-0.07135009765625
1791103778480934700,5.7349345703125,-0.308074951171875,-1.0966949462890625,0.032440185546875
1791103778490906400,5.74490625,-0.0236053466796875,-0.830718994140625,-0.023406982421875
1791103778500878600,5.754878662109375,-0.588287353515625,-0.41558837890625,-0.15447998046875
1791103778510850600,5.7648505859375,-0.5062103271484375,-0.662109375,-0.0664825439453125
1791103778520822500,5.774822509765625,0.358367919921875,-1.4985504150390625,0.0493621826171875
1791103778530794500,5.78479443359375,-0.4144287109375,-0.9219818115234375,0.1350250244140625
1791103778540765400,5.794765380859375,-0.9485626220703125,-0.385040283203125,-0.207977294921875
1791103778550737700,5.804737548828125,-0.39923095703125,-0.7435760498046875,-0.0460968017578125
1791103778560709400,5.81470947265625,0.26751708984375,-1.132049560546875,0.1085662841796875
1791103778570681600,5.824681640625,-0.633575439453125,-0.7083892822265625,0.06097412109375
1791103778580653600,5.834653564453125,-0.554473876953125,-0.9287261962890625,-0.0701751708984375
1791103778590625500,5.84462548828125,-0.0985260009765625,-1.046966552734375,0.1593780517578125
1791103778600597500,5.854597412109375,-0.5017547607421875,-0.858306884765625,0.03802490234375
1791103778610568400,5.864568359375,-0.9228363037109375,-0.673126220703125,0.0355987548828125
1791103778620540700,5.874540771484375,-0.643798828125,-0.9788360595703125,-0.0086822509765625
1791103778630512400,5.884512451171875,-0.5698089599609375,-0.950531005859375,-0.1337890625
1791103778640484600,5.894484619140625,-0.377777099609375,-1.0579376220703125,-0.118377685546875
1791103778650456600,5.90445654296875,-0.325439453125,-1.1748504638671875,-0.1131134033203125
1791103778660428500,5.914428466796875,-0.37554931640625,-1.063018798828125,0.0264739990234375
1791103778670400500,5.924400390625,0.129547119140625,-0.862823486328125,-0.1667938232421875
1791103778680372500,5.93437255859375,-0.3139801025390625,-0.633270263671875,-0.184417724609375
1791103778690343700,5.94434375,-0.95989990234375,-0.700531005859375,-0.0524749755859375
1791103778700315400,5.9543154296875,-0.0455169677734375,-1.056793212890625,-0.1114654541015625
1791103778710287600,5.96428759765625,-0.2218170166015625,-1.02752685546875,-0.4879913330078125
1791103778720259600,5.974259521484375,-1.1676788330078125,-0.69317626953125,-0.127655029296875
1791103778730231600,5.9842314453125,-0.01422119140625,-1.2552947998046875,-0.0368499755859375
1791103778740203500,5.99420361328125,-0.5439605712890625,-0.9049530029296875,-0.2498931884765625
1791103778750175500,6.004175537109375,-0.985076904296875,-0.742034912109375,-0.20941162109375
1791103778760146700,6.014146728515625,-0.6095733642578125,-1.1246490478515625,0.1062164306640625
1791103778770118400,6.024118408203125,-0.0766448974609375,-1.0142822265625,-0.288665771484375
1791103778780090600,6.034090576171875,-1.3803863525390625,-0.581573486328125,-0.072174072265625
1791103778790062600,6.0440625,-0.0886383056640625,-1.255462646484375,0.0370941162109375
1791103778800034600,6.05403466796875,-0.6990203857421875,-0.5260467529296875,-0.1447601318359375
1791103778810006500,6.064006591796875,-0.2884521484375,-0.6815032958984375,-0.2802886962890625
1791103778819978500,6.073978515625,-0.05120849609375,-0.948516845703125,0.0772552490234375
1791103778829950500,6.083950439453125,-0.7058258056640625,-0.61956787109375,0.0373077392578125
1791103778839921400,6.09392138671875,-0.23907470703125,-0.892547607421875,-0.16668701171875
1791103778849893600,6.1038935546875,-0.292816162109375,-0.8866119384765625,0.0072479248046875
1791103778859865600,6.113865478515625,-0.750579833984375,-0.6452789306640625,-0.0955657958984375
1791103778869837600,6.123837646484375,-0.2375946044921875,-0.9065704345703125,-0.0941009521484375
1791103778879809500,6.1338095703125,-0.2687530517578125,-0.932861328125,-0.0170135498046875
1791103778889781500,6.143781494140625,-0.961151123046875,-0.7473907470703125,0.0619049072265625
1791103778899753500,6.15375341796875,-0.863739013671875,-0.535797119140625,0.1349945068359375
1791103778909724400,6.163724365234375,-0.61798095703125,-0.8681640625,0.0355682373046875
1791103778919696600,6.173696533203125,-0.7380218505859375,-0.973297119140625,-0.072998046875
1791103778929668600,6.183668701171875,-1.1612701416015625,-0.848968505859375,-0.102813720703125
1791103778939640600,6.193640625,-0.423675537109375,-1.15753173828125,-0.0890655517578125
1791103778949612500,6.203612548828125,-0.538604736328125,-1.072998046875,-0.3004150390625
1791103778959584500,6.21358447265625,-0.5757293701171875,-0.8363189697265625,-0.0738677978515625
1791103778969556500,6.223556396484375,-0.4732513427734375,-0.96002197265625,-0.172637939453125
1791103778979527400,6.23352734375,-0.105621337890625,-0.9831390380859375,-0.204925537109375
1791103778989499600,6.243499755859375,-0.5218963623046875,-0.6380615234375,-0.2923736572265625
1791103778999471600,6.2534716796875,-0.151641845703125,-0.66632080078125,-0.09698486328125
1791103779009443600,6.263443603515625,-0.0358734130859375,-1.0327911376953125,-0.26708984375
1791103779019415600,6.27341552734375,-0.718536376953125,-0.825439453125,-0.055145263671875
1791103779029387500,6.283387451171875,-0.3155975341796875,-1.0211944580078125,0.0280303955078125
1791103779039359500,6.293359375,-0.896728515625,-0.6827545166015625,0.002166748046875
1791103779049331700,6.303331787109375,-0.365081787109375,-1.11297607421875,-0.219696044921875
1791103779059302700,6.313302734375,-0.7022705078125,-0.76055908203125,-0.0767822265625
1791103779069274600,6.323274658203125,-0.3587646484375,-1.1094818115234375,-0.03973388671875
1791103779079246600,6.33324658203125,-0.68670654296875,-0.60430908203125,-0.3097686767578125
1791103779089218600,6.343218505859375,-0.0846099853515625,-1.151123046875,-0.152099609375
1791103779099190500,6.3531904296875,-0.435455322265625,-1.0395660400390625,-0.081787109375
1791103779109162500,6.36316259765625,-0.7850341796875,-0.7558746337890625,-0.0504150390625
1791103779119134700,6.373134765625,-0.048919677734375,-0.691558837890625,-0.1859893798828125
1791103779129105700,6.383105712890625,0.167999267578125,-0.6311187744140625,0.012939453125
1791103779139077600,6.39307763671875,-0.320556640625,-0.836029052734375,0.00213623046875
1791103779149049600,6.403049560546875,-0.4693603515625,-0.993743896484375,0.0943145751953125
1791103779159021600,6.413021484375,0.430206298828125,-1.3147735595703125,0.014251708984375
1791103779168993500,6.42299365234375,-1.3441009521484375,-0.186279296875,0.1490936279296875
1791103779178965500,6.432965576171875,-0.5355072021484375,-1.1613616943359375,0.2019195556640625
1791103779188937700,6.442937744140625,-0.282806396484375,-1.2668304443359375,-0.0608367919921875
1791103779198908700,6.45290869140625,-1.624755859375,-0.8856658935546875,0.0892486572265625
1791103779208880600,6.462880615234375,-0.98333740234375,-1.0546417236328125,0.21026611328125
1791103779218852600,6.4728525390625,-0.2907562255859375,-1.3538055419921875,-0.062713623046875
1791103779228824600,6.482824462890625,-1.2064666748046875,-0.2246246337890625,0.061187744140625
1791103779238796500,6.492796630859375,0.096405029296875,-1.1501312255859375,0.2705841064453125
1791103779248768500,6.5027685546875,0.11907958984375,-0.8743896484375,0.1464691162109375
1791103779258740700,6.51274072265625,-0.276214599609375,-0.6119537353515625,0.0231781005859375
1791103779268712400,6.52271240234375,-0.553375244140625,-0.645477294921875,0.0950927734375
1791103779278683600,6.53268359375,0.1723480224609375,-1.1205596923828125,0.052886962890625
1791103779288655600,6.542655517578125,-0.6487274169921875,-0.4214630126953125,-0.145355224609375
1791103779298627600,6.552627685546875,-0.898223876953125,-0.5989837646484375,-0.1544647216796875
1791103779308599600,6.562599609375,-0.0525665283203125,-1.3257598876953125,-0.18121337890625
1791103779318571500,6.572571533203125,-1.452911376953125,-0.7413330078125,-0.0496368408203125
1791103779328543700,6.582543701171875,-0.963134765625,-1.151336669921875,-0.3558349609375
1791103779338515500,6.592515380859375,-0.5889434814453125,-0.972015380859375,-0.20196533203125
1791103779348486700,6.602486572265625,-0.70111083984375,-0.78131103515625,0.013397216796875
1791103779358458600,6.612458740234375,-0.2702178955078125,-0.91162109375,-0.173583984375
1791103779368430300,6.622430419921875,0.074676513671875,-1.088470458984375,0.3392333984375
1791103779378402300,6.63240234375,0.0279083251953125,-0.588714599609375,-0.0289154052734375
1791103779388374300,6.642374267578125,-0.6528472900390625,-0.46209716796875,-0.170013427734375
1791103779398346500,6.652346435546875,-0.5382537841796875,-0.597747802734375,-0.0846099853515625
1791103779408318200,6.662318115234375,-0.1940155029296875,-0.967498779296875,-0.2148284912109375
1791103779418289400,6.672289306640625,-0.804046630859375,-0.7149810791015625,-0.1326446533203125
1791103779428261400,6.682261474609375,-0.1851348876953125,-1.32635498046875,-0.0678558349609375
1791103779438233300,6.6922333984375,-0.738433837890625,-0.81707763671875,-0.0699615478515625
1791103779448205300,6.702205322265625,-0.9684600830078125,-1.0156707763671875,-0.105499267578125
1791103779458177300,6.71217724609375,-0.4873046875,-0.8997802734375,0.0775146484375
1791103779468149500,6.7221494140625,-0.8783111572265625,-0.5326995849609375,0.0970458984375
1791103779478121200,6.732121337890625,-0.4762420654296875,-0.938995361328125,-0.0591278076171875
1791103779488092400,6.742092529296875,-0.2032318115234375,-0.9728546142578125,0.1019287109375
1791103779498064400,6.752064453125,-0.3142547607421875,-0.9949493408203125,0.104095458984375
1791103779508036400,6.762036376953125,-0.4211273193359375,-0.6464385986328125,-0.1152496337890625
1791103779518008300,6.77200830078125,-0.651702880859375,-0.7795867919921875,0.044921875
1791103779527980300,6.781980224609375,-0.7481231689453125,-0.89056396484375,0.012664794921875
1791103779537952500,6.791952392578125,-0.4787139892578125,-1.1245880126953125,-0.1436309814453125
1791103779547924200,6.80192431640625,-0.81048583984375,-0.879974365234375,-0.19232177734375
1791103779557895400,6.8118955078125,-0.2883758544921875,-1.174896240234375,-0.135162353515625
1791103779567867400,6.821867431640625,-0.45806884765625,-1.222747802734375,0.08551025390625
1791103779577839400,6.83183935546875,-0.4698944091796875,-0.7539825439453125,-0.082550048828125
1791103779587811300,6.841811279296875,-0.01202392578125,-1.003204345703125,0.1038818359375
1791103779597783300,6.851783203125,-0.23504638671875,-0.609161376953125,0.060791015625
1791103779607755500,6.861755615234375,-1.09814453125,-0.6106719970703125,0.1400604248046875
1791103779617727200,6.871727294921875,-0.087371826171875,-0.8482513427734375,-0.041656494140625
1791103779627699500,6.881699462890625,-0.096405029296875,-1.0950164794921875,-0.2306365966796875
1791103779637670400,6.89167041015625,-0.7726898193359375,-0.803741455078125,-0.122955322265625
1791103779647642400,6.901642333984375,0.0032806396484375,-1.4231719970703125,0.0306243896484375
1791103779657614300,6.9116142578125,-0.318939208984375,-0.9419097900390625,-0.014862060546875
1791103779667586300,6.92158642578125,-0.6955718994140625,-0.6934051513671875,-0.035675048828125
1791103779677558500,6.93155859375,-0.321075439453125,-0.8567352294921875,0.1089019775390625
1791103779687530200,6.9415302734375,-0.396484375,-1.0014801025390625,-0.061737060546875
1791103779697502500,6.95150244140625,-1.12701416015625,-0.89752197265625,-0.1208038330078125
1791103779707473200,6.96147314453125,-0.9006500244140625,-1.2618560791015625,0.0760650634765625
1791103779717445400,6.9714453125,-0.746490478515625,-1.486724853515625,-0.0720062255859375
1791103779727417300,6.981417236328125,-1.15496826171875,-0.9021759033203125,-0.2060394287109375
1791103779737389300,6.991389404296875,0.2388153076171875,-1.286529541015625,0.07635498046875
1791103779747361500,7.001361572265625,0.0849151611328125,-0.623016357421875,0.005615234375
1791103779757333200,7.011333251953125,0.279632568359375,-0.6252593994140625,-0.1543426513671875
1791103779767305500,7.021305419921875,0.2397918701171875,-0.651153564453125,-0.0875701904296875
1791103779777276200,7.031276123046875,0.02239990234375,-0.48040771484375,-0.193817138671875
1791103779787248400,7.041248291015625,-0.8830718994140625,-0.0954132080078125,-0.1148529052734375
1791103779797220400,7.051220458984375,-0.698944091796875,-0.6287994384765625,0.1363677978515625
1791103779807192300,7.0611923828125,-0.0378570556640625,-1.1895751953125,-0.08453369140625
1791103779817164500,7.07116455078125,-1.243621826171875,-0.7001190185546875,0.070556640625
1791103779827136300,7.08113623046875,-1.2498321533203125,-0.98876953125,0.1202545166015625
1791103779837108500,7.0911083984375,-0.09423828125,-1.5655517578125,-0.132354736328125
1791103779847079200,7.1010791015625,-2.2466888427734375,-0.236053466796875,-0.31536865234375
1791103779857051400,7.111051513671875,-0.0438995361328125,-1.328857421875,0.02093505859375
1791103779867023000,7.121023193359375,-0.638885498046875,-0.8702392578125,-0.1435546875
1791103779876995300,7.130995361328125,-0.505340576171875,-0.756256103515625,-0.0152435302734375
1791103779886967300,7.14096728515625,0.161407470703125,-0.8143157958984375,0.3001708984375
1791103779896939300,7.150939208984375,0.3599090576171875,-0.61865234375,-0.178375244140625
1791103779906911500,7.160911376953125,-0.041961669921875,-0.480316162109375,-0.138275146484375
1791103779916882200,7.170882080078125,-0.63641357421875,-0.687255859375,-0.0729827880859375
1791103779926854400,7.1808544921875,-1.0579376220703125,-1.0034942626953125,-0.200927734375
1791103779936826000,7.190826171875,-1.0504150390625,-1.1547393798828125,0.1174468994140625
1791103779946798300,7.20079833984375,-0.405731201171875,-1.267486572265625,0.1643829345703125
1791103779956770300,7.210770263671875,-1.0369110107421875,-0.8644256591796875,-0.2559051513671875
1791103779966742300,7.2207421875,-1.383636474609375,-0.63311767578125,-0.3651275634765625
1791103779976714500,7.230714599609375,-0.9189605712890625,-1.0792236328125,-0.22076416015625
1791103779986686200,7.240686279296875,-0.3809661865234375,-1.048828125,-0.227203369140625
1791103779996657400,7.250657470703125,-0.8110809326171875,-0.4491424560546875,-0.16937255859375
1791103780006629000,7.260629150390625,0.0337066650390625,-0.798187255859375,-0.012725830078125
1791103780016601300,7.270601318359375,0.6255950927734375,-1.093048095703125,-0.2513427734375
1791103780026573300,7.2805732421875,-0.28204345703125,-0.6270599365234375,-0.2413787841796875
1791103780036545300,7.290545166015625,-1.1484527587890625,-0.7002105712890625,0.12554931640625
1791103780046517200,7.300517333984375,-0.475433349609375,-0.6172943115234375,-0.112884521484375
1791103780056489200,7.3104892578125,0.0582733154296875,-0.640655517578125,-0.216522216796875
1791103780066460400,7.32046044921875,-0.6637420654296875,-0.429107666015625,0.0669708251953125
1791103780076432100,7.33043212890625,0.05035400390625,-1.452056884765625,0.02801513671875
1791103780086404400,7.340404296875,-0.50347900390625,-1.3254852294921875,-0.14752197265625
1791103780096376300,7.350376220703125,-0.918121337890625,-1.053619384765625,0.0335693359375
1791103780106348300,7.360348388671875,-1.094085693359375,-0.2651824951171875,-0.1592864990234375
1791103780116320300,7.3703203125,-0.1680145263671875,-0.5915985107421875,-0.2363433837890625
1791103780126292200,7.380292236328125,-0.5330810546875,-0.5900115966796875,0.0442962646484375
1791103780136263400,7.390263427734375,-0.07098388671875,-1.2337188720703125,0.032470703125
1791103780146235100,7.400235107421875,-0.3760986328125,-0.99853515625,-0.1266021728515625
1791103780156207400,7.410207275390625,-0.577728271484375,-0.7486724853515625,-0.055511474609375
1791103780166179300,7.420179443359375,-0.1973724365234375,-0.8648223876953125,0.0088653564453125
1791103780176151300,7.4301513671875,0.020294189453125,-0.8122100830078125,-0.09283447265625
1791103780186123300,7.440123291015625,-0.5021820068359375,-0.709625244140625,-0.01470947265625
1791103780196095200,7.45009521484375,-0.344268798828125,-1.2241668701171875,0.0305328369140625
1791103780206066400,7.46006640625,-0.1678466796875,-1.335418701171875,0.0446319580078125
1791103780216038100,7.4700380859375,-0.8159942626953125,-0.9159088134765625,0.174774169921875
1791103780226010400,7.48001025390625,-0.8503875732421875,-0.8571624755859375,0.348297119140625
1791103780235982300,7.489982421875,-0.365325927734375,-0.6966400146484375,0.3014373779296875
1791103780245954300,7.499954345703125,-0.755584716796875,-0.844970703125,0.3049163818359375
1791103780255926300,7.50992626953125,-0.162445068359375,-1.112274169921875,0.21014404296875
1791103780265898200,7.519898193359375,-0.340850830078125,-0.940032958984375,0.1311798095703125
1791103780275869400,7.529869384765625,-0.28131103515625,-0.8094482421875,-0.0966339111328125
1791103780285841200,7.539841064453125,-0.5092315673828125,-0.854705810546875,-0.027923583984375
1791103780295813400,7.5498134765625,-0.362457275390625,-0.750885009765625,-0.027984619140625
1791103780305785300,7.559785400390625,-0.7391815185546875,-0.8043060302734375,-0.1450347900390625
1791103780315757300,7.56975732421875,-0.8144073486328125,-0.882080078125,-0.13641357421875
1791103780325729300,7.579729248046875,-0.8227996826171875,-1.0945281982421875,-0.0411376953125
1791103780335701200,7.589701171875,-0.99957275390625,-0.99224853515625,-0.2310791015625
1791103780345672400,7.59967236328125,-0.790069580078125,-0.9384613037109375,-0.255401611328125
1791103780355644200,7.60964404296875,-0.510040283203125,-1.058624267578125,-0.1295623779296875
1791103780365615900,7.619615966796875,-1.0684356689453125,-0.749542236328125,-0.0631103515625
1791103780375587800,7.629587890625,-0.55908203125,-0.9631805419921875,-0.211761474609375
1791103780385559800,7.639559814453125,-0.7378387451171875,-0.5929718017578125,0.0479736328125
1791103780395531800,7.64953173828125,0.3455352783203125,-1.465057373046875,-0.260162353515625
1791103780405503700,7.659503662109375,-0.8779449462890625,-1.0075225830078125,0.0073089599609375
1791103780415475000,7.669474853515625,0.3961029052734375,-1.3879547119140625,-0.0548553466796875
1791103780425446700,7.67944677734375,-0.70220947265625,-0.3570709228515625,-0.2641143798828125
1791103780435419000,7.6894189453125,-0.614593505859375,-0.0960235595703125,-0.264312744140625
1791103780445390800,7.699390869140625,-0.0757293701171875,-0.5825347900390625,0.0600128173828125
1791103780455362800,7.70936279296875,0.0883941650390625,-0.9460601806640625,-0.071136474609375
1791103780465334800,7.719334716796875,-0.8746795654296875,-0.90130615234375,-0.128265380859375
1791103780475306800,7.729306640625,-0.60394287109375,-0.78619384765625,0.0465850830078125
1791103780485278700,7.73927880859375,-0.7381439208984375,-0.94927978515625,-0.036468505859375
1791103780495249700,7.749249755859375,-0.8444976806640625,-0.8035430908203125,-0.0950164794921875
1791103780505222000,7.759221923828125,-0.1615447998046875,-1.2761383056640625,-0.0514373779296875
1791103780515193900,7.76919384765625,-0.651397705078125,-0.5889892578125,-0.033447265625
1791103780525165800,7.779165771484375,-0.4349365234375,-0.748748779296875,-0.0547332763671875
1791103780535137800,7.7891376953125,-0.1078643798828125,-0.761322021484375,0.1639862060546875
1791103780545109800,7.79910986328125,0.3092041015625,-0.845916748046875,0.1693572998046875
1791103780555081000,7.8090810546875,-1.2189178466796875,-0.843231201171875,-0.036163330078125
1791103780565052700,7.819052734375,-0.8881072998046875,-1.0732879638671875,0.223846435546875
1791103780575025000,7.82902490234375,-0.05810546875,-1.56048583984375,-0.02606201171875
1791103780584996900,7.838996826171875,-1.5658111572265625,-0.6976776123046875,-0.072052001953125
1791103780594968800,7.84896875,-0.8137664794921875,-1.233612060546875,0.1155242919921875
1791103780604940800,7.85894091796875,-0.4592437744140625,-1.1820526123046875,0.1566925048828125
1791103780614912800,7.868912841796875,-0.3894805908203125,-1.09539794921875,-0.025390625
1791103780624884000,7.878884033203125,0.3532562255859375,-1.2146759033203125,-0.019073486328125
1791103780634855700,7.888855712890625,-0.175628662109375,-0.7887725830078125,-0.0172119140625
1791103780644828000,7.898827880859375,-0.3110504150390625,-0.5994415283203125,-0.0167083740234375
1791103780654800000,7.9087998046875,-0.59967041015625,-0.80322265625,0.128448486328125
1791103780664771800,7.918771728515625,-1.1545257568359375,-0.497711181640625,0.085174560546875
1791103780674743800,7.928743896484375,-0.7897796630859375,-0.9183197021484375,-0.067535400390625
1791103780684715800,7.9387158203125,-0.3224945068359375,-1.058197021484375,-0.1671142578125
1791103780694687700,7.948687744140625,-0.4381561279296875,-1.0626678466796875,-0.2301177978515625
1791103780704658700,7.95865869140625,-0.202484130859375,-1.04412841796875,0.065643310546875
1791103780714631000,7.968630859375,-0.50396728515625,-0.87664794921875,-0.103485107421875
1791103780724603000,7.978602783203125,-0.0873870849609375,-0.57537841796875,0.1271209716796875
1791103780734574800,7.988574951171875,0.0980682373046875,-0.67132568359375,0.2071685791015625
1791103780744546800,7.998546875,-0.6160125732421875,-0.55133056640625,0.07659912109375
1791103780754518800,8.008518798828124,-0.2183685302734375,-0.934783935546875,0.005462646484375
1791103780764490800,8.01849072265625,-0.4578704833984375,-0.6561279296875,-0.0229644775390625
1791103780774461700,8.028461669921874,-0.6260986328125,-0.863189697265625,-0.227081298828125
1791103780784434000,8.038433837890626,-1.1876220703125,-0.2656707763671875,-0.063323974609375
1791103780794406000,8.048406005859375,-0.007843017578125,-1.22186279296875,-0.1445159912109375
1791103780804377900,8.0583779296875,-0.4206695556640625,-1.35833740234375,-0.1578369140625
1791103780814349800,8.068349853515626,0.22845458984375,-2.145751953125,-0.0665130615234375
1791103780824321800,8.07832177734375,-0.9813690185546875,-1.0181427001953125,-0.1370086669921875
1791103780834293800,8.088293701171875,-1.5928497314453125,0.150238037109375,-0.1887359619140625
1791103780844264700,8.0982646484375,0.067413330078125,-0.72589111328125,-0.2214508056640625
1791103780854237000,8.10823681640625,0.0557098388671875,-1.26348876953125,-0.16583251953125
1791103780864209000,8.118208984375,-0.6225738525390625,-1.17095947265625,-0.27508544921875
1791103780874180900,8.128180908203126,-1.05462646484375,-0.486358642578125,-0.1089630126953125
1791103780884152800,8.13815283203125,-0.050567626953125,-1.0510101318359375,0.0252227783203125
1791103780894124800,8.148124755859374,-0.461273193359375,-0.636749267578125,-0.132476806640625
1791103780904096800,8.1580966796875,-0.1543426513671875,-1.0430755615234375,-0.1486968994140625
1791103780914067700,8.168067626953125,-0.1699981689453125,-0.912750244140625,-0.1764678955078125
1791103780924040000,8.1780400390625,-0.738067626953125,-0.6115875244140625,0.0992431640625
1791103780934012000,8.188011962890625,-1.0328521728515625,-0.501434326171875,-0.0177764892578125
1791103780943983900,8.19798388671875,-0.4967193603515625,-1.054351806640625,0.1424407958984375
1791103780953955800,8.207955810546874,-1.17425537109375,-0.8243865966796875,-0.00311279296875
1791103780963927800,8.217927734375,-1.080078125,-0.82183837890625,-0.039459228515625
1791103780973899800,8.227899658203125,-0.3089141845703125,-1.109375,-0.0742645263671875
1791103780983870700,8.23787060546875,0.0587005615234375,-0.9444122314453125,0.13818359375
1791103780993843000,8.247843017578125,-0.1548309326171875,-0.577423095703125,-0.01708984375
1791103781003815000,8.25781494140625,-0.670013427734375,-0.688873291015625,0.1644287109375
1791103781013787000,8.267786865234376,-0.67169189453125,-0.844635009765625,0.13665771484375
1791103781023758800,8.2777587890625,-0.248931884765625,-0.89398193359375,-0.207855224609375
1791103781033730800,8.287730712890625,-0.2632904052734375,-0.528106689453125,-0.1475067138671875
1791103781043702800,8.297702880859376,-0.4268035888671875,-0.6979217529296875,-0.22955322265625
1791103781053673700,8.307673828125,-0.840301513671875,-0.895721435546875,-0.1326141357421875
1791103781063646000,8.31764599609375,-0.4556121826171875,-1.1093597412109375,-0.123199462890625
1791103781073618000,8.327617919921876,-0.86785888671875,-0.7194976806640625,-0.0428924560546875
1791103781083590000,8.33758984375,-0.56298828125,-0.929656982421875,-0.0207977294921875
1791103781093561900,8.347561767578124,-0.34246826171875,-0.8469390869140625,-0.0305328369140625
1791103781103533800,8.357533935546876,-0.5951385498046875,-0.682586669921875,-0.019775390625
1791103781113505800,8.367505859375,-0.0880126953125,-1.0199432373046875,-0.0738372802734375
1791103781123476700,8.377476806640624,0.1021881103515625,-1.1965179443359375,0.0459442138671875
1791103781133449000,8.387448974609375,-0.6690673828125,-0.9315338134765625,0.1547393798828125
1791103781143421000,8.3974208984375,-1.2129058837890625,-0.8974151611328125,0.2194366455078125
1791103781153393000,8.407392822265624,-0.694915771484375,-1.0465240478515625,0.0341949462890625
1791103781163364900,8.41736474609375,-0.8448486328125,-0.78265380859375,0.077850341796875
1791103781173336800,8.4273369140625,-1.01483154296875,-0.8878173828125,0.0113677978515625
1791103781183308800,8.437308837890624,-0.07415771484375,-1.239715576171875,-0.07257080078125
1791103781193279700,8.44727978515625,-0.3224945068359375,-1.0267791748046875,0.2193145751953125
1791103781203251700,8.457251708984375,-0.0972900390625,-0.9683074951171875,0.065887451171875
1791103781213224000,8.467223876953126,0.2802734375,-1.2065277099609375,0.023651123046875
1791103781223196000,8.47719580078125,-0.01922607421875,-0.6787261962890625,0.188812255859375
1791103781233168000,8.48716796875,-0.7071075439453125,-0.486572265625,0.134674072265625
1791103781243139800,8.497139892578126,-0.66131591796875,-0.588653564453125,0.02960205078125
1791103781253111800,8.50711181640625,-0.0918121337890625,-1.03717041015625,-0.1025390625
1791103781263082800,8.517082763671874,-0.4571533203125,-0.73724365234375,-0.0551910400390625
1791103781273054700,8.5270546875,-0.6263427734375,-0.7620391845703125,-0.205535888671875
1791103781283027000,8.53702685546875,-0.49688720703125,-0.9439239501953125,-0.11676025390625
1791103781292999000,8.5469990234375,-0.3740997314453125,-0.969573974609375,0.0006561279296875
1791103781302971000,8.556970947265626,-0.92626953125,-0.7089691162109375,-0.0704345703125
1791103781312942800,8.56694287109375,-0.806427001953125,-0.808990478515625,-0.110382080078125
1791103781322914800,8.576914794921874,-0.8246612548828125,-0.84808349609375,-0.0013580322265625
1791103781332885800,8.5868857421875,-0.981964111328125,-0.8846282958984375,-0.217620849609375
1791103781342857700,8.596857666015625,-0.526092529296875,-1.1492462158203125,-0.155975341796875
1791103781352830000,8.606829833984374,-0.444305419921875,-0.93524169921875,0.0918426513671875
1791103781362802200,8.61680224609375,-0.100738525390625,-0.8582000732421875,-0.037872314453125
1791103781372774100,8.626774169921875,-0.27447509765625,-0.6278839111328125,-0.0788421630859375
1791103781382746000,8.63674609375,-0.4985198974609375,-0.807220458984375,-0.08587646484375
1791103781392718000,8.646718017578126,-0.0109100341796875,-0.7012176513671875,0.0115966796875
1791103781402689300,8.656689208984375,-0.155517578125,-0.73211669921875,-0.46142578125
1791103781412661000,8.666660888671874,-1.006927490234375,-0.7545013427734375,-0.1795196533203125
1791103781422633200,8.67663330078125,-0.36865234375,-0.90838623046875,-0.0718231201171875
1791103781432605200,8.686605224609375,-0.6204986572265625,-1.001251220703125,-0.2406158447265625
1791103781442577200,8.6965771484375,-1.1687774658203125,-0.9699554443359375,-0.310394287109375
1791103781452549000,8.706549072265625,-0.886322021484375,-1.0811614990234375,-0.2018585205078125
1791103781462521000,8.71652099609375,-0.875732421875,-0.8275909423828125,-0.1834716796875
1791103781472492300,8.7264921875,-0.3199005126953125,-1.36383056640625,-0.2416839599609375
1791103781482464000,8.736464111328125,-0.2920684814453125,-0.8659820556640625,0.059173583984375
1791103781492436200,8.746436279296875,-0.25140380859375,-0.7403564453125,-0.1431884765625
1791103781502408200,8.756408203125,0.276580810546875,-0.7977294921875,-0.108978271484375
1791103781512380200,8.766380126953125,-0.14324951171875,-0.337921142578125,0.0854034423828125
1791103781522352000,8.77635205078125,-1.106719970703125,-0.1298828125,0.0628662109375
1791103781532324000,8.786323974609376,-0.5410919189453125,-0.8035430908203125,0.0788116455078125
1791103781542295300,8.79629541015625,-0.500274658203125,-0.9982147216796875,0.060028076171875
1791103781552267000,8.80626708984375,-0.974334716796875,-0.8224029541015625,0.049835205078125
1791103781562239200,8.8162392578125,-1.0338287353515625,-0.89727783203125,-0.1134796142578125
1791103781572211200,8.826211181640625,-0.20806884765625,-1.367095947265625,-0.1824493408203125
1791103781582183200,8.83618310546875,-0.885467529296875,-0.98614501953125,-0.02484130859375
1791103781592155100,8.846155029296876,-0.02764892578125,-1.276580810546875,-0.0442962646484375
1791103781602127000,8.856127197265625,0.101593017578125,-0.898956298828125,0.0434112548828125
1791103781612098300,8.866098388671874,-0.49456787109375,-0.387939453125,0.204620361328125
1791103781622070000,8.876070068359375,-0.2759857177734375,-0.4441375732421875,0.15960693359375
1791103781632042200,8.886042236328125,-0.298583984375,-0.757965087890625,0.0258026123046875
1791103781642014200,8.89601416015625,-0.9408416748046875,-0.5102691650390625,-0.02947998046875
1791103781651986200,8.905986083984375,-0.412261962890625,-1.07708740234375,-0.08807373046875
1791103781661958100,8.915958251953125,-0.6896209716796875,-1.2428131103515625,-0.3640289306640625
1791103781671930000,8.92593017578125,-1.221405029296875,-1.1664886474609375,-0.1353912353515625
1791103781681901300,8.9359013671875,-0.3976898193359375,-1.40777587890625,-0.1680755615234375
1791103781691873000,8.945873046875,-0.68634033203125,-0.739471435546875,-0.22711181640625
1791103781701845200,8.95584521484375,-0.4644622802734375,-0.96185302734375,-0.046356201171875
1791103781711817200,8.965817138671875,-0.02947998046875,-0.776641845703125,-0.0328521728515625
1791103781721789200,8.9757890625,0.936279296875,-0.7907562255859375,-0.1400146484375
1791103781731761200,8.98576123046875,-0.49853515625,-0.5018310546875,-0.5084228515625
1791103781741732000,8.995732177734375,-1.0460662841796875,-0.8190765380859375,0.251220703125
1791103781751704300,9.005704345703125,-0.7594146728515625,-1.08905029296875,-0.0339202880859375
1791103781761676000,9.015676025390626,-0.7643585205078125,-0.7254791259765625,-0.2996978759765625
1791103781771648300,9.025648193359375,-0.2038116455078125,-0.76068115234375,0.0657501220703125
1791103781781620200,9.0356201171875,-0.3585662841796875,-0.744232177734375,-0.0185546875
1791103781791592200,9.04559228515625,-1.08111572265625,-1.014495849609375,-0.0467071533203125
1791103781801564200,9.055564208984375,-1.3692626953125,-1.0415191650390625,0.094146728515625
1791103781811535000,9.06553515625,-0.3045654296875,-1.3168487548828125,0.0702972412109375
1791103781821507300,9.07550732421875,-0.5412139892578125,-0.975311279296875,-0.172332763671875
1791103781831479000,9.08547900390625,-0.551788330078125,-0.9020843505859375,0.1738739013671875
1791103781841451300,9.095451171875,-0.6202850341796875,-0.7133636474609375,-0.060546875
1791103781851423200,9.10542333984375,-0.1729583740234375,-0.35845947265625,0.0317230224609375
1791103781861395200,9.115395263671875,0.4523773193359375,-0.577056884765625,0.0290069580078125
1791103781871367200,9.1253671875,0.1511688232421875,-0.6374053955078125,-0.012908935546875
1791103781881338000,9.135338134765625,-1.2508392333984375,-0.7292633056640625,-0.1907958984375
1791103781891310300,9.145310302734375,-1.2059478759765625,-0.923583984375,0.2232513427734375
1791103781901282000,9.155281982421876,-0.1131134033203125,-1.2758941650390625,-0.2767181396484375
1791103781911254300,9.165254150390625,-0.7488250732421875,-0.8420257568359375,-0.209869384765625
1791103781921226200,9.175226318359375,-0.8037567138671875,-0.7827606201171875,-0.01373291015625
1791103781931198200,9.1851982421875,-0.5207061767578125,-1.2808380126953125,-0.1739501953125
1791103781941170200,9.195170166015625,-1.005126953125,-1.090606689453125,-0.105377197265625
1791103781951141000,9.20514111328125,-0.1832427978515625,-0.8223876953125,-0.0411834716796875
1791103781961113000,9.215113037109376,-0.930633544921875,-0.1904449462890625,0.0110015869140625
1791103781971085000,9.2250849609375,0.5949554443359375,-1.304107666015625,-0.143798828125
1791103781981057300,9.235057373046875,-0.2715301513671875,-0.901153564453125,0.011138916015625
1791103781991029200,9.245029296875,-0.124786376953125,-1.11883544921875,-0.082061767578125
1791103782001001200,9.255001220703125,-1.0953216552734375,-0.3967437744140625,-0.1497039794921875
1791103782010973200,9.26497314453125,-0.9195709228515625,-0.66015625,-0.00994873046875
1791103782020944100,9.274944091796876,-0.151336669921875,-0.7564849853515625,-0.137664794921875
1791103782030916000,9.284916015625,-0.7713165283203125,-0.8962249755859375,-0.1676788330078125
1791103782040888000,9.29488818359375,-0.7855377197265625,-1.1389617919921875,0.19439697265625
1791103782050860300,9.3048603515625,-0.3164215087890625,-1.2765960693359375,-0.0940093994140625
1791103782060832300,9.314832275390625,-1.283447265625,-0.67913818359375,-0.187347412109375
1791103782070804200,9.32480419921875,-0.155609130859375,-1.1647796630859375,-0.1558074951171875
1791103782080776200,9.334776123046876,0.2234649658203125,-1.080230712890625,-0.0550537109375
1791103782090747100,9.3447470703125,-0.7211456298828125,-0.4769287109375,-0.195068359375
1791103782100719000,9.354718994140624,-0.8837127685546875,-0.6671905517578125,-0.0981292724609375
1791103782110691000,9.364691162109375,-0.371917724609375,-0.6864471435546875,0.0228424072265625
1791103782120663000,9.3746630859375,-0.57012939453125,-0.6743927001953125,-0.0411834716796875
1791103782130635300,9.38463525390625,-1.0785980224609375,-0.510284423828125,0.0455322265625
1791103782140607200,9.394607177734375,-0.73944091796875,-1.10498046875,0.0607452392578125
1791103782150579200,9.4045791015625,-0.114501953125,-1.2430267333984375,0.052093505859375
1791103782160550100,9.414550048828126,-0.6637725830078125,-1.0448455810546875,-0.203826904296875
1791103782170522000,9.424522216796875,-0.47442626953125,-0.883270263671875,-0.1347198486328125
1791103782180494000,9.434494140625,0.088470458984375,-0.7663116455078125,0.049530029296875
1791103782190466000,9.444466064453126,-0.09356689453125,-0.5441741943359375,0.1526641845703125
1791103782200438300,9.454438232421875,-0.3704376220703125,-0.56475830078125,0.117401123046875
1791103782210410200,9.46441015625,-0.4145050048828125,-0.78466796875,0.269256591796875
1791103782220382200,9.47438232421875,-0.181243896484375,-0.9712677001953125,-0.0257720947265625
1791103782230353200,9.484353271484375,-0.6985626220703125,-1.006256103515625,-0.082550048828125
1791103782240325000,9.4943251953125,-1.0639801025390625,-0.8181915283203125,0.066253662109375
1791103782250297000,9.504297119140626,-0.7506103515625,-1.0073089599609375,-0.002166748046875
1791103782260269000,9.51426904296875,-1.053985595703125,-0.814422607421875,-0.138214111328125
1791103782270241300,9.5242412109375,-0.5826873779296875,-1.1076812744140625,-0.00860595703125
1791103782280213000,9.534212890625,-0.5709686279296875,-0.9138946533203125,-0.0107269287109375
1791103782290185200,9.544185302734375,-0.028289794921875,-1.023162841796875,-0.0899658203125
1791103782300156200,9.55415625,-0.508758544921875,-0.72381591796875,-0.0659027099609375
1791103782310128000,9.564128173828125,-0.70428466796875,-0.8094635009765625,0.0578460693359375
1791103782320100400,9.574100341796875,-0.137603759765625,-0.741119384765625,0.05078125
1791103782330072000,9.584072021484374,-0.209320068359375,-1.142608642578125,-0.108642578125
1791103782340044300,9.594044189453125,-0.5861968994140625,-0.9647674560546875,-0.0045928955078125
1791103782350016000,9.60401611328125,-1.30999755859375,-0.893585205078125,0.0391998291015625
1791103782359987200,9.6139873046875,-0.511993408203125,-1.0052642822265625,0.059478759765625
1791103782369959200,9.623959228515625,-0.8497772216796875,-0.8904571533203125,-0.1147613525390625
1791103782379931100,9.63393115234375,-0.3614654541015625,-0.875213623046875,-0.194427490234375
1791103782389903400,9.6439033203125,-0.786346435546875,-0.5924835205078125,0.0072021484375
1791103782399875000,9.653875,-0.002471923828125,-1.109161376953125,-0.0514678955078125
1791103782409847300,9.663847412109375,-0.73211669921875,-0.7358856201171875,0.055694580078125
1791103782419819000,9.673819091796876,-0.31939697265625,-0.8638458251953125,0.2240142822265625
1791103782429790200,9.683790283203125,0.0294036865234375,-0.5777130126953125,0.057403564453125
1791103782439762200,9.69376220703125,-0.963531494140625,-0.491790771484375,0.07965087890625
1791103782449734100,9.703734130859376,-1.0073089599609375,-0.5244140625,0.1829681396484375
1791103782459706400,9.713706298828125,-0.2778778076171875,-0.9982452392578125,-0.0323944091796875
1791103782469678000,9.723677978515624,-0.6829071044921875,-0.775299072265625,-0.1230010986328125
1791103782479650300,9.733650390625,-0.7722015380859375,-0.7967987060546875,-0.0481109619140625
1791103782489622000,9.7436220703125,-0.619140625,-0.7835235595703125,-0.126068115234375
1791103782499593200,9.75359326171875,-0.5505218505859375,-0.7322540283203125,-0.1123199462890625
1791103782509565200,9.763565185546875,-0.4191436767578125,-0.7186737060546875,-0.04632568359375
1791103782519537200,9.773537109375,-0.20001220703125,-0.91204833984375,-0.0036468505859375
1791103782529509400,9.78350927734375,-0.54315185546875,-0.8218536376953125,0.0471954345703125
1791103782539481000,9.793481201171875,-0.176177978515625,-0.9288482666015625,0.0092926025390625
1791103782549453300,9.803453369140625,-1.0875244140625,-0.5827484130859375,0.0123443603515625
1791103782559425000,9.813425048828124,-0.36602783203125,-1.0336456298828125,-0.0265960693359375
1791103782569396200,9.823396240234375,-0.2870330810546875,-0.9780120849609375,-0.0933685302734375
1791103782579368200,9.8333681640625,-0.7009429931640625,-0.87060546875,-0.2441253662109375
1791103782589340200,9.843340087890626,-0.686798095703125,-0.890533447265625,-0.21630859375
1791103782599312400,9.8533125,-0.3406524658203125,-0.9735260009765625,-0.23779296875
1791103782609284000,9.8632841796875,0.2159576416015625,-1.1960601806640625,-0.2509613037109375
1791103782619256300,9.87325634765625,-0.95379638671875,-0.736480712890625,-0.23468017578125
1791103782629228000,9.88322802734375,-0.305084228515625,-1.095245361328125,-0.0047149658203125
1791103782639199200,9.89319921875,-0.393402099609375,-1.0624542236328125,-0.084991455078125
1791103782649171200,9.903171142578126,-0.6615447998046875,-0.9182281494140625,0.020843505859375
1791103782659143200,9.91314306640625,-1.047882080078125,-0.69232177734375,0.1769866943359375
1791103782669115400,9.923115478515625,-0.507293701171875,-1.0346832275390625,0.1347503662109375
1791103782679087000,9.933087158203126,-0.0437164306640625,-1.258697509765625,0.1829833984375
1791103782689059300,9.943059326171875,-0.90576171875,-0.649261474609375,0.1420745849609375
1791103782699030300,9.9530302734375,-1.0383453369140625,-0.648101806640625,0.178619384765625
1791103782709002200,9.963002197265626,-0.082183837890625,-0.914581298828125,0.0122222900390625
1791103782718974200,9.97297412109375,-0.1826324462890625,-0.7149658203125,-0.0087127685546875
1791103782728946200,9.9829462890625,-0.92626953125,-0.29498291015625,-0.06378173828125
1791103782738918400,9.99291845703125,-0.586578369140625,-0.8148345947265625,0.0614166259765625
1791103782748890000,10.00289013671875,-0.3301239013671875,-1.0546875,-0.0406494140625
1791103782758862300,10.0128623046875,-0.3433380126953125,-1.0037689208984375,-0.1509552001953125
1791103782768833300,10.022833251953125,-1.1632537841796875,-0.56842041015625,-0.196197509765625
1791103782778805200,10.03280517578125,-0.598236083984375,-0.97674560546875,-0.1302032470703125
1791103782788777200,10.042777099609374,-0.3971710205078125,-0.928619384765625,-0.1923370361328125
1791103782798749200,10.052749267578125,-0.6447601318359375,-0.7838592529296875,-0.334075927734375
1791103782808721400,10.062721435546875,-0.60394287109375,-0.881134033203125,-0.0887908935546875
1791103782818693000,10.072693115234374,-0.30975341796875,-1.031524658203125,-0.1536407470703125
1791103782828665300,10.082665283203125,-0.2702178955078125,-0.8713226318359375,-0.217620849609375
1791103782838636000,10.092635986328125,-0.496337890625,-0.7014007568359375,-0.1646575927734375
1791103782848608300,10.102608154296876,-0.3618011474609375,-0.90789794921875,-0.1861114501953125
1791103782858580200,10.112580322265625,-0.3421783447265625,-0.8880615234375,-0.146209716796875
1791103782868552200,10.12255224609375,-0.2531585693359375,-0.8748779296875,-0.0436248779296875
1791103782878524400,10.1325244140625,-0.78411865234375,-0.5285186767578125,0.0851593017578125
1791103782888496000,10.14249609375,-0.1395111083984375,-0.92596435546875,0.025482177734375
1791103782898468400,10.15246826171875,-0.1399078369140625,-1.2464752197265625,0.0708770751953125
1791103782908439000,10.16243896484375,-1.0994110107421875,-0.7800140380859375,0.0536956787109375
1791103782918411300,10.172411376953125,-0.3588104248046875,-1.2422332763671875,-0.0527191162109375
1791103782928383200,10.18238330078125,-0.6551666259765625,-1.073150634765625,0.004119873046875
1791103782938355200,10.192355224609376,-0.122406005859375,-0.91632080078125,0.074676513671875
1791103782948327400,10.202327392578125,-0.7677001953125,-0.3684844970703125,0.0635833740234375
1791103782958299100,10.212299072265624,-0.1624603271484375,-0.962005615234375,0.0872650146484375
1791103782968271400,10.222271240234376,-0.27777099609375,-0.8778228759765625,0.06146240234375
1791103782978242000,10.232241943359375,-0.617340087890625,-0.661407470703125,-0.1182098388671875
1791103782988214300,10.24221435546875,0.02020263671875,-1.0613861083984375,-0.2140045166015625
1791103782998186000,10.25218603515625,-0.6419219970703125,-0.8175201416015625,-0.211090087890625
1791103783008158200,10.262158203125,-0.6655426025390625,-0.6911163330078125,-0.0953216552734375
1791103783018130200,10.272130126953124,-0.28497314453125,-0.948699951171875,-0.166748046875
1791103783028102100,10.28210205078125,-0.646820068359375,-0.7709808349609375,-0.15435791015625
1791103783038073300,10.2920732421875,-0.2516937255859375,-0.5401153564453125,-0.07183837890625
1791103783048045000,10.302045166015626,-0.9423675537109375,-0.6280517578125,-0.0729827880859375
1791103783058017300,10.312017333984375,-0.5478668212890625,-1.102691650390625,-0.1607208251953125
1791103783067989000,10.321989013671875,-0.8713531494140625,-1.1723785400390625,-0.072906494140625
1791103783077961200,10.331961181640626,-0.9112548828125,-1.035491943359375,-0.0403594970703125
1791103783087933200,10.34193310546875,-1.259735107421875,-1.1186981201171875,-0.0250091552734375
1791103783097905200,10.3519052734375,-0.610748291015625,-1.25445556640625,0.072052001953125
1791103783107876400,10.36187646484375,-1.098663330078125,-0.7386932373046875,0.096923828125
1791103783117848000,10.37184814453125,0.0308837890625,-0.857086181640625,0.1715240478515625
1791103783127820300,10.3818203125,0.3284149169921875,-0.899993896484375,-0.0182647705078125
1791103783137792000,10.3917919921875,-0.018768310546875,-0.7069854736328125,0.036346435546875
1791103783147764200,10.40176416015625,-0.30108642578125,-0.62957763671875,0.2018890380859375
1791103783157736200,10.411736083984374,-1.2694549560546875,-0.6781158447265625,0.1340179443359375
1791103783167708200,10.421708251953126,-0.4229278564453125,-1.130828857421875,0.047607421875
1791103783177679400,10.431679443359375,-0.5355987548828125,-0.822021484375,-0.0173187255859375
1791103783187651000,10.441651123046874,-0.15386962890625,-0.6822357177734375,-0.12152099609375
1791103783197623300,10.451623291015625,-0.8295745849609375,-0.548309326171875,-0.19598388671875
1791103783207595000,10.461594970703125,0.1060028076171875,-1.132843017578125,-0.064239501953125
1791103783217567200,10.471567138671874,-0.3050689697265625,-0.892425537109375,-0.164581298828125
1791103783227539200,10.481539306640625,-0.415374755859375,-0.58087158203125,-0.0375213623046875
1791103783237511200,10.49151123046875,-0.2403106689453125,-0.8037872314453125,0.052886962890625
1791103783247482400,10.501482421875,-0.9819793701171875,-0.521636962890625,-0.0452423095703125
1791103783257454000,10.5114541015625,-0.6867828369140625,-0.839111328125,-0.064239501953125
1791103783267426300,10.52142626953125,-0.6545867919921875,-0.9786224365234375,-0.1491546630859375
1791103783277398000,10.53139794921875,-1.1363677978515625,-0.85504150390625,-0.3001251220703125
1791103783287370200,10.541370361328125,-0.77178955078125,-0.9332275390625,-0.1202545166015625
1791103783297342200,10.55134228515625,-0.4597930908203125,-0.907440185546875,-0.063323974609375
1791103783307313200,10.561313232421876,-0.624542236328125,-0.928070068359375,-0.22705078125
1791103783317285400,10.571285400390625,-0.276153564453125,-0.8915252685546875,0.0164642333984375
1791103783327257000,10.581257080078124,-0.653778076171875,-0.746185302734375,-0.0052947998046875
1791103783337229300,10.591229248046876,0.08990478515625,-0.988494873046875,0.0221405029296875
1791103783347201000,10.601200927734375,-0.055572509765625,-0.987274169921875,0.072235107421875
1791103783357173200,10.61117333984375,-0.193206787109375,-0.9244384765625,-0.049346923828125
1791103783367144700,10.621144775390626,0.0750885009765625,-1.120635986328125,-0.1447906494140625
1791103783377115600,10.63111572265625,-0.646820068359375,-0.9064788818359375,-0.08660888671875
1791103783387088000,10.641087890625,-0.1509857177734375,-1.2129058837890625,-0.118804931640625
1791103783397059800,10.651059814453125,-1.1031036376953125,-0.7404327392578125,-0.1701507568359375
1791103783407031800,10.66103173828125,-0.5869140625,-0.9394073486328125,-0.1730804443359375
1791103783417003800,10.671003662109374,-1.0381011962890625,-0.7529754638671875,-0.138641357421875
1791103783426975700,10.680975830078125,-0.6605682373046875,-1.0125885009765625,0.109832763671875
1791103783436947700,10.69094775390625,-0.57513427734375,-1.08892822265625,0.2307891845703125
1791103783446918700,10.700918701171876,-0.6649169921875,-1.1106109619140625,0.0478515625
1791103783456891000,10.710890869140625,-0.7707366943359375,-0.992431640625,0.2345733642578125
1791103783466862800,10.72086279296875,-0.274169921875,-0.9010772705078125,0.2136383056640625
1791103783476834800,10.730834716796876,-0.58599853515625,-0.6471405029296875,-0.031646728515625
1791103783486806800,10.740806884765625,0.5257415771484375,-0.8253936767578125,0.0977935791015625
1791103783496778800,10.75077880859375,-0.2316131591796875,-0.2722015380859375,-0.0921478271484375
1791103783506750700,10.760750732421876,-0.8653564453125,-0.0233001708984375,0.0334014892578125
1791103783516721700,10.7707216796875,-0.57958984375,-0.8034210205078125,0.0062255859375
1791103783526694000,10.78069384765625,-0.775238037109375,-1.08929443359375,-0.1560516357421875
1791103783536665900,10.790665771484376,-0.741058349609375,-1.1493377685546875,0.0001373291015625
1791103783546637800,10.800637939453125,-1.183990478515625,-0.9793701171875,-0.1863861083984375
1791103783556609800,10.81060986328125,-1.019500732421875,-1.1645355224609375,-0.240631103515625
1791103783566581800,10.820581787109376,-1.0809783935546875,-1.0518798828125,-0.053863525390625
1791103783576553000,10.830552978515625,-1.1063079833984375,-0.7570343017578125,-0.0679931640625
1791103783586524700,10.840524658203124,-0.270538330078125,-0.6468505859375,0.198211669921875
1791103783596497000,10.850496826171875,-0.03118896484375,-0.80352783203125,0.1647491455078125
1791103783606468900,10.86046875,0.1255950927734375,-0.9816436767578125,0.08203125
1791103783616440800,10.87044091796875,0.358489990234375,-1.1851043701171875,-0.0094757080078125
1791103783626412800,10.880412841796876,0.2379608154296875,-0.9130401611328125,-0.162750244140625
1791103783636384800,10.890384765625,-0.851409912109375,-0.6133575439453125,-0.4337005615234375
1791103783646356000,10.90035595703125,-1.100250244140625,-0.7187652587890625,-0.0481414794921875
1791103783656327700,10.91032763671875,-0.3978271484375,-1.287994384765625,-0.1005706787109375
1791103783666300000,10.9202998046875,-0.3032073974609375,-1.063720703125,-0.1330718994140625
1791103783676271900,10.93027197265625,-0.6847991943359375,-0.864044189453125,0.1065826416015625
1791103783686243800,10.940243896484375,-0.708282470703125,-0.85009765625,0.1572265625
1791103783696215800,10.9502158203125,-0.1511077880859375,-0.802825927734375,0.0023193359375
1791103783706187800,10.960187744140624,-0.4812469482421875,-0.7716522216796875,-0.114410400390625
1791103783716159000,10.970158935546875,-0.5775604248046875,-0.8522491455078125,0.4416961669921875
1791103783726130700,10.980130615234375,-0.700653076171875,-0.875640869140625,0.1779632568359375
1791103783736103000,10.99010302734375,-0.721160888671875,-0.7992706298828125,0.0206298828125
1791103783746075000,11.000074951171875,-1.2387847900390625,-0.7117919921875,0.113800048828125
1791103783756046800,11.010046875,-0.855621337890625,-1.1862030029296875,0.0271759033203125
1791103783766018800,11.020018798828126,-1.304473876953125,-0.989013671875,-0.1204071044921875
1791103783775989800,11.02998974609375,-1.1040496826171875,-0.7013092041015625,0.048583984375
1791103783785962000,11.0399619140625,-1.162445068359375,-0.293701171875,-0.0293731689453125
1791103783795933700,11.04993359375,-0.081787109375,-0.7948760986328125,0.1690216064453125
1791103783805906000,11.059906005859375,0.170074462890625,-0.845245361328125,0.34979248046875
1791103783815878000,11.0698779296875,0.365753173828125,-0.9181365966796875,0.088714599609375
1791103783825849900,11.079849853515626,1.28021240234375,-1.13970947265625,-0.04620361328125
1791103783835821800,11.08982177734375,0.8157501220703125,-0.7437896728515625,-0.0298309326171875
1791103783845792800,11.099792724609374,-0.10968017578125,-0.3169708251953125,-0.0596160888671875
1791103783855765000,11.109764892578125,-1.107818603515625,-0.4600830078125,0.102569580078125
1791103783865736700,11.11973681640625,-0.9850921630859375,-0.73394775390625,-0.096099853515625
1791103783875709000,11.129708984375,-1.0500946044921875,-0.9755096435546875,-0.1250152587890625
1791103783885681000,11.139680908203125,-0.6051025390625,-1.018768310546875,0.13623046875
1791103783895652900,11.14965283203125,-0.262969970703125,-0.85107421875,0.3359222412109375
1791103783905624800,11.159624755859374,-0.1031646728515625,-0.6429290771484375,-0.1835784912109375
1791103783915595800,11.169595703125,-0.900726318359375,-0.6895294189453125,-0.21978759765625
1791103783925567700,11.179567626953125,-0.0921478271484375,-1.1838226318359375,0.115692138671875
1791103783935539700,11.189539794921876,-0.672332763671875,-1.1381378173828125,-0.1920623779296875
1791103783945512000,11.199511962890625,-1.626708984375,-0.528778076171875,-0.0618896484375
1791103783955484000,11.20948388671875,0.0167236328125,-1.2716522216796875,0.17791748046875
1791103783965456000,11.219455810546876,-0.876708984375,-0.83154296875,-0.3619842529296875
1791103783975426800,11.2294267578125,-0.87939453125,-0.8542327880859375,-0.054046630859375
1791103783985398800,11.239398681640624,-0.7805633544921875,-0.7979736328125,0.0379638671875
1791103783995370800,11.249370849609376,-0.9269866943359375,-0.736724853515625,-0.0777435302734375
1791103784005342700,11.2593427734375,0.153900146484375,-1.3233795166015625,0.33599853515625
1791103784015315000,11.26931494140625,-0.5521087646484375,-0.6651153564453125,-0.0235748291015625
1791103784025287000,11.279286865234376,-0.2712249755859375,-0.812530517578125,-0.237396240234375
1791103784035259000,11.2892587890625,0.72406005859375,-1.5280303955078125,-0.0560455322265625
1791103784045229800,11.299229736328124,-0.1323394775390625,-1.041778564453125,-0.397308349609375
1791103784055201800,11.309201904296875,-0.7708587646484375,-0.70758056640625,-0.5027313232421875
1791103784065173800,11.319173828125,-0.8311004638671875,-0.828887939453125,-0.207855224609375
1791103784075145700,11.329145751953124,-1.6399383544921875,-0.7808685302734375,-0.1083831787109375
1791103784085117700,11.33911767578125,-1.1422882080078125,-1.349609375,0.1284637451171875
1791103784095090000,11.34908984375,-2.4509735107421875,-0.971221923828125,0.0667877197265625
1791103784105062000,11.359061767578124,-2.0398101806640625,-0.842681884765625,0.203765869140625
1791103784115032800,11.36903271484375,-1.96771240234375,-1.0100555419921875,0.2081298828125
1791103784125004800,11.3790048828125,-0.581787109375,-1.226959228515625,0.399444580078125
1791103784134976800,11.388976806640626,-0.6418914794921875,-0.5806427001953125,0.36151123046875
1791103784144948700,11.39894873046875,-0.05047607421875,-0.4494476318359375,0.45745849609375
1791103784154920700,11.408920654296875,1.0092315673828125,-0.9576263427734375,0.53143310546875
1791103784164893000,11.418892822265626,0.5571746826171875,-0.8712615966796875,0.1997222900390625
1791103784174864000,11.42886376953125,-0.252197265625,-0.4899749755859375,0.0741729736328125
1791103784184835800,11.4388359375,-0.02923583984375,-0.6394805908203125,0.1340484619140625
1791103784194807800,11.448807861328126,0.0103607177734375,-0.7519989013671875,-0.182952880859375
1791103784204779800,11.45877978515625,-1.4503631591796875,-0.5484619140625,-0.0504150390625
1791103784214751700,11.468751708984374,-1.70245361328125,-1.0274505615234375,0.2564544677734375
1791103784224723700,11.4787236328125,-1.2086639404296875,-1.12713623046875,0.24639892578125
1791103784234696000,11.488696044921875,-0.1786041259765625,-0.8423919677734375,-0.0127716064453125
1791103784244667000,11.4986669921875,-0.1842498779296875,-1.3087921142578125,-0.220794677734375
1791103784254638800,11.508638916015625,-1.8452606201171875,-0.5927276611328125,0.0033416748046875
1791103784264610800,11.51861083984375,0.97991943359375,-1.558563232421875,0.20819091796875
1791103784274582800,11.528582763671874,-1.3718109130859375,0.181793212890625,-0.1837921142578125
1791103784284554800,11.5385546875,0.3583221435546875,-0.40277099609375,0.641754150390625
1791103784294526700,11.548526611328125,-0.183380126953125,-0.58038330078125,0.3162689208984375
1791103784304499000,11.5584990234375,0.0780181884765625,-1.115692138671875,0.0723724365234375
1791103784314470000,11.568469970703125,-0.5389251708984375,-0.783294677734375,0.0924530029296875
1791103784324441900,11.57844189453125,0.0130767822265625,-1.0319976806640625,0.27508544921875
1791103784334413800,11.588413818359374,0.1015472412109375,-1.104736328125,0.0623016357421875
1791103784344385800,11.5983857421875,0.372833251953125,-0.920989990234375,0.111083984375
1791103784354357800,11.608357666015625,-0.7221832275390625,-0.428924560546875,-0.0924072265625
1791103784364329700,11.618329833984374,-0.4812469482421875,-1.462310791015625,-0.0644683837890625
1791103784374300700,11.62830078125,-0.4037017822265625,-1.85626220703125,-0.1306610107421875
1791103784384273000,11.63827294921875,-0.1088409423828125,-1.7801055908203125,-0.3408203125
1791103784394244600,11.64824462890625,-0.963653564453125,-1.1150970458984375,-0.3258056640625
1791103784404216800,11.658216796875,-0.1817626953125,-1.320709228515625,-0.0450592041015625
1791103784414188500,11.6681884765625,-1.8188018798828125,-0.7070465087890625,-0.358001708984375
1791103784424160800,11.678160888671876,-1.3008880615234375,-0.9345855712890625,-0.0603790283203125
1791103784434132700,11.6881328125,-0.9677581787109375,-1.0960540771484375,0.1423492431640625
1791103784444103700,11.698103759765624,-1.031951904296875,-0.991302490234375,0.2869873046875
1791103784454076000,11.708075927734376,-0.075164794921875,-1.2228851318359375,0.3612518310546875
1791103784464047600,11.718047607421875,-0.549163818359375,-0.816436767578125,0.338592529296875
1791103784474019800,11.728019775390624,0.682647705078125,-1.3919677734375,0.223358154296875
1791103784483991600,11.737991455078125,0.2723541259765625,-0.8798828125,0.11578369140625
1791103784493963800,11.7479638671875,-1.0722198486328125,-0.3085784912109375,-0.1623382568359375
1791103784503934700,11.757934814453124,-0.702056884765625,-1.4847869873046875,0.25653076171875
1791103784513906700,11.76790673828125,-0.6480560302734375,-1.5270843505859375,0.0769805908203125
1791103784523879000,11.77787890625,-1.3759613037109375,-0.09576416015625,-0.141204833984375
1791103784533850600,11.7878505859375,-0.0211029052734375,-0.5434417724609375,0.000732421875
1791103784543822800,11.79782275390625,-0.2306365966796875,-0.754119873046875,-0.03900146484375
1791103784553794600,11.807794677734375,-0.7437744140625,-0.828887939453125,-0.199554443359375
1791103784563766800,11.817766845703124,-1.2350006103515625,-0.48974609375,0.1043243408203125
1791103784573737700,11.82773779296875,-0.2947540283203125,-0.677490234375,0.43212890625
1791103784583709700,11.837709716796875,0.6385955810546875,-1.097381591796875,0.152862548828125
1791103784593682000,11.847681884765626,-1.1618499755859375,-0.226715087890625,-0.00909423828125
1791103784603653600,11.857653564453125,-0.8662872314453125,-0.6641082763671875,0.0634765625
1791103784613625900,11.8676259765625,-0.328460693359375,-1.045745849609375,-0.1032257080078125
1791103784623597600,11.87759765625,-0.3848419189453125,-0.7220916748046875,-0.197906494140625
1791103784633569800,11.88756982421875,-0.7095794677734375,-0.8225860595703125,-0.0345916748046875
1791103784643540700,11.897540771484374,-0.576904296875,-1.14483642578125,0.143463134765625
1791103784653512700,11.9075126953125,-0.01678466796875,-1.6280517578125,-0.0338897705078125
1791103784663485000,11.91748486328125,-0.8016357421875,-1.1024627685546875,0.0521697998046875
1791103784673456600,11.92745654296875,-0.351470947265625,-1.1969146728515625,0.107635498046875
1791103784683428900,11.937428955078126,-0.689056396484375,-0.5914306640625,-0.1298065185546875
1791103784693400600,11.947400634765625,-0.275299072265625,-0.5572052001953125,-0.0938262939453125
1791103784703371800,11.957371826171874,0.472442626953125,-0.9035491943359375,-0.1680908203125
1791103784713343700,11.96734375,0.52581787109375,-0.9597015380859375,-0.058807373046875
1791103784723315700,11.977315673828125,-0.969329833984375,-0.6773681640625,-0.0372314453125
1791103784733288000,11.987287841796874,-2.487274169921875,-0.1851348876953125,0.2674713134765625
1791103784743259600,11.997259765625,-0.8834991455078125,-1.0423583984375,0.4093170166015625
1791103784753232000,12.00723193359375,0.7932586669921875,-1.374908447265625,-0.07171630859375
1791103784763203600,12.01720361328125,-1.4919586181640625,-0.4061126708984375,-0.03607177734375
1791103784773174800,12.0271748046875,0.19305419921875,-1.609832763671875,0.1702423095703125
1791103784783146500,12.037146484375,-0.817840576171875,-0.77978515625,-0.408416748046875
1791103784793118700,12.04711865234375,-0.284454345703125,-1.1006622314453125,0.0169525146484375
1791103784803090700,12.057090576171875,0.08087158203125,-1.0615692138671875,0.5246429443359375
1791103784813062700,12.067062744140625,-0.9259185791015625,-0.456024169921875,0.165771484375
1791103784823035000,12.077034912109376,-1.3715667724609375,-0.7187652587890625,0.3123779296875
1791103784833006600,12.087006591796875,-0.436767578125,-1.1630096435546875,0.2380218505859375
1791103784842977800,12.096977783203124,-0.7379608154296875,-0.7797393798828125,-0.1226806640625
1791103784852949500,12.106949462890626,-1.0613861083984375,-0.4383544921875,-0.0294036865234375
1791103784862921700,12.116921630859375,0.0397796630859375,-0.8467864990234375,0.1281585693359375
1791103784872893700,12.126893798828124,-0.2303619384765625,-1.1673736572265625,-0.3011932373046875
1791103784882865700,12.13686572265625,-0.99462890625,-1.208038330078125,-0.0926513671875
1791103784892838000,12.146837890625,-0.6138153076171875,-1.4628448486328125,0.12908935546875
1791103784902808600,12.15680859375,-0.29327392578125,-0.975006103515625,-0.1485137939453125
1791103784912780800,12.16678076171875,0.023406982421875,-0.593994140625,-0.147552490234375
1791103784922752500,12.17675244140625,-0.3408050537109375,-0.6114959716796875,-0.061798095703125
1791103784932724700,12.186724853515624,-1.01397705078125,-0.3971099853515625,-0.087677001953125
1791103784942696700,12.19669677734375,-0.0287322998046875,-0.95928955078125,-0.0324859619140625
1791103784952668700,12.206668701171875,-0.208984375,-1.110107421875,-0.0671844482421875
1791103784962640600,12.216640625,-0.4514923095703125,-0.93157958984375,0.091552734375
1791103784972611600,12.226611572265625,-1.003021240234375,-0.556976318359375,-0.084197998046875
1791103784982583800,12.236583740234375,-0.148406982421875,-1.2299652099609375,-0.1039581298828125
1791103784992555500,12.246555419921876,-0.6235504150390625,-0.9316864013671875,-0.0867156982421875
1791103785002527700,12.25652783203125,-0.69989013671875,-0.62506103515625,-0.054351806640625
1791103785012499700,12.266499755859375,-0.6590576171875,-0.9282379150390625,-0.0440826416015625
1791103785022471700,12.2764716796875,-0.258880615234375,-1.167877197265625,0.108551025390625
1791103785032443000,12.28644287109375,-0.652374267578125,-0.9789276123046875,0.1990203857421875
1791103785042414600,12.29641455078125,-0.6075439453125,-0.5947418212890625,0.0291595458984375
1791103785052386800,12.30638671875,-0.007843017578125,-0.8795623779296875,-0.0011749267578125
1791103785062358500,12.316358642578125,-0.1517333984375,-0.7257232666015625,0.1962127685546875
1791103785072330800,12.326330810546875,0.180816650390625,-0.7390594482421875,0.181243896484375
1791103785082302700,12.336302734375,0.6268157958984375,-0.884124755859375,0.0301513671875
1791103785092274700,12.346274658203125,-0.8937225341796875,-0.3652496337890625,0.0925750732421875
1791103785102246000,12.356245849609374,-0.589630126953125,-1.0019683837890625,0.2253875732421875
1791103785112217600,12.366217529296875,-0.34735107421875,-1.43487548828125,0.0518035888671875
1791103785122189800,12.37618994140625,-0.87872314453125,-0.8917388916015625,0.07318115234375
1791103785132161500,12.38616162109375,-0.662322998046875,-0.58245849609375,-0.1457672119140625
1791103785142133800,12.3961337890625,-0.681365966796875,-0.7375335693359375,0.157470703125
1791103785152105700,12.406105712890625,-0.3113555908203125,-1.1523284912109375,0.15325927734375
1791103785162077700,12.41607763671875,-0.451263427734375,-1.330780029296875,-0.063323974609375
1791103785172049000,12.426048828125,-0.679534912109375,-1.3459320068359375,0.145294189453125
1791103785182020600,12.4360205078125,-0.9958648681640625,-0.9777679443359375,0.1229705810546875
1791103785191992800,12.445992919921874,-1.0251617431640625,-0.5088653564453125,-0.023834228515625
1791103785201964500,12.455964599609375,0.03033447265625,-0.981964111328125,0.06549072265625
1791103785211936800,12.465936767578125,-0.16168212890625,-1.049713134765625,0.0430145263671875
1791103785221908700,12.47590869140625,-0.9716033935546875,-0.5317230224609375,-0.0254058837890625
1791103785231879700,12.485879638671875,0.0033111572265625,-0.9990386962890625,-0.0604095458984375
1791103785241852000,12.495851806640625,0.057159423828125,-1.152313232421875,-0.173553466796875
1791103785251823600,12.50582373046875,-0.6224822998046875,-0.780517578125,0.019561767578125
1791103785261795800,12.5157958984375,-0.393341064453125,-0.889892578125,-0.052276611328125
1791103785271767600,12.525767578125,-0.9061279296875,-0.8908843994140625,-0.1712188720703125
1791103785281739800,12.53573974609375,-0.5942535400390625,-0.8138580322265625,0.0653839111328125
1791103785291711700,12.545711669921875,-0.7538909912109375,-0.95050048828125,-0.11041259765625
1791103785301682700,12.5556826171875,-0.4654083251953125,-1.3466339111328125,-0.0210723876953125
1791103785311655000,12.565655029296876,-0.518951416015625,-0.898529052734375,-0.0174102783203125
1791103785321626600,12.575626708984375,-1.05169677734375,-0.57501220703125,-0.0283050537109375
1791103785331598800,12.585598876953124,-0.378448486328125,-0.7346649169921875,0.18414306640625
1791103785341570600,12.595570556640626,0.207733154296875,-0.9236907958984375,0.3102569580078125
1791103785351542800,12.605542724609375,-0.8003997802734375,-0.211883544921875,0.0239715576171875
1791103785361513700,12.615513671875,-0.5801239013671875,-0.3632965087890625,0.2200775146484375
1791103785371486000,12.62548583984375,-0.1798553466796875,-1.0005340576171875,-0.0920562744140625
1791103785381458000,12.6354580078125,-0.4184417724609375,-1.2117767333984375,-0.05340576171875
1791103785391430000,12.645429931640624,-0.9557647705078125,-0.9691162109375,0.041351318359375
1791103785401402000,12.655402099609375,-0.520355224609375,-1.1634674072265625,-0.1631927490234375
1791103785411373800,12.665373779296875,-0.6546478271484375,-0.7783203125,0.0819549560546875
1791103785421346000,12.675345947265624,-0.81793212890625,-0.5294036865234375,-0.07501220703125
1791103785431316700,12.685316650390625,0.2801666259765625,-1.1132659912109375,-0.107879638671875
1791103785441289000,12.6952890625,-0.9559478759765625,-0.5976715087890625,0.068695068359375
1791103785451261000,12.705260986328126,0.005706787109375,-1.3246917724609375,0.0306243896484375
1791103785461233000,12.71523291015625,0.10614013671875,-1.141204833984375,-0.1219482421875
1791103785471205000,12.725205078125,-0.87872314453125,-0.751190185546875,0.08795166015625
1791103785481176800,12.7351767578125,-1.0742645263671875,-0.5489501953125,0.116455078125
1791103785491148000,12.74514794921875,-0.33258056640625,-1.2382354736328125,-0.0086212158203125
1791103785501119700,12.75511962890625,-0.0395050048828125,-1.18023681640625,0.1873016357421875
1791103785511092000,12.765092041015626,-0.4575042724609375,-0.52532958984375,0.0991973876953125
1791103785521064000,12.77506396484375,-1.155731201171875,-0.508331298828125,0.1096343994140625
1791103785531036000,12.785035888671874,-0.8458404541015625,-1.2701416015625,0.2694244384765625
1791103785541008000,12.7950078125,-0.082733154296875,-1.224945068359375,0.185150146484375
1791103785550979800,12.804979736328125,-1.1761627197265625,-0.63458251953125,-0.0633392333984375
