time,seconds_elapsed,z,y,x
1791103772796965000,0.050965087890625,-4.714919566428661,-8.590009772193431,-0.3894241919349879
1791103772806937300,0.060937255859375,-4.72869411702007,-8.582522046786547,-0.38749647527541964
1791103772816909000,0.070908935546875,-4.717217029716074,-8.589306592360138,-0.3769014680355787
1791103772826881300,0.08088134765625,-4.722224921005964,-8.586812437456846,-0.37097576778102664
1791103772836853000,0.09085302734375,-4.727896536901593,-8.58404297274351,-0.36274650329183783
1791103772846825200,0.1008251953125,-4.730451774342358,-8.582969206032157,-0.35475291072204707
1791103772856797200,0.110797119140625,-4.740543252506852,-8.577911922642588,-0.3421510206392035
1791103772866768100,0.12076806640625,-4.75154015507847,-8.572305188676715,-0.3299119725193828
1791103772876740000,0.130739990234375,-4.753960952484608,-8.5716598765105,-0.31127916824184354
1791103772886712000,0.140712158203125,-4.761671672992408,-8.56802648844421,-0.2929032430685125
1791103772896684300,0.150684326171875,-4.7566693346604705,-8.571429574885963,-0.2740001156833023
1791103772906656000,0.160656005859375,-4.756097379991412,-8.572415078791975,-0.2521935584741644
1791103772916628200,0.170628173828125,-4.746454230116307,-8.578274910736084,-0.2339968440589495
1791103772926600200,0.18060009765625,-4.756613512820005,-8.573167358464001,-0.214062930587586
1791103772936572200,0.190572265625,-4.7524046629533165,-8.575991768234967,-0.19343294287715107
1791103772946544000,0.200544189453125,-4.756980008044839,-8.573822607502342,-0.1763636250566691
1791103772956515000,0.21051513671875,-4.768144960659742,-8.567777482119203,-0.16840985304061323
1791103772966487300,0.2204873046875,-4.7681332702219485,-8.568125272643565,-0.1500138988594059
1791103772976459000,0.230458984375,-4.765583585739136,-8.569917416757345,-0.12694395238463765
1791103772986431200,0.24043115234375,-4.751666119545698,-8.57786866802275,-0.11052508869636803
1791103772996403200,0.2504033203125,-4.7437511086374515,-8.582370071095228,-0.10067873526620678
1791103773006375200,0.260375244140625,-4.719977726601064,-8.595707107052206,-0.07751257100850344
1791103773016347100,0.27034716796875,-4.714851761889458,-8.598596398752928,-0.06848652555185836
1791103773026319000,0.280319091796875,-4.705901854975521,-8.603595229953527,-0.054923489686124954
1791103773036290000,0.2902900390625,-4.703798452955484,-8.604828571140766,-0.039777943002455865
1791103773046262000,0.300261962890625,-4.705352696660161,-8.604041220155358,-0.02269886412307387
1791103773056234200,0.310234130859375,-4.695201012741029,-8.60961346732974,-0.004989268787810579
1791103773066206200,0.320206298828125,-4.702079666338861,-8.605858498710393,0.005408670664348756
1791103773076178200,0.33017822265625,-4.6995454716861245,-8.607234463238715,0.013341133318428183
1791103773086150100,0.340150146484375,-4.6906759365320205,-8.612064367613195,0.017313550930604105
1791103773096122000,0.3501220703125,-4.6794183371976015,-8.618151578572393,0.029798024037212597
1791103773106094000,0.360093994140625,-4.679944114637375,-8.617832429620623,0.03835596564162988
1791103773116066300,0.37006640625,-4.671032493907213,-8.622554197445512,0.05822851801430806
1791103773126037200,0.380037353515625,-4.669870464390516,-8.623096049237251,0.07011511770095676
1791103773136009200,0.39000927734375,-4.673729185645282,-8.620954361033439,0.0759860692607006
1791103773145981200,0.399981201171875,-4.67443148869574,-8.62050486370027,0.08341766686644404
1791103773155953200,0.409953125,-4.667973398597538,-8.623909703707694,0.09271634155227802
1791103773165925000,0.419925048828125,-4.671734504696727,-8.621820037952064,0.097544072235981
1791103773175897000,0.42989697265625,-4.665380167233944,-8.62522370891571,0.10069033437245525
1791103773185869300,0.439869384765625,-4.658287286363541,-8.628875801682472,0.11509352912306785
1791103773195841000,0.449841064453125,-4.64070252983421,-8.638175544947385,0.12721017470592633
1791103773205812200,0.459812255859375,-4.637425407859682,-8.639778303968907,0.13745923631861806
1791103773215784200,0.4697841796875,-4.640745492193102,-8.63799726577103,0.13739566956311464
1791103773225756200,0.479756103515625,-4.6325428965151305,-8.642366566896438,0.13936583712492137
1791103773235728100,0.48972802734375,-4.646511800634861,-8.634872411748766,0.13884406913998537
1791103773245700000,0.4997001953125,-4.664480295784771,-8.625144798460603,0.14103356027458794
1791103773255672300,0.50967236328125,-4.6736064360484475,-8.620089268636702,0.14784524958343245
1791103773265644000,0.51964404296875,-4.668102870196104,-8.622923615279793,0.1561773625257425
1791103773275616300,0.5296162109375,-4.68604155472964,-8.613201262688635,0.15546402662461623
1791103773285588000,0.539587890625,-4.682240408881008,-8.615252349999546,0.15630922701079397
1791103773295559200,0.54955908203125,-4.667529454222321,-8.623147487163543,0.1608439112983644
1791103773305531100,0.55953125,-4.675227315248549,-8.619111948037148,0.15339109280807897
1791103773315503000,0.569503173828125,-4.67348047158122,-8.620106219771504,0.15076731104259378
1791103773325475300,0.579475341796875,-4.681142676772177,-8.615951438179613,0.1505803097036667
1791103773335447000,0.589447021484375,-4.692984213474393,-8.609530465221404,0.14920471050152553
1791103773345419300,0.599419189453125,-4.712994443584979,-8.598619779628514,0.14767467878949828
1791103773355391000,0.609390869140625,-4.717275189644098,-8.596306826511025,0.14561759099606425
1791103773365363200,0.61936328125,-4.721147354902326,-8.594222421452402,0.14315807814789003
1791103773375335200,0.629335205078125,-4.715729129245877,-8.597288823285698,0.13757676175106315
1791103773385306000,0.63930615234375,-4.701186224630475,-8.605451671475171,0.12430434286235831
1791103773395278300,0.6492783203125,-4.687373680116236,-8.613150993806123,0.11206203420637174
1791103773405250000,0.65925,-4.664753852029144,-8.625538181692361,0.10277406357764265
1791103773415222300,0.66922216796875,-4.665216501104831,-8.625384452435373,0.09424975253148003
1791103773425194000,0.679194091796875,-4.663395130896568,-8.626438345402478,0.08774287312179803
1791103773435166200,0.689166259765625,-4.655298041419685,-8.630838626188039,0.08495211902526206
1791103773445138200,0.69913818359375,-4.650601408036053,-8.633453777122497,0.07592862171872984
1791103773455110100,0.709110107421875,-4.670072708964348,-8.623017138782144,0.06612546354290097
1791103773465081000,0.7190810546875,-4.67639986615926,-8.619639186781644,0.05920906261741184
1791103773475053000,0.729052978515625,-4.669735439833999,-8.623318167555333,0.04845825746108312
1791103773485025300,0.739025390625,-4.69637297912985,-8.608893336361646,0.03774534576288424
1791103773494997000,0.7489970703125,-4.709896185308694,-8.601528360551596,0.031188825375062876
1791103773504969200,0.75896923828125,-4.691248183462023,-8.6117183306545,0.02964058900277596
1791103773514941200,0.768941162109375,-4.7101212262362235,-8.601435421571136,0.021392950889968777
1791103773524913200,0.7789130859375,-4.709139229461551,-8.601995393541454,0.008261261925249709
1791103773534885000,0.788885009765625,-4.707707735353708,-8.602782744526863,0.0016008060962129091
1791103773544856000,0.79885595703125,-4.705471354603767,-8.604006148841977,-0.0032368210739470668
1791103773554828300,0.808828369140625,-4.698071307480335,-8.608049286752939,-0.00026463352700311586
1791103773564800000,0.818800048828125,-4.687420149606466,-8.613854173639416,0.0016938065827605895
1791103773574772200,0.828772216796875,-4.694388235053419,-8.610056534922123,-0.005502028057450661
1791103773584744200,0.838744140625,-4.693873271268606,-8.610327753078938,-0.013548732204100815
1791103773594716200,0.848716064453125,-4.684333581767976,-8.615496095627545,-0.024980314707313662
1791103773604688100,0.858688232421875,-4.69768961468637,-8.608146901908516,-0.04368315201376099
1791103773614660000,0.86866015625,-4.697476556457579,-8.608181388700007,-0.0575041812285548
1791103773624632000,0.878632080078125,-4.684828964069485,-8.615012696024776,-0.06572510258108377
1791103773634603000,0.88860302734375,-4.7091649484246965,-8.601623637619614,-0.07884400227535515
1791103773644575200,0.8985751953125,-4.719187160745263,-8.59601690365374,-0.0903082848967053
1791103773654547200,0.908547119140625,-4.745970538252592,-8.581220901060103,-0.09379813630646094
1791103773664519200,0.918519287109375,-4.731983806215227,-8.588899180603027,-0.0975610233707819
1791103773674491100,0.9284912109375,-4.742010402449965,-8.583291277593373,-0.10404698785659856
1791103773684463000,0.938463134765625,-4.729184238624573,-8.59027456060946,-0.11123483526776544
1791103773694435000,0.94843505859375,-4.759144200341403,-8.573512226378917,-0.1257872474970296
1791103773704407300,0.9584072265625,-4.749432076883315,-8.578769416254758,-0.13412920597991906
1791103773714378200,0.968378173828125,-4.7528994607329365,-8.57681068340242,-0.1365214714113157
1791103773724350200,0.97835009765625,-4.763967674975097,-8.570583771711588,-0.14172829193994402
1791103773734322200,0.988322265625,-4.762696047604083,-8.571209794655442,-0.14654339147093706
1791103773744294100,0.998294189453125,-4.745781737682223,-8.580434134596585,-0.1552095952058211
1791103773754266000,1.00826611328125,-4.750827915155887,-8.577510940626263,-0.16225091028576716
1791103773764238000,1.018238037109375,-4.725462295491993,-8.591474584048987,-0.16418480095779522
1791103773774210300,1.028210205078125,-4.709411616662145,-8.600203249427675,-0.1683299562048167
1791103773784182000,1.03818212890625,-4.70926110227555,-8.60015824124217,-0.1746994547041133
1791103773794153200,1.0481533203125,-4.68043803563416,-8.615813491013645,-0.17784020041525364
1791103773804125200,1.058125244140625,-4.666451888118684,-8.623325766339898,-0.18128699813457205
1791103773814097200,1.06809716796875,-4.664731055675447,-8.624245219272375,-0.18182574465377255
1791103773824069000,1.078069091796875,-4.662306751137971,-8.625455764105915,-0.18650148137984796
1791103773834041000,1.088041015625,-4.641602985805273,-8.636446529197693,-0.19414931098558008
1791103773844013300,1.098013427734375,-4.6293943693563335,-8.64288679137826,-0.1990033268880099
1791103773853985000,1.107985107421875,-4.632010104812681,-8.641401521256565,-0.20261422912785781
1791103773863957200,1.117957275390625,-4.62380750913471,-8.645946763470768,-0.1959641783878207
1791103773873929000,1.127928955078125,-4.622890102028847,-8.646629485037922,-0.1872977463240735
1791103773883900200,1.137900146484375,-4.623263611516356,-8.646723593062163,-0.17318654765682293
1791103773893872000,1.1478720703125,-4.61318586961627,-8.652219267868995,-0.1673474662397988
1791103773903844000,1.157843994140625,-4.600627124555409,-8.659089738160372,-0.15740513248872012
1791103773913816300,1.16781640625,-4.596343748147786,-8.66142022693455,-0.15427288061128927
1791103773923788000,1.1777880859375,-4.591180374035239,-8.664224178439378,-0.1505687288637273
1791103773933760300,1.18776025390625,-4.592784594361484,-8.663385974049568,-0.14986611528601496
1791103773943732000,1.19773193359375,-4.591139749763906,-8.664356280386448,-0.14401266741692087
1791103773953704200,1.2077041015625,-4.599193292360008,-8.660231893932819,-0.13481783669805153
1791103773963675100,1.217675048828125,-4.591612335711718,-8.664390767177938,-0.12568602474541402
1791103773973647000,1.227647216796875,-4.591452468974888,-8.664577229660749,-0.11852974151629023
1791103773983619300,1.237619384765625,-4.588792309854925,-8.666043210560083,-0.11431953080957755
1791103773993591000,1.247591064453125,-4.587128468295932,-8.666963248014449,-0.1112855242753867
1791103774003563300,1.257563232421875,-4.576903426879644,-8.672447816905379,-0.10479968765373342
1791103774013535000,1.267534912109375,-4.584635482436418,-8.668471899011731,-0.09537701212889514
1791103774023507200,1.277507080078125,-4.5918607575148345,-8.664654971072077,-0.09455431583547033
1791103774033479200,1.287479248046875,-4.597605730907619,-8.661682092741131,-0.08762850776081904
1791103774043451100,1.297451171875,-4.62255663229078,-8.648412276801466,-0.08565513446177356
1791103774053422300,1.30742236328125,-4.644864033427834,-8.636480431467294,-0.08262279929486104
1791103774063394000,1.31739404296875,-4.66691629076004,-8.624585411012172,-0.08245042926948518
1791103774073366300,1.3273662109375,-4.6672252105787395,-8.624531634998322,-0.06964335373705252
1791103774083338000,1.337337890625,-4.701292023092508,-8.606015150576829,-0.06883485493233893
1791103774093310200,1.347310302734375,-4.707131981292367,-8.602831259843706,-0.06774946171527263
1791103774103282200,1.3572822265625,-4.706311312559246,-8.603300630921124,-0.0651851002531359
1791103774113254100,1.367254150390625,-4.7217169714838265,-8.594857212224602,-0.0649603652862832
1791103774123226000,1.37722607421875,-4.7187607520267365,-8.596478675946592,-0.06503818432942499
1791103774133197000,1.387197021484375,-4.724916644307971,-8.593099554902315,-0.06473706879126839
1791103774143169300,1.397169189453125,-4.733677166129649,-8.5883339479357,-0.05672009991246741
1791103774153141000,1.40714111328125,-4.737476558412611,-8.586211548954248,-0.06068064214047044
1791103774163113200,1.41711328125,-4.737364037948846,-8.586257141661644,-0.06301507643740624
1791103774173085200,1.427085205078125,-4.745863863007724,-8.581502056089043,-0.07058608251383994
1791103774183057200,1.43705712890625,-4.7502793413624165,-8.579000302401184,-0.07736316173360683
1791103774193029000,1.447029052734375,-4.753692072415352,-8.577041569548845,-0.08462896061865613
1791103774203001000,1.4570009765625,-4.7489384481474755,-8.579601190903782,-0.09179092466989532
1791103774212972300,1.46697216796875,-4.748947508236766,-8.57951117453277,-0.09939145366833545
1791103774222944000,1.476944091796875,-4.748475799071788,-8.579715172672271,-0.10413947931248695
1791103774232916200,1.486916259765625,-4.754859070368111,-8.576066002514958,-0.1130973686034791
1791103774242888200,1.49688818359375,-4.766720480814576,-8.569340493652224,-0.12315582128120585
1791103774252860200,1.506860107421875,-4.775994212855398,-8.563986857664585,-0.13565400439440273
1791103774262832000,1.51683203125,-4.778855739766359,-8.56229817392528,-0.14135650861863977
1791103774272804000,1.52680419921875,-4.771410684457421,-8.566311501219868,-0.1494920760755427
1791103774282776000,1.536776123046875,-4.7751595155969255,-8.564103762042523,-0.15606880585104227
1791103774292748300,1.546748291015625,-4.764617663316429,-8.569811033773421,-0.1647301964134909
1791103774302719200,1.55671923828125,-4.751166937851906,-8.577100606259703,-0.17356891630422322
1791103774312691200,1.566691162109375,-4.739104159614444,-8.583526255393028,-0.18536305193444713
1791103774322663200,1.5766630859375,-4.722271390496194,-8.5926979883641,-0.18995567695433274
1791103774332635100,1.58663525390625,-4.70319844123572,-8.603024736589193,-0.19566309481570496
1791103774342607000,1.596607177734375,-4.7163253415733575,-8.595613583549857,-0.20513708040267228
1791103774352579000,1.6065791015625,-4.718365030707418,-8.594399531584978,-0.20905069191614165
1791103774362551000,1.616551025390625,-4.717572711285949,-8.594616973727941,-0.2178349782058969
1791103774372522800,1.626522705078125,-4.730695519970357,-8.587056767606734,-0.230964527158346
1791103774382494000,1.636493896484375,-4.740461419442296,-8.581374630317091,-0.24172908227881415
1791103774392466000,1.6464658203125,-4.72852577471584,-8.587470609104633,-0.25839327163081616
1791103774402438000,1.65643798828125,-4.727552253508567,-8.58753198390305,-0.2737247145417146
1791103774412410000,1.66641015625,-4.739911676605045,-8.580266961336136,-0.2874849078142084
1791103774422381800,1.6763818359375,-4.737928101572394,-8.581157772696018,-0.2935213201679289
1791103774432354000,1.68635400390625,-4.735019228388369,-8.582547765749693,-0.29976357555836436
1791103774442325800,1.69632568359375,-4.741327973143756,-8.57872791520059,-0.3092413057386875
1791103774452298000,1.706298095703125,-4.735730299267172,-8.581334882828592,-0.322383111384511
1791103774462270000,1.71627001953125,-4.738679504461587,-8.579405376070737,-0.330293263454549
1791103774472241000,1.726240966796875,-4.737567451566457,-8.579787653386592,-0.3363072265144437
1791103774482213000,1.736213134765625,-4.749600126926601,-8.57293004257679,-0.3413918363023549
1791103774492184800,1.746184814453125,-4.753006428238749,-8.570904089707136,-0.3448516213674098
1791103774502157000,1.756156982421875,-4.753919743691385,-8.57037392835319,-0.34543453582189976
1791103774512128800,1.766128662109375,-4.75401122136712,-8.5700559484452,-0.35198688007481393
1791103774522101000,1.77610107421875,-4.761171614515781,-8.565830439704657,-0.358022433912009
1791103774532073000,1.786072998046875,-4.748632450938224,-8.572638366153836,-0.36157460996825247
1791103774542045000,1.796044921875,-4.74089075077027,-8.576685011196137,-0.3671471859361976
1791103774552016100,1.80601611328125,-4.738438681443036,-8.577562378552555,-0.378166556067951
1791103774561987800,1.81598779296875,-4.720947448416054,-8.587239722958207,-0.37729770081155
1791103774571960000,1.8259599609375,-4.707767356586456,-8.594625157034397,-0.37380456146616486
1791103774581931800,1.835931884765625,-4.718369414621591,-8.58876532509029,-0.374834269840084
1791103774591904000,1.845904052734375,-4.698552076734602,-8.600012110769748,-0.3657619786554947
1791103774601876000,1.8558759765625,-4.697490292721986,-8.6009216268301,-0.3579158317323774
1791103774611848000,1.865847900390625,-4.713863043113053,-8.59195096938908,-0.35811880695857107
1791103774621820000,1.87581982421875,-4.714823997099697,-8.591454710304737,-0.35738424560632553
1791103774631790800,1.885790771484375,-4.6920761587187645,-8.604194364890455,-0.3502124177481979
1791103774641763000,1.89576318359375,-4.706101469200849,-8.596565185186266,-0.3493766975764185
1791103774651734800,1.90573486328125,-4.701459196352959,-8.59941063774526,-0.34178496380578727
1791103774661707000,1.91570703125,-4.701598312562703,-8.599844937509298,-0.3286764393750578
1791103774671679000,1.925678955078125,-4.69988069498986,-8.600975402843952,-0.32362357643228024
1791103774681651000,1.93565087890625,-4.701652673098445,-8.60039906426072,-0.31302495246324685
1791103774691623000,1.945622802734375,-4.688406822556257,-8.607948748987912,-0.30404437641641124
1791103774701595000,1.955594970703125,-4.682627070111036,-8.611434837538003,-0.2942265823604539
1791103774711566000,1.965566162109375,-4.671261334227025,-8.617851134321093,-0.2869540888731368
1791103774721537800,1.975537841796875,-4.650810374611616,-8.629303087183832,-0.2747137073127553
1791103774731510000,1.985510009765625,-4.6478684759408235,-8.631144915658234,-0.2665567408747971
1791103774741482000,1.99548193359375,-4.65684556312263,-8.626611363881826,-0.25645417506070806
1791103774751454000,2.005453857421875,-4.656359240910411,-8.627160229936242,-0.24660492642056195
1791103774761426000,2.015426025390625,-4.65247246260494,-8.629543910202383,-0.2363219260056503
1791103774771398000,2.02539794921875,-4.660055757340788,-8.62578134279847,-0.22396414687698707
1791103774781369900,2.035369873046875,-4.66206826620698,-8.624912743270396,-0.21537631474109364
1791103774791342000,2.045342041015625,-4.671487836459279,-8.620104466205834,-0.2034345142684877
1791103774801313000,2.05531298828125,-4.688050264203548,-8.611368202042579,-0.19209535586414858
1791103774811285000,2.065284912109375,-4.692661557391285,-8.609218330532311,-0.17510863829320295
1791103774821257000,2.075257080078125,-4.693863042135536,-8.608825531822443,-0.1617294436949305
1791103774831229000,2.08522900390625,-4.705650510562956,-8.602623754572868,-0.1486999849829357
1791103774841201000,2.095200927734375,-4.698890222647786,-8.606490951395035,-0.13833242982341906
1791103774851172900,2.1051728515625,-4.690588258248567,-8.611265326189994,-0.12199325290839187
1791103774861145000,2.11514501953125,-4.6868391348481175,-8.613518073552846,-0.1059474237835966
1791103774871116800,2.12511669921875,-4.676945809604227,-8.619009656706451,-0.09609836693969555
1791103774881088000,2.135087890625,-4.669394663572311,-8.623161515688896,-0.09066021274006925
1791103774891060000,2.14506005859375,-4.670286059454083,-8.622757611063122,-0.0828320855308324
1791103774901032000,2.155031982421875,-4.64080569794774,-8.638720319348574,-0.07620649337861686
1791103774911004000,2.16500390625,-4.617608654494584,-8.651264159101247,-0.06088666784027591
1791103774920976000,2.174975830078125,-4.601611167156696,-8.659885856974125,-0.04410550104510039
1791103774930948000,2.184947998046875,-4.597021501278877,-8.662370075005292,-0.03347603669652017
1791103774940919800,2.194919921875,-4.5900379260018465,-8.666108677011728,-0.022307439952960702
1791103774950892000,2.20489208984375,-4.5948558476775885,-8.663572436532379,-0.014130888606765073
1791103774960863000,2.214863037109375,-4.607593456436693,-8.6568153634876,-0.0034390670748340197
1791103774970835000,2.2248349609375,-4.614857309959828,-8.652944075012206,0.005806828252636478
1791103774980807000,2.234806884765625,-4.6156312169417735,-8.652524972817302,0.011605131847166921
1791103774990779000,2.24477880859375,-4.62608188380748,-8.646943373292684,0.011274473979050527
1791103775000751000,2.254751220703125,-4.625620696036517,-8.64719354866147,0.008876348487380892
1791103775010722800,2.264722900390625,-4.636582527294754,-8.641322610801458,0.005807289476940059
1791103775020695000,2.274695068359375,-4.642427453930676,-8.638183728253841,0.006048686171759618
1791103775030666800,2.284666748046875,-4.627251219847798,-8.646322026523947,0.007980574970479938
1791103775040638000,2.294637939453125,-4.615164768473804,-8.652778655317425,0.007443756117706652
1791103775050610000,2.30460986328125,-4.600016883702576,-8.660842134785652,0.005949585736927111
1791103775060582000,2.314581787109375,-4.595913540036976,-8.663021816912293,-0.003791468129766872
1791103775070554000,2.32455419921875,-4.578535704256594,-8.672198226058482,-0.019256646680750417
1791103775080525800,2.33452587890625,-4.560530384227633,-8.681648191449046,-0.0304901984193013
1791103775090498000,2.344498046875,-4.553405062392354,-8.685356982839107,-0.038179328149801586
1791103775100469800,2.3544697265625,-4.5647991475880145,-8.679332900243997,-0.046522425993718204
1791103775110442000,2.36444189453125,-4.5790883697032925,-8.671768017947674,-0.052739446478197345
1791103775120414000,2.3744140625,-4.570298037265241,-8.676367036175728,-0.05837219166816212
1791103775130385000,2.384385009765625,-4.567142203582823,-8.677962196412683,-0.06751080782092175
1791103775140357000,2.394357177734375,-4.583893431897462,-8.669003229409455,-0.08176913247443734
1791103775150328800,2.404328857421875,-4.574106781898439,-8.674096753156185,-0.08930110801500268
1791103775160301000,2.414301025390625,-4.571439023993909,-8.675389131054281,-0.09972754462175071
1791103775170272800,2.424272705078125,-4.581280034528673,-8.670052446201444,-0.11160139442468062
1791103775180245000,2.434244873046875,-4.606803475102782,-8.656382817289233,-0.12157961233989335
1791103775190217000,2.444217041015625,-4.614700658093392,-8.652002410247922,-0.13337859767517074
1791103775200188000,2.45418798828125,-4.62970971891582,-8.643798061004281,-0.1446701906107366
1791103775210160000,2.46416015625,-4.628243153494596,-8.644348680624365,-0.1580757800255902
1791103775220131800,2.4741318359375,-4.633033602641523,-8.641380478468538,-0.17868870700336992
1791103775230104000,2.48410400390625,-4.637791318562627,-8.638453777366877,-0.19594801270430906
1791103775240075800,2.49407568359375,-4.619145947064459,-8.648248026150464,-0.2041479415011592
1791103775250048000,2.504048095703125,-4.612406994198262,-8.651545898652076,-0.21642372316848485
1791103775260020000,2.51402001953125,-4.6082335079059,-8.653554315865039,-0.22485565235661342
1791103775269992000,2.523991943359375,-4.6066535452380775,-8.65441122495532,-0.2242804828171618
1791103775279964000,2.5339638671875,-4.61149747813791,-8.651779122886062,-0.22625516215730457
1791103775289934800,2.543934814453125,-4.6145799543231725,-8.649931449192762,-0.23390598743772134
1791103775299907000,2.553906982421875,-4.619136302453279,-8.647091841852664,-0.2485181213644333
1791103775309878800,2.563878662109375,-4.6221065504357215,-8.645063550895452,-0.2634166892834008
1791103775319851000,2.57385107421875,-4.624003323967755,-8.643677064973115,-0.2753462695952505
1791103775329823000,2.583822998046875,-4.629576740185916,-8.640345290201902,-0.28605893013169986
1791103775339795000,2.593794921875,-4.631847899988293,-8.63878344771266,-0.2962727377679199
1791103775349767000,2.603766845703125,-4.620070076172054,-8.644754338815808,-0.30587933675860984
1791103775359739000,2.61373876953125,-4.598148751743137,-8.656250715342164,-0.3110112745532766
1791103775369709800,2.623709716796875,-4.615722986878454,-8.646544729363917,-0.3205484067706391
1791103775379681800,2.633681884765625,-4.630568381571769,-8.638360253864526,-0.32702629754785445
1791103775389654000,2.643654052734375,-4.641636303552985,-8.632448399472237,-0.3262149446323514
1791103775399625700,2.653625732421875,-4.652846556614339,-8.626195768818258,-0.33189452463872726
1791103775409598000,2.663597900390625,-4.652007767702639,-8.626518424901366,-0.3352394876850769
1791103775419569700,2.673569580078125,-4.644291201975942,-8.630493173751235,-0.33990700457207856
1791103775429542000,2.6835419921875,-4.653671024739742,-8.625458102193475,-0.3394401542453095
1791103775439513900,2.693513916015625,-4.665576858849823,-8.618923147466779,-0.34197394703924655
1791103775449484800,2.70348486328125,-4.665279921729862,-8.619299579563737,-0.3364946023127064
1791103775459457000,2.71345703125,-4.657492336593568,-8.623255039191246,-0.34295839149933305
1791103775469428700,2.7234287109375,-4.682519810344279,-8.609104933285712,-0.35736133965477346
1791103775479401000,2.73340087890625,-4.67415325627625,-8.613375450211763,-0.36391123622227456
1791103775489372700,2.74337255859375,-4.649551022200286,-8.62647283219397,-0.3688051822762936
1791103775499345000,2.753344970703125,-4.6801109956368805,-8.609199041309953,-0.385518380135484
1791103775509316900,2.76331689453125,-4.678312714043259,-8.60985312130451,-0.39270010833311825
1791103775519288800,2.773288818359375,-4.690333406704664,-8.603374280679226,-0.39130408739745615
1791103775529260000,2.783260009765625,-4.701423248256742,-8.596966167202591,-0.3989782387545332
1791103775539231700,2.793231689453125,-4.701465626093745,-8.596255973106622,-0.4134851222084835
1791103775549204000,2.803203857421875,-4.708947506281733,-8.59127993825972,-0.4314018871711567
1791103775559175700,2.81317578125,-4.698932892745733,-8.595656838169694,-0.4528926016304642
1791103775569148000,2.82314794921875,-4.698284073448181,-8.595095112633704,-0.4699395614886656
1791103775579119900,2.833119873046875,-4.673667810846865,-8.60757933115363,-0.4866200626546517
1791103775589091800,2.843091796875,-4.665631511646509,-8.61118115503788,-0.49984278804957866
1791103775599063800,2.853063720703125,-4.655664828905463,-8.615941501307487,-0.5106089140726253
1791103775609034800,2.86303466796875,-4.6620399168953295,-8.611680336731672,-0.524141728330031
1791103775619007000,2.873007080078125,-4.656035415783524,-8.614230021214485,-0.5355076468771324
1791103775628978700,2.882978759765625,-4.662072065599262,-8.609809866684675,-0.5537516710327938
1791103775638951000,2.892950927734375,-4.655588548798859,-8.611761000752448,-0.5774540336595848
1791103775648923000,2.9029228515625,-4.660460831010341,-8.60754250627458,-0.600586012519896
1791103775658894800,2.912894775390625,-4.654851174435019,-8.608850666263699,-0.6248377526577562
1791103775668866800,2.92286669921875,-4.67784509653151,-8.594923847720027,-0.6445466617342084
1791103775678838800,2.9328388671875,-4.670246311965585,-8.59790257126987,-0.6597505144763738
1791103775688810000,2.94281005859375,-4.6673710487902165,-8.59786516186893,-0.6802526197571307
1791103775698781700,2.95278173828125,-4.676494558705389,-8.591341897580026,-0.6997294736433773
1791103775708754000,2.96275390625,-4.656422953796387,-8.601174140286446,-0.7126878855463117
1791103775718726000,2.972725830078125,-4.647848309935629,-8.60478473199904,-0.7249599226202815
1791103775728697900,2.98269775390625,-4.657760924401879,-8.598084357577562,-0.7406748666897416
1791103775738669800,2.992669921875,-4.65212788695097,-8.600037829732894,-0.7532941097661853
1791103775748641800,3.002641845703125,-4.64161906015724,-8.60455969107151,-0.766352474912256
1791103775758613800,3.01261376953125,-4.663017237494886,-8.591489197096228,-0.7829245472677051
1791103775768584700,3.022584716796875,-4.663464104479551,-8.589817464491725,-0.7984523712672292
1791103775778557000,3.032556884765625,-4.663273258082568,-8.588533269900083,-0.8132441360771655
1791103775788529000,3.04252880859375,-4.679595447330176,-8.577953423696757,-0.8309536149647087
1791103775798500900,3.0525009765625,-4.6845948630526655,-8.573882228735089,-0.8446910484161227
1791103775808472800,3.062472900390625,-4.678468196865916,-8.576461139312386,-0.8524388129986822
1791103775818444800,3.07244482421875,-4.704468899562954,-8.561409700652957,-0.8606033416885882
1791103775828416800,3.082416748046875,-4.730076803550124,-8.546230836221575,-0.8710334041576832
1791103775838389000,3.092388916015625,-4.741714634373784,-8.539272103124857,-0.8759935838483274
1791103775848360000,3.10235986328125,-4.755360297888517,-8.530674955171346,-0.8857346411399543
1791103775858332000,3.112331787109375,-4.775071252791583,-8.518966397199033,-0.8923558859106153
1791103775868304000,3.122303955078125,-4.7695378763228655,-8.520692490339279,-0.9053739190462976
1791103775878275800,3.13227587890625,-4.778106674964726,-8.51530202947259,-0.910884864487499
1791103775888247800,3.142247802734375,-4.7835807224616405,-8.51125304634273,-0.9199524794969707
1791103775898219800,3.1522197265625,-4.770964401994645,-8.517439626023172,-0.9281686653088778
1791103775908192000,3.16219189453125,-4.75382592792809,-8.527097681206465,-0.9274276376832276
1791103775918163700,3.172163818359375,-4.766526127286255,-8.51979291115105,-0.9293669351827353
1791103775928135000,3.182135009765625,-4.772199496747553,-8.515994687911867,-0.9350568904526532
1791103775938107000,3.19210693359375,-4.784810848778486,-8.507748253092169,-0.945610652366653
1791103775948078800,3.202078857421875,-4.786975917857885,-8.505459849894047,-0.9551965190965682
1791103775958050800,3.21205078125,-4.805911212213337,-8.494512923943995,-0.9575210165213793
1791103775968022800,3.222022705078125,-4.79058592504859,-8.503703946137428,-0.9527184385452419
1791103775977995000,3.2319951171875,-4.805506430804729,-8.495662093979119,-0.9493242660623044
1791103775987966700,3.241966796875,-4.818531332072616,-8.488436234378813,-0.9479446482721715
1791103775997939000,3.25193896484375,-4.824766134808957,-8.48515940466523,-0.9455595797665417
1791103776007910000,3.261909912109375,-4.827100422975421,-8.484442196306587,-0.9400721613314003
1791103776017881900,3.2718818359375,-4.831395782081782,-8.483432727003096,-0.927021614165604
1791103776027853800,3.281853759765625,-4.823896950758994,-8.48853735666573,-0.9193123549625277
1791103776037825800,3.29182568359375,-4.826620822764933,-8.487816056653857,-0.9116465695749968
1791103776047798000,3.301798095703125,-4.8287955364555115,-8.487098848295211,-0.9068023444142193
1791103776057769700,3.311769775390625,-4.814642800201475,-8.496237848040462,-0.8964015080396085
1791103776067742000,3.321741943359375,-4.805594985871017,-8.502644207951427,-0.8841226758986711
1791103776077713700,3.331713623046875,-4.804472119320929,-8.505233055400847,-0.8651329479422419
1791103776087684900,3.341684814453125,-4.795113339345157,-8.512200556325912,-0.8483670335151254
1791103776097656800,3.35165673828125,-4.783117488864064,-8.520840958899258,-0.8291232577323913
1791103776107628800,3.36162890625,-4.780851882019639,-8.523740771993994,-0.8122060252010822
1791103776117601000,3.37160107421875,-4.773935526759923,-8.529339322653412,-0.7939066906616091
1791103776127572700,3.38157275390625,-4.761169276428222,-8.537794431787729,-0.7795682225771248
1791103776137545000,3.391544921875,-4.7629868472442025,-8.53809136890769,-0.7650782902579755
1791103776147516700,3.4015166015625,-4.731346677355468,-8.557477037379146,-0.7445401638157665
1791103776157489000,3.411489013671875,-4.713630987922847,-8.56867706130743,-0.7279108813803643
1791103776167459800,3.4214599609375,-4.715308273485302,-8.569480194383859,-0.7072931138306856
1791103776177431800,3.431431884765625,-4.704803830605745,-8.576213886553049,-0.6955289532136172
1791103776187404000,3.441404052734375,-4.704863451838493,-8.577575238034129,-0.6781237910348922
1791103776197375700,3.451375732421875,-4.701487837925553,-8.580392633542418,-0.6657724781796336
1791103776207348000,3.461347900390625,-4.698198440991342,-8.583385385617614,-0.6502285798281431
1791103776217319700,3.471319580078125,-4.701600650650263,-8.582415079280734,-0.6383324633944779
1791103776227292000,3.4812919921875,-4.69355792170912,-8.58794407183528,-0.6229850374631584
1791103776237264000,3.491263916015625,-4.693513498045504,-8.588686999157071,-0.6129897131495178
1791103776247234800,3.50123486328125,-4.6877542038664215,-8.592945241123438,-0.5971925341567024
1791103776257207000,3.51120703125,-4.678696452663838,-8.598995627203584,-0.5809199196718633
1791103776267178800,3.5211787109375,-4.68442973561883,-8.596623637375234,-0.569715146503225
1791103776277151000,3.53115087890625,-4.684178391206264,-8.597663501816987,-0.5559289785392582
1791103776287122700,3.541122802734375,-4.691878590320051,-8.594677179482579,-0.5368445215040818
1791103776297095000,3.551094970703125,-4.69178682038337,-8.595760883066058,-0.5200251233240589
1791103776307067000,3.56106689453125,-4.702024429020286,-8.591026840281486,-0.5055872865183278
1791103776317038800,3.571038818359375,-4.704470068606734,-8.590029061415791,-0.49974915494937444
1791103776327009800,3.581009765625,-4.6992818523138755,-8.593669463744758,-0.48577214058842505
1791103776336981800,3.590981689453125,-4.692011861310899,-8.598513396644591,-0.47008638608083125
1791103776346954000,3.6009541015625,-4.68532405411005,-8.60319775506854,-0.4506845701921731
1791103776356926500,3.610926513671875,-4.6832066235646606,-8.605033738324046,-0.43743711221478876
1791103776366898400,3.6208984375,-4.681786235372722,-8.606452372950315,-0.42455311725493516
1791103776376870400,3.630870361328125,-4.698057278954982,-8.598150993072986,-0.4128492719903588
1791103776386842400,3.64084228515625,-4.705704871098697,-8.594834415870904,-0.3943979252269491
1791103776396814300,3.650814453125,-4.709636073067784,-8.593174958226085,-0.3834626166494563
1791103776406785500,3.66078564453125,-4.726148524190485,-8.584804020243883,-0.3674811305982992
1791103776416757200,3.67075732421875,-4.729293836478889,-8.583772339108586,-0.35073454192616044
1791103776426729500,3.6807294921875,-4.727513967324793,-8.585496094161272,-0.3320249826179817
1791103776436701400,3.690701416015625,-4.740283140265942,-8.57917799705565,-0.3127316320724785
1791103776446673400,3.70067333984375,-4.726006193110346,-8.587925951656699,-0.2877251463108696
1791103776456645400,3.710645263671875,-4.720187862220406,-8.591757492643595,-0.268195648921933
1791103776466617300,3.720617431640625,-4.730774430425464,-8.586308579587936,-0.2558523001774214
1791103776476589600,3.730589599609375,-4.727119415049255,-8.588861186680198,-0.2370570718797855
1791103776486560300,3.740560302734375,-4.729914306464791,-8.587668762025237,-0.22413714709002525
1791103776496532500,3.750532470703125,-4.740689675240218,-8.582038062661885,-0.21180795473502947
1791103776506504400,3.76050439453125,-4.757490295654535,-8.573056299304962,-0.19841102355066687
1791103776516476400,3.770476318359375,-4.761864857476949,-8.57087720170021,-0.18731544637754557
1791103776526448400,3.780448486328125,-4.772096913155913,-8.565193895366788,-0.18689888319959863
1791103776536420400,3.79042041015625,-4.752104510962963,-8.576462308356165,-0.1794227021000348
1791103776546392300,3.800392333984375,-4.733550909401476,-8.5869340180099,-0.16864453857932238
1791103776556364500,3.810364501953125,-4.711174826942384,-8.599248725181818,-0.16770420725559815
1791103776566335500,3.82033544921875,-4.691952240078151,-8.60985487487018,-0.1623224594183266
1791103776576307500,3.830307373046875,-4.677794243127107,-8.617570563814043,-0.1615627088258974
1791103776586279400,3.840279541015625,-4.6812195414006705,-8.615795955356955,-0.15692927687158806
1791103776596251400,3.85025146484375,-4.683773025275767,-8.614566121301054,-0.14800866911737248
1791103776606223400,3.860223388671875,-4.682995318901539,-8.615087514826655,-0.14213651654780843
1791103776616195300,3.8701953125,-4.69389226823002,-8.6090546644032,-0.14807644625711253
1791103776626167600,3.88016748046875,-4.685302134539187,-8.61358646261394,-0.15636623616134748
1791103776636139500,3.890139404296875,-4.687094863174855,-8.612545429128408,-0.15999043627418577
1791103776646110500,3.9001103515625,-4.694464807420969,-8.60834447030723,-0.1696904674356803
1791103776656082400,3.91008251953125,-4.711893788866698,-8.598651928332448,-0.17782472885148598
1791103776666054400,3.920054443359375,-4.706333816651999,-8.601683258852361,-0.17843047619229183
1791103776676026400,3.9300263671875,-4.710868537472188,-8.59916864568293,-0.18001959028095005
1791103776685998300,3.939998291015625,-4.685832295893133,-8.612779822406173,-0.18271527737202123
1791103776695970600,3.949970458984375,-4.684477958674728,-8.613611012533307,-0.1782170161047019
1791103776705942300,3.9599423828125,-4.69084486335814,-8.61002672430575,-0.18383509344849736
1791103776715913500,3.96991357421875,-4.706233863408864,-8.601584474653006,-0.18568747984953224
1791103776725885400,3.979885498046875,-4.719386482709646,-8.594455645686388,-0.1819089659578167
1791103776735857400,3.989857421875,-4.729873974454403,-8.58868933724463,-0.18189402411701155
1791103776745829400,3.999829345703125,-4.737382158127427,-8.584564366269111,-0.18121855427455155
1791103776755801300,4.00980126953125,-4.769800911173224,-8.566654031047225,-0.1783436198927462
1791103776765773600,4.019773681640625,-4.809593700118363,-8.544276779544353,-0.18311461542053148
1791103776775745300,4.029745361328125,-4.841942602798342,-8.52572580833137,-0.19485256388410924
1791103776785717500,4.039717529296875,-4.865867960526049,-8.511915309643745,-0.2025083758668974
1791103776795688400,4.0496884765625,-4.869490534937381,-8.509746733433008,-0.2065344713115133
1791103776805660400,4.059660400390625,-4.870231708693504,-8.509342828807235,-0.20569043996911496
1791103776815632400,4.06963232421875,-4.8607171536341305,-8.514878251102566,-0.20165795131633057
1791103776825604400,4.079604248046875,-4.84131248820126,-8.526065415549278,-0.19564263654956593
1791103776835576600,4.08957666015625,-4.829231297524273,-8.532900230005383,-0.19625525202257557
1791103776845548300,4.09954833984375,-4.830870296902955,-8.531875563132763,-0.20042612623274325
1791103776855520500,4.1095205078125,-4.820157764230668,-8.537871588677167,-0.20300364857055245
1791103776865492200,4.1194921875,-4.839180152347684,-8.526931676989793,-0.2101184672781266
1791103776875463400,4.12946337890625,-4.833802843223512,-8.529919752889871,-0.21256964155621824
1791103776885435400,4.139435302734375,-4.8254342433288695,-8.534567286434768,-0.2161459291404113
1791103776895407400,4.149407470703125,-4.8049385677888985,-8.546025084516405,-0.2199932887509465
1791103776905379600,4.159379638671875,-4.815458792759478,-8.539944303297997,-0.22604398535834624
1791103776915351300,4.169351318359375,-4.769095393252372,-8.566116855430602,-0.21853139950484035
1791103776925323500,4.179323486328125,-4.7854251812845465,-8.5568334787786,-0.22513790336409584
1791103776935295200,4.189295166015625,-4.756311607263982,-8.57307968018055,-0.22404314866364
1791103776945267500,4.199267333984375,-4.738035069078207,-8.583353821435571,-0.2177957787066698
1791103776955238400,4.20923828125,-4.725592059351504,-8.590327752101421,-0.21313816215917467
1791103776965210400,4.21921044921875,-4.709252918969095,-8.599360368862747,-0.21054250137647612
1791103776975182600,4.2291826171875,-4.682029396478831,-8.614149941715597,-0.2131052462702617
1791103776985154300,4.239154296875,-4.678194640621543,-8.616274678784608,-0.21142290094019844
1791103776995126500,4.24912646484375,-4.67022614596039,-8.620727566540241,-0.20599349630260838
1791103777005098200,4.25909814453125,-4.6698377311646935,-8.621211550664901,-0.194197808036115
1791103777015070500,4.269070556640625,-4.646154365499317,-8.634224176973104,-0.1838554969157092
1791103777025041400,4.27904150390625,-4.623416756251454,-8.646455297514796,-0.18226002615150064
1791103777035013400,4.289013427734375,-4.6154593675062054,-8.650789527326822,-0.1782327799294144
1791103777044985600,4.298985595703125,-4.606078375698626,-8.656036780330538,-0.1657362864498049
1791103777054957300,4.308957275390625,-4.611628995563089,-8.6533865580827,-0.14888985413238406
1791103777064929500,4.318929443359375,-4.601839130693674,-8.65886820436418,-0.13213937473641707
1791103777074901200,4.3289013671875,-4.59649367801249,-8.661917070540785,-0.11758418602817691
1791103777084873500,4.33887353515625,-4.610751335945725,-8.654406548780202,-0.11220654811044223
1791103777094845400,4.348845458984375,-4.613896648234129,-8.652772225576639,-0.10897267162259668
1791103777104816400,4.35881640625,-4.62535415405482,-8.646716578799486,-0.10382295157606714
1791103777114788600,4.36878857421875,-4.637742218723893,-8.64017811694145,-0.09516913239872082
1791103777124760300,4.37876025390625,-4.6292906167209145,-8.644864813452958,-0.07971655645933932
1791103777134732500,4.388732666015625,-4.655869703827798,-8.63074393364191,-0.05921525032960344
1791103777144704300,4.398704345703125,-4.660814174492657,-8.628117092269658,-0.05288430744213983
1791103777154676500,4.408676513671875,-4.642720007136464,-8.637956349238753,-0.035271096569881775
1791103777164648400,4.4186484375,-4.622182830542326,-8.649017841479182,-0.017589707840728806
1791103777174620400,4.428620361328125,-4.632646941411495,-8.643432734823227,-0.007247885914912331
1791103777184591600,4.438591552734375,-4.613160442914069,-8.653851252985,-0.002878233163055847
1791103777194563300,4.448563232421875,-4.609382970201969,-8.655863177329302,0.004267033483831619
1791103777204535600,4.45853564453125,-4.629304352985322,-8.64521494206488,0.013506917197746224
1791103777214507300,4.46850732421875,-4.656324169597029,-8.630654501792788,0.028602832036430482
1791103777224479500,4.4784794921875,-4.6629541091307996,-8.626962661537528,0.05251480284288991
1791103777234451500,4.488451416015625,-4.671316863806545,-8.622315712514519,0.06956533376451116
1791103777244423400,4.49842333984375,-4.680751339367032,-8.617140355703235,0.07648979469886981
1791103777254395400,4.5083955078125,-4.685036469340324,-8.614819219279289,0.07553719298203941
1791103777264366300,4.518366455078125,-4.689515076059103,-8.612269534796475,0.08744934266847558
1791103777274338600,4.528338623046875,-4.712677924981713,-8.599480195850134,0.09999059773841872
1791103777284310300,4.538310302734375,-4.722063885225356,-8.594145849084853,0.1147562965253368
1791103777294282500,4.548282470703125,-4.727237196210027,-8.591118025696277,0.1276942592952866
1791103777304254500,4.55825439453125,-4.722313768333196,-8.593607504424453,0.14165421292358077
1791103777314226400,4.568226318359375,-4.708994852554798,-8.600613583794235,0.15877895985888316
1791103777324198400,4.578198486328125,-4.70611783581376,-8.602084240868686,0.16427063434403388
1791103777334169300,4.58816943359375,-4.683522557646036,-8.61423878904283,0.17291560349464416
1791103777344141600,4.5981416015625,-4.671969774757326,-8.620301450082659,0.1829985512928106
1791103777354113300,4.60811328125,-4.668042664441466,-8.622256091281772,0.19098091008253396
1791103777364084500,4.61808447265625,-4.674944698914885,-8.618270236515999,0.20171128893876447
1791103777374056700,4.628056640625,-4.69295089572668,-8.608207107663153,0.21299747504685074
1791103777384028700,4.638028564453125,-4.691390222281218,-8.608914963671564,0.2186947551066987
1791103777394000600,4.648000732421875,-4.699201772814988,-8.60485662819147,0.21055227385181932
1791103777403972600,4.65797265625,-4.708054941356182,-8.600138367497921,0.20546309748664496
1791103777413943600,4.667943603515625,-4.711381455430388,-8.598248608228564,0.20828778125224634
1791103777423915500,4.67791552734375,-4.7531762318477035,-8.574823893499374,0.22383060189150272
1791103777433887500,4.687887451171875,-4.730873214624822,-8.586808930325507,0.2365214123668149
1791103777443859500,4.697859375,-4.730401505459845,-8.586810099369288,0.24570549336280673
1791103777453831700,4.707831787109375,-4.732039628055691,-8.585902921396494,0.24588939856234937
1791103777463803600,4.7178037109375,-4.728544771677256,-8.587787419968842,0.24728868916733188
1791103777473775600,4.727775634765625,-4.716206391368806,-8.594325881826878,0.2556322642185725
1791103777483747600,4.73774755859375,-4.712688738636672,-8.596100490283966,0.26076062181666493
1791103777493718500,4.747718505859375,-4.712509582677483,-8.596208042311668,0.2604863897188566
1791103777503690500,4.7576904296875,-4.702620933608711,-8.60155700212419,0.26261894476814196
1791103777513662500,4.767662353515625,-4.694660329993069,-8.605942669862507,0.26136204004222524
1791103777523634700,4.777634765625,-4.6798491298303,-8.614290811491012,0.2518080845542252
1791103777533606700,4.787606689453125,-4.6692704526707525,-8.620343535658717,0.2408011903115548
1791103777543578600,4.79757861328125,-4.6573856613487,-8.62699714832902,0.23251128167631102
1791103777553550600,4.807550537109375,-4.663344277492166,-8.623973416593671,0.22514376684930174
1791103777563521500,4.817521484375,-4.66738215470612,-8.621804840382934,0.22453838483467697
1791103777573493500,4.827493408203125,-4.675093751996755,-8.617812555876373,0.2172237327060662
1791103777583465500,4.837465576171875,-4.691002684268355,-8.609302501684427,0.21163809632714836
1791103777593437700,4.847437744140625,-4.685772090138495,-8.61241274265945,0.20067208208413795
1791103777603409400,4.857409423828125,-4.656407171705365,-8.628574188387393,0.18962207935210315
1791103777613381600,4.867381591796875,-4.6581508005023,-8.62787042403221,0.17849755007913334
1791103777623353600,4.877353515625,-4.621639225184917,-8.647616157987713,0.17195472257323563
1791103777633325600,4.88732568359375,-4.6252270205438135,-8.64586960658133,0.1630941013779491
1791103777643296500,4.897296630859375,-4.623540967153012,-8.64691356267631,0.15533915813593194
1791103777653268500,4.9072685546875,-4.61683182490319,-8.650445828455686,0.1581892138048075
1791103777663240700,4.91724072265625,-4.605170320942998,-8.656701381719111,0.1559141815449111
1791103777673212400,4.92721240234375,-4.605575686873495,-8.656709565025567,0.1429320691059809
1791103777683184600,4.9371845703125,-4.609879813808202,-8.654719267991185,0.12338916424619964
1791103777693156600,4.947156494140625,-4.608191130068898,-8.65579245018065,0.11052391051943414
1791103777703128600,4.957128662109375,-4.611089189597964,-8.654417654696106,0.0964840143895708
1791103777713100500,4.9671005859375,-4.620620403531193,-8.649394858098029,0.09067838771757669
1791103777723071500,4.977071533203125,-4.6194431764453645,-8.650134278288483,0.07939390950938686
1791103777733043700,4.987043701171875,-4.6418782956153155,-8.63824159592092,0.06433565295010339
1791103777743015400,4.997015380859375,-4.646422076524794,-8.635895325055717,0.049548331419844174
1791103777752987600,5.006987548828125,-4.665004319658875,-8.625907599526643,0.04287138353972696
1791103777762959400,5.01695947265625,-4.657728191176057,-8.629866566285491,0.03676672368880827
1791103777772931600,5.026931640625,-4.667908808928728,-8.624388427135347,0.03064449621515814
1791103777782903600,5.036903564453125,-4.663128296653926,-8.627005331635475,0.020117683956876863
1791103777792874500,5.04687451171875,-4.663076274205744,-8.627044494602083,0.01476730393882608
1791103777802846700,5.0568466796875,-4.655457615895569,-8.631163620358706,0.01064929356870125
1791103777812818400,5.066818359375,-4.6655870879828925,-8.625691326427459,0.012166598229896044
1791103777822790700,5.076790771484375,-4.670121224281192,-8.623231658315659,0.015210021046403562
1791103777832762400,5.086762451171875,-4.676975035698711,-8.619509422922134,0.018379297590639908
1791103777842734600,5.096734619140625,-4.696688328689336,-8.60879513668418,0.011864157242688815
1791103777852706600,5.10670654296875,-4.716140048134327,-8.598161514467,0.0061819851328938965
1791103777862678500,5.116678466796875,-4.706283255508541,-8.603561912205814,0.0023065794599802757
1791103777872649700,5.126649658203125,-4.721906356576085,-8.594998082000016,-0.0021202906498117955
1791103777882621400,5.136621337890625,-4.735706918391585,-8.587397543868422,-0.008586999306365032
1791103777892593700,5.14659375,-4.743435466817021,-8.583113582938909,-0.01888183914365363
1791103777902565400,5.1565654296875,-4.753086215476691,-8.577744749382138,-0.02916398675026139
1791103777912537600,5.16653759765625,-4.757610122641921,-8.575211431512237,-0.03552787064281292
1791103777922509600,5.176509521484375,-4.755906825855374,-8.576141405838728,-0.03903754099789075
1791103777932481500,5.1864814453125,-4.747044889485836,-8.581049051624536,-0.039264550120220516
1791103777942452700,5.19645263671875,-4.748127131764591,-8.580429458421468,-0.043551803551940244
1791103777952424400,5.206424560546875,-4.756974747347831,-8.575487325844168,-0.05088352097978349
1791103777962396700,5.216396728515625,-4.736857257470488,-8.586570445394516,-0.05798589119773823
1791103777972368400,5.226368408203125,-4.726923600216209,-8.592048584544658,-0.05728596276745666
1791103777982340600,5.236340576171875,-4.708238188968599,-8.60232097223401,-0.054342356196767645
1791103777992312600,5.2463125,-4.7102501133129,-8.601169464111328,-0.0617952340525575
1791103778002284500,5.256284423828125,-4.70627770255059,-8.603304138052463,-0.06709129920064005
1791103778012256500,5.266256591796875,-4.696018174342811,-8.608928992196917,-0.06434345723064616
1791103778022227500,5.2762275390625,-4.681879466614127,-8.616645265662669,-0.06170938696658704
1791103778032199700,5.28619970703125,-4.692274019378424,-8.610961374807358,-0.06562592108950484
1791103778042171400,5.29617138671875,-4.70489589280337,-8.603994458404182,-0.07491446254039183
1791103778052143600,5.3061435546875,-4.703562598372995,-8.604666658577322,-0.08113215887830592
1791103778062115600,5.316115478515625,-4.700992747884989,-8.606099906250835,-0.07807069808160885
1791103778072087600,5.326087646484375,-4.703035944150388,-8.604990483704208,-0.07735385504914447
1791103778082059500,5.3360595703125,-4.6964553967162965,-8.608561912450194,-0.07967473574476316
1791103778092030500,5.346030517578125,-4.690791964127123,-8.611649941593408,-0.07963407494081184
1791103778102002700,5.356002685546875,-4.6832118842616675,-8.615781342309713,-0.07897204910181463
1791103778111974400,5.365974365234375,-4.688460014048219,-8.612942904013394,-0.0771458200553432
1791103778121946600,5.375946533203125,-4.6899163503363726,-8.612191793385147,-0.07229997832621447
1791103778131918600,5.385918701171875,-4.692487662129104,-8.610795955112575,-0.07170207636514678
1791103778141890600,5.395890625,-4.70237105050087,-8.605327752834558,-0.08021063271975144
1791103778151862500,5.405862548828125,-4.70378793156147,-8.604431680777669,-0.09232457488887011
1791103778161834500,5.41583447265625,-4.713922079823911,-8.59876181844771,-0.10304938252083956
1791103778171805700,5.4258056640625,-4.712391509255767,-8.599544493258,-0.10758698941785842
1791103778181777400,5.43577734375,-4.711591006527841,-8.59991624917984,-0.11283387709539383
1791103778191749600,5.44574951171875,-4.710561663480103,-8.60038094408214,-0.12015865789237432
1791103778201721600,5.4557216796875,-4.714444642393291,-8.59816385255456,-0.12640260291639716
1791103778211693600,5.465693603515625,-4.71373737090677,-8.598467803937195,-0.13191541152112185
1791103778221665500,5.47566552734375,-4.71856785980314,-8.595632288250327,-0.1435725315671414
1791103778231637500,5.485637451171875,-4.71700134113878,-8.59633371451795,-0.15269395912308245
1791103778241608700,5.495608642578125,-4.712781969878077,-8.598491769334673,-0.16127943490510804
1791103778251580400,5.505580322265625,-4.717595215378702,-8.595638133469224,-0.17228431985378265
1791103778261552600,5.515552734375,-4.7191669947400685,-8.594512928831577,-0.1849309075948782
1791103778271524600,5.525524658203125,-4.730330778311193,-8.58812702718675,-0.19602390921842305
1791103778281496600,5.53549658203125,-4.735271157322824,-8.585186882081628,-0.20532456579878924
1791103778291468500,5.545468505859375,-4.7379731097579,-8.583490599557758,-0.21373817387893795
1791103778301440500,5.5554404296875,-4.733424068151414,-8.585708860129117,-0.2251466894587502
1791103778311412500,5.56541259765625,-4.734397297097742,-8.584809865462779,-0.23853965685404835
1791103778321383400,5.575383544921875,-4.738130053885281,-8.582416248324513,-0.2502626269442029
1791103778331355600,5.585355712890625,-4.729548103500902,-8.58663708088994,-0.2672401930943131
1791103778341327600,5.59532763671875,-4.749111758887768,-8.57542712008953,-0.279956539869681
1791103778351299600,5.605299560546875,-4.732827271302044,-8.58407921310067,-0.29038725992590186
1791103778361272600,5.6152724609375,-4.7287335722476245,-8.585824010941385,-0.30508621361954136
1791103778371244500,5.62524462890625,-4.740869123460352,-8.578460788697004,-0.323323716702871
1791103778381216500,5.635216552734375,-4.745800442382693,-8.575138950797914,-0.33876174352709204
1791103778391187700,5.645187744140625,-4.756107901385426,-8.568758309850097,-0.3552628330055624
1791103778401159400,5.655159423828125,-4.762408462834358,-8.564371473067999,-0.37599776066150514
1791103778411131600,5.665131591796875,-4.765188741202652,-8.562174839806556,-0.3905396788962185
1791103778421103400,5.675103271484375,-4.7813420036241405,-8.552230368897318,-0.41049218747019767
1791103778431075600,5.68507568359375,-4.78110965617299,-8.551454123827815,-0.4289587318027392
1791103778441047600,5.695047607421875,-4.7811248537421225,-8.550403737992047,-0.449253551008366
1791103778451019500,5.70501953125,-4.773342529302835,-8.553990948829055,-0.4634857091741636
1791103778460991700,5.71499169921875,-4.783483399567007,-8.546523681688308,-0.49558991637807337
1791103778470962400,5.72496240234375,-4.781359539280832,-8.546542386388778,-0.5153536243816838
1791103778480934700,5.7349345703125,-4.7680564055934544,-8.55245073364973,-0.5400064926663414
1791103778490906400,5.74490625,-4.770621287645399,-8.549436354264616,-0.5645239345356822
1791103778500878600,5.754878662109375,-4.7669759168803685,-8.550274558654428,-0.5823403443964198
1791103778510850600,5.7648505859375,-4.75263174970746,-8.557152043208479,-0.5983475128781051
1791103778520822500,5.774822509765625,-4.755095509472489,-8.554202545753121,-0.6205427588775754
1791103778530794500,5.78479443359375,-4.774427694191038,-8.540693660360574,-0.657095177662
1791103778540765400,5.794765380859375,-4.772462823858857,-8.539934366425872,-0.6808136146407574
1791103778550737700,5.804737548828125,-4.761180674605071,-8.544558519095181,-0.7014788745939731
1791103778560709400,5.81470947265625,-4.770619241818785,-8.53760738478303,-0.7216987288672476
1791103778570681600,5.824681640625,-4.7776013557910915,-8.531718326744437,-0.7447773335725069
1791103778580653600,5.834653564453125,-4.776712590257823,-8.530899411576986,-0.7597130368977785
1791103778590625500,5.84462548828125,-4.780599953085184,-8.52697200900018,-0.7791002397391945
1791103778600597500,5.854597412109375,-4.792522153808176,-8.518318746945262,-0.8002250800281763
1791103778610568400,5.864568359375,-4.786097673718631,-8.520304367804528,-0.8173634079642593
1791103778620540700,5.874540771484375,-4.779270165786147,-8.522448394095898,-0.8347706890348344
1791103778630512400,5.884512451171875,-4.768055236549675,-8.527381174322961,-0.8484183253109454
1791103778640484600,5.894484619140625,-4.7557767697349185,-8.533082016313076,-0.8599252232313156
1791103778650456600,5.90445654296875,-4.753169802106917,-8.533535020777583,-0.869797797948122
1791103778660428500,5.914428466796875,-4.745566049104928,-8.536358846026658,-0.8834965798895805
1791103778670400500,5.924400390625,-4.745892504580318,-8.534650288543105,-0.8981364420734346
1791103778680372500,5.93437255859375,-4.754396129031479,-8.528682320049404,-0.9097698889829218
1791103778690343700,5.94434375,-4.748514669777452,-8.53035054552257,-0.9247223973125219
1791103778700315400,5.9543154296875,-4.741004440277814,-8.532311616462469,-0.944946270173788
1791103778710287600,5.96428759765625,-4.762604862189293,-8.519157535856962,-0.9549540155775844
1791103778720259600,5.974259521484375,-4.751134789147973,-8.524652041620016,-0.9630198331333696
1791103778730231600,5.9842314453125,-4.752572420735657,-8.522489310628176,-0.9750005591105669
1791103778740203500,5.99420361328125,-4.775847497861087,-8.507847037291526,-0.9890450857497751
1791103778750175500,6.004175537109375,-4.761091535016894,-8.515204414317012,-0.9968401966053992
1791103778760146700,6.014146728515625,-4.7610646470099685,-8.5133403740108,-1.0127676874469964
1791103778770118400,6.024118408203125,-4.77410796071738,-8.504528706523775,-1.0253207334194332
1791103778780090600,6.034090576171875,-4.759937104284763,-8.511727093595265,-1.0314540485426782
1791103778790062600,6.0440625,-4.766377658726275,-8.50683522990048,-1.0420143863279372
1791103778800034600,6.05403466796875,-4.752703353638947,-8.51328542895317,-1.0517496714659034
1791103778810006500,6.064006591796875,-4.751852874289453,-8.513662445572018,-1.0525392144083976
1791103778819978500,6.073978515625,-4.751500115329027,-8.51352917458117,-1.055199300463125
1791103778829950500,6.083950439453125,-4.742490294921398,-8.517928870844841,-1.060213475363329
1791103778839921400,6.09392138671875,-4.750634438410401,-8.513217039892076,-1.0615998882204294
1791103778849893600,6.1038935546875,-4.751393732345104,-8.512608552604913,-1.063085888994485
1791103778859865600,6.113865478515625,-4.754338553625345,-8.510961954441665,-1.0631014518897979
1791103778869837600,6.123837646484375,-4.758797286599874,-8.509155781802535,-1.0575970823198557
1791103778879809500,6.1338095703125,-4.772478313688934,-8.502372989794612,-1.0504773865077643
1791103778889781500,6.143781494140625,-4.786752630496025,-8.495221948996186,-1.0433562293909489
1791103778899753500,6.15375341796875,-4.782193944278359,-8.498660691273212,-1.0362309075556695
1791103778909724400,6.163724365234375,-4.789666764377057,-8.495309042757748,-1.0291692986063659
1791103778919696600,6.173696533203125,-4.788041209001839,-8.49719061872065,-1.0211751580473034
1791103778929668600,6.183668701171875,-4.776667289811373,-8.504959499156474,-1.009703477570787
1791103778939640600,6.193640625,-4.766069323429465,-8.511955641654133,-1.000790322470665
1791103778949612500,6.203612548828125,-4.765751928043366,-8.513726742979884,-0.9871472893044352
1791103778959584500,6.21358447265625,-4.754082240776717,-8.521781454619765,-0.9738215053938328
1791103778969556500,6.223556396484375,-4.741807573354244,-8.530263451761007,-0.9592925562385469
1791103778979527400,6.23352734375,-4.745183187267184,-8.529130648338795,-0.9526525337021797
1791103778989499600,6.243499755859375,-4.738175646592676,-8.534271518358588,-0.9414270830716938
1791103778999471600,6.2534716796875,-4.733428744326532,-8.53799667636156,-0.9314769861392677
1791103779009443600,6.263443603515625,-4.737429504400492,-8.537210494419933,-0.9182507901456206
1791103779019415600,6.27341552734375,-4.739374793249368,-8.53736305463314,-0.9067165658269077
1791103779029387500,6.283387451171875,-4.7542166808113455,-8.53046511181295,-0.8938503622520715
1791103779039359500,6.293359375,-4.745682368960976,-8.535987674626707,-0.8864448352359234
1791103779049331700,6.303331787109375,-4.753718668161333,-8.532676358121632,-0.8752027257315814
1791103779059302700,6.313302734375,-4.747266423282027,-8.537788002046943,-0.8602474409230053
1791103779069274600,6.323274658203125,-4.746335864433646,-8.53939835985303,-0.8493246265009045
1791103779079246600,6.33324658203125,-4.737916118873655,-8.545453422108292,-0.8353157556969671
1791103779089218600,6.343218505859375,-4.729937395079434,-8.551270583954453,-0.8208772613041102
1791103779099190500,6.3531904296875,-4.733817743644118,-8.550575002905726,-0.8056151025034487
1791103779109162500,6.36316259765625,-4.721262213453651,-8.557574652534722,-0.8049677445106208
1791103779119134700,6.373134765625,-4.713836155106127,-8.561706637772918,-0.8045578485354781
1791103779129105700,6.383105712890625,-4.708750522404909,-8.564397776553035,-0.8056998581774533
1791103779139077600,6.39307763671875,-4.713325282974541,-8.56261556931138,-0.7978480486985295
1791103779149049600,6.403049560546875,-4.701296699267625,-8.569826231342553,-0.7913682582251728
1791103779159021600,6.413021484375,-4.731419158069789,-8.554027773708105,-0.7827334086097777
1791103779168993500,6.42299365234375,-4.726063476255536,-8.557882111048698,-0.7729018965557217
1791103779178965500,6.432965576171875,-4.725929620742797,-8.55806389735639,-0.7717026768337935
1791103779188937700,6.442937744140625,-4.740951541046798,-8.550929807692766,-0.7585285763535649
1791103779198908700,6.45290869140625,-4.739573530691862,-8.552867497757077,-0.7451760505665094
1791103779208880600,6.462880615234375,-4.722196863955259,-8.563129948574304,-0.7376012313980609
1791103779218852600,6.4728525390625,-4.73127682698965,-8.558537360087037,-0.7326978964611888
1791103779228824600,6.482824462890625,-4.70701390787065,-8.572859899950027,-0.7214454116933048
1791103779238796500,6.492796630859375,-4.695655770771205,-8.579672502574324,-0.7144500729132444
1791103779248768500,6.5027685546875,-4.693138234992325,-8.581397426670788,-0.7102537902671844
1791103779258740700,6.51274072265625,-4.697329841463268,-8.579606451600789,-0.7041450981285423
1791103779268712400,6.52271240234375,-4.693193180049955,-8.582554195490479,-0.6957547978587448
1791103779278683600,6.53268359375,-4.6994396732240915,-8.579200208887457,-0.6949598480887711
1791103779288655600,6.542655517578125,-4.718195519359409,-8.569080965933203,-0.6927304816015064
1791103779298627600,6.552627685546875,-4.714656239317358,-8.571722420352696,-0.6840900059629231
1791103779308599600,6.562599609375,-4.72979535626024,-8.564123635786771,-0.6746973967827856
1791103779318571500,6.572571533203125,-4.731759642070531,-8.563685244369506,-0.6664385408729314
1791103779328543700,6.582543701171875,-4.740145777621865,-8.559976452979445,-0.6543810233324766
1791103779338515500,6.592515380859375,-4.725975797972083,-8.569400114884973,-0.6331797568064182
1791103779348486700,6.602486572265625,-4.726716387206316,-8.569669579476118,-0.6239461375802755
1791103779358458600,6.612458740234375,-4.718022500880062,-8.575805890274047,-0.605143054769747
1791103779368430300,6.622430419921875,-4.715103106302022,-8.57759043560326,-0.602603416756913
1791103779378402300,6.63240234375,-4.728651154661178,-8.57003841278851,-0.6038827890429646
1791103779388374300,6.642374267578125,-4.732644023689628,-8.56757757563293,-0.6075324706569314
1791103779398346500,6.652346435546875,-4.732462821903825,-8.567710846623777,-0.6070636475687846
1791103779408318200,6.662318115234375,-4.742774664820731,-8.562043322381376,-0.6065443729350343
1791103779418289400,6.672289306640625,-4.738753446480631,-8.56477713125944,-0.5993313362836837
1791103779428261400,6.682261474609375,-4.750910332742333,-8.55826848001778,-0.5960526068739592
1791103779438233300,6.6922333984375,-4.758471415646374,-8.554248722982406,-0.5934336565472186
1791103779448205300,6.702205322265625,-4.764745965871215,-8.551215054374932,-0.5867760252889246
1791103779458177300,6.71217724609375,-4.766270106698572,-8.550725809553265,-0.5814952718744054
1791103779468149500,6.7221494140625,-4.762950606887042,-8.552868666800856,-0.5771629782911389
1791103779478121200,6.732121337890625,-4.761861934867501,-8.553788704255222,-0.5724887028697878
1791103779488092400,6.742092529296875,-4.752776711136103,-8.559394853699207,-0.5641313550215215
1791103779498064400,6.752064453125,-4.765688799679279,-8.55252672149539,-0.55936202172786
1791103779508036400,6.762036376953125,-4.766259877565503,-8.552817228874563,-0.5499801896700636
1791103779518008300,6.77200830078125,-4.768187338496745,-8.55185510584414,-0.5482207422494888
1791103779527980300,6.781980224609375,-4.768304242874682,-8.551790223914384,-0.5482129608018323
1791103779537952500,6.791952392578125,-4.765021567942202,-8.55340175076425,-0.5515988038478419
1791103779547924200,6.80192431640625,-4.760740821883082,-8.555657420736551,-0.553586068674922
1791103779557895400,6.8118955078125,-4.754973344397545,-8.55936913473606,-0.5457187693659216
1791103779567867400,6.821867431640625,-4.757829610611498,-8.557758192408084,-0.5461047364762053
1791103779577839400,6.83183935546875,-4.752059502777457,-8.561411454218625,-0.5390248612178489
1791103779587811300,6.841811279296875,-4.755456159478426,-8.559564949569106,-0.5384021992748603
1791103779597783300,6.851783203125,-4.762743686138093,-8.555487909388543,-0.538774320522882
1791103779607755500,6.861755615234375,-4.7537099003329875,-8.560215522432326,-0.5434517012167722
1791103779617727200,6.871727294921875,-4.739406065170467,-8.567946993467212,-0.5465281860526651
1791103779627699500,6.881699462890625,-4.740500874669849,-8.567250243374705,-0.5479603377476334
1791103779637670400,6.89167041015625,-4.724048337040841,-8.576680335021019,-0.5425044834945351
1791103779647642400,6.901642333984375,-4.718400686542689,-8.580102710685134,-0.5375118263063952
1791103779657614300,6.9116142578125,-4.721184472042322,-8.578605165603756,-0.5369784866146743
1791103779667586300,6.92158642578125,-4.71370113054961,-8.5827967720747,-0.5357294729342684
1791103779677558500,6.93155859375,-4.702233103334904,-8.588879306858777,-0.5390208060972392
1791103779687530200,6.9415302734375,-4.693788223333656,-8.593253868681192,-0.5428798561455681
1791103779697502500,6.95150244140625,-4.678831769481301,-8.60120219733715,-0.5461050287371501
1791103779707473200,6.96147314453125,-4.657246545138955,-8.61293355166316,-0.5457237743346021
1791103779717445400,6.9714453125,-4.635982515574992,-8.62412305419743,-0.5500524146560579
1791103779727417300,6.981417236328125,-4.603572238096595,-8.641612533658742,-0.5477730715472251
1791103779737389300,6.991389404296875,-4.5852276031106705,-8.651408536008,-0.5470118413837626
1791103779747361500,7.001361572265625,-4.561262497894465,-8.663855929648875,-0.5503401820888743
1791103779757333200,7.011333251953125,-4.553508815027773,-8.667790931010245,-0.5525912854839116
1791103779767305500,7.021305419921875,-4.55745024612993,-8.66561826314628,-0.5541536028971895
1791103779777276200,7.031276123046875,-4.569852923846245,-8.659216579410433,-0.5520747507965192
1791103779787248400,7.041248291015625,-4.579865199294686,-8.654159296020865,-0.5483906919889152
1791103779797220400,7.051220458984375,-4.5752916077688335,-8.656511996626854,-0.5494537546431646
1791103779807192300,7.0611923828125,-4.595275826655328,-8.645956115821003,-0.5488827132895588
1791103779817164500,7.07116455078125,-4.606384080646932,-8.639691794729233,-0.5543729082036764
1791103779827136300,7.08113623046875,-4.603738826835155,-8.64073984247744,-0.5599852316601202
1791103779837108500,7.0911083984375,-4.6246921830147505,-8.629353356066346,-0.5629096677394584
1791103779847079200,7.1010791015625,-4.61087233197689,-8.636776784065365,-0.5624307251160964
1791103779857051400,7.111051513671875,-4.600211237230897,-8.642929461476207,-0.5551746895732358
1791103779867023000,7.121023193359375,-4.587050142362713,-8.650508372297882,-0.5459664605166763
1791103779876995300,7.130995361328125,-4.588335798259079,-8.650552211439608,-0.5343269491925835
1791103779886967300,7.14096728515625,-4.572216730368137,-8.659417654940485,-0.5288663822317495
1791103779896939300,7.150939208984375,-4.584490228746831,-8.652889129954575,-0.5294845871953293
1791103779906911500,7.160911376953125,-4.608063119775057,-8.640558056169748,-0.5262117760697379
1791103779916882200,7.170882080078125,-4.623497420272231,-8.632623756039141,-0.5210200526455417
1791103779926854400,7.1808544921875,-4.642844510298967,-8.62257640927732,-0.5153348466159775
1791103779936826000,7.190826171875,-4.659891798950731,-8.613684077769518,-0.5101457170076668
1791103779946798300,7.20079833984375,-4.67612952478528,-8.60500685031712,-0.5080029693579301
1791103779956770300,7.210770263671875,-4.7200087062612175,-8.581150173911452,-0.5057313346315175
1791103779966742300,7.2207421875,-4.718638586951792,-8.582493989735841,-0.4956191790051758
1791103779976714500,7.230714599609375,-4.716045355588197,-8.584871240261197,-0.47885176674071694
1791103779986686200,7.240686279296875,-4.726821308885515,-8.579832661572098,-0.4626194842662662
1791103779996657400,7.250657470703125,-4.718929094330966,-8.585064717006682,-0.4458160143077373
1791103780006629000,7.260629150390625,-4.70901852569133,-8.59105723541975,-0.43505741400402037
1791103780016601300,7.270601318359375,-4.716244969813525,-8.58758751348257,-0.42515769555196165
1791103780026573300,7.2805732421875,-4.7425095841437575,-8.573611595100164,-0.4149421891489997
1791103780036545300,7.290545166015625,-4.749223402568697,-8.570143042206764,-0.4097701568059623
1791103780046517200,7.300517333984375,-4.748038284437358,-8.570826932817697,-0.4091876076776534
1791103780056489200,7.3104892578125,-4.760685292303562,-8.564071613338589,-0.40364747267458584
1791103780066460400,7.32046044921875,-4.758892563667893,-8.565576757204532,-0.39270131390951574
1791103780076432100,7.33043212890625,-4.762351179689168,-8.564185595107078,-0.3809368610315025
1791103780086404400,7.340404296875,-4.784974807168543,-8.552154965573548,-0.3674759429665282
1791103780096376300,7.350376220703125,-4.798569617278874,-8.544832659861445,-0.36050241415947676
1791103780106348300,7.360348388671875,-4.797219371713697,-8.54590467300713,-0.3529654427833855
1791103780116320300,7.3703203125,-4.7943856095924975,-8.548092538440226,-0.338154534881562
1791103780126292200,7.380292236328125,-4.779559796382487,-8.557039815005659,-0.32133020479809493
1791103780136263400,7.390263427734375,-4.770753097331523,-8.562416831868886,-0.30874479092601687
1791103780146235100,7.400235107421875,-4.772636426860093,-8.561616036880016,-0.30174621900925414
1791103780156207400,7.410207275390625,-4.7625265362560745,-8.567322139567136,-0.29951005745502185
1791103780166179300,7.420179443359375,-4.75016185246259,-8.574185011073947,-0.2995075732369907
1791103780176151300,7.4301513671875,-4.748260110494495,-8.575282743182777,-0.29821417242558673
1791103780186123300,7.440123291015625,-4.739346443937719,-8.580353470575808,-0.29413895887592806
1791103780196095200,7.45009521484375,-4.735214750960469,-8.582797356596588,-0.2893547750730067
1791103780206066400,7.46006640625,-4.743097905425727,-8.578739021116494,-0.28044790358319877
1791103780216038100,7.4700380859375,-4.748245497447252,-8.576209794899821,-0.2705057159625925
1791103780226010400,7.48001025390625,-4.7522576556980605,-8.574224174040555,-0.26289447377389297
1791103780235982300,7.489982421875,-4.749963699541985,-8.575777833223343,-0.253523199642729
1791103780245954300,7.499954345703125,-4.742814996831119,-8.579938460034132,-0.24647775637693703
1791103780255926300,7.50992626953125,-4.747641978596151,-8.577468270528316,-0.23939430092200636
1791103780265898200,7.519898193359375,-4.7483971808776255,-8.577228616553544,-0.232907404854428
1791103780275869400,7.529869384765625,-4.756975039608776,-8.572807877501845,-0.22028306547775864
1791103780285841200,7.539841064453125,-4.767750408384203,-8.567249658852814,-0.20288955720420926
1791103780295813400,7.5498134765625,-4.77723924448043,-8.562308695319295,-0.1877014317541383
1791103780305785300,7.559785400390625,-4.788585106620192,-8.556188751134275,-0.17735813425304367
1791103780315757300,7.56975732421875,-4.7940462946355344,-8.553269064295291,-0.1705673598680645
1791103780325729300,7.579729248046875,-4.798574293453991,-8.550774909391999,-0.16831545275542883
1791103780335701200,7.589701171875,-4.801073124532401,-8.5493182808429,-0.1709725248691626
1791103780345672400,7.59967236328125,-4.795241934160888,-8.552630181869864,-0.1689660986838862
1791103780355644200,7.60964404296875,-4.79687011988461,-8.55177911799848,-0.16582780065815894
1791103780365615900,7.619615966796875,-4.779350245285034,-8.561510238417982,-0.16952530346922576
1791103780375587800,7.629587890625,-4.772077331672609,-8.565537009716033,-0.17100494756773113
1791103780385559800,7.639559814453125,-4.739691311852634,-8.58333394769132,-0.1791645078215748
1791103780395531800,7.64953173828125,-4.740170912063122,-8.582855808785558,-0.1890489739055745
1791103780405503700,7.659503662109375,-4.71876338237524,-8.594344586527347,-0.2022421444124542
1791103780415475000,7.669474853515625,-4.728290212394297,-8.588745451346039,-0.2170388959247619
1791103780425446700,7.67944677734375,-4.733321484559774,-8.585504277467727,-0.23485612776940687
1791103780435419000,7.6894189453125,-4.724141860543191,-8.590300279572606,-0.24413760472526772
1791103780445390800,7.699390869140625,-4.712781093095242,-8.59633196095228,-0.25129576938422393
1791103780455362800,7.70936279296875,-4.716633969131112,-8.593954125905036,-0.26019285013237964
1791103780465334800,7.719334716796875,-4.718626019731164,-8.592555949544906,-0.27006783600198103
1791103780475306800,7.729306640625,-4.711516479986906,-8.596229085099697,-0.2772040445574559
1791103780485278700,7.73927880859375,-4.712212645557522,-8.595545194488762,-0.2864465777424164
1791103780495249700,7.749249755859375,-4.694815228293836,-8.604835000881552,-0.2931316815295256
1791103780505222000,7.759221923828125,-4.690721529239416,-8.606938695162535,-0.2968646027138456
1791103780515193900,7.76919384765625,-4.684698031166196,-8.610161748862266,-0.29850977610498663
1791103780525165800,7.779165771484375,-4.668525771783292,-8.619034206625818,-0.29580093727139756
1791103780535137800,7.7891376953125,-4.653977898731828,-8.626924083092808,-0.29505952605325725
1791103780545109800,7.79910986328125,-4.653307744385302,-8.62720056194663,-0.29753577997367825
1791103780555081000,7.8090810546875,-4.6530233744859695,-8.627215174993871,-0.3015346768841147
1791103780565052700,7.819052734375,-4.621983216316997,-8.643727918377518,-0.30598917207494375
1791103780575025000,7.82902490234375,-4.641624613115191,-8.632932968118787,-0.3133405942836776
1791103780584996900,7.838996826171875,-4.614641913643479,-8.64741508245766,-0.31254005502313376
1791103780594968800,7.84896875,-4.599385892322659,-8.655524154633284,-0.3129540791841224
1791103780604940800,7.85894091796875,-4.578937855316698,-8.666296308538318,-0.3146920454252511
1791103780614912800,7.868912841796875,-4.562051894706487,-8.675036664354801,-0.3190714295532554
1791103780624884000,7.878884033203125,-4.557967548002303,-8.677110548019408,-0.32103553270045665
1791103780634855700,7.888855712890625,-4.564959598846733,-8.673232245281339,-0.3264430177671835
1791103780644828000,7.898827880859375,-4.570881974633037,-8.670147723269462,-0.32548973563034084
1791103780654800000,7.9087998046875,-4.579181600944698,-8.665681391510367,-0.32777492395807056
1791103780664771800,7.918771728515625,-4.573772143116593,-8.66828543652892,-0.3343737011685967
1791103780674743800,7.928743896484375,-4.569310195271671,-8.670329509577154,-0.3423253908254206
1791103780684715800,7.9387158203125,-4.555490928755701,-8.677301102155447,-0.349782355767861
1791103780694687700,7.948687744140625,-4.552140741544962,-8.679107274794578,-0.34857290691286325
1791103780704658700,7.95865869140625,-4.55298420663178,-8.678772928273677,-0.34587179472800345
1791103780714631000,7.968630859375,-4.551940835058689,-8.679490136632323,-0.34158107526414094
1791103780724603000,7.978602783203125,-4.5499791795969005,-8.680562149778009,-0.340470337543264
1791103780734574800,7.988574951171875,-4.5609763744294645,-8.674633928772806,-0.3444072751333937
1791103780744546800,7.998546875,-4.564189198996126,-8.672617912775278,-0.352518904592283
1791103780754518800,8.008518798828124,-4.571142086873948,-8.668708630377054,-0.3585207022903487
1791103780764490800,8.01849072265625,-4.580311774018407,-8.663491187989711,-0.3675026848429814
1791103780774461700,8.028461669921874,-4.588844332303107,-8.658799815303087,-0.3716048594648018
1791103780784434000,8.038433837890626,-4.580951825487613,-8.66280437476933,-0.3756294022731483
1791103780794406000,8.048406005859375,-4.564863152734935,-8.671368789497018,-0.3738782477568835
1791103780804377900,8.0583779296875,-4.565519863077998,-8.670914031466841,-0.3763980850907042
1791103780814349800,8.068349853515626,-4.576844097907841,-8.665086932748556,-0.3730368650292977
1791103780824321800,8.07832177734375,-4.605532139992714,-8.649584827712177,-0.37965964416991915
1791103780834293800,8.088293701171875,-4.601918041148782,-8.651325533899664,-0.38379714583344754
1791103780844264700,8.0982646484375,-4.5871001189842815,-8.659152282002568,-0.38467670514695346
1791103780854237000,8.10823681640625,-4.590024481998384,-8.657117561304569,-0.39543563424423334
1791103780864209000,8.118208984375,-4.608317094536125,-8.646906548413634,-0.4059673304568976
1791103780874180900,8.128180908203126,-4.599737482239306,-8.651056069308519,-0.4147613161567598
1791103780884152800,8.13815283203125,-4.603492450858652,-8.648426305326819,-0.42775099998079236
1791103780894124800,8.148124755859374,-4.6101548313573,-8.644015503147244,-0.4448079332437366
1791103780904096800,8.1580966796875,-4.615284303200244,-8.640296774885059,-0.463468502311036
1791103780914067700,8.168067626953125,-4.636056165333092,-8.628472481578587,-0.4762609099972993
1791103780924040000,8.1780400390625,-4.662349128974974,-8.613239256611466,-0.49495939992219207
1791103780934012000,8.188011962890625,-4.665439788466692,-8.610800046765803,-0.5081021919487044
1791103780943983900,8.19798388671875,-4.672353513377905,-8.605904675939678,-0.5271695517186075
1791103780953955800,8.207955810546874,-4.68458667974621,-8.598115921759605,-0.5453726593419909
1791103780963927800,8.217927734375,-4.671768114705383,-8.60396347874403,-0.5628348124049604
1791103780973899800,8.227899658203125,-4.667008937479555,-8.606100490772723,-0.5695927256999537
1791103780983870700,8.23787060546875,-4.673668395368755,-8.601832896456122,-0.5793788642423227
1791103780993843000,8.247843017578125,-4.6792540865465995,-8.598137549069524,-0.5890584371376782
1791103781003815000,8.25781494140625,-4.685950369314849,-8.59355840458572,-0.6025018926111981
1791103781013787000,8.267786865234376,-4.6872906780079004,-8.59128286086917,-0.6241399065867066
1791103781023758800,8.2777587890625,-4.693380227054655,-8.58616712529063,-0.6483131746608763
1791103781033730800,8.287730712890625,-4.7003234703212975,-8.580494340351223,-0.6726546389088034
1791103781043702800,8.297702880859376,-4.709092175449431,-8.574111361315845,-0.6924316447854042
1791103781053673700,8.307673828125,-4.715208320242167,-8.569429340979456,-0.7085770892266183
1791103781063646000,8.31764599609375,-4.71662666260749,-8.5674828830868,-0.7225290422115475
1791103781073618000,8.327617919921876,-4.721599774844944,-8.5631018915236,-0.7417229144379496
1791103781083590000,8.33758984375,-4.71756072858721,-8.5632491910398,-0.7653569610688835
1791103781093561900,8.347561767578124,-4.716422372207045,-8.561827049282194,-0.7879533352151513
1791103781103533800,8.357533935546876,-4.709276007583737,-8.563775845262407,-0.809237238523364
1791103781113505800,8.367505859375,-4.70206271520406,-8.566346572533249,-0.8238318002607673
1791103781123476700,8.377476806640624,-4.706311312559246,-8.562313956016302,-0.8413018443692475
1791103781133449000,8.387448974609375,-4.722981292331219,-8.551315592139959,-0.8595531019832938
1791103781143421000,8.3974208984375,-4.725643497277796,-8.547394619303942,-0.8835763671275227
1791103781153393000,8.407392822265624,-4.714662084536254,-8.55135124797523,-0.903735796450451
1791103781163364900,8.41736474609375,-4.717322828178108,-8.547780403751135,-0.9234263661526143
1791103781173336800,8.4273369140625,-4.691882974234223,-8.559999249333142,-0.9397010629966854
1791103781183308800,8.437308837890624,-4.673270043700933,-8.56925456893444,-0.9480634523462503
1791103781193279700,8.44727978515625,-4.660515191546082,-8.574919755089283,-0.9595510610442608
1791103781203251700,8.457251708984375,-4.647002214500308,-8.581088799113035,-0.9698770055517554
1791103781213224000,8.467223876953126,-4.643623677977919,-8.581558170190453,-0.9818390998937189
1791103781223196000,8.47719580078125,-4.657970475499332,-8.572142107069492,-0.9960279303744435
1791103781233168000,8.48716796875,-4.66175934638828,-8.568570093801616,-1.0089579199004919
1791103781243139800,8.497139892578126,-4.656602694277465,-8.569781223157047,-1.022393593926355
1791103781253111800,8.50711181640625,-4.663161029879748,-8.56541075298786,-1.0291082891341299
1791103781263082800,8.517082763671874,-4.670596732838452,-8.561241358348727,-1.0300791069276631
1791103781273054700,8.5270546875,-4.678276181425154,-8.557631935679913,-1.025206970846653
1791103781283027000,8.53702685546875,-4.679207909317315,-8.55799317020774,-1.017921709209308
1791103781292999000,8.5469990234375,-4.694048627835512,-8.550423611736298,-1.013183720901981
1791103781302971000,8.556970947265626,-4.695764199581742,-8.549574885952472,-1.0123930819809437
1791103781312942800,8.56694287109375,-4.698409453393519,-8.548539113163947,-1.0088632273543625
1791103781322914800,8.576914794921874,-4.689692770713568,-8.553654264220595,-1.006063440568
1791103781332885800,8.5868857421875,-4.675937509344518,-8.562010004633665,-0.9989901411809027
1791103781342857700,8.596857666015625,-4.660541787292063,-8.571576874402165,-0.9888343656085431
1791103781352830000,8.606829833984374,-4.651326215179265,-8.577820737227796,-0.9780308667171745
1791103781362802200,8.61680224609375,-4.641430551847815,-8.584283211240171,-0.9682915629912168
1791103781372774100,8.626774169921875,-4.642202705264091,-8.585017370733619,-0.9580251666512339
1791103781382746000,8.63674609375,-4.6408249871701,-8.587315126281975,-0.9440044592790305
1791103781392718000,8.646718017578126,-4.642798333069682,-8.58710236031413,-0.9362120518371462
1791103781402689300,8.656689208984375,-4.66215945162177,-8.578448513737321,-0.9191681241862475
1791103781412661000,8.666660888671874,-4.669507476297021,-8.575867265072464,-0.9058656480859965
1791103781422633200,8.67663330078125,-4.678322358654439,-8.57259277344644,-0.8912565463665872
1791103781432605200,8.686605224609375,-4.699631104142964,-8.561597332179545,-0.8848158457946032
1791103781442577200,8.6965771484375,-4.7016178940460085,-8.561582134610415,-0.8743472779460251
1791103781452549000,8.706549072265625,-4.7111119908392425,-8.557323308122157,-0.864880288355425
1791103781462521000,8.71652099609375,-4.7006475877091285,-8.56395996965766,-0.8560850605465471
1791103781472492300,8.7264921875,-4.700100182959437,-8.56545108499825,-0.8440873834345489
1791103781482464000,8.736464111328125,-4.707440024328232,-8.561900699040294,-0.8391925971303135
1791103781492436200,8.746436279296875,-4.705295413514971,-8.5640710288167,-0.8290132214866578
1791103781502408200,8.756408203125,-4.718247834068537,-8.557854638519883,-0.819535272110626
1791103781512380200,8.766380126953125,-4.738609361834824,-8.547436704879999,-0.8107384368665516
1791103781522352000,8.77635205078125,-4.751610297705233,-8.541060155585408,-0.8017854612126946
1791103781532324000,8.786323974609376,-4.745556696754694,-8.545282741716504,-0.792600065042451
1791103781542295300,8.79629541015625,-4.7581657106980675,-8.539094408470392,-0.7836598027396947
1791103781552267000,8.80626708984375,-4.7592689957648515,-8.539297822088002,-0.7746900951467454
1791103781562239200,8.8162392578125,-4.741552137288451,-8.550134857922792,-0.7637125548627227
1791103781572211200,8.826211181640625,-4.747079084016383,-8.548947109442949,-0.7423859083913267
1791103781582183200,8.83618310546875,-4.726999003539979,-8.56197902497351,-0.7199807459682226
1791103781592155100,8.846155029296876,-4.720929620498419,-8.567312202695012,-0.6959552888669073
1791103781602127000,8.856127197265625,-4.7339846246436235,-8.561746385261415,-0.6754805099844932
1791103781612098300,8.866098388671874,-4.732789569640159,-8.563934835216402,-0.6558235502909868
1791103781622070000,8.876070068359375,-4.735431608581543,-8.563647834968567,-0.6403232718855142
1791103781632042200,8.886042236328125,-4.740288400962949,-8.562064949691296,-0.6253772663619369
1791103781642014200,8.89601416015625,-4.735681199428439,-8.565762050643563,-0.6094605161100626
1791103781651986200,8.905986083984375,-4.726505667065084,-8.572028709822893,-0.5923210191302001
1791103781661958100,8.915958251953125,-4.733951306895912,-8.569382579228282,-0.570759723652713
1791103781671930000,8.92593017578125,-4.715194583977759,-8.581350664919615,-0.5456660893306136
1791103781681901300,8.9359013671875,-4.703823587396741,-8.58922885094881,-0.5192126744300126
1791103781691873000,8.945873046875,-4.7090372303918,-8.587518539899587,-0.4998814030269161
1791103781701845200,8.95584521484375,-4.6838364459007975,-8.60241391121447,-0.4801387743439525
1791103781711817200,8.965817138671875,-4.666598018591106,-8.612717863085866,-0.4629711472481489
1791103781721789200,8.9757890625,-4.679755314067005,-8.606127378779648,-0.45258886944353577
1791103781731761200,8.98576123046875,-4.689376544371247,-8.602330909106135,-0.4242886576324701
1791103781741732000,8.995732177734375,-4.694667344255745,-8.60069892399013,-0.3980715722383931
1791103781751704300,9.005704345703125,-4.697400568611919,-8.600012110769748,-0.38025980202015486
1791103781761676000,9.015676025390626,-4.705329608045518,-8.596357679915428,-0.36454087589532136
1791103781771648300,9.025648193359375,-4.69563677380979,-8.602623170050979,-0.3409683867258951
1791103781781620200,9.0356201171875,-4.7121752361565825,-8.594379073318839,-0.3200657743528485
1791103781791592200,9.04559228515625,-4.707199493570625,-8.597996094772219,-0.29515257463157174
1791103781801564200,9.055564208984375,-4.689341180796921,-8.608467804425954,-0.27340498106805605
1791103781811535000,9.06553515625,-4.690344512620568,-8.608443254506588,-0.25643614621367306
1791103781821507300,9.07550732421875,-4.675996838316321,-8.616935773041844,-0.232102664342802
1791103781831479000,9.08547900390625,-4.6805981946319335,-8.614877086946368,-0.21514117254465817
1791103781841451300,9.095451171875,-4.668638876768946,-8.621877321097255,-0.1934624429662712
1791103781851423200,9.10542333984375,-4.65729389141202,-8.628351485547423,-0.17757758569000287
1791103781861395200,9.115395263671875,-4.656216617569327,-8.629276783698797,-0.15999900317313148
1791103781871367200,9.1253671875,-4.676131862872839,-8.618702198192477,-0.14882323690326885
1791103781881338000,9.135338134765625,-4.683023083691299,-8.615306126013397,-0.12717115786978975
1791103781891310300,9.145310302734375,-4.678037111972272,-8.618167945185304,-0.11631909799580462
1791103781901282000,9.155281982421876,-4.6820688517063855,-8.616101660305262,-0.10680426894179544
1791103781911254300,9.165254150390625,-4.698757536178827,-8.607116974338888,-0.09796097334064542
1791103781921226200,9.175226318359375,-4.68687128355205,-8.613762988224625,-0.0818520523843821
1791103781931198200,9.1851982421875,-4.691684529052674,-8.611241945314406,-0.07057680779541842
1791103781941170200,9.195170166015625,-4.685141391019523,-8.614879425033926,-0.06058497691338416
1791103781951141000,9.20514111328125,-4.687303245228529,-8.613770002487302,-0.05044469117110129
1791103781961113000,9.215113037109376,-4.669478250202537,-8.62347131229043,-0.04590755006496328
1791103781971085000,9.2250849609375,-4.664361053319275,-8.626283447101711,-0.03680591177159222
1791103781981057300,9.235057373046875,-4.665436573596298,-8.62572698226273,-0.030367690851062067
1791103781991029200,9.245029296875,-4.686583114260435,-8.614270353224873,-0.025850014780508353
1791103782001001200,9.255001220703125,-4.690445927168429,-8.61218477912247,-0.01948826804611599
1791103782010973200,9.26497314453125,-4.688327035318315,-8.613347393161058,-0.015145011252484982
1791103782020944100,9.274944091796876,-4.68883060092628,-8.61308143570125,-0.009273843921965454
1791103782030916000,9.284916015625,-4.688736200641095,-8.61313754980266,0.0015523949544127389
1791103782040888000,9.29488818359375,-4.678039742320776,-8.618949450951813,0.006468229612192953
1791103782050860300,9.3048603515625,-4.682797165980935,-8.616362941589951,0.009491618283424758
1791103782060832300,9.314832275390625,-4.6709907005921005,-8.622768132457137,0.009348830545559758
1791103782070804200,9.32480419921875,-4.658992219762504,-8.629245804038643,0.017073359241359866
1791103782080776200,9.334776123046876,-4.6691029871493575,-8.623773510107398,0.019828612766251898
1791103782090747100,9.3447470703125,-4.677470710261166,-8.619217161977291,0.02722680585931521
1791103782100719000,9.354718994140624,-4.672016828769445,-8.6221467856884,0.03504951025805203
1791103782110691000,9.364691162109375,-4.667886889357865,-8.624352186778188,0.04198448116998188
1791103782120663000,9.3746630859375,-4.679186866529285,-8.61821178432703,0.0449343119854806
1791103782130635300,9.38463525390625,-4.6614738074451685,-8.627772224354743,0.05091564685082994
1791103782140607200,9.394607177734375,-4.64807042825371,-8.634986978039144,0.053286791862384414
1791103782150579200,9.4045791015625,-4.646090068091452,-8.636055484053491,0.052708791045029645
1791103782160550100,9.414550048828126,-4.641155242037773,-8.638694015863537,0.0549536930281436
1791103782170522000,9.424522216796875,-4.63681575152874,-8.64100170828402,0.05843211429500952
1791103782180494000,9.434494140625,-4.639076974458992,-8.639737971958517,0.0654165069893701
1791103782190466000,9.444466064453126,-4.650825279919803,-8.633390648758411,0.06907520759343169
1791103782200438300,9.454438232421875,-4.65368476100415,-8.631822961050272,0.07238918641305063
1791103782210410200,9.46441015625,-4.664817272654176,-8.625861422297358,0.06626606845683418
1791103782220382200,9.47438232421875,-4.675581827774644,-8.620071732980012,0.06072298344485461
1791103782230353200,9.484353271484375,-4.695206273438036,-8.609431096500158,0.05589957730981986
1791103782240325000,9.4943251953125,-4.7024826941818,-8.60547446782887,0.0533451161871897
1791103782250297000,9.504297119140626,-4.706237955062091,-8.603451437568664,0.04834583289544098
1791103782260269000,9.51426904296875,-4.708462645374238,-8.602257843869925,0.043897027659881856
1791103782270241300,9.5242412109375,-4.695891917614638,-8.609143511730432,0.04054447039554361
1791103782280213000,9.534212890625,-4.6872065068557855,-8.613896259215474,0.035747548125346654
1791103782290185200,9.544185302734375,-4.684658283677697,-8.615310217666625,0.028094807165767996
1791103782300156200,9.55415625,-4.684885078170895,-8.615201496595144,0.0229728907249053
1791103782310128000,9.564128173828125,-4.677926637335121,-8.619000304356216,0.015185862711037043
1791103782320100400,9.574100341796875,-4.671423246790469,-8.62253958439827,0.0018981757566638405
1791103782330072000,9.584072021484374,-4.681688327956199,-8.616957400351762,-0.015044133277452782
1791103782340044300,9.594044189453125,-4.691832413090765,-8.611395674571394,-0.031040324849041644
1791103782350016000,9.60401611328125,-4.690227900503576,-8.612177764859796,-0.050405414040060714
1791103782359987200,9.6139873046875,-4.700274370482564,-8.606521931055187,-0.07478511880598962
1791103782369959200,9.623959228515625,-4.6827603411018845,-8.615801800575852,-0.10048166919099166
1791103782379931100,9.63393115234375,-4.699769928091764,-8.606260649770498,-0.12174536996139212
1791103782389903400,9.6439033203125,-4.680619821941852,-8.6164564650923,-0.13732455882197245
1791103782399875000,9.653875,-4.687971061487495,-8.61226193601191,-0.14914358229828067
1791103782409847300,9.663847412109375,-4.685025655685365,-8.61367764802873,-0.15960614966433495
1791103782419819000,9.673819091796876,-4.693472289252281,-8.608816763994097,-0.1731234558253549
1791103782429790200,9.683790283203125,-4.705024487619101,-8.602232124906777,-0.18638391941478474
1791103782439762200,9.69376220703125,-4.7182323442384595,-8.594754920893907,-0.19714180733244865
1791103782449734100,9.703734130859376,-4.71157463991493,-8.598132288372517,-0.20876816691402345
1791103782459706400,9.713706298828125,-4.711700312121212,-8.597767546713351,-0.22059678933573884
1791103782469678000,9.723677978515624,-4.721117836546898,-8.592388191762566,-0.22868790572956202
1791103782479650300,9.733650390625,-4.710910038526356,-8.597868084478378,-0.23320255187610162
1791103782489622000,9.7436220703125,-4.710271740622818,-8.598166775164009,-0.23504582338891922
1791103782499593200,9.75359326171875,-4.697656589199602,-8.605090436947345,-0.2341495869352482
1791103782509565200,9.763565185546875,-4.688891683463752,-8.609902805665135,-0.23296406694510952
1791103782519537200,9.773537109375,-4.688289918178319,-8.610263455671072,-0.23170813033357263
1791103782529509400,9.78350927734375,-4.680855092002451,-8.614352186289429,-0.23007042786283416
1791103782539481000,9.793481201171875,-4.690288398519158,-8.609326467081903,-0.226026230505947
1791103782549453300,9.803453369140625,-4.683235265137255,-8.613294201669097,-0.22103284266544504
1791103782559425000,9.813425048828124,-4.6830844584897156,-8.613558990085124,-0.2137673451744951
1791103782569396200,9.823396240234375,-4.681355150479078,-8.614604115223884,-0.20948427929412572
1791103782579368200,9.8333681640625,-4.6862177880793805,-8.612042740303277,-0.20608190523842349
1791103782589340200,9.843340087890626,-4.681486960165202,-8.614754337349533,-0.200143930024188
1791103782599312400,9.8533125,-4.667990057471394,-8.622348445740341,-0.1880406553795561
1791103782609284000,9.8632841796875,-4.684421844573318,-8.613638485062122,-0.17833684309208764
1791103782619256300,9.87325634765625,-4.680225854188204,-8.616097568652034,-0.16948884391635655
1791103782629228000,9.88322802734375,-4.686358073332905,-8.612890881565212,-0.16291067110244184
1791103782639199200,9.89319921875,-4.6919399651184674,-8.609954828113317,-0.157367321228981
1791103782649171200,9.903171142578126,-4.706709371966124,-8.601979611450433,-0.15238876563142983
1791103782659143200,9.91314306640625,-4.703777994689345,-8.603699274849891,-0.1456897063842043
1791103782669115400,9.923115478515625,-4.695317332597076,-8.608471311557292,-0.1364242581145372
1791103782679087000,9.933087158203126,-4.701040970940888,-8.605506616532802,-0.12598228601193986
1791103782689059300,9.943059326171875,-4.714247073994577,-8.59848007889688,-0.11131733505260198
1791103782699030300,9.9530302734375,-4.701374148418009,-8.605725812241435,-0.09456353118838742
1791103782709002200,9.963002197265626,-4.699398464430868,-8.606997147351503,-0.07504184721314813
1791103782718974200,9.97297412109375,-4.708117485198378,-8.602401051732897,-0.0520744980297517
1791103782728946200,9.9829462890625,-4.7059278661996125,-8.603722071203588,-0.024364091638266108
1791103782738918400,9.99291845703125,-4.700702240505814,-8.606611947426199,0.003330706192133948
1791103782748890000,10.00289013671875,-4.693003502696753,-8.610756792145967,0.03129479508374352
1791103782758862300,10.0128623046875,-4.711856963987648,-8.60034295015931,0.053734494530688966
1791103782768833300,10.022833251953125,-4.700155712538957,-8.60653712862432,0.08029841146790422
1791103782778805200,10.03280517578125,-4.697844220726192,-8.607550105059147,0.10361132725253701
1791103782788777200,10.042777099609374,-4.692748943413794,-8.610024386218189,0.12646601440827362
1791103782798749200,10.052749267578125,-4.686558564341068,-8.613034089428186,0.1489937711645849
1791103782808721400,10.062721435546875,-4.676518524102867,-8.618148071441054,0.16759497472746296
1791103782818693000,10.072693115234374,-4.666464747600257,-8.62320886196196,0.18648675873475148
1791103782828665300,10.082665283203125,-4.664646884523332,-8.62393892980218,0.1978216245564632
1791103782838636000,10.092635986328125,-4.6561675177305935,-8.628305308318138,0.20694568246090783
1791103782848608300,10.102608154296876,-4.650137882177532,-8.631353005450963,0.21528191445590927
1791103782858580200,10.112580322265625,-4.644962233105302,-8.633920225590467,0.22391968668075277
1791103782868552200,10.12255224609375,-4.647941248916089,-8.631953893953561,0.23750163730951024
1791103782878524400,10.1325244140625,-4.63503500559181,-8.638598154273629,0.24789264640985056
1791103782888496000,10.14249609375,-4.624237132723629,-8.644009073406457,0.2606074405489489
1791103782898468400,10.15246826171875,-4.625032082493603,-8.643124691787362,0.27542992929071186
1791103782908439000,10.16243896484375,-4.616975909548998,-8.646884336581826,0.29207570620318873
1791103782918411300,10.172411376953125,-4.616920087708532,-8.646244869634508,0.3112732499577105
1791103782928383200,10.18238330078125,-4.605224973739683,-8.651665725639463,0.3331171617688611
1791103782938355200,10.192355224609376,-4.612753615678846,-8.64670956453681,0.3567920153342187
1791103782948327400,10.202327392578125,-4.603388113701343,-8.650709447827934,0.38003282486386597
1791103782958299100,10.212299072265624,-4.5982788078635926,-8.652308115196227,0.4047054207623005
1791103782968271400,10.222271240234376,-4.601176867392659,-8.649726866531372,0.4263574997957796
1791103782978242000,10.232241943359375,-4.601598307675123,-8.648483588472008,0.4465512697797268
1791103782988214300,10.24221435546875,-4.6086157852217555,-8.643551392766833,0.4691253224963322
1791103782998186000,10.25218603515625,-4.620083812436461,-8.63604262457192,0.4939380940504372
1791103783008158200,10.262158203125,-4.6246986127555365,-8.63197785935104,0.5210599462645128
1791103783018130200,10.272130126953124,-4.638817154479026,-8.622805541858076,0.5467879695000126
1791103783028102100,10.28210205078125,-4.6465664534315465,-8.617105284389853,0.5703442747196182
1791103783038073300,10.2920732421875,-4.663715448892116,-8.606191091665625,0.5946577549820765
1791103783048045000,10.302045166015626,-4.667970768249035,-8.602108790788053,0.6198100606888532
1791103783058017300,10.312017333984375,-4.666132154645026,-8.601103413137793,0.6469942740820348
1791103783067989000,10.321989013671875,-4.674702706852555,-8.594611713030934,0.6709620827119797
1791103783077961200,10.331961181640626,-4.6805485102713105,-8.589169229716061,0.6993085448175669
1791103783087933200,10.34193310546875,-4.668721294355392,-8.593173789182305,0.728548813957721
1791103783097905200,10.3519052734375,-4.6660129121795295,-8.592181855535507,0.7570443291451782
1791103783107876400,10.36187646484375,-4.650674765533209,-8.597625507894158,0.7889462917752563
1791103783117848000,10.37184814453125,-4.633026880639791,-8.60437439763248,0.818644899142161
1791103783127820300,10.3818203125,-4.627700132659077,-8.60457781125009,0.8461704002536833
1791103783137792000,10.3917919921875,-4.628628061158955,-8.600856744900346,0.8783222459916025
1791103783147764200,10.40176416015625,-4.642318732859194,-8.589976454445718,0.9119071932725608
1791103783157736200,10.411736083984374,-4.640717142881453,-8.587512110158801,0.9427500022385269
1791103783167708200,10.421708251953126,-4.641572298406064,-8.583865278089046,0.9713166099008173
1791103783177679400,10.431679443359375,-4.643690021212398,-8.57912012938857,1.002609866048023
1791103783187651000,10.441651123046874,-4.658823000675439,-8.567154381784796,1.0342208098422736
1791103783197623300,10.451623291015625,-4.642335683993995,-8.571066586792469,1.075141726034507
1791103783207595000,10.461594970703125,-4.64998152257204,-8.561368784120678,1.118487677416578
1791103783217567200,10.471567138671874,-4.668046756094694,-8.545538177782296,1.1634005858544259
1791103783227539200,10.481539306640625,-4.677021505188942,-8.534599435138702,1.2068427641525863
1791103783237511200,10.49151123046875,-4.705489474782348,-8.513308225306869,1.2459249206103384
1791103783247482400,10.501482421875,-4.715136424049735,-8.502250240197776,1.2843725785568356
1791103783257454000,10.5114541015625,-4.720873798657953,-8.493225806742906,1.322441174057871
1791103783267426300,10.52142626953125,-4.738441019530594,-8.478086689800023,1.3563205011755228
1791103783277398000,10.53139794921875,-4.730760401900112,-8.476431908330321,1.3929782069653271
1791103783287370200,10.541370361328125,-4.722655421377718,-8.47486714323163,1.4295304065540433
1791103783297342200,10.55134228515625,-4.714151504665613,-8.473271398472786,1.4665714125730096
1791103783307313200,10.561313232421876,-4.70064466509968,-8.474229429849983,1.503910817016661
1791103783317285400,10.571285400390625,-4.692792782555521,-8.472319796836375,1.5387912840008735
1791103783327257000,10.581257080078124,-4.674821072535217,-8.476058398842811,1.5725350020401179
1791103783337229300,10.591229248046876,-4.666069610802829,-8.474687110489606,1.6055721792452036
1791103783347201000,10.601200927734375,-4.665139928737283,-8.468615681621431,1.6399442583158612
1791103783357173200,10.61117333984375,-4.658123912495374,-8.465586104667187,1.6751511807754635
1791103783367144700,10.621144775390626,-4.67762122464776,-8.448046356323362,1.7090208632819353
1791103783377115600,10.63111572265625,-4.688472873529792,-8.435175768834352,1.7425354487404225
1791103783387088000,10.641087890625,-4.713766012479365,-8.414015491905808,1.7762731754302978
1791103783397059800,10.651059814453125,-4.7292046968907115,-8.398526246351004,1.808251345101744
1791103783407031800,10.66103173828125,-4.747005726519227,-8.38122206032872,1.8415823906868696
1791103783417003800,10.671003662109374,-4.75386216828525,-8.368768821468949,1.8801269331365822
1791103783426975700,10.680975830078125,-4.758838787654042,-8.356192248490451,1.9229896310463546
1791103783436947700,10.69094775390625,-4.758682428048551,-8.347476442593335,1.9608581739306448
1791103783446918700,10.700918701171876,-4.76816834153533,-8.334125378111004,1.9943164991572497
1791103783456891000,10.710890869140625,-4.775023321996629,-8.322599190968274,2.025803670441359
1791103783466862800,10.72086279296875,-4.794016191758216,-8.304300148689746,2.0558196001291273
1791103783476834800,10.730834716796876,-4.8018128369838,-8.292216912186145,2.0861717760339378
1791103783486806800,10.740806884765625,-4.819854981891811,-8.275076392292975,2.112460648022592
1791103783496778800,10.75077880859375,-4.853706105828285,-8.248930143645405,2.137070773144066
1791103783506750700,10.760750732421876,-4.871798811879754,-8.231363507294654,2.163471142683178
1791103783516721700,10.7707216796875,-4.883183836986124,-8.218906761303543,2.1850566592864693
1791103783526694000,10.78069384765625,-4.900528939540684,-8.204069257655739,2.201919823542982
1791103783536665900,10.790665771484376,-4.912634095615148,-8.19271199733913,2.2171794981256125
1791103783546637800,10.800637939453125,-4.932260002583265,-8.176849826818705,2.2321103791452943
1791103783556609800,10.81060986328125,-4.927715344890951,-8.172576387283206,2.257655447029322
1791103783566581800,10.820581787109376,-4.9274575707376,-8.165454572579264,2.283836328598857
1791103783576553000,10.830552978515625,-4.915850135052204,-8.1632082549572,2.3166426196575163
1791103783586524700,10.840524658203124,-4.9005230943217875,-8.16346661363244,2.3479935973413286
1791103783596497000,10.850496826171875,-4.884301735100149,-8.165997008892893,2.372863396312296
1791103783606468900,10.86046875,-4.875352120447158,-8.168301778703928,2.383311725090444
1791103783616440800,10.87044091796875,-4.879970427897573,-8.16402600108087,2.388505494341254
1791103783626412800,10.880412841796876,-4.904570031625032,-8.149491864293813,2.387750292059779
1791103783636384800,10.890384765625,-4.917558108013868,-8.140445219007134,2.3918913373872637
1791103783646356000,10.90035595703125,-4.920900404179096,-8.136530091390012,2.3983321840897203
1791103783656327700,10.91032763671875,-4.916474404430389,-8.13715202268064,2.405288871359825
1791103783666300000,10.9202998046875,-4.928955700340866,-8.128471288096904,2.4090958624273537
1791103783676271900,10.93027197265625,-4.940564305070042,-8.120615313899517,2.411806582690775
1791103783686243800,10.940243896484375,-4.930159230911731,-8.126379284253716,2.413682751826197
1791103783696215800,10.9502158203125,-4.942201550883055,-8.12073923254013,2.408032032588124
1791103783706187800,10.960187744140624,-4.94633236707747,-8.116295697134733,2.414521832998842
1791103783716159000,10.970158935546875,-4.952931619212031,-8.110418914055824,2.4207353006862102
1791103783726130700,10.980130615234375,-4.960479550373554,-8.105131913563609,2.4229887787014244
1791103783736103000,10.99010302734375,-4.972588505840301,-8.09675688392818,2.426165947432816
1791103783746075000,11.000074951171875,-4.962554603081942,-8.09962571736276,2.4371074665553865
1791103783756046800,11.010046875,-4.967675014835596,-8.093688728529214,2.4463851441189646
1791103783766018800,11.020018798828126,-4.956520583614707,-8.096694924607872,2.4590286448538303
1791103783775989800,11.02998974609375,-4.9499949812382456,-8.097385829481482,2.46987357173413
1791103783785962000,11.0399619140625,-4.914427993294597,-8.114724502295255,2.483954411795735
1791103783795933700,11.04993359375,-4.881639822414517,-8.129770095735788,2.4993621165469286
1791103783805906000,11.059906005859375,-4.859579674036801,-8.139564344519377,2.510449035489559
1791103783815878000,11.0698779296875,-4.837322541782259,-8.151856255337595,2.5135496318534014
1791103783825849900,11.079849853515626,-4.843270344270765,-8.147556512317061,2.5160358957111835
1791103783835821800,11.08982177734375,-4.8779143721506,-8.125862566903233,2.519262748803198
1791103783845792800,11.099792724609374,-4.92281354432404,-8.095494316646457,2.5296760062679646
1791103783855765000,11.109764892578125,-4.953006438013911,-8.074071589389442,2.539188515500724
1791103783865736700,11.11973681640625,-4.978587453994154,-8.056534179133177,2.5448575010478494
1791103783875709000,11.129708984375,-4.9985687502712,-8.04192463902235,2.551887838076055
1791103783885681000,11.139680908203125,-5.024349672737717,-8.02146520383954,2.565617965003848
1791103783895652900,11.14965283203125,-5.048482827997208,-8.002581639671325,2.577188283549249
1791103783905624800,11.159624755859374,-5.08547955648303,-7.9764032423198215,2.585591370235383
1791103783915595800,11.169595703125,-5.104272519758344,-7.958430947777629,2.60387463042289
1791103783925567700,11.179567626953125,-5.132592605313659,-7.933766462120413,2.623398830582201
1791103783935539700,11.189539794921876,-5.19976761444211,-7.884304219815134,2.640181038556993
1791103783945512000,11.199511962890625,-5.20181870175302,-7.873353202211856,2.668667420589924
1791103783955484000,11.20948388671875,-5.242684965148568,-7.841106298601627,2.6835966941744087
1791103783965456000,11.219455810546876,-5.275107225325703,-7.812707302591204,2.7028192810386416
1791103783975426800,11.2294267578125,-5.295011364713311,-7.792749387189746,2.7214491627067328
1791103783985398800,11.239398681640624,-5.314703907176852,-7.771325490888953,2.744232949183881
1791103783995370800,11.249370849609376,-5.31621781887114,-7.762457709300517,2.766308879652619
1791103784005342700,11.2593427734375,-5.324210571190714,-7.752362431743741,2.7792180455863473
1791103784015315000,11.26931494140625,-5.339850623393058,-7.743536735731363,2.773810341323912
1791103784025287000,11.279286865234376,-5.336462734520435,-7.747815435963869,2.768373995488882
1791103784035259000,11.2892587890625,-5.357100448879599,-7.737168954265117,2.758273164974153
1791103784045229800,11.299229736328124,-5.39732666080594,-7.712450692594051,2.7490613922536373
1791103784055201800,11.309201904296875,-5.42793222694993,-7.692928246000409,2.7434987896904346
1791103784065173800,11.319173828125,-5.462116236102581,-7.668757096818089,2.7433260634720322
1791103784075145700,11.329145751953124,-5.470288436642289,-7.659614589941501,2.7525708616793154
1791103784085117700,11.33911767578125,-5.492866179153323,-7.640770773261785,2.759967986193299
1791103784095090000,11.34908984375,-5.512371090090275,-7.623297660413384,2.7693855106189846
1791103784105062000,11.359061767578124,-5.488678664335608,-7.635873064348101,2.7817688991129397
1791103784115032800,11.36903271484375,-5.455950699210167,-7.655896446201205,2.7910993297770617
1791103784125004800,11.3790048828125,-5.426760845082998,-7.672133879774808,2.8033938709437844
1791103784134976800,11.388976806640626,-5.384548427775502,-7.69721571406126,2.8160069765403866
1791103784144948700,11.39894873046875,-5.347106878131628,-7.722040358716249,2.819385513062775
1791103784154920700,11.408920654296875,-5.321493128925562,-7.743060934913158,2.8101804623439905
1791103784164893000,11.418892822265626,-5.309573558551072,-7.755670241117477,2.7979274222314356
1791103784174864000,11.42886376953125,-5.297459342387318,-7.7682859770625825,2.7858643517330286
1791103784184835800,11.4388359375,-5.288291116547584,-7.777928834676742,2.7763626561552286
1791103784194807800,11.448807861328126,-5.287545266616344,-7.7802803662389515,2.771186422561109
1791103784204779800,11.45877978515625,-5.274322212427855,-7.790678426134586,2.767173095266521
1791103784214751700,11.468751708984374,-5.246368622097373,-7.812751141732931,2.7580668287470935
1791103784224723700,11.4787236328125,-5.202938645693659,-7.846856240430474,2.7434754088148474
1791103784234696000,11.488696044921875,-5.178191157928109,-7.869107235205173,2.7265155061855912
1791103784244667000,11.4986669921875,-5.152749258157611,-7.88891902013421,2.7174451877623795
1791103784254638800,11.508638916015625,-5.0656309466749425,-7.944457367482781,2.719441330015659
1791103784264610800,11.51861083984375,-5.070201323330402,-7.945400201290846,2.7081442754536864
1791103784274582800,11.528582763671874,-5.0124973223805425,-7.981613670444488,2.7090760033458468
1791103784284554800,11.5385546875,-4.992357036149501,-7.998385357025265,2.6967729866117236
1791103784294526700,11.548526611328125,-4.9396115343898535,-8.034846078938246,2.685491421879828
1791103784304499000,11.5584990234375,-4.925796944049001,-8.04884304010868,2.668900352562964
1791103784314470000,11.568469970703125,-4.891970662292838,-8.069425809410214,2.668965526753664
1791103784324441900,11.57844189453125,-4.872350892804563,-8.080299670124054,2.671952725870907
1791103784334413800,11.588413818359374,-4.85636275781691,-8.088554872772097,2.6760829575434326
1791103784344385800,11.5983857421875,-4.857084934611618,-8.08786221433282,2.6768603716567156
1791103784354357800,11.608357666015625,-4.846279462958872,-8.094318258604407,2.6769357749804854
1791103784364329700,11.618329833984374,-4.834442602431774,-8.101933994305133,2.675296775601804
1791103784374300700,11.62830078125,-4.830693479031324,-8.106514892354607,2.668183436465263
1791103784384273000,11.63827294921875,-4.840272623759508,-8.102772198694943,2.66218448831141
1791103784394244600,11.64824462890625,-4.852050155314803,-8.097281784585117,2.6574478151783345
1791103784404216800,11.658216796875,-4.872618603830039,-8.08558140991926,2.6554391057044264
1791103784414188500,11.6681884765625,-4.889515085834264,-8.077053235548734,2.650328923083842
1791103784424160800,11.678160888671876,-4.8775078371763225,-8.083900324964523,2.651576000535488
1791103784434132700,11.6881328125,-4.872106270393729,-8.087356018376349,2.6509675132483244
1791103784444103700,11.698103759765624,-4.855509063597023,-8.097683351123333,2.6498966691464183
1791103784454076000,11.708075927734376,-4.854585226750373,-8.100809374189376,2.6420211134657263
1791103784464047600,11.718047607421875,-4.8374967293053865,-8.115904067468643,2.626995101508498
1791103784474019800,11.728019775390624,-4.841008829079568,-8.120337081480026,2.606749016815424
1791103784483991600,11.737991455078125,-4.869948215577006,-8.111223800697923,2.5810908439457414
1791103784493963800,11.7479638671875,-4.883329675197601,-8.1090429495275,2.56259306422472
1791103784503934700,11.757934814453124,-4.893263916973769,-8.109594153669477,2.5418159413948653
1791103784513906700,11.76790673828125,-4.923443074399232,-8.09951816533506,2.515530868798494
1791103784523879000,11.77787890625,-4.938706694504618,-8.097513839775324,2.491957100987434
1791103784533850600,11.7878505859375,-4.947922851139307,-8.097712577217816,2.4729507872223855
1791103784543822800,11.79782275390625,-4.960665428334474,-8.095425927585364,2.4548472675159574
1791103784553794600,11.807794677734375,-4.980859490579366,-8.08735660289824,2.4405114297799764
1791103784563766800,11.817766845703124,-4.982255328851938,-8.089417627081275,2.430808950933069
1791103784573737700,11.82773779296875,-4.968851072877645,-8.102296982398629,2.4153046539396046
1791103784583709700,11.837709716796875,-4.991174548366666,-8.095697730264067,2.391286795622855
1791103784593682000,11.847681884765626,-4.996441090592742,-8.098668855029343,2.370129879695177
1791103784603653600,11.857653564453125,-4.984098910892009,-8.112638928192853,2.348236612316966
1791103784613625900,11.8676259765625,-4.978072490209341,-8.122685105910897,2.326190492464602
1791103784623597600,11.87759765625,-4.964406952950358,-8.136453519022464,2.307199522399157
1791103784633569800,11.88756982421875,-4.955696407750248,-8.146785527944564,2.2893983466401693
1791103784643540700,11.897540771484374,-4.924052730730176,-8.170493151268362,2.2731354863643647
1791103784653512700,11.9075126953125,-4.924069681864976,-8.176672716686129,2.250764810732752
1791103784663485000,11.91748486328125,-4.909578215175867,-8.191820601457357,2.227219684494287
1791103784673456600,11.92745654296875,-4.904264911198616,-8.203972227022051,2.1939479678809644
1791103784683428900,11.937428955078126,-4.895450613363087,-8.217115786233544,2.1642462187089024
1791103784693400600,11.947400634765625,-4.877999712346494,-8.233989764145017,2.1393724742151794
1791103784703371800,11.957371826171874,-4.869153850328922,-8.244756657353044,2.1179512082628906
1791103784713343700,11.96734375,-4.882292733365297,-8.242033369868993,2.09820678948164
1791103784723315700,11.977315673828125,-4.899736035597324,-8.237126893126964,2.076703982725739
1791103784733288000,11.987287841796874,-4.893254564623534,-8.24729640496373,2.0514757257059215
1791103784743259600,11.997259765625,-4.848062839244306,-8.28247234776318,2.0167586325898768
1791103784753232000,12.00723193359375,-4.858622519442439,-8.285130168795584,1.98010019614771
1791103784763203600,12.01720361328125,-4.828869770735502,-8.309207209953666,1.9517893168121576
1791103784773174800,12.0271748046875,-4.830684126681089,-8.315546934369205,1.920044225244224
1791103784783146500,12.037146484375,-4.814268706192076,-8.329550325280428,1.900470194593817
1791103784793118700,12.04711865234375,-4.803533084905148,-8.338411677128075,1.8887382557459174
1791103784803090700,12.057090576171875,-4.819857027718425,-8.33296042598486,1.8711320180371402
1791103784813062700,12.067062744140625,-4.827459319415688,-8.333227552488445,1.8502303920447825
1791103784823035000,12.077034912109376,-4.816868075035512,-8.345463349205255,1.8224692555464803
1791103784833006600,12.087006591796875,-4.808745558856427,-8.356771509683131,1.7918473227895795
1791103784842977800,12.096977783203124,-4.818320904192328,-8.357658813911677,1.761732462771982
1791103784852949500,12.106949462890626,-4.798074527238309,-8.374225333309173,1.7381635172665117
1791103784862921700,12.116921630859375,-4.78557686471492,-8.385847966563702,1.7164504287607967
1791103784872893700,12.126893798828124,-4.780462298180162,-8.39204156050682,1.7003554723978043
1791103784882865700,12.13686572265625,-4.774642213724554,-8.397501579478382,1.689715712700784
1791103784892838000,12.146837890625,-4.765107492659986,-8.406275253042578,1.672926344332844
1791103784902808600,12.15680859375,-4.766598023478687,-8.41002379192114,1.649675524865836
1791103784912780800,12.16678076171875,-4.770394200891256,-8.411292788943648,1.632142206262797
1791103784922752500,12.17675244140625,-4.771873625794052,-8.412991994076966,1.6190071226187048
1791103784932724700,12.186724853515624,-4.7607741396307945,-8.421312078654765,1.6083879673182964
1791103784942696700,12.19669677734375,-4.753550325857103,-8.428032326820492,1.5944968046098946
1791103784952668700,12.206668701171875,-4.749372455650568,-8.432729544726014,1.5820583249278366
1791103784962640600,12.216640625,-4.757646362999082,-8.431457625094056,1.5638747257225214
1791103784972611600,12.226611572265625,-4.746850535957515,-8.440935063013434,1.5454472347587347
1791103784982583800,12.236583740234375,-4.740483339013159,-8.447046823891997,1.5315386825241148
1791103784992555500,12.246555419921876,-4.740631515312194,-8.448466627562045,1.5232278041660785
1791103785002527700,12.25652783203125,-4.732633502295613,-8.453778762495517,1.5186131499774753
1791103785012499700,12.266499755859375,-4.71863361851573,-8.462834175610542,1.511723244333267
1791103785022471700,12.2764716796875,-4.706034249183535,-8.470299104663729,1.5091938719861209
1791103785032443000,12.28644287109375,-4.702329549446702,-8.473238080725073,1.5042387337967753
1791103785042414600,12.29641455078125,-4.688482225880026,-8.482276542705296,1.4964933803670109
1791103785052386800,12.30638671875,-4.675319669707119,-8.49008750871718,1.4933831393919885
1791103785062358500,12.316358642578125,-4.670936340056359,-8.49238058809042,1.4940527092166245
1791103785072330800,12.326330810546875,-4.664237426939606,-8.496188748201728,1.4933394463807343
1791103785082302700,12.336302734375,-4.684035475604236,-8.485950262781977,1.4895784864120185
1791103785092274700,12.346274658203125,-4.694783664111792,-8.480072310659288,1.489215059927106
1791103785102246000,12.356245849609374,-4.699042198339105,-8.477734807622433,1.489088949329406
1791103785112217600,12.366217529296875,-4.714907291468978,-8.46916045602262,1.4877334430672227
1791103785122189800,12.37618994140625,-4.730483046263456,-8.460470369088648,1.4877319817624985
1791103785132161500,12.38616162109375,-4.745510811786353,-8.451167118692398,1.4927449876189232
1791103785142133800,12.3961337890625,-4.741406883598864,-8.451849255737661,1.501898600411415
1791103785152105700,12.406105712890625,-4.7450110455706715,-8.448888067844509,1.5071668962031601
1791103785162077700,12.41607763671875,-4.753820667231083,-8.443119421315192,1.5117258746817708
1791103785172049000,12.426048828125,-4.769783667777478,-8.433758303251862,1.513696590232849
1791103785182020600,12.4360205078125,-4.781905190464854,-8.427377077782154,1.5109892309702933
1791103785191992800,12.445992919921874,-4.778850771330297,-8.429392509257793,1.5094079531282185
1791103785201964500,12.455964599609375,-4.775059854614734,-8.431563423556089,1.509275412789732
1791103785211936800,12.465936767578125,-4.784496960523724,-8.426701370477677,1.506541603911668
1791103785221908700,12.47590869140625,-4.784100362421572,-8.427659986376762,1.5024382602460682
1791103785231879700,12.485879638671875,-4.775001402425766,-8.433771162733436,1.4970819939099251
1791103785241852000,12.495851806640625,-4.794687807409465,-8.423115913206338,1.4941493014588951
1791103785251823600,12.50582373046875,-4.804946751095354,-8.417958092051745,1.4902574085868894
1791103785261795800,12.5157958984375,-4.819988545143604,-8.411559915447235,1.477755069888383
1791103785271767600,12.525767578125,-4.827740474444627,-8.409538638752698,1.4638916719697415
1791103785281739800,12.53573974609375,-4.835165948270261,-8.407971535566448,1.4483056880421936
1791103785291711700,12.545711669921875,-4.839294718638063,-8.407478783613444,1.4373307050414383
1791103785301682700,12.5556826171875,-4.842996788026392,-8.406986031660438,1.4277080134324729
1791103785311655000,12.565655029296876,-4.855329615376889,-8.401670389595628,1.4170653311260044
1791103785321626600,12.575626708984375,-4.859996730405092,-8.401074761790037,1.4045511558592318
1791103785331598800,12.585598876953124,-4.846649173054098,-8.410624680423735,1.393473735397309
1791103785341570600,12.595570556640626,-4.854553370307386,-8.409203123188018,1.3744092617042363
1791103785351542800,12.605542724609375,-4.858619304572046,-8.409552667278051,1.357801095122099
1791103785361513700,12.615513671875,-4.844440557093918,-8.420434711298347,1.34092068746984
1791103785371486000,12.62548583984375,-4.83247276366353,-8.429477264931798,1.3272194943755864
